SpectraSuite Data File
++++++++++++++++++++++++++++++++++++
Date: Wed Sep 04 17:45:51 EDT 2013
User: lab3
Dark Spectrum Present: Yes
Reference Spectrum Present: No
Number of Sampled Component Spectra: 1
Spectrometers: USB2E7196
Integration Time (usec): 170000 (USB2E7196)
Spectra Averaged: 20 (USB2E7196)
Boxcar Smoothing: 10 (USB2E7196)
Correct for Electrical Dark: No (USB2E7196)
Strobe/Lamp Enabled: No (USB2E7196)
Correct for Detector Non-linearity: No (USB2E7196)
Correct for Stray Light: No (USB2E7196)
Number of Pixels in Processed Spectrum: 2048
>>>>>Begin Processed Spectral Data<<<<<
339.09	0.00
339.48	212.45
339.86	213.20
340.24	215.25
340.63	217.30
341.01	225.20
341.39	219.05
341.78	220.95
342.16	224.35
342.54	222.80
342.93	211.79
343.31	222.47
343.69	223.03
344.07	223.52
344.46	224.01
344.84	224.42
345.22	224.42
345.60	224.73
345.99	224.91
346.37	225.01
346.75	225.12
347.13	225.22
347.52	225.35
347.90	225.58
348.28	225.63
348.66	225.73
349.05	225.64
349.43	225.65
349.81	225.76
350.19	225.75
350.57	225.78
350.96	225.88
351.34	226.00
351.72	226.11
352.10	226.26
352.48	226.31
352.87	226.35
353.25	226.43
353.63	226.50
354.01	226.54
354.39	226.62
354.77	226.71
355.15	226.87
355.54	226.85
355.92	226.75
356.30	226.88
356.68	227.28
357.06	227.40
357.44	227.44
357.82	227.51
358.20	227.99
358.58	228.01
358.97	228.05
359.35	228.17
359.73	228.31
360.11	228.38
360.49	228.42
360.87	228.44
361.25	228.52
361.63	228.70
362.01	228.85
362.39	228.84
362.77	228.89
363.15	228.94
363.53	229.01
363.91	229.07
364.29	229.07
364.67	228.64
365.05	228.67
365.43	228.70
365.81	228.77
366.19	228.60
366.57	228.89
366.95	228.91
367.33	228.81
367.71	228.87
368.09	228.90
368.47	228.91
368.85	228.93
369.23	229.04
369.61	228.83
369.99	228.97
370.37	229.01
370.75	229.29
371.13	229.13
371.51	229.08
371.89	229.13
372.27	229.16
372.65	229.19
373.03	229.21
373.41	229.25
373.78	229.12
374.16	228.87
374.54	228.64
374.92	228.63
375.30	228.66
375.68	228.45
376.06	228.50
376.44	228.42
376.82	228.42
377.19	228.30
377.57	228.26
377.95	228.09
378.33	227.97
378.71	227.55
379.09	227.56
379.47	227.53
379.84	227.42
380.22	227.30
380.60	227.14
380.98	226.99
381.36	226.93
381.73	226.86
382.11	226.90
382.49	226.87
382.87	226.74
383.25	226.64
383.62	227.11
384.00	226.97
384.38	226.91
384.76	226.94
385.13	227.07
385.51	226.98
385.89	226.88
386.27	226.87
386.64	226.92
387.02	226.80
387.40	226.71
387.78	226.69
388.15	226.67
388.53	226.63
388.91	226.64
389.29	226.44
389.66	226.45
390.04	226.34
390.42	226.46
390.79	226.47
391.17	226.44
391.55	225.97
391.92	225.90
392.30	225.93
392.68	225.86
393.05	225.76
393.43	225.90
393.81	225.89
394.18	225.80
394.56	225.84
394.94	225.98
395.31	226.03
395.69	226.18
396.06	226.22
396.44	226.30
396.82	226.27
397.19	226.60
397.57	226.60
397.95	226.74
398.32	226.58
398.70	226.67
399.07	226.83
399.45	226.78
399.82	226.85
400.20	226.90
400.58	226.95
400.95	226.87
401.33	227.03
401.70	227.51
402.08	227.67
402.45	227.80
402.83	228.00
403.20	228.06
403.58	228.13
403.95	228.37
404.33	228.60
404.71	228.84
405.08	229.27
405.46	229.54
405.83	229.76
406.21	230.03
406.58	230.28
406.96	230.57
407.33	231.00
407.70	231.47
408.08	232.20
408.45	232.63
408.83	233.13
409.20	233.39
409.58	233.47
409.95	234.07
410.33	234.57
410.70	234.92
411.08	235.60
411.45	236.23
411.82	236.80
412.20	237.53
412.57	238.56
412.95	238.91
413.32	239.73
413.69	240.55
414.07	241.41
414.44	242.37
414.82	243.36
415.19	244.52
415.56	245.68
415.94	246.71
416.31	248.09
416.68	249.54
417.06	251.20
417.43	252.84
417.81	254.50
418.18	256.35
418.55	258.30
418.93	260.27
419.30	262.29
419.67	264.50
420.04	266.63
420.42	268.83
420.79	271.82
421.16	274.56
421.54	277.51
421.91	280.45
422.28	283.45
422.66	286.55
423.03	290.01
423.40	293.17
423.77	296.61
424.15	300.15
424.52	303.81
424.89	307.87
425.26	311.80
425.64	315.55
426.01	319.65
426.38	323.90
426.75	328.42
427.13	333.04
427.50	337.68
427.87	342.50
428.24	347.35
428.61	351.76
428.99	356.95
429.36	362.28
429.73	367.63
430.10	373.05
430.47	378.66
430.85	384.08
431.22	390.18
431.59	396.96
431.96	403.15
432.33	409.81
432.70	416.41
433.08	423.96
433.45	431.24
433.82	438.40
434.19	446.50
434.56	454.27
434.93	461.69
435.30	469.22
435.68	477.76
436.05	486.00
436.42	494.15
436.79	501.82
437.16	510.00
437.53	518.66
437.90	527.25
438.27	535.77
438.64	544.58
439.01	552.81
439.38	559.80
439.75	566.56
440.13	574.59
440.50	581.90
440.87	587.84
441.24	594.10
441.61	601.02
441.98	606.05
442.35	611.98
442.72	617.86
443.09	623.58
443.46	626.88
443.83	629.20
444.20	631.01
444.57	633.59
444.94	634.66
445.31	635.81
445.68	637.10
446.05	637.20
446.42	635.88
446.79	634.37
447.16	632.64
447.53	631.67
447.90	627.95
448.27	624.24
448.64	619.54
449.01	615.70
449.37	609.57
449.74	603.42
450.11	596.55
450.48	589.07
450.85	581.28
451.22	574.63
451.59	568.12
451.96	562.15
452.33	554.10
452.70	547.00
453.07	538.49
453.43	529.46
453.80	521.19
454.17	513.15
454.54	505.58
454.91	497.63
455.28	489.68
455.65	482.43
456.02	475.88
456.38	469.69
456.75	462.23
457.12	455.84
457.49	449.80
457.86	443.55
458.23	438.46
458.59	432.82
458.96	427.12
459.33	422.15
459.70	417.00
460.07	413.06
460.43	408.43
460.80	404.34
461.17	400.86
461.54	396.97
461.91	393.39
462.27	389.67
462.64	386.37
463.01	382.88
463.38	379.62
463.74	375.61
464.11	372.61
464.48	370.02
464.85	367.29
465.21	365.17
465.58	362.94
465.95	360.05
466.32	357.92
466.68	355.75
467.05	353.53
467.42	351.40
467.78	349.07
468.15	347.00
468.52	345.32
468.88	343.00
469.25	341.08
469.62	339.66
469.98	338.10
470.35	336.69
470.72	335.35
471.08	333.74
471.45	332.61
471.82	331.39
472.18	330.07
472.55	329.10
472.92	327.80
473.28	326.76
473.65	325.68
474.02	324.60
474.38	323.70
474.75	322.93
475.11	322.16
475.48	321.59
475.85	320.96
476.21	320.34
476.58	319.97
476.94	319.78
477.31	319.36
477.67	318.82
478.04	318.52
478.41	318.24
478.77	318.51
479.14	318.15
479.50	318.16
479.87	318.20
480.23	318.18
480.60	318.09
480.96	318.00
481.33	318.44
481.69	318.78
482.06	319.03
482.42	319.36
482.79	319.67
483.15	320.10
483.52	320.63
483.88	321.10
484.25	321.64
484.61	322.17
484.98	322.77
485.34	323.80
485.71	324.76
486.07	325.70
486.44	326.26
486.80	327.39
487.17	328.50
487.53	329.85
487.90	331.25
488.26	333.11
488.62	334.90
488.99	336.36
489.35	337.97
489.72	339.87
490.08	341.77
490.44	343.87
490.81	346.11
491.17	348.33
491.54	350.90
491.90	353.40
492.26	356.06
492.63	358.95
492.99	361.82
493.36	364.87
493.72	368.19
494.08	371.62
494.45	375.22
494.81	379.04
495.17	383.06
495.54	387.20
495.90	391.19
496.26	395.50
496.63	400.19
496.99	404.84
497.35	409.85
497.72	415.02
498.08	420.51
498.44	426.13
498.80	432.01
499.17	437.91
499.53	444.19
499.89	450.76
500.26	457.48
500.62	464.40
500.98	471.56
501.34	478.95
501.71	486.67
502.07	494.48
502.43	502.55
502.79	510.73
503.16	519.35
503.52	528.32
503.88	537.51
504.24	547.01
504.60	557.14
504.97	567.29
505.33	577.75
505.69	588.65
506.05	599.52
506.41	610.78
506.78	622.28
507.14	634.19
507.50	646.30
507.86	658.61
508.22	671.28
508.59	684.19
508.95	697.66
509.31	711.65
509.67	725.83
510.03	739.93
510.39	754.39
510.75	769.12
511.12	784.16
511.48	799.42
511.84	814.89
512.20	830.46
512.56	846.34
512.92	863.07
513.28	879.53
513.64	896.58
514.00	913.64
514.37	931.02
514.73	948.79
515.09	966.72
515.45	984.72
515.81	1002.89
516.17	1021.45
516.53	1039.92
516.89	1058.07
517.25	1076.94
517.61	1096.80
517.97	1116.61
518.33	1136.28
518.69	1156.28
519.05	1176.37
519.41	1196.75
519.77	1217.62
520.13	1238.12
520.49	1258.16
520.85	1278.55
521.21	1299.25
521.57	1320.30
521.93	1340.91
522.29	1361.66
522.65	1381.97
523.01	1402.82
523.37	1423.26
523.73	1443.95
524.09	1464.07
524.45	1484.42
524.81	1505.01
525.17	1525.12
525.53	1545.10
525.89	1565.43
526.25	1585.80
526.61	1605.79
526.97	1626.07
527.33	1646.64
527.68	1667.84
528.04	1688.49
528.40	1709.13
528.76	1729.47
529.12	1749.20
529.48	1769.65
529.84	1789.10
530.20	1809.79
530.56	1829.67
530.91	1849.90
531.27	1869.74
531.63	1889.61
531.99	1909.58
532.35	1928.92
532.71	1948.23
533.07	1968.50
533.42	1987.92
533.78	2007.09
534.14	2026.39
534.50	2045.28
534.86	2064.25
535.21	2081.24
535.57	2099.20
535.93	2116.25
536.29	2133.40
536.65	2151.23
537.00	2167.95
537.36	2185.30
537.72	2200.71
538.08	2217.24
538.44	2233.35
538.79	2249.07
539.15	2265.08
539.51	2280.44
539.87	2294.86
540.22	2308.56
540.58	2322.27
540.94	2335.13
541.29	2347.22
541.65	2359.52
542.01	2371.07
542.37	2380.59
542.72	2391.42
543.08	2401.35
543.44	2412.45
543.79	2421.94
544.15	2430.95
544.51	2440.65
544.87	2449.54
545.22	2458.15
545.58	2465.71
545.94	2472.28
546.29	2477.91
546.65	2483.55
547.01	2488.85
547.36	2494.16
547.72	2499.18
548.07	2502.55
548.43	2507.15
548.79	2511.45
549.14	2514.77
549.50	2517.94
549.86	2521.80
550.21	2524.73
550.57	2527.83
550.92	2528.95
551.28	2530.03
551.64	2531.96
551.99	2533.39
552.35	2534.36
552.70	2536.16
553.06	2537.12
553.41	2538.01
553.77	2539.92
554.13	2540.98
554.48	2541.93
554.84	2542.62
555.19	2543.68
555.55	2545.13
555.90	2543.88
556.26	2542.39
556.61	2540.78
556.97	2538.39
557.32	2537.32
557.68	2535.79
558.03	2534.07
558.39	2532.19
558.74	2530.96
559.10	2527.54
559.45	2523.55
559.81	2518.91
560.16	2513.08
560.52	2507.78
560.87	2502.78
561.23	2497.04
561.58	2491.37
561.94	2484.37
562.29	2477.26
562.64	2470.22
563.00	2461.75
563.35	2455.34
563.71	2448.75
564.06	2442.27
564.42	2436.14
564.77	2428.86
565.12	2421.57
565.48	2413.75
565.83	2405.75
566.19	2397.82
566.54	2389.87
566.89	2381.76
567.25	2374.01
567.60	2367.27
567.96	2360.09
568.31	2352.65
568.66	2343.92
569.02	2334.85
569.37	2326.68
569.72	2319.30
570.08	2309.74
570.43	2300.47
570.78	2291.48
571.14	2282.40
571.49	2272.70
571.84	2263.46
572.20	2253.14
572.55	2242.87
572.90	2232.01
573.26	2222.07
573.61	2211.00
573.96	2200.08
574.31	2188.20
574.67	2176.75
575.02	2163.84
575.37	2151.33
575.72	2138.43
576.08	2126.78
576.43	2114.30
576.78	2101.64
577.13	2088.01
577.49	2075.72
577.84	2064.09
578.19	2052.24
578.54	2039.55
578.90	2027.41
579.25	2014.81
579.60	2002.27
579.95	1989.93
580.30	1977.21
580.66	1964.09
581.01	1950.96
581.36	1937.45
581.71	1925.43
582.06	1912.95
582.42	1901.17
582.77	1889.00
583.12	1877.22
583.47	1865.41
583.82	1853.82
584.17	1842.12
584.53	1830.69
584.88	1818.03
585.23	1805.20
585.58	1791.45
585.93	1778.76
586.28	1766.06
586.63	1752.47
586.98	1738.84
587.34	1726.00
587.69	1713.15
588.04	1700.80
588.39	1689.06
588.74	1677.27
589.09	1665.52
589.44	1653.11
589.79	1641.22
590.14	1629.39
590.49	1617.79
590.84	1606.00
591.19	1594.38
591.54	1582.54
591.89	1570.55
592.25	1560.68
592.60	1549.76
592.95	1538.72
593.30	1527.26
593.65	1515.54
594.00	1504.12
594.35	1494.77
594.70	1483.33
595.05	1472.47
595.40	1460.99
595.75	1449.47
596.10	1438.63
596.45	1427.35
596.80	1416.90
597.15	1406.04
597.50	1394.84
597.85	1383.81
598.19	1372.55
598.54	1361.31
598.89	1350.62
599.24	1340.67
599.59	1329.54
599.94	1319.05
600.29	1308.84
600.64	1299.05
600.99	1288.81
601.34	1279.63
601.69	1268.62
602.04	1258.86
602.39	1249.37
602.74	1240.64
603.08	1231.78
603.43	1222.96
603.78	1213.71
604.13	1204.46
604.48	1195.04
604.83	1185.63
605.18	1176.10
605.53	1166.74
605.87	1157.94
606.22	1149.72
606.57	1140.65
606.92	1131.66
607.27	1123.01
607.62	1114.95
607.96	1106.55
608.31	1098.94
608.66	1090.92
609.01	1082.82
609.36	1074.78
609.70	1066.65
610.05	1058.40
610.40	1050.15
610.75	1041.48
611.10	1033.63
611.44	1025.37
611.79	1017.39
612.14	1009.93
612.49	1002.39
612.83	995.19
613.18	987.62
613.53	980.01
613.88	972.37
614.22	964.87
614.57	957.25
614.92	949.78
615.27	942.32
615.61	934.83
615.96	927.39
616.31	920.02
616.65	913.31
617.00	906.30
617.35	899.08
617.70	892.14
618.04	885.45
618.39	878.55
618.74	872.34
619.08	865.85
619.43	859.08
619.78	852.34
620.12	845.40
620.47	839.02
620.82	832.03
621.16	825.33
621.51	819.38
621.85	813.38
622.20	806.77
622.55	800.72
622.89	794.49
623.24	788.50
623.59	782.51
623.93	776.36
624.28	770.48
624.62	765.19
624.97	759.68
625.32	754.09
625.66	748.31
626.01	742.45
626.35	736.98
626.70	731.66
627.04	726.54
627.39	721.30
627.73	716.19
628.08	711.28
628.43	706.20
628.77	700.77
629.12	695.60
629.46	691.00
629.81	686.36
630.15	681.67
630.50	676.89
630.84	672.14
631.19	667.60
631.53	663.13
631.88	657.98
632.22	653.31
632.57	649.11
632.91	644.93
633.26	640.60
633.60	636.20
633.95	631.78
634.29	627.17
634.64	622.90
634.98	618.22
635.32	614.09
635.67	610.21
636.01	606.32
636.36	602.23
636.70	598.33
637.05	594.31
637.39	590.47
637.73	586.50
638.08	582.74
638.42	578.54
638.77	574.39
639.11	570.36
639.45	566.24
639.80	561.93
640.14	557.94
640.49	554.06
640.83	550.43
641.17	546.78
641.52	543.30
641.86	540.01
642.20	537.07
642.55	533.50
642.89	529.97
643.23	526.52
643.58	523.50
643.92	519.95
644.26	516.61
644.61	513.48
644.95	510.30
645.29	507.13
645.64	504.14
645.98	501.13
646.32	498.37
646.66	495.38
647.01	492.55
647.35	489.88
647.69	487.10
648.04	484.41
648.38	481.76
648.72	479.00
649.06	476.01
649.41	472.98
649.75	470.03
650.09	467.56
650.43	464.83
650.78	461.85
651.12	459.27
651.46	456.54
651.80	453.90
652.14	451.34
652.49	448.86
652.83	446.40
653.17	444.04
653.51	441.42
653.85	439.12
654.20	436.81
654.54	434.27
654.88	431.95
655.22	429.78
655.56	427.45
655.90	425.15
656.25	422.99
656.59	420.79
656.93	418.81
657.27	416.61
657.61	414.31
657.95	412.25
658.29	410.01
658.64	408.08
658.98	405.89
659.32	403.70
659.66	401.59
660.00	399.59
660.34	397.42
660.68	395.43
661.02	393.40
661.36	391.42
661.70	389.50
662.05	387.53
662.39	385.54
662.73	383.81
663.07	382.33
663.41	380.54
663.75	378.73
664.09	376.81
664.43	374.93
664.77	373.37
665.11	371.67
665.45	370.13
665.79	368.56
666.13	366.84
666.47	365.29
666.81	363.68
667.15	362.00
667.49	360.69
667.83	359.46
668.17	358.03
668.51	356.62
668.85	355.26
669.19	354.16
669.53	352.75
669.87	351.27
670.21	349.60
670.55	348.29
670.89	347.20
671.23	345.98
671.57	344.67
671.91	343.31
672.25	342.06
672.58	340.81
672.92	339.42
673.26	338.33
673.60	337.10
673.94	335.99
674.28	334.97
674.62	333.82
674.96	332.52
675.30	331.40
675.64	330.25
675.97	329.13
676.31	327.86
676.65	326.68
676.99	325.81
677.33	324.81
677.67	323.78
678.01	322.48
678.34	321.46
678.68	320.56
679.02	319.62
679.36	318.66
679.70	317.67
680.04	316.71
680.37	315.71
680.71	314.78
681.05	313.85
681.39	312.97
681.73	311.96
682.06	311.08
682.40	310.25
682.74	309.44
683.08	308.70
683.42	307.78
683.75	307.08
684.09	306.09
684.43	305.23
684.77	304.41
685.10	303.61
685.44	302.84
685.78	301.95
686.12	301.08
686.45	300.28
686.79	299.49
687.13	298.87
687.46	298.19
687.80	297.53
688.14	296.78
688.48	295.92
688.81	295.32
689.15	294.69
689.49	293.97
689.82	293.35
690.16	292.43
690.50	291.79
690.83	291.07
691.17	290.39
691.51	289.75
691.84	289.14
692.18	288.47
692.52	287.77
692.85	287.24
693.19	286.91
693.52	286.23
693.86	285.55
694.20	284.85
694.53	284.31
694.87	283.61
695.21	282.92
695.54	282.41
695.88	281.58
696.21	280.81
696.55	280.16
696.88	279.43
697.22	278.87
697.56	278.40
697.89	277.76
698.23	277.25
698.56	276.71
698.90	276.19
699.23	275.65
699.57	275.20
699.90	274.60
700.24	273.86
700.58	273.40
700.91	273.09
701.25	273.01
701.58	272.78
701.92	272.46
702.25	272.07
702.59	271.59
702.92	271.29
703.26	270.88
703.59	270.43
703.93	270.50
704.26	270.21
704.60	269.70
704.93	269.29
705.26	268.82
705.60	268.46
705.93	267.99
706.27	267.78
706.60	267.54
706.94	267.40
707.27	267.00
707.61	266.66
707.94	266.30
708.27	265.59
708.61	264.93
708.94	264.49
709.28	264.12
709.61	263.70
709.94	263.35
710.28	263.00
710.61	262.73
710.95	261.94
711.28	261.91
711.61	261.54
711.95	261.38
712.28	261.02
712.61	260.68
712.95	260.65
713.28	260.52
713.61	260.08
713.95	259.62
714.28	259.39
714.61	258.96
714.95	258.54
715.28	258.13
715.61	257.76
715.95	257.48
716.28	257.16
716.61	256.95
716.95	256.59
717.28	256.32
717.61	256.05
717.94	255.79
718.28	255.14
718.61	254.86
718.94	254.42
719.27	254.16
719.61	253.96
719.94	253.51
720.27	252.95
720.60	252.61
720.94	252.37
721.27	252.06
721.60	252.00
721.93	251.80
722.27	251.70
722.60	251.61
722.93	251.41
723.26	251.27
723.59	251.04
723.93	250.93
724.26	250.78
724.59	250.56
724.92	250.36
725.25	250.28
725.59	250.07
725.92	250.02
726.25	249.86
726.58	249.70
726.91	249.54
727.24	249.43
727.57	249.27
727.91	248.94
728.24	248.87
728.57	248.57
728.90	248.48
729.23	248.21
729.56	248.21
729.89	248.02
730.22	247.74
730.55	247.47
730.89	247.30
731.22	247.05
731.55	246.83
731.88	246.61
732.21	246.27
732.54	246.05
732.87	245.82
733.20	245.65
733.53	245.43
733.86	245.23
734.19	244.98
734.52	244.90
734.85	245.13
735.18	244.77
735.51	244.77
735.84	244.67
736.17	244.54
736.50	244.15
736.83	244.48
737.16	244.32
737.49	244.18
737.82	244.00
738.15	243.86
738.48	243.72
738.81	243.61
739.14	243.45
739.47	243.28
739.80	243.07
740.13	242.89
740.46	242.65
740.79	242.40
741.12	242.33
741.45	242.14
741.78	241.70
742.11	241.83
742.44	241.59
742.77	241.42
743.10	241.35
743.43	241.22
743.75	240.59
744.08	241.08
744.41	240.92
744.74	240.74
745.07	240.62
745.40	240.52
745.73	240.59
746.06	240.47
746.39	240.42
746.71	240.28
747.04	240.17
747.37	240.07
747.70	240.13
748.03	240.04
748.36	239.97
748.68	239.83
749.01	239.50
749.34	239.34
749.67	239.23
750.00	239.09
750.33	239.33
750.65	239.34
750.98	238.68
751.31	238.60
751.64	238.55
751.97	238.67
752.29	238.55
752.62	238.27
752.95	238.22
753.28	238.07
753.60	237.97
753.93	237.95
754.26	237.94
754.59	237.65
754.91	237.49
755.24	237.37
755.57	237.32
755.90	237.25
756.22	237.19
756.55	236.97
756.88	236.85
757.20	236.32
757.53	236.03
757.86	235.95
758.19	235.91
758.51	235.84
758.84	235.53
759.17	235.45
759.49	235.34
759.82	235.38
760.15	235.38
760.47	235.32
760.80	235.12
761.13	235.07
761.45	235.02
761.78	234.97
762.11	234.84
762.43	234.74
762.76	234.68
763.08	234.65
763.41	234.60
763.74	234.51
764.06	234.44
764.39	234.42
764.71	234.34
765.04	234.21
765.37	234.02
765.69	233.90
766.02	233.78
766.34	233.70
766.67	233.52
767.00	233.51
767.32	233.68
767.65	233.91
767.97	233.74
768.30	233.69
768.62	233.55
768.95	233.48
769.27	233.37
769.60	233.33
769.92	233.10
770.25	233.00
770.57	232.79
770.90	232.73
771.22	232.56
771.55	232.43
771.87	232.34
772.20	232.30
772.52	232.60
772.85	233.13
773.17	233.01
773.50	232.86
773.82	232.68
774.15	232.34
774.47	231.96
774.80	231.91
775.12	231.80
775.45	231.72
775.77	231.69
776.09	231.68
776.42	231.55
776.74	231.64
777.07	231.52
777.39	231.55
777.72	231.49
778.04	231.47
778.36	231.39
778.69	231.42
779.01	231.45
779.33	230.99
779.66	230.36
779.98	230.29
780.31	230.27
780.63	230.46
780.95	230.50
781.28	230.40
781.60	230.27
781.92	230.32
782.25	230.33
782.57	230.24
782.89	230.13
783.22	230.10
783.54	229.99
783.86	230.00
784.19	229.89
784.51	230.01
784.83	229.94
785.16	229.87
785.48	229.74
785.80	229.67
786.12	229.70
786.45	229.73
786.77	229.72
787.09	229.68
787.42	229.45
787.74	229.42
788.06	229.43
788.38	229.48
788.71	229.38
789.03	229.36
789.35	229.43
789.67	229.33
789.99	229.33
790.32	229.28
790.64	229.31
790.96	229.80
791.28	229.59
791.61	229.63
791.93	229.71
792.25	229.77
792.57	230.06
792.89	229.97
793.21	230.03
793.54	230.03
793.86	229.97
794.18	230.05
794.50	229.95
794.82	229.92
795.14	229.89
795.47	229.96
795.79	229.98
796.11	229.81
796.43	229.87
796.75	229.90
797.07	229.92
797.39	229.89
797.71	229.55
798.04	229.56
798.36	229.55
798.68	229.50
799.00	229.45
799.32	229.16
799.64	229.26
799.96	229.11
800.28	229.20
800.60	229.17
800.92	229.17
801.24	229.16
801.56	229.25
801.89	229.29
802.21	229.28
802.53	229.22
802.85	229.40
803.17	229.60
803.49	229.50
803.81	229.42
804.13	229.45
804.45	229.28
804.77	229.38
805.09	229.30
805.41	229.29
805.73	229.17
806.05	229.10
806.37	229.08
806.69	229.05
807.01	228.95
807.33	229.05
807.65	228.85
807.97	229.06
808.28	228.96
808.60	228.88
808.92	228.77
809.24	229.02
809.56	228.87
809.88	228.70
810.20	228.72
810.52	228.82
810.84	228.70
811.16	228.66
811.48	228.52
811.80	228.74
812.12	228.69
812.43	228.77
812.75	228.76
813.07	228.62
813.39	228.69
813.71	228.63
814.03	228.53
814.35	228.44
814.67	228.21
814.98	228.12
815.30	228.08
815.62	227.95
815.94	227.58
816.26	227.71
816.58	227.59
816.89	227.57
817.21	227.48
817.53	227.47
817.85	227.42
818.17	227.44
818.48	227.22
818.80	227.41
819.12	227.33
819.44	227.21
819.76	227.21
820.07	227.14
820.39	227.10
820.71	227.06
821.03	227.09
821.34	226.98
821.66	227.05
821.98	227.08
822.30	227.08
822.61	227.35
822.93	227.12
823.25	227.10
823.57	227.00
823.88	227.03
824.20	227.05
824.52	227.12
824.83	227.11
825.15	227.05
825.47	226.84
825.79	226.86
826.10	226.88
826.42	226.89
826.74	226.90
827.05	226.90
827.37	226.92
827.69	226.96
828.00	227.05
828.32	227.09
828.64	226.98
828.95	227.33
829.27	227.18
829.58	227.22
829.90	227.25
830.22	227.30
830.53	227.19
830.85	227.10
831.17	227.02
831.48	227.00
831.80	227.03
832.11	227.06
832.43	227.01
832.75	227.01
833.06	227.29
833.38	227.18
833.69	227.10
834.01	227.14
834.32	227.08
834.64	226.99
834.96	226.97
835.27	227.00
835.59	226.78
835.90	226.75
836.22	226.75
836.53	226.64
836.85	226.66
837.16	227.14
837.48	227.14
837.79	227.35
838.11	227.40
838.42	227.35
838.74	227.40
839.05	227.41
839.37	227.39
839.68	227.12
840.00	227.08
840.31	227.20
840.63	227.14
840.94	227.12
841.26	227.11
841.57	227.11
841.88	227.18
842.20	227.11
842.51	227.00
842.83	227.00
843.14	227.50
843.46	227.42
843.77	227.15
844.08	227.18
844.40	226.95
844.71	226.90
845.03	226.90
845.34	226.84
845.65	226.81
845.97	226.83
846.28	226.80
846.60	226.86
846.91	226.77
847.22	226.82
847.54	227.00
847.85	227.00
848.16	226.93
848.48	226.90
848.79	227.07
849.10	227.15
849.42	227.19
849.73	226.81
850.04	226.82
850.36	226.61
850.67	226.66
850.98	226.68
851.30	226.69
851.61	226.64
851.92	226.70
852.23	226.86
852.55	226.87
852.86	226.86
853.17	226.94
853.49	227.10
853.80	227.17
854.11	227.19
854.42	227.30
854.74	227.24
855.05	227.22
855.36	226.98
855.67	227.02
855.99	227.04
856.30	227.49
856.61	227.48
856.92	227.58
857.23	227.54
857.55	227.45
857.86	227.44
858.17	227.57
858.48	227.44
858.79	227.32
859.11	227.37
859.42	227.37
859.73	227.28
860.04	227.18
860.35	227.02
860.66	226.86
860.98	226.86
861.29	226.90
861.60	226.81
861.91	226.93
862.22	226.84
862.53	226.67
862.84	226.11
863.16	226.25
863.47	226.16
863.78	226.16
864.09	226.26
864.40	226.29
864.71	226.31
865.02	226.42
865.33	226.38
865.64	226.35
865.95	226.30
866.27	226.56
866.58	226.53
866.89	226.64
867.20	226.61
867.51	226.47
867.82	226.43
868.13	226.64
868.44	226.51
868.75	226.59
869.06	226.65
869.37	226.72
869.68	226.56
869.99	226.59
870.30	226.60
870.61	226.60
870.92	226.56
871.23	226.47
871.54	226.48
871.85	226.48
872.16	226.48
872.47	226.45
872.78	226.22
873.09	226.22
873.40	226.12
873.71	226.20
874.02	226.20
874.33	226.23
874.64	226.11
874.95	226.24
875.26	226.14
875.56	226.12
875.87	226.13
876.18	226.08
876.49	226.54
876.80	226.50
877.11	226.45
877.42	226.45
877.73	226.51
878.04	226.48
878.35	226.58
878.66	226.59
878.96	226.61
879.27	226.57
879.58	226.60
879.89	226.60
880.20	226.71
880.51	226.73
880.82	226.69
881.12	226.72
881.43	226.58
881.74	226.55
882.05	226.54
882.36	226.56
882.67	226.67
882.97	226.15
883.28	226.08
883.59	226.10
883.90	226.10
884.21	226.17
884.51	226.19
884.82	226.09
885.13	226.08
885.44	226.05
885.74	226.06
886.05	226.07
886.36	226.10
886.67	225.90
886.98	226.24
887.28	226.33
887.59	226.31
887.90	226.32
888.20	226.33
888.51	226.44
888.82	226.34
889.13	226.29
889.43	226.65
889.74	226.62
890.05	226.60
890.35	226.58
890.66	226.36
890.97	226.27
891.28	226.16
891.58	226.17
891.89	226.18
892.20	226.16
892.50	226.03
892.81	225.93
893.12	225.95
893.42	225.63
893.73	225.57
894.04	225.55
894.34	225.64
894.65	225.61
894.95	225.50
895.26	225.59
895.57	225.77
895.87	225.38
896.18	225.48
896.48	225.45
896.79	225.40
897.10	225.53
897.40	225.50
897.71	225.61
898.01	225.60
898.32	225.65
898.63	225.62
898.93	225.73
899.24	225.81
899.54	225.75
899.85	225.72
900.15	225.73
900.46	225.77
900.76	225.75
901.07	225.74
901.38	225.74
901.68	225.76
901.99	225.59
902.29	225.59
902.60	225.57
902.90	225.54
903.21	225.54
903.51	225.49
903.82	225.62
904.12	225.60
904.43	225.64
904.73	225.62
905.03	225.65
905.34	226.03
905.64	225.95
905.95	226.03
906.25	226.09
906.56	226.05
906.86	226.04
907.17	226.02
907.47	226.12
907.77	226.12
908.08	226.01
908.38	226.04
908.69	226.15
908.99	226.26
909.30	226.38
909.60	226.38
909.90	226.39
910.21	226.33
910.51	226.28
910.81	226.28
911.12	226.35
911.42	226.29
911.73	225.87
912.03	225.97
912.33	226.07
912.64	226.00
912.94	225.96
913.24	225.92
913.55	225.91
913.85	225.83
914.15	225.92
914.46	226.06
914.76	226.09
915.06	226.06
915.37	225.96
915.67	225.92
915.97	226.01
916.27	225.93
916.58	225.95
916.88	225.98
917.18	225.95
917.49	226.29
917.79	226.36
918.09	226.35
918.39	226.48
918.70	226.45
919.00	226.51
919.30	226.78
919.60	226.77
919.91	226.78
920.21	226.83
920.51	226.73
920.81	226.61
921.12	226.69
921.42	226.61
921.72	226.62
922.02	226.67
922.32	226.71
922.63	226.80
922.93	227.08
923.23	227.07
923.53	227.04
923.83	226.63
924.13	226.68
924.44	226.75
924.74	226.81
925.04	226.82
925.34	226.79
925.64	226.57
925.94	226.57
926.24	226.77
926.55	226.72
926.85	226.79
927.15	226.81
927.45	226.72
927.75	226.68
928.05	226.70
928.35	226.63
928.65	226.70
928.95	226.72
929.26	226.44
929.56	226.55
929.86	226.62
930.16	226.60
930.46	226.52
930.76	226.57
931.06	226.31
931.36	226.27
931.66	226.36
931.96	226.39
932.26	226.40
932.56	226.22
932.86	226.25
933.16	226.24
933.46	226.17
933.76	226.10
934.06	226.26
934.36	226.36
934.66	226.37
934.96	226.24
935.26	226.19
935.56	226.24
935.86	226.07
936.16	225.95
936.46	225.92
936.76	225.89
937.06	225.69
937.36	225.74
937.66	225.69
937.96	225.66
938.26	225.60
938.56	225.55
938.86	225.54
939.16	225.55
939.46	225.55
939.76	225.62
940.06	225.64
940.35	225.52
940.65	225.28
940.95	225.25
941.25	225.18
941.55	225.13
941.85	225.11
942.15	225.25
942.45	225.39
942.75	225.39
943.04	225.45
943.34	225.59
943.64	225.53
943.94	225.45
944.24	225.46
944.54	225.47
944.84	225.48
945.13	225.39
945.43	225.41
945.73	225.36
946.03	225.30
946.33	225.28
946.62	225.25
946.92	225.29
947.22	225.35
947.52	225.38
947.82	225.47
948.11	225.43
948.41	225.32
948.71	225.19
949.01	225.24
949.31	225.15
949.60	225.16
949.90	225.24
950.20	225.25
950.50	225.18
950.79	225.17
951.09	225.31
951.39	225.35
951.69	225.26
951.98	225.36
952.28	225.43
952.58	225.45
952.87	225.49
953.17	225.60
953.47	225.59
953.76	225.62
954.06	225.53
954.36	225.54
954.66	225.63
954.95	225.81
955.25	225.83
955.55	225.96
955.84	225.86
956.14	225.91
956.44	226.02
956.73	226.01
957.03	226.03
957.32	226.00
957.62	225.95
957.92	226.10
958.21	226.13
958.51	226.69
958.81	226.75
959.10	226.83
959.40	226.89
959.69	226.89
959.99	226.97
960.29	226.98
960.58	226.97
960.88	227.10
961.17	227.00
961.47	227.08
961.76	227.05
962.06	227.26
962.36	227.27
962.65	227.21
962.95	227.25
963.24	227.23
963.54	227.17
963.83	227.25
964.13	227.19
964.42	227.00
964.72	226.61
965.01	226.54
965.31	226.37
965.60	226.26
965.90	226.57
966.19	226.40
966.49	226.47
966.78	226.42
967.08	226.38
967.37	226.34
967.67	226.30
967.96	226.34
968.26	226.19
968.55	226.17
968.85	226.16
969.14	226.05
969.43	225.98
969.73	226.02
970.02	225.92
970.32	225.90
970.61	225.94
970.91	225.70
971.20	225.67
971.49	225.68
971.79	225.69
972.08	225.30
972.38	225.38
972.67	225.30
972.96	225.37
973.26	225.21
973.55	225.44
973.85	225.40
974.14	225.31
974.43	225.35
974.73	225.25
975.02	225.20
975.31	225.27
975.61	225.37
975.90	225.32
976.19	225.32
976.49	225.36
976.78	225.37
977.07	225.41
977.37	225.53
977.66	225.62
977.95	225.62
978.24	225.73
978.54	225.85
978.83	225.83
979.12	225.87
979.42	225.92
979.71	225.72
980.00	225.66
980.29	225.75
980.59	225.70
980.88	225.84
981.17	225.83
981.46	225.83
981.76	225.74
982.05	225.92
982.34	225.99
982.63	226.00
982.93	226.04
983.22	226.19
983.51	226.16
983.80	226.18
984.09	226.28
984.39	226.25
984.68	226.15
984.97	226.20
985.26	226.16
985.55	226.11
985.85	226.08
986.14	226.16
986.43	226.20
986.72	226.22
987.01	226.08
987.30	226.15
987.59	226.11
987.89	226.17
988.18	226.02
988.47	225.99
988.76	225.90
989.05	225.82
989.34	225.81
989.63	225.90
989.92	225.87
990.22	225.76
990.51	225.75
990.80	225.73
991.09	225.72
991.38	225.71
991.67	225.75
991.96	225.70
992.25	225.69
992.54	225.62
992.83	225.62
993.12	225.62
993.41	225.69
993.70	225.95
993.99	226.09
994.28	226.06
994.58	226.13
994.87	226.05
995.16	226.13
995.45	225.99
995.74	225.86
996.03	226.00
996.32	226.07
996.61	226.11
996.90	226.20
997.19	226.24
997.48	226.25
997.77	226.15
998.06	226.19
998.34	226.21
998.63	226.18
998.92	226.15
999.21	226.25
999.50	226.23
999.79	225.97
1000.08	225.91
1000.37	225.97
1000.66	225.97
1000.95	226.12
1001.24	226.15
1001.53	226.25
1001.82	226.27
1002.11	226.12
1002.40	226.12
1002.68	226.35
1002.97	226.65
1003.26	226.62
1003.55	226.57
1003.84	226.68
1004.13	226.93
1004.42	226.87
1004.71	226.92
1004.99	226.96
1005.28	227.01
1005.57	227.02
1005.86	227.01
1006.15	226.97
1006.44	226.88
1006.72	226.89
1007.01	226.84
1007.30	226.79
1007.59	226.71
1007.88	226.60
1008.17	226.63
1008.45	226.51
1008.74	226.18
1009.03	225.89
1009.32	225.80
1009.60	225.78
1009.89	225.75
1010.18	225.46
1010.47	225.42
1010.76	225.38
1011.04	225.32
1011.33	225.28
1011.62	225.28
1011.91	225.30
1012.19	225.32
1012.48	225.37
1012.77	225.26
1013.05	225.47
1013.34	225.46
1013.63	225.48
1013.92	225.59
1014.20	225.52
1014.49	225.55
1014.78	225.70
1015.06	225.53
1015.35	225.53
1015.64	225.63
1015.92	225.66
1016.21	225.69
1016.50	225.73
1016.78	225.78
1017.07	225.77
1017.36	225.79
1017.64	225.65
1017.93	225.76
1018.22	225.65
1018.50	225.63
1018.79	225.65
1019.08	225.44
1019.36	225.53
1019.65	225.43
1019.93	225.52
1020.22	225.65
1020.51	225.92
1020.79	225.91
1021.08	224.15
1021.36	224.60
1021.65	225.25
1021.94	225.60
1022.22	226.80
1022.51	224.15
1022.79	227.50
1023.08	227.15
1023.36	231.40
1023.65	226.70
>>>>>End Processed Spectral Data<<<<<
