SpectraSuite Data File
++++++++++++++++++++++++++++++++++++
Date: Wed Sep 04 17:44:06 EDT 2013
User: lab3
Dark Spectrum Present: Yes
Reference Spectrum Present: No
Number of Sampled Component Spectra: 1
Spectrometers: USB2E7196
Integration Time (usec): 170000 (USB2E7196)
Spectra Averaged: 20 (USB2E7196)
Boxcar Smoothing: 10 (USB2E7196)
Correct for Electrical Dark: No (USB2E7196)
Strobe/Lamp Enabled: No (USB2E7196)
Correct for Detector Non-linearity: No (USB2E7196)
Correct for Stray Light: No (USB2E7196)
Number of Pixels in Processed Spectrum: 2048
>>>>>Begin Processed Spectral Data<<<<<
339.09	0.00
339.48	212.60
339.86	214.80
340.24	214.40
340.63	217.60
341.01	224.80
341.39	219.30
341.78	221.20
342.16	222.85
342.54	222.85
342.93	211.85
343.31	222.50
343.69	223.09
344.07	223.53
344.46	224.08
344.84	224.48
345.22	224.46
345.60	224.81
345.99	225.05
346.37	225.18
346.75	225.25
347.13	225.28
347.52	225.33
347.90	225.49
348.28	225.61
348.66	225.81
349.05	225.66
349.43	225.79
349.81	225.89
350.19	225.93
350.57	226.03
350.96	226.05
351.34	226.17
351.72	226.22
352.10	226.34
352.48	226.32
352.87	226.30
353.25	226.37
353.63	226.39
354.01	226.43
354.39	226.50
354.77	226.62
355.15	226.81
355.54	226.85
355.92	226.77
356.30	226.84
356.68	227.14
357.06	227.25
357.44	227.22
357.82	227.18
358.20	227.66
358.58	227.72
358.97	227.89
359.35	228.08
359.73	228.24
360.11	228.21
360.49	228.32
360.87	228.40
361.25	228.57
361.63	228.81
362.01	228.88
362.39	228.91
362.77	228.94
363.15	228.95
363.53	229.02
363.91	229.07
364.29	229.12
364.67	228.70
365.05	228.69
365.43	228.73
365.81	228.84
366.19	228.72
366.57	228.90
366.95	228.82
367.33	228.72
367.71	228.73
368.09	228.84
368.47	228.87
368.85	228.90
369.23	228.97
369.61	228.76
369.99	228.86
370.37	228.96
370.75	229.23
371.13	229.16
371.51	229.11
371.89	229.23
372.27	229.21
372.65	229.21
373.03	229.22
373.41	229.20
373.78	229.13
374.16	228.80
374.54	228.59
374.92	228.52
375.30	228.55
375.68	228.35
376.06	228.37
376.44	228.29
376.82	228.18
377.19	228.12
377.57	228.03
377.95	227.86
378.33	227.74
378.71	227.36
379.09	227.26
379.47	227.20
379.84	227.02
380.22	226.92
380.60	226.85
380.98	226.77
381.36	226.75
381.73	226.60
382.11	226.64
382.49	226.53
382.87	226.50
383.25	226.36
383.62	226.84
384.00	226.67
384.38	226.56
384.76	226.65
385.13	226.76
385.51	226.74
385.89	226.57
386.27	226.50
386.64	226.52
387.02	226.51
387.40	226.44
387.78	226.41
388.15	226.31
388.53	226.21
388.91	226.13
389.29	225.98
389.66	226.09
390.04	226.05
390.42	226.12
390.79	226.15
391.17	226.07
391.55	225.59
391.92	225.58
392.30	225.71
392.68	225.57
393.05	225.49
393.43	225.46
393.81	225.58
394.18	225.53
394.56	225.50
394.94	225.54
395.31	225.51
395.69	225.76
396.06	225.87
396.44	225.93
396.82	225.94
397.19	226.28
397.57	226.20
397.95	226.33
398.32	226.27
398.70	226.31
399.07	226.55
399.45	226.69
399.82	226.74
400.20	226.73
400.58	226.84
400.95	226.76
401.33	227.00
401.70	227.36
402.08	227.50
402.45	227.70
402.83	228.02
403.20	228.17
403.58	228.15
403.95	228.46
404.33	228.65
404.71	228.86
405.08	229.30
405.46	229.52
405.83	229.74
406.21	229.98
406.58	230.33
406.96	230.55
407.33	230.81
407.70	231.25
408.08	232.00
408.45	232.43
408.83	232.88
409.20	233.21
409.58	233.39
409.95	233.92
410.33	234.43
410.70	234.73
411.08	235.33
411.45	235.96
411.82	236.47
412.20	237.27
412.57	238.23
412.95	238.54
413.32	239.42
413.69	240.21
414.07	241.16
414.44	242.11
414.82	243.12
415.19	244.26
415.56	245.38
415.94	246.34
416.31	247.66
416.68	249.03
417.06	250.62
417.43	252.26
417.81	253.97
418.18	255.80
418.55	257.70
418.93	259.70
419.30	261.71
419.67	263.85
420.04	266.10
420.42	268.33
420.79	271.30
421.16	273.97
421.54	276.88
421.91	279.78
422.28	282.68
422.66	285.80
423.03	289.16
423.40	292.45
423.77	295.87
424.15	299.36
424.52	302.99
424.89	306.98
425.26	310.78
425.64	314.47
426.01	318.40
426.38	322.61
426.75	326.92
427.13	331.44
427.50	336.08
427.87	340.80
428.24	345.62
428.61	349.98
428.99	355.09
429.36	360.26
429.73	365.54
430.10	370.80
430.47	376.40
430.85	381.78
431.22	387.65
431.59	394.19
431.96	400.21
432.33	406.90
432.70	413.36
433.08	420.89
433.45	428.01
433.82	435.06
434.19	443.08
434.56	450.95
434.93	458.27
435.30	465.85
435.68	474.16
436.05	482.27
436.42	490.39
436.79	497.81
437.16	505.99
437.53	514.55
437.90	522.96
438.27	531.11
438.64	539.70
439.01	547.78
439.38	554.63
439.75	561.61
440.13	569.37
440.50	576.65
440.87	582.57
441.24	588.80
441.61	595.58
441.98	600.27
442.35	605.82
442.72	611.59
443.09	617.10
443.46	620.33
443.83	622.49
444.20	624.25
444.57	626.96
444.94	628.00
445.31	629.03
445.68	630.45
446.05	630.76
446.42	629.40
446.79	628.10
447.16	626.61
447.53	625.35
447.90	621.85
448.27	618.32
448.64	613.77
449.01	610.20
449.37	604.32
449.74	598.67
450.11	592.06
450.48	584.65
450.85	576.95
451.22	570.27
451.59	563.98
451.96	557.97
452.33	550.09
452.70	542.93
453.07	534.60
453.43	525.80
453.80	517.59
454.17	510.06
454.54	502.69
454.91	494.84
455.28	487.21
455.65	479.95
456.02	473.34
456.38	467.12
456.75	459.54
457.12	453.24
457.49	447.20
457.86	441.24
458.23	436.29
458.59	430.71
458.96	425.29
459.33	420.32
459.70	415.45
460.07	411.57
460.43	407.14
460.80	402.95
461.17	399.38
461.54	395.60
461.91	391.87
462.27	387.97
462.64	384.83
463.01	381.43
463.38	378.38
463.74	374.47
464.11	371.49
464.48	369.04
464.85	366.29
465.21	364.27
465.58	361.99
465.95	359.29
466.32	357.17
466.68	354.95
467.05	352.84
467.42	350.66
467.78	348.32
468.15	346.24
468.52	344.71
468.88	342.55
469.25	340.65
469.62	339.15
469.98	337.65
470.35	336.21
470.72	334.74
471.08	333.16
471.45	331.95
471.82	330.77
472.18	329.30
472.55	328.44
472.92	327.12
473.28	325.99
473.65	324.90
474.02	323.93
474.38	323.15
474.75	322.42
475.11	321.54
475.48	320.95
475.85	320.40
476.21	319.75
476.58	319.32
476.94	319.02
477.31	318.54
477.67	318.10
478.04	317.73
478.41	317.53
478.77	317.76
479.14	317.55
479.50	317.39
479.87	317.44
480.23	317.39
480.60	317.31
480.96	317.36
481.33	317.78
481.69	317.96
482.06	318.14
482.42	318.41
482.79	318.86
483.15	319.34
483.52	319.98
483.88	320.44
484.25	320.89
484.61	321.50
484.98	322.21
485.34	323.19
485.71	324.05
486.07	324.99
486.44	325.48
486.80	326.54
487.17	327.70
487.53	329.05
487.90	330.42
488.26	332.10
488.62	333.85
488.99	335.25
489.35	336.91
489.72	338.76
490.08	340.65
490.44	342.70
490.81	344.80
491.17	346.85
491.54	349.43
491.90	352.02
492.26	354.67
492.63	357.50
492.99	360.25
493.36	363.31
493.72	366.57
494.08	369.98
494.45	373.49
494.81	377.39
495.17	381.29
495.54	385.45
495.90	389.66
496.26	393.98
496.63	398.57
496.99	403.26
497.35	408.25
497.72	413.46
498.08	418.83
498.44	424.39
498.80	430.40
499.17	436.28
499.53	442.53
499.89	449.03
500.26	455.63
500.62	462.49
500.98	469.90
501.34	477.15
501.71	484.78
502.07	492.52
502.43	500.39
502.79	508.40
503.16	516.93
503.52	525.69
503.88	534.74
504.24	544.23
504.60	554.06
504.97	564.14
505.33	574.41
505.69	585.22
506.05	596.28
506.41	607.30
506.78	618.71
507.14	630.54
507.50	642.55
507.86	654.99
508.22	667.78
508.59	680.36
508.95	693.76
509.31	707.60
509.67	721.80
510.03	735.79
510.39	750.31
510.75	764.96
511.12	779.91
511.48	795.21
511.84	810.70
512.20	826.17
512.56	842.01
512.92	858.39
513.28	874.75
513.64	891.47
514.00	908.41
514.37	925.88
514.73	943.22
515.09	961.18
515.45	979.11
515.81	996.97
516.17	1015.50
516.53	1033.71
516.89	1051.64
517.25	1070.28
517.61	1089.94
517.97	1109.53
518.33	1129.08
518.69	1148.74
519.05	1168.64
519.41	1188.70
519.77	1209.36
520.13	1229.46
520.49	1249.55
520.85	1269.88
521.21	1290.30
521.57	1310.90
521.93	1330.64
522.29	1351.28
522.65	1371.08
523.01	1391.21
523.37	1411.23
523.73	1431.31
524.09	1450.93
524.45	1470.97
524.81	1491.11
525.17	1510.98
525.53	1530.66
525.89	1550.56
526.25	1570.73
526.61	1590.12
526.97	1610.25
527.33	1630.52
527.68	1651.59
528.04	1671.98
528.40	1692.07
528.76	1712.10
529.12	1731.98
529.48	1752.18
529.84	1771.24
530.20	1791.43
530.56	1811.20
530.91	1831.42
531.27	1851.04
531.63	1871.10
531.99	1891.00
532.35	1909.99
532.71	1929.15
533.07	1949.06
533.42	1967.77
533.78	1986.44
534.14	2005.43
534.50	2023.37
534.86	2041.39
535.21	2058.01
535.57	2075.38
535.93	2091.96
536.29	2108.63
536.65	2125.43
537.00	2141.90
537.36	2158.60
537.72	2173.71
538.08	2189.79
538.44	2205.12
538.79	2220.30
539.15	2235.36
539.51	2250.10
539.87	2264.56
540.22	2277.35
540.58	2290.71
540.94	2303.20
541.29	2314.79
541.65	2326.39
542.01	2337.85
542.37	2347.49
542.72	2357.58
543.08	2367.03
543.44	2377.65
543.79	2386.57
544.15	2395.50
544.51	2404.63
544.87	2413.47
545.22	2421.64
545.58	2428.42
545.94	2434.81
546.29	2440.51
546.65	2446.04
547.01	2450.69
547.36	2455.24
547.72	2460.20
548.07	2463.30
548.43	2467.70
548.79	2471.45
549.14	2474.77
549.50	2477.82
549.86	2481.03
550.21	2483.74
550.57	2486.83
550.92	2487.54
551.28	2488.59
551.64	2490.17
551.99	2491.19
552.35	2491.92
552.70	2493.30
553.06	2494.48
553.41	2495.11
553.77	2496.27
554.13	2497.15
554.48	2498.33
554.84	2498.93
555.19	2499.55
555.55	2500.65
555.90	2499.70
556.26	2498.45
556.61	2496.38
556.97	2494.02
557.32	2492.79
557.68	2491.36
558.03	2489.45
558.39	2487.81
558.74	2486.48
559.10	2482.84
559.45	2478.94
559.81	2474.12
560.16	2468.70
560.52	2463.71
560.87	2459.07
561.23	2453.42
561.58	2447.45
561.94	2440.23
562.29	2432.92
562.64	2425.61
563.00	2417.25
563.35	2410.21
563.71	2403.63
564.06	2397.16
564.42	2390.60
564.77	2383.74
565.12	2375.89
565.48	2368.02
565.83	2359.71
566.19	2351.76
566.54	2343.95
566.89	2335.99
567.25	2328.49
567.60	2321.26
567.96	2313.59
568.31	2305.74
568.66	2297.18
569.02	2288.25
569.37	2280.14
569.72	2272.50
570.08	2263.79
570.43	2254.43
570.78	2245.72
571.14	2236.23
571.49	2226.39
571.84	2216.74
572.20	2206.26
572.55	2196.58
572.90	2185.73
573.26	2176.03
573.61	2165.01
573.96	2154.20
574.31	2142.50
574.67	2131.08
575.02	2118.99
575.37	2106.30
575.72	2093.43
576.08	2081.78
576.43	2069.55
576.78	2057.09
577.13	2043.89
577.49	2031.44
577.84	2019.95
578.19	2008.09
578.54	1996.23
578.90	1984.78
579.25	1972.90
579.60	1960.69
579.95	1947.82
580.30	1935.27
580.66	1922.30
581.01	1909.17
581.36	1895.55
581.71	1883.82
582.06	1871.47
582.42	1859.18
582.77	1847.47
583.12	1836.14
583.47	1824.38
583.82	1813.04
584.17	1801.37
584.53	1790.16
584.88	1777.78
585.23	1765.46
585.58	1752.25
585.93	1739.49
586.28	1726.73
586.63	1713.22
586.98	1699.82
587.34	1687.70
587.69	1675.37
588.04	1663.36
588.39	1652.28
588.74	1641.11
589.09	1629.67
589.44	1617.57
589.79	1606.21
590.14	1594.99
590.49	1583.19
590.84	1571.46
591.19	1560.30
591.54	1548.80
591.89	1537.38
592.25	1527.68
592.60	1516.74
592.95	1506.03
593.30	1494.99
593.65	1483.65
594.00	1472.65
594.35	1463.58
594.70	1452.36
595.05	1441.45
595.40	1430.12
595.75	1418.86
596.10	1408.35
596.45	1397.35
596.80	1387.06
597.15	1376.50
597.50	1365.21
597.85	1354.71
598.19	1343.91
598.54	1332.82
598.89	1322.20
599.24	1311.90
599.59	1300.90
599.94	1290.71
600.29	1280.67
600.64	1270.86
600.99	1260.93
601.34	1252.10
601.69	1241.37
602.04	1232.10
602.39	1222.96
602.74	1214.56
603.08	1205.68
603.43	1196.72
603.78	1187.51
604.13	1178.43
604.48	1169.32
604.83	1160.27
605.18	1151.02
605.53	1142.22
605.87	1133.62
606.22	1125.67
606.57	1117.20
606.92	1108.66
607.27	1100.25
607.62	1092.23
607.96	1084.24
608.31	1076.89
608.66	1068.97
609.01	1061.05
609.36	1053.11
609.70	1045.33
610.05	1037.20
610.40	1029.39
610.75	1021.37
611.10	1013.75
611.44	1005.68
611.79	997.98
612.14	990.65
612.49	983.44
612.83	976.33
613.18	969.01
613.53	961.80
613.88	954.39
614.22	947.05
614.57	939.52
614.92	932.01
615.27	925.11
615.61	917.67
615.96	910.39
616.31	903.32
616.65	896.74
617.00	890.02
617.35	883.19
617.70	876.35
618.04	869.69
618.39	862.99
618.74	856.96
619.08	850.40
619.43	843.81
619.78	837.15
620.12	830.47
620.47	823.92
620.82	816.99
621.16	810.64
621.51	804.83
621.85	799.02
622.20	792.76
622.55	786.23
622.89	780.28
623.24	774.38
623.59	768.42
623.93	762.47
624.28	756.51
624.62	751.27
624.97	745.84
625.32	740.47
625.66	734.93
626.01	729.17
626.35	724.03
626.70	718.91
627.04	713.90
627.39	708.66
627.73	703.92
628.08	699.33
628.43	694.22
628.77	689.03
629.12	684.10
629.46	679.82
629.81	675.77
630.15	671.30
630.50	666.73
630.84	662.27
631.19	657.94
631.53	653.60
631.88	648.68
632.22	643.98
632.57	639.79
632.91	635.43
633.26	631.45
633.60	627.10
633.95	622.76
634.29	618.36
634.64	614.35
634.98	609.78
635.32	605.53
635.67	601.85
636.01	597.91
636.36	593.81
636.70	589.90
637.05	585.79
637.39	581.89
637.73	578.07
638.08	574.43
638.42	570.39
638.77	566.41
639.11	562.40
639.45	558.50
639.80	554.41
640.14	550.64
640.49	546.78
640.83	543.28
641.17	539.93
641.52	536.57
641.86	533.21
642.20	530.33
642.55	527.08
642.89	523.65
643.23	520.36
643.58	517.50
643.92	514.10
644.26	510.86
644.61	507.88
644.95	504.71
645.29	501.46
645.64	498.49
645.98	495.67
646.32	492.92
646.66	490.03
647.01	487.24
647.35	484.63
647.69	481.82
648.04	479.13
648.38	476.47
648.72	473.75
649.06	470.82
649.41	467.79
649.75	464.80
650.09	462.15
650.43	459.46
650.78	456.55
651.12	453.99
651.46	451.26
651.80	448.67
652.14	446.20
652.49	443.85
652.83	441.39
653.17	438.86
653.51	436.28
653.85	434.05
654.20	431.71
654.54	429.28
654.88	427.01
655.22	424.97
655.56	422.76
655.90	420.45
656.25	418.40
656.59	416.36
656.93	414.41
657.27	412.28
657.61	410.06
657.95	408.04
658.29	405.83
658.64	404.07
658.98	401.92
659.32	399.81
659.66	397.80
660.00	395.90
660.34	393.87
660.68	392.02
661.02	390.10
661.36	388.16
661.70	386.23
662.05	384.35
662.39	382.42
662.73	380.68
663.07	379.15
663.41	377.42
663.75	375.59
664.09	373.89
664.43	372.07
664.77	370.49
665.11	368.80
665.45	367.33
665.79	365.69
666.13	364.13
666.47	362.60
666.81	361.04
667.15	359.38
667.49	358.01
667.83	356.70
668.17	355.27
668.51	353.91
668.85	352.77
669.19	351.78
669.53	350.39
669.87	348.84
670.21	347.30
670.55	345.97
670.89	344.96
671.23	343.65
671.57	342.42
671.91	341.10
672.25	339.84
672.58	338.67
672.92	337.34
673.26	336.15
673.60	334.97
673.94	333.84
674.28	332.78
674.62	331.75
674.96	330.49
675.30	329.33
675.64	328.27
675.97	327.04
676.31	325.72
676.65	324.51
676.99	323.66
677.33	322.60
677.67	321.69
678.01	320.40
678.34	319.42
678.68	318.56
679.02	317.62
679.36	316.78
679.70	315.70
680.04	314.75
680.37	313.90
680.71	312.95
681.05	312.08
681.39	311.13
681.73	310.21
682.06	309.40
682.40	308.62
682.74	307.83
683.08	307.15
683.42	306.26
683.75	305.54
684.09	304.65
684.43	304.00
684.77	303.14
685.10	302.38
685.44	301.65
685.78	300.77
686.12	300.03
686.45	299.20
686.79	298.51
687.13	297.93
687.46	297.13
687.80	296.55
688.14	295.77
688.48	295.15
688.81	294.48
689.15	293.92
689.49	293.16
689.82	292.45
690.16	291.52
690.50	290.90
690.83	290.24
691.17	289.52
691.51	288.76
691.84	288.16
692.18	287.54
692.52	286.79
692.85	286.33
693.19	285.99
693.52	285.44
693.86	284.78
694.20	284.13
694.53	283.58
694.87	283.00
695.21	282.48
695.54	281.89
695.88	281.11
696.21	280.38
696.55	279.86
696.88	279.23
697.22	278.82
697.56	278.31
697.89	277.69
698.23	277.21
698.56	276.75
698.90	276.30
699.23	275.82
699.57	275.41
699.90	274.80
700.24	274.07
700.58	273.60
700.91	273.21
701.25	273.12
701.58	272.98
701.92	272.58
702.25	272.07
702.59	271.58
702.92	271.31
703.26	270.96
703.59	270.55
703.93	270.59
704.26	270.15
704.60	269.72
704.93	269.35
705.26	268.86
705.60	268.52
705.93	268.04
706.27	267.77
706.60	267.46
706.94	267.30
707.27	266.91
707.61	266.51
707.94	266.11
708.27	265.39
708.61	264.68
708.94	264.23
709.28	263.85
709.61	263.50
709.94	263.10
710.28	262.63
710.61	262.27
710.95	261.51
711.28	261.51
711.61	261.12
711.95	260.88
712.28	260.53
712.61	260.15
712.95	260.10
713.28	259.97
713.61	259.58
713.95	259.12
714.28	258.78
714.61	258.45
714.95	258.14
715.28	257.70
715.61	257.36
715.95	257.12
716.28	256.76
716.61	256.50
716.95	256.16
717.28	255.85
717.61	255.57
717.94	255.28
718.28	254.72
718.61	254.44
718.94	254.09
719.27	253.85
719.61	253.58
719.94	253.14
720.27	252.55
720.60	252.34
720.94	251.98
721.27	251.84
721.60	251.73
721.93	251.51
722.27	251.50
722.60	251.39
722.93	251.15
723.26	251.00
723.59	250.83
723.93	250.68
724.26	250.65
724.59	250.45
724.92	250.29
725.25	250.11
725.59	249.94
725.92	249.79
726.25	249.63
726.58	249.46
726.91	249.30
727.24	249.30
727.57	249.12
727.91	248.98
728.24	248.79
728.57	248.53
728.90	248.40
729.23	248.15
729.56	248.15
729.89	247.93
730.22	247.75
730.55	247.52
730.89	247.34
731.22	247.09
731.55	246.93
731.88	246.75
732.21	246.49
732.54	246.27
732.87	246.07
733.20	245.87
733.53	245.78
733.86	245.61
734.19	245.40
734.52	245.28
734.85	245.49
735.18	245.26
735.51	245.20
735.84	245.09
736.17	244.98
736.50	244.57
736.83	245.02
737.16	244.88
737.49	244.74
737.82	244.56
738.15	244.43
738.48	244.27
738.81	244.15
739.14	243.98
739.47	243.78
739.80	243.58
740.13	243.55
740.46	243.29
740.79	243.07
741.12	242.82
741.45	242.57
741.78	242.17
742.11	242.12
742.44	241.93
742.77	241.77
743.10	241.58
743.43	241.41
743.75	240.73
744.08	241.20
744.41	241.00
744.74	240.92
745.07	240.73
745.40	240.65
745.73	240.70
746.06	240.56
746.39	240.54
746.71	240.43
747.04	240.21
747.37	240.07
747.70	240.00
748.03	239.93
748.36	239.90
748.68	239.65
749.01	239.42
749.34	239.30
749.67	239.15
750.00	239.07
750.33	239.32
750.65	239.24
750.98	238.51
751.31	238.41
751.64	238.30
751.97	238.44
752.29	238.29
752.62	237.95
752.95	237.79
753.28	237.64
753.60	237.56
753.93	237.56
754.26	237.44
754.59	237.17
754.91	237.02
755.24	236.81
755.57	236.75
755.90	236.70
756.22	236.52
756.55	236.35
756.88	236.16
757.20	235.77
757.53	235.49
757.86	235.44
758.19	235.39
758.51	235.24
758.84	234.89
759.17	234.80
759.49	234.74
759.82	234.91
760.15	234.87
760.47	234.78
760.80	234.57
761.13	234.61
761.45	234.57
761.78	234.47
762.11	234.45
762.43	234.32
762.76	234.19
763.08	234.21
763.41	234.17
763.74	234.09
764.06	234.05
764.39	233.99
764.71	233.86
765.04	233.78
765.37	233.65
765.69	233.64
766.02	233.55
766.34	233.52
766.67	233.29
767.00	233.33
767.32	233.45
767.65	233.69
767.97	233.52
768.30	233.46
768.62	233.52
768.95	233.40
769.27	233.36
769.60	233.36
769.92	233.23
770.25	233.10
770.57	232.96
770.90	232.84
771.22	232.80
771.55	232.80
771.87	232.80
772.20	232.73
772.52	233.07
772.85	233.62
773.17	233.52
773.50	233.44
773.82	233.26
774.15	233.05
774.47	232.75
774.80	232.71
775.12	232.72
775.45	232.65
775.77	232.67
776.09	232.70
776.42	232.68
776.74	232.84
777.07	232.81
777.39	232.85
777.72	232.78
778.04	232.81
778.36	232.65
778.69	232.62
779.01	232.67
779.33	232.22
779.66	231.60
779.98	231.56
780.31	231.55
780.63	231.73
780.95	231.75
781.28	231.57
781.60	231.50
781.92	231.49
782.25	231.44
782.57	231.29
782.89	231.23
783.22	231.13
783.54	230.90
783.86	230.93
784.19	230.81
784.51	230.89
784.83	230.79
785.16	230.83
785.48	230.75
785.80	230.62
786.12	230.55
786.45	230.51
786.77	230.48
787.09	230.35
787.42	230.13
787.74	230.07
788.06	230.12
788.38	230.02
788.71	229.85
789.03	229.80
789.35	229.90
789.67	229.75
789.99	229.76
790.32	229.65
790.64	229.55
790.96	229.97
791.28	229.73
791.61	229.70
791.93	229.64
792.25	229.54
792.57	229.87
792.89	229.81
793.21	229.78
793.54	229.71
793.86	229.66
794.18	229.68
794.50	229.54
794.82	229.56
795.14	229.62
795.47	229.67
795.79	229.63
796.11	229.51
796.43	229.52
796.75	229.47
797.07	229.54
797.39	229.49
797.71	229.07
798.04	229.11
798.36	229.05
798.68	229.05
799.00	229.09
799.32	228.82
799.64	228.83
799.96	228.83
800.28	228.89
800.60	228.88
800.92	228.86
801.24	228.86
801.56	228.92
801.89	228.84
802.21	228.91
802.53	228.84
802.85	228.94
803.17	229.13
803.49	229.05
803.81	228.91
804.13	228.91
804.45	228.85
804.77	228.83
805.09	228.83
805.41	228.77
805.73	228.70
806.05	228.62
806.37	228.67
806.69	228.61
807.01	228.55
807.33	228.59
807.65	228.46
807.97	228.67
808.28	228.48
808.60	228.47
808.92	228.36
809.24	228.63
809.56	228.45
809.88	228.25
810.20	228.24
810.52	228.34
810.84	228.33
811.16	228.29
811.48	228.28
811.80	228.48
812.12	228.48
812.43	228.55
812.75	228.61
813.07	228.54
813.39	228.60
813.71	228.48
814.03	228.43
814.35	228.38
814.67	228.20
814.98	228.23
815.30	228.26
815.62	228.14
815.94	227.85
816.26	228.05
816.58	227.95
816.89	228.05
817.21	227.94
817.53	227.92
817.85	228.00
818.17	227.99
818.48	227.78
818.80	227.87
819.12	227.76
819.44	227.61
819.76	227.53
820.07	227.51
820.39	227.58
820.71	227.59
821.03	227.59
821.34	227.58
821.66	227.61
821.98	227.63
822.30	227.63
822.61	227.89
822.93	227.73
823.25	227.75
823.57	227.66
823.88	227.73
824.20	227.75
824.52	227.78
824.83	227.77
825.15	227.71
825.47	227.64
825.79	227.75
826.10	227.76
826.42	227.82
826.74	227.79
827.05	227.76
827.37	227.80
827.69	227.78
828.00	227.77
828.32	227.77
828.64	227.65
828.95	227.95
829.27	227.85
829.58	227.75
829.90	227.84
830.22	227.84
830.53	227.75
830.85	227.66
831.17	227.56
831.48	227.58
831.80	227.64
832.11	227.65
832.43	227.50
832.75	227.48
833.06	227.76
833.38	227.63
833.69	227.62
834.01	227.60
834.32	227.60
834.64	227.50
834.96	227.47
835.27	227.53
835.59	227.33
835.90	227.21
836.22	227.30
836.53	227.15
836.85	227.13
837.16	227.65
837.48	227.67
837.79	227.77
838.11	227.79
838.42	227.75
838.74	227.76
839.05	227.75
839.37	227.74
839.68	227.36
840.00	227.42
840.31	227.42
840.63	227.42
840.94	227.36
841.26	227.33
841.57	227.32
841.88	227.38
842.20	227.32
842.51	227.25
842.83	227.22
843.14	227.70
843.46	227.71
843.77	227.32
844.08	227.24
844.40	227.12
844.71	227.06
845.03	226.95
845.34	226.90
845.65	226.91
845.97	226.88
846.28	226.95
846.60	226.95
846.91	226.80
847.22	226.70
847.54	226.79
847.85	226.81
848.16	226.70
848.48	226.56
848.79	226.77
849.10	226.85
849.42	226.86
849.73	226.45
850.04	226.34
850.36	226.23
850.67	226.40
850.98	226.40
851.30	226.44
851.61	226.48
851.92	226.53
852.23	226.62
852.55	226.68
852.86	226.70
853.17	226.77
853.49	226.98
853.80	227.12
854.11	227.19
854.42	227.28
854.74	227.26
855.05	227.32
855.36	227.04
855.67	226.96
855.99	226.97
856.30	227.48
856.61	227.55
856.92	227.58
857.23	227.55
857.55	227.48
857.86	227.44
858.17	227.58
858.48	227.48
858.79	227.40
859.11	227.43
859.42	227.42
859.73	227.32
860.04	227.25
860.35	227.14
860.66	227.03
860.98	226.97
861.29	227.05
861.60	227.06
861.91	227.15
862.22	227.14
862.53	227.07
862.84	226.52
863.16	226.65
863.47	226.61
863.78	226.53
864.09	226.61
864.40	226.68
864.71	226.66
865.02	226.75
865.33	226.66
865.64	226.63
865.95	226.55
866.27	226.82
866.58	226.78
866.89	226.84
867.20	226.83
867.51	226.76
867.82	226.65
868.13	226.73
868.44	226.66
868.75	226.76
869.06	226.74
869.37	226.78
869.68	226.63
869.99	226.62
870.30	226.70
870.61	226.77
870.92	226.70
871.23	226.64
871.54	226.68
871.85	226.80
872.16	226.79
872.47	226.76
872.78	226.55
873.09	226.60
873.40	226.52
873.71	226.54
874.02	226.60
874.33	226.66
874.64	226.56
874.95	226.72
875.26	226.58
875.56	226.65
875.87	226.64
876.18	226.58
876.49	227.08
876.80	227.02
877.11	226.85
877.42	226.88
877.73	226.86
878.04	226.72
878.35	226.71
878.66	226.77
878.96	226.76
879.27	226.73
879.58	226.72
879.89	226.73
880.20	226.87
880.51	226.78
880.82	226.77
881.12	226.77
881.43	226.59
881.74	226.53
882.05	226.47
882.36	226.46
882.67	226.52
882.97	226.02
883.28	226.00
883.59	226.03
883.90	226.05
884.21	226.15
884.51	226.16
884.82	226.11
885.13	226.05
885.44	226.03
885.74	225.96
886.05	225.91
886.36	225.99
886.67	225.79
886.98	226.03
887.28	226.11
887.59	226.11
887.90	226.22
888.20	226.23
888.51	226.30
888.82	226.18
889.13	226.19
889.43	226.55
889.74	226.49
890.05	226.52
890.35	226.44
890.66	226.34
890.97	226.33
891.28	226.37
891.58	226.40
891.89	226.42
892.20	226.40
892.50	226.38
892.81	226.30
893.12	226.29
893.42	226.09
893.73	226.05
894.04	226.04
894.34	226.05
894.65	226.05
894.95	225.99
895.26	226.07
895.57	226.27
895.87	225.86
896.18	225.95
896.48	225.97
896.79	225.93
897.10	226.00
897.40	225.96
897.71	225.97
898.01	225.91
898.32	226.00
898.63	226.06
898.93	226.12
899.24	226.13
899.54	226.16
899.85	226.16
900.15	226.18
900.46	226.20
900.76	226.18
901.07	226.22
901.38	226.23
901.68	226.27
901.99	226.05
902.29	226.15
902.60	226.11
902.90	226.04
903.21	226.04
903.51	226.02
903.82	226.20
904.12	226.15
904.43	226.20
904.73	226.14
905.03	226.15
905.34	226.62
905.64	226.56
905.95	226.51
906.25	226.53
906.56	226.52
906.86	226.50
907.17	226.47
907.47	226.49
907.77	226.41
908.08	226.30
908.38	226.27
908.69	226.22
908.99	226.25
909.30	226.24
909.60	226.26
909.90	226.25
910.21	226.05
910.51	226.04
910.81	226.00
911.12	226.04
911.42	226.00
911.73	225.46
912.03	225.49
912.33	225.58
912.64	225.54
912.94	225.47
913.24	225.42
913.55	225.32
913.85	225.23
914.15	225.36
914.46	225.44
914.76	225.49
915.06	225.48
915.37	225.50
915.67	225.58
915.97	225.62
916.27	225.49
916.58	225.55
916.88	225.51
917.18	225.46
917.49	225.75
917.79	225.76
918.09	225.85
918.39	225.96
918.70	225.90
919.00	225.91
919.30	226.14
919.60	226.09
919.91	226.12
920.21	226.23
920.51	226.10
920.81	226.05
921.12	226.05
921.42	226.02
921.72	226.01
922.02	225.96
922.32	225.99
922.63	226.10
922.93	226.30
923.23	226.36
923.53	226.44
923.83	226.11
924.13	226.05
924.44	226.06
924.74	226.09
925.04	226.23
925.34	226.22
925.64	226.00
925.94	226.05
926.24	226.32
926.55	226.19
926.85	226.27
927.15	226.29
927.45	226.29
927.75	226.30
928.05	226.30
928.35	226.26
928.65	226.32
928.95	226.25
929.26	226.02
929.56	226.09
929.86	226.01
930.16	226.01
930.46	226.07
930.76	226.05
931.06	225.85
931.36	225.78
931.66	225.89
931.96	225.98
932.26	225.95
932.56	225.79
932.86	225.92
933.16	225.96
933.46	225.94
933.76	225.89
934.06	225.96
934.36	226.18
934.66	226.19
934.96	226.20
935.26	226.27
935.56	226.47
935.86	226.32
936.16	226.34
936.46	226.35
936.76	226.30
937.06	226.28
937.36	226.27
937.66	226.31
937.96	226.26
938.26	226.22
938.56	226.18
938.86	226.17
939.16	226.28
939.46	226.32
939.76	226.37
940.06	226.37
940.35	226.29
940.65	226.05
940.95	226.10
941.25	225.89
941.55	225.80
941.85	225.66
942.15	225.80
942.45	225.92
942.75	225.83
943.04	225.91
943.34	225.99
943.64	225.97
943.94	225.90
944.24	225.92
944.54	225.91
944.84	225.99
945.13	225.91
945.43	225.77
945.73	225.72
946.03	225.62
946.33	225.61
946.62	225.56
946.92	225.52
947.22	225.51
947.52	225.58
947.82	225.63
948.11	225.53
948.41	225.43
948.71	225.35
949.01	225.38
949.31	225.31
949.60	225.25
949.90	225.33
950.20	225.30
950.50	225.27
950.79	225.18
951.09	225.20
951.39	225.18
951.69	225.11
951.98	225.23
952.28	225.30
952.58	225.26
952.87	225.35
953.17	225.45
953.47	225.45
953.76	225.42
954.06	225.35
954.36	225.39
954.66	225.40
954.95	225.46
955.25	225.51
955.55	225.51
955.84	225.42
956.14	225.46
956.44	225.50
956.73	225.43
957.03	225.52
957.32	225.53
957.62	225.50
957.92	225.65
958.21	225.55
958.51	226.13
958.81	226.27
959.10	226.28
959.40	226.34
959.69	226.33
959.99	226.45
960.29	226.58
960.58	226.59
960.88	226.77
961.17	226.75
961.47	226.83
961.76	226.86
962.06	226.97
962.36	226.93
962.65	226.95
962.95	226.88
963.24	226.80
963.54	226.85
963.83	226.96
964.13	226.94
964.42	226.77
964.72	226.35
965.01	226.32
965.31	226.28
965.60	226.17
965.90	226.46
966.19	226.35
966.49	226.31
966.78	226.29
967.08	226.22
967.37	226.12
967.67	226.00
967.96	226.07
968.26	226.07
968.55	226.11
968.85	226.10
969.14	226.10
969.43	226.14
969.73	226.07
970.02	226.03
970.32	225.96
970.61	226.01
970.91	225.85
971.20	225.74
971.49	225.69
971.79	225.76
972.08	225.42
972.38	225.44
972.67	225.40
972.96	225.52
973.26	225.44
973.55	225.69
973.85	225.77
974.14	225.70
974.43	225.71
974.73	225.67
975.02	225.62
975.31	225.67
975.61	225.67
975.90	225.60
976.19	225.50
976.49	225.54
976.78	225.56
977.07	225.50
977.37	225.54
977.66	225.61
977.95	225.56
978.24	225.58
978.54	225.77
978.83	225.73
979.12	225.60
979.42	225.63
979.71	225.44
980.00	225.35
980.29	225.36
980.59	225.21
980.88	225.30
981.17	225.25
981.46	225.24
981.76	225.25
982.05	225.42
982.34	225.46
982.63	225.46
982.93	225.49
983.22	225.67
983.51	225.72
983.80	225.81
984.09	225.87
984.39	225.86
984.68	225.75
984.97	225.80
985.26	225.76
985.55	225.77
985.85	225.75
986.14	225.77
986.43	225.78
986.72	225.78
987.01	225.64
987.30	225.69
987.59	225.63
987.89	225.56
988.18	225.41
988.47	225.42
988.76	225.36
989.05	225.36
989.34	225.29
989.63	225.42
989.92	225.29
990.22	225.19
990.51	225.21
990.80	225.17
991.09	225.18
991.38	225.30
991.67	225.27
991.96	225.25
992.25	225.29
992.54	225.30
992.83	225.32
993.12	225.33
993.41	225.42
993.70	225.63
993.99	225.78
994.28	225.84
994.58	225.83
994.87	225.77
995.16	225.76
995.45	225.72
995.74	225.46
996.03	225.53
996.32	225.62
996.61	225.78
996.90	225.75
997.19	225.73
997.48	225.73
997.77	225.67
998.06	225.71
998.34	225.70
998.63	225.73
998.92	225.72
999.21	225.79
999.50	225.75
999.79	225.59
1000.08	225.56
1000.37	225.54
1000.66	225.47
1000.95	225.59
1001.24	225.61
1001.53	225.69
1001.82	225.78
1002.11	225.72
1002.40	225.75
1002.68	225.75
1002.97	226.08
1003.26	226.04
1003.55	225.98
1003.84	225.97
1004.13	226.16
1004.42	226.16
1004.71	226.16
1004.99	226.23
1005.28	226.38
1005.57	226.30
1005.86	226.32
1006.15	226.31
1006.44	226.28
1006.72	226.44
1007.01	226.41
1007.30	226.41
1007.59	226.40
1007.88	226.35
1008.17	226.33
1008.45	226.24
1008.74	226.10
1009.03	225.90
1009.32	225.89
1009.60	225.88
1009.89	225.89
1010.18	225.62
1010.47	225.63
1010.76	225.63
1011.04	225.59
1011.33	225.56
1011.62	225.73
1011.91	225.80
1012.19	225.87
1012.48	225.94
1012.77	225.94
1013.05	226.19
1013.34	226.19
1013.63	226.19
1013.92	226.28
1014.20	226.29
1014.49	226.36
1014.78	226.35
1015.06	226.19
1015.35	226.20
1015.64	226.23
1015.92	226.25
1016.21	226.36
1016.50	226.34
1016.78	226.35
1017.07	226.41
1017.36	226.30
1017.64	226.15
1017.93	226.12
1018.22	226.03
1018.50	226.01
1018.79	225.95
1019.08	225.68
1019.36	225.73
1019.65	225.58
1019.93	225.67
1020.22	225.75
1020.51	225.95
1020.79	225.93
1021.08	225.30
1021.36	225.70
1021.65	225.60
1021.94	225.30
1022.22	226.65
1022.51	223.35
1022.79	228.35
1023.08	226.80
1023.36	231.40
1023.65	224.90
>>>>>End Processed Spectral Data<<<<<
