SpectraSuite Data File
++++++++++++++++++++++++++++++++++++
Date: Wed Sep 04 17:58:43 EDT 2013
User: lab3
Dark Spectrum Present: Yes
Reference Spectrum Present: No
Number of Sampled Component Spectra: 1
Spectrometers: USB2E7196
Integration Time (usec): 170000 (USB2E7196)
Spectra Averaged: 20 (USB2E7196)
Boxcar Smoothing: 10 (USB2E7196)
Correct for Electrical Dark: No (USB2E7196)
Strobe/Lamp Enabled: No (USB2E7196)
Correct for Detector Non-linearity: No (USB2E7196)
Correct for Stray Light: No (USB2E7196)
Number of Pixels in Processed Spectrum: 2048
>>>>>Begin Processed Spectral Data<<<<<
339.09	0.00
339.48	213.85
339.86	215.45
340.24	217.00
340.63	215.75
341.01	227.15
341.39	220.65
341.78	221.90
342.16	224.10
342.54	224.15
342.93	212.33
343.31	222.95
343.69	223.51
344.07	223.91
344.46	224.37
344.84	224.82
345.22	224.75
345.60	225.11
345.99	225.30
346.37	225.42
346.75	225.51
347.13	225.55
347.52	225.69
347.90	225.95
348.28	226.02
348.66	226.11
349.05	226.12
349.43	226.29
349.81	226.31
350.19	226.27
350.57	226.28
350.96	226.40
351.34	226.56
351.72	226.57
352.10	226.73
352.48	226.73
352.87	226.82
353.25	226.89
353.63	226.84
354.01	226.90
354.39	226.97
354.77	226.97
355.15	227.13
355.54	227.07
355.92	226.97
356.30	227.04
356.68	227.38
357.06	227.41
357.44	227.39
357.82	227.46
358.20	227.99
358.58	228.09
358.97	228.17
359.35	228.35
359.73	228.58
360.11	228.59
360.49	228.66
360.87	228.76
361.25	228.89
361.63	229.05
362.01	229.17
362.39	229.19
362.77	229.36
363.15	229.35
363.53	229.41
363.91	229.45
364.29	229.48
364.67	229.14
365.05	229.25
365.43	229.34
365.81	229.49
366.19	229.42
366.57	229.65
366.95	229.66
367.33	229.55
367.71	229.54
368.09	229.63
368.47	229.64
368.85	229.58
369.23	229.67
369.61	229.53
369.99	229.69
370.37	229.78
370.75	229.99
371.13	229.89
371.51	229.84
371.89	229.90
372.27	229.95
372.65	229.96
373.03	229.90
373.41	229.80
373.78	229.68
374.16	229.37
374.54	229.13
374.92	229.05
375.30	229.07
375.68	228.96
376.06	228.94
376.44	228.88
376.82	228.85
377.19	228.71
377.57	228.70
377.95	228.41
378.33	228.29
378.71	227.90
379.09	227.93
379.47	227.91
379.84	227.73
380.22	227.53
380.60	227.42
380.98	227.30
381.36	227.26
381.73	227.24
382.11	227.22
382.49	227.23
382.87	227.09
383.25	227.00
383.62	227.38
384.00	227.21
384.38	227.16
384.76	227.15
385.13	227.24
385.51	227.10
385.89	227.02
386.27	226.98
386.64	226.98
387.02	226.85
387.40	226.81
387.78	226.79
388.15	226.78
388.53	226.70
388.91	226.65
389.29	226.55
389.66	226.50
390.04	226.42
390.42	226.41
390.79	226.43
391.17	226.33
391.55	225.80
391.92	225.79
392.30	225.77
392.68	225.61
393.05	225.58
393.43	225.61
393.81	225.63
394.18	225.49
394.56	225.50
394.94	225.58
395.31	225.54
395.69	225.71
396.06	225.83
396.44	225.84
396.82	225.83
397.19	226.16
397.57	226.20
397.95	226.36
398.32	226.20
398.70	226.34
399.07	226.52
399.45	226.62
399.82	226.72
400.20	226.78
400.58	226.96
400.95	226.83
401.33	227.02
401.70	227.44
402.08	227.62
402.45	227.76
402.83	228.04
403.20	228.16
403.58	228.26
403.95	228.49
404.33	228.73
404.71	229.00
405.08	229.40
405.46	229.62
405.83	229.79
406.21	230.17
406.58	230.45
406.96	230.77
407.33	231.11
407.70	231.46
408.08	232.24
408.45	232.75
408.83	233.33
409.20	233.71
409.58	233.89
409.95	234.44
410.33	235.05
410.70	235.49
411.08	236.16
411.45	236.77
411.82	237.41
412.20	238.22
412.57	239.23
412.95	239.64
413.32	240.60
413.69	241.53
414.07	242.49
414.44	243.54
414.82	244.59
415.19	245.79
415.56	246.95
415.94	248.00
416.31	249.42
416.68	250.77
417.06	252.42
417.43	254.10
417.81	255.84
418.18	257.64
418.55	259.52
418.93	261.60
419.30	263.67
419.67	265.93
420.04	268.18
420.42	270.48
420.79	273.58
421.16	276.34
421.54	279.32
421.91	282.33
422.28	285.48
422.66	288.78
423.03	292.26
423.40	295.79
423.77	299.25
424.15	302.85
424.52	306.74
424.89	311.00
425.26	315.01
425.64	318.86
426.01	323.06
426.38	327.53
426.75	332.13
427.13	336.77
427.50	341.43
427.87	346.36
428.24	351.25
428.61	355.76
428.99	361.23
429.36	366.79
429.73	372.32
430.10	377.73
430.47	383.40
430.85	389.05
431.22	395.10
431.59	401.96
431.96	408.23
432.33	415.19
432.70	421.87
433.08	429.70
433.45	437.24
433.82	444.76
434.19	453.02
434.56	461.19
434.93	468.90
435.30	476.76
435.68	485.47
436.05	493.99
436.42	502.42
436.79	510.04
437.16	518.64
437.53	527.56
437.90	536.44
438.27	545.02
438.64	553.97
439.01	562.45
439.38	569.76
439.75	577.00
440.13	584.90
440.50	592.38
440.87	598.57
441.24	604.95
441.61	611.84
441.98	616.90
442.35	622.54
442.72	628.55
443.09	634.55
443.46	637.96
443.83	640.41
444.20	642.23
444.57	644.82
444.94	645.74
445.31	646.73
445.68	647.93
446.05	648.09
446.42	646.88
446.79	645.42
447.16	643.77
447.53	642.48
447.90	638.77
448.27	635.10
448.64	630.20
449.01	626.47
449.37	620.35
449.74	614.26
450.11	607.40
450.48	599.65
450.85	591.41
451.22	584.48
451.59	577.66
451.96	571.42
452.33	563.34
452.70	555.86
453.07	547.13
453.43	538.06
453.80	529.76
454.17	521.59
454.54	513.86
454.91	505.56
455.28	497.50
455.65	490.15
456.02	483.30
456.38	476.89
456.75	469.09
457.12	462.41
457.49	456.06
457.86	449.72
458.23	444.52
458.59	438.80
458.96	433.00
459.33	427.85
459.70	422.73
460.07	418.65
460.43	413.96
460.80	409.75
461.17	406.00
461.54	401.95
461.91	398.09
462.27	394.19
462.64	391.00
463.01	387.44
463.38	384.08
463.74	380.01
464.11	376.97
464.48	374.36
464.85	371.53
465.21	369.39
465.58	367.12
465.95	364.29
466.32	362.10
466.68	359.91
467.05	357.76
467.42	355.57
467.78	353.25
468.15	351.21
468.52	349.60
468.88	347.35
469.25	345.36
469.62	343.96
469.98	342.33
470.35	340.74
470.72	339.36
471.08	337.64
471.45	336.46
471.82	335.17
472.18	333.75
472.55	332.76
472.92	331.48
473.28	330.33
473.65	329.34
474.02	328.19
474.38	327.36
474.75	326.57
475.11	325.60
475.48	324.90
475.85	324.16
476.21	323.45
476.58	322.94
476.94	322.59
477.31	322.06
477.67	321.57
478.04	321.30
478.41	321.05
478.77	321.39
479.14	321.06
479.50	320.98
479.87	320.97
480.23	320.97
480.60	320.90
480.96	320.95
481.33	321.27
481.69	321.58
482.06	321.75
482.42	321.98
482.79	322.36
483.15	322.69
483.52	323.31
483.88	323.75
484.25	324.34
484.61	325.00
484.98	325.65
485.34	326.68
485.71	327.54
486.07	328.41
486.44	328.95
486.80	329.96
487.17	331.06
487.53	332.39
487.90	333.81
488.26	335.54
488.62	337.22
488.99	338.72
489.35	340.40
489.72	342.25
490.08	344.22
490.44	346.09
490.81	348.44
491.17	350.62
491.54	353.15
491.90	355.73
492.26	358.43
492.63	361.28
492.99	364.08
493.36	367.25
493.72	370.49
494.08	373.90
494.45	377.56
494.81	381.49
495.17	385.37
495.54	389.52
495.90	393.63
496.26	398.01
496.63	402.66
496.99	407.42
497.35	412.53
497.72	417.75
498.08	423.40
498.44	429.14
498.80	435.26
499.17	441.25
499.53	447.49
499.89	454.13
500.26	460.99
500.62	468.02
500.98	475.36
501.34	482.95
501.71	490.65
502.07	498.51
502.43	506.64
502.79	515.15
503.16	523.78
503.52	532.95
503.88	542.27
504.24	552.06
504.60	562.19
504.97	572.52
505.33	583.10
505.69	594.28
506.05	605.32
506.41	616.66
506.78	628.44
507.14	640.54
507.50	652.94
507.86	665.58
508.22	678.67
508.59	691.66
508.95	705.30
509.31	719.48
509.67	734.03
510.03	748.32
510.39	762.99
510.75	778.23
511.12	793.35
511.48	808.96
511.84	824.71
512.20	840.57
512.56	856.87
512.92	873.61
513.28	890.35
513.64	907.66
514.00	925.29
514.37	943.13
514.73	961.29
515.09	979.59
515.45	998.12
515.81	1016.49
516.17	1035.47
516.53	1054.39
516.89	1073.28
517.25	1092.66
517.61	1112.99
517.97	1133.43
518.33	1153.54
518.69	1174.17
519.05	1194.85
519.41	1215.70
519.77	1236.99
520.13	1257.63
520.49	1278.47
520.85	1299.60
521.21	1320.89
521.57	1342.10
521.93	1362.96
522.29	1384.23
522.65	1405.06
523.01	1426.18
523.37	1446.95
523.73	1467.85
524.09	1488.53
524.45	1509.18
524.81	1530.01
525.17	1550.60
525.53	1571.05
525.89	1591.89
526.25	1612.67
526.61	1633.19
526.97	1654.30
527.33	1675.65
527.68	1697.77
528.04	1719.18
528.40	1740.06
528.76	1760.95
529.12	1781.34
529.48	1802.45
529.84	1822.75
530.20	1843.97
530.56	1864.25
530.91	1885.47
531.27	1905.90
531.63	1926.45
531.99	1947.15
532.35	1967.30
532.71	1987.43
533.07	2008.38
533.42	2028.30
533.78	2048.25
534.14	2068.26
534.50	2087.46
534.86	2106.60
535.21	2124.38
535.57	2143.01
535.93	2161.03
536.29	2179.10
536.65	2197.59
537.00	2215.17
537.36	2232.86
537.72	2249.28
538.08	2266.75
538.44	2283.26
538.79	2300.25
539.15	2316.73
539.51	2332.90
539.87	2348.30
540.22	2362.85
540.58	2377.32
540.94	2390.77
541.29	2403.39
541.65	2416.00
542.01	2428.65
542.37	2439.50
542.72	2450.40
543.08	2460.99
543.44	2472.73
543.79	2482.71
544.15	2492.41
544.51	2502.25
544.87	2511.71
545.22	2520.63
545.58	2528.52
545.94	2535.88
546.29	2542.40
546.65	2549.08
547.01	2554.72
547.36	2560.47
547.72	2565.83
548.07	2569.83
548.43	2575.29
548.79	2580.38
549.14	2584.43
549.50	2587.95
549.86	2591.84
550.21	2595.68
550.57	2598.95
550.92	2600.22
551.28	2601.40
551.64	2603.96
551.99	2606.16
552.35	2608.05
552.70	2610.07
553.06	2611.76
553.41	2613.15
553.77	2614.70
554.13	2616.19
554.48	2617.68
554.84	2618.93
555.19	2620.02
555.55	2621.40
555.90	2620.75
556.26	2619.88
556.61	2618.22
556.97	2616.18
557.32	2615.51
557.68	2614.35
558.03	2613.15
558.39	2611.95
558.74	2611.44
559.10	2607.87
559.45	2604.21
559.81	2599.58
560.16	2594.59
560.52	2589.78
560.87	2585.36
561.23	2580.02
561.58	2574.02
561.94	2567.23
562.29	2559.80
562.64	2553.23
563.00	2545.21
563.35	2538.43
563.71	2531.78
564.06	2525.99
564.42	2519.62
564.77	2512.90
565.12	2505.10
565.48	2497.08
565.83	2489.13
566.19	2481.07
566.54	2473.46
566.89	2465.49
567.25	2458.06
567.60	2451.01
567.96	2443.44
568.31	2435.55
568.66	2427.11
569.02	2418.00
569.37	2409.85
569.72	2402.39
570.08	2392.77
570.43	2383.27
570.78	2374.52
571.14	2365.00
571.49	2354.47
571.84	2344.40
572.20	2333.19
572.55	2323.40
572.90	2312.77
573.26	2302.53
573.61	2291.35
573.96	2280.15
574.31	2268.10
574.67	2256.09
575.02	2242.98
575.37	2230.39
575.72	2216.91
576.08	2204.66
576.43	2192.37
576.78	2179.20
577.13	2165.47
577.49	2152.92
577.84	2140.98
578.19	2128.41
578.54	2115.75
578.90	2104.00
579.25	2092.05
579.60	2079.83
579.95	2066.81
580.30	2053.37
580.66	2039.70
581.01	2026.15
581.36	2012.30
581.71	1999.53
582.06	1986.55
582.42	1974.19
582.77	1961.33
583.12	1949.55
583.47	1936.89
583.82	1924.80
584.17	1912.79
584.53	1900.84
584.88	1887.90
585.23	1874.88
585.58	1860.85
585.93	1847.66
586.28	1834.05
586.63	1820.11
586.98	1805.67
587.34	1792.42
587.69	1779.36
588.04	1766.87
588.39	1754.76
588.74	1742.63
589.09	1730.74
589.44	1717.85
589.79	1705.49
590.14	1693.52
590.49	1681.07
590.84	1669.04
591.19	1656.91
591.54	1644.43
591.89	1632.05
592.25	1621.68
592.60	1610.07
592.95	1598.65
593.30	1586.45
593.65	1574.40
594.00	1562.39
594.35	1552.37
594.70	1540.40
595.05	1529.00
595.40	1516.81
595.75	1504.64
596.10	1493.22
596.45	1481.36
596.80	1470.42
597.15	1459.00
597.50	1447.32
597.85	1436.03
598.19	1424.40
598.54	1412.56
598.89	1401.44
599.24	1390.84
599.59	1379.06
599.94	1368.02
600.29	1357.65
600.64	1347.28
600.99	1336.59
601.34	1326.79
601.69	1315.73
602.04	1305.72
602.39	1296.10
602.74	1286.87
603.08	1277.57
603.43	1268.17
603.78	1258.51
604.13	1248.86
604.48	1239.06
604.83	1229.11
605.18	1219.15
605.53	1209.66
605.87	1200.53
606.22	1192.04
606.57	1182.67
606.92	1173.42
607.27	1164.38
607.62	1155.49
607.96	1146.81
608.31	1138.93
608.66	1130.49
609.01	1121.78
609.36	1113.29
609.70	1104.53
610.05	1095.83
610.40	1087.11
610.75	1078.25
611.10	1069.86
611.44	1061.26
611.79	1053.02
612.14	1045.15
612.49	1037.34
612.83	1029.66
613.18	1021.83
613.53	1013.86
613.88	1005.83
614.22	997.93
614.57	990.09
614.92	982.15
615.27	974.57
615.61	966.64
615.96	959.17
616.31	951.80
616.65	944.74
617.00	937.34
617.35	930.01
617.70	922.84
618.04	915.60
618.39	908.46
618.74	902.14
619.08	895.30
619.43	888.18
619.78	880.94
620.12	873.77
620.47	866.79
620.82	859.52
621.16	852.77
621.51	846.37
621.85	840.00
622.20	833.33
622.55	826.71
622.89	820.06
623.24	813.51
623.59	807.01
623.93	800.66
624.28	794.58
624.62	788.97
624.97	783.25
625.32	777.42
625.66	771.48
626.01	765.20
626.35	759.58
626.70	753.94
627.04	748.87
627.39	743.28
627.73	737.85
628.08	732.60
628.43	727.17
628.77	721.54
629.12	716.15
629.46	711.22
629.81	706.44
630.15	701.70
630.50	696.80
630.84	692.06
631.19	687.08
631.53	682.39
631.88	677.10
632.22	672.20
632.57	667.75
632.91	663.05
633.26	658.60
633.60	653.80
633.95	649.30
634.29	644.43
634.64	639.98
634.98	635.22
635.32	630.87
635.67	626.81
636.01	622.68
636.36	618.25
636.70	614.14
637.05	609.87
637.39	605.65
637.73	601.40
638.08	597.24
638.42	593.13
638.77	588.81
639.11	584.42
639.45	579.98
639.80	575.58
640.14	571.67
640.49	567.60
640.83	563.97
641.17	560.39
641.52	556.60
641.86	553.04
642.20	549.80
642.55	546.19
642.89	542.50
643.23	539.06
643.58	535.95
643.92	532.32
644.26	529.04
644.61	525.92
644.95	522.56
645.29	519.19
645.64	515.95
645.98	512.82
646.32	510.02
646.66	507.02
647.01	504.08
647.35	501.18
647.69	498.24
648.04	495.25
648.38	492.25
648.72	489.39
649.06	486.35
649.41	483.29
649.75	480.20
650.09	477.33
650.43	474.31
650.78	471.40
651.12	468.54
651.46	465.71
651.80	462.90
652.14	460.18
652.49	457.65
652.83	455.09
653.17	452.40
653.51	449.70
653.85	447.29
654.20	444.89
654.54	442.31
654.88	439.70
655.22	437.40
655.56	434.87
655.90	432.51
656.25	430.31
656.59	428.16
656.93	426.02
657.27	423.98
657.61	421.57
657.95	419.24
658.29	417.07
658.64	414.87
658.98	412.59
659.32	410.26
659.66	407.95
660.00	405.73
660.34	403.72
660.68	401.62
661.02	399.53
661.36	397.44
661.70	395.47
662.05	393.59
662.39	391.52
662.73	389.81
663.07	388.14
663.41	386.27
663.75	384.34
664.09	382.43
664.43	380.34
664.77	378.72
665.11	376.97
665.45	375.30
665.79	373.65
666.13	371.90
666.47	370.34
666.81	368.73
667.15	367.09
667.49	365.57
667.83	364.28
668.17	362.77
668.51	361.32
668.85	359.87
669.19	358.62
669.53	357.22
669.87	355.63
670.21	354.07
670.55	352.57
670.89	351.42
671.23	350.11
671.57	348.90
671.91	347.50
672.25	346.20
672.58	344.96
672.92	343.56
673.26	342.32
673.60	341.12
673.94	339.93
674.28	338.78
674.62	337.59
674.96	336.19
675.30	335.03
675.64	333.75
675.97	332.57
676.31	331.17
676.65	329.90
676.99	328.95
677.33	327.73
677.67	326.73
678.01	325.42
678.34	324.35
678.68	323.31
679.02	322.33
679.36	321.35
679.70	320.27
680.04	319.24
680.37	318.28
680.71	317.27
681.05	316.32
681.39	315.37
681.73	314.39
682.06	313.48
682.40	312.55
682.74	311.80
683.08	311.11
683.42	310.33
683.75	309.60
684.09	308.66
684.43	307.97
684.77	307.04
685.10	306.21
685.44	305.39
685.78	304.55
686.12	303.79
686.45	303.02
686.79	302.25
687.13	301.68
687.46	300.94
687.80	300.40
688.14	299.54
688.48	298.80
688.81	298.07
689.15	297.42
689.49	296.65
689.82	295.95
690.16	295.05
690.50	294.36
690.83	293.65
691.17	292.87
691.51	292.18
691.84	291.61
692.18	290.86
692.52	290.19
692.85	289.57
693.19	289.06
693.52	288.37
693.86	287.72
694.20	286.98
694.53	286.35
694.87	285.65
695.21	285.15
695.54	284.46
695.88	283.85
696.21	283.08
696.55	282.58
696.88	281.89
697.22	281.22
697.56	280.57
697.89	279.95
698.23	279.49
698.56	278.83
698.90	278.36
699.23	277.93
699.57	277.47
699.90	276.96
700.24	276.32
700.58	275.83
700.91	275.42
701.25	275.31
701.58	275.20
701.92	274.71
702.25	274.21
702.59	273.80
702.92	273.37
703.26	273.02
703.59	272.64
703.93	272.68
704.26	272.37
704.60	272.05
704.93	271.50
705.26	271.02
705.60	270.70
705.93	270.14
706.27	269.84
706.60	269.58
706.94	269.35
707.27	269.01
707.61	268.70
707.94	268.27
708.27	267.57
708.61	266.82
708.94	266.49
709.28	266.11
709.61	265.71
709.94	265.34
710.28	265.00
710.61	264.54
710.95	263.78
711.28	263.74
711.61	263.34
711.95	263.20
712.28	262.80
712.61	262.36
712.95	262.25
713.28	262.02
713.61	261.51
713.95	260.95
714.28	260.60
714.61	260.14
714.95	259.71
715.28	259.25
715.61	258.92
715.95	258.49
716.28	258.11
716.61	257.84
716.95	257.46
717.28	257.13
717.61	256.84
717.94	256.46
718.28	255.78
718.61	255.52
718.94	255.10
719.27	254.87
719.61	254.73
719.94	254.34
720.27	253.92
720.60	253.66
720.94	253.44
721.27	253.17
721.60	253.08
721.93	252.89
722.27	252.91
722.60	252.72
722.93	252.52
723.26	252.43
723.59	252.11
723.93	251.96
724.26	251.83
724.59	251.57
724.92	251.40
725.25	251.28
725.59	251.04
725.92	250.96
726.25	250.73
726.58	250.45
726.91	250.23
727.24	250.01
727.57	249.86
727.91	249.61
728.24	249.50
728.57	249.20
728.90	249.16
729.23	248.74
729.56	248.81
729.89	248.65
730.22	248.28
730.55	248.13
730.89	247.94
731.22	247.65
731.55	247.42
731.88	247.24
732.21	246.95
732.54	246.70
732.87	246.48
733.20	246.32
733.53	246.18
733.86	246.07
734.19	245.91
734.52	245.76
734.85	245.98
735.18	245.65
735.51	245.65
735.84	245.47
736.17	245.44
736.50	245.08
736.83	245.48
737.16	245.48
737.49	245.41
737.82	245.29
738.15	245.29
738.48	245.27
738.81	245.11
739.14	244.91
739.47	244.82
739.80	244.64
740.13	244.61
740.46	244.43
740.79	244.19
741.12	244.02
741.45	243.79
741.78	243.37
742.11	243.50
742.44	243.32
742.77	243.15
743.10	243.00
743.43	242.78
743.75	242.15
744.08	242.58
744.41	242.35
744.74	242.18
745.07	241.91
745.40	241.80
745.73	241.89
746.06	241.77
746.39	241.73
746.71	241.55
747.04	241.30
747.37	241.16
747.70	241.15
748.03	241.05
748.36	241.03
748.68	240.91
749.01	240.60
749.34	240.45
749.67	240.35
750.00	240.24
750.33	240.53
750.65	240.42
750.98	239.66
751.31	239.53
751.64	239.42
751.97	239.57
752.29	239.34
752.62	238.98
752.95	238.91
753.28	238.64
753.60	238.55
753.93	238.51
754.26	238.45
754.59	238.16
754.91	237.94
755.24	237.77
755.57	237.65
755.90	237.53
756.22	237.25
756.55	237.06
756.88	236.80
757.20	236.25
757.53	236.00
757.86	235.92
758.19	235.91
758.51	235.75
758.84	235.36
759.17	235.21
759.49	235.14
759.82	235.25
760.15	235.18
760.47	235.10
760.80	234.89
761.13	234.82
761.45	234.67
761.78	234.63
762.11	234.44
762.43	234.27
762.76	234.14
763.08	234.17
763.41	234.12
763.74	234.07
764.06	234.05
764.39	234.00
764.71	233.87
765.04	233.67
765.37	233.61
765.69	233.46
766.02	233.41
766.34	233.31
766.67	232.97
767.00	233.07
767.32	233.18
767.65	233.38
767.97	233.29
768.30	233.26
768.62	233.16
768.95	233.10
769.27	233.05
769.60	233.08
769.92	233.01
770.25	232.85
770.57	232.73
770.90	232.58
771.22	232.47
771.55	232.44
771.87	232.45
772.20	232.38
772.52	232.83
772.85	233.44
773.17	233.36
773.50	233.33
773.82	233.19
774.15	232.96
774.47	232.63
774.80	232.60
775.12	232.57
775.45	232.58
775.77	232.58
776.09	232.57
776.42	232.56
776.74	232.65
777.07	232.60
777.39	232.60
777.72	232.61
778.04	232.64
778.36	232.60
778.69	232.57
779.01	232.58
779.33	232.10
779.66	231.44
779.98	231.40
780.31	231.45
780.63	231.58
780.95	231.65
781.28	231.58
781.60	231.45
781.92	231.46
782.25	231.45
782.57	231.43
782.89	231.34
783.22	231.26
783.54	231.14
783.86	231.18
784.19	231.16
784.51	231.26
784.83	231.21
785.16	231.19
785.48	231.22
785.80	231.22
786.12	231.19
786.45	231.21
786.77	231.25
787.09	231.19
787.42	231.00
787.74	230.98
788.06	231.09
788.38	231.05
788.71	231.00
789.03	231.00
789.35	231.05
789.67	231.01
789.99	231.04
790.32	230.95
790.64	231.00
790.96	231.31
791.28	231.22
791.61	231.11
791.93	231.12
792.25	231.09
792.57	231.36
792.89	231.32
793.21	231.36
793.54	231.27
793.86	231.20
794.18	231.26
794.50	231.14
794.82	231.06
795.14	231.12
795.47	231.22
795.79	231.17
796.11	231.08
796.43	231.05
796.75	231.03
797.07	231.05
797.39	230.96
797.71	230.66
798.04	230.64
798.36	230.75
798.68	230.70
799.00	230.73
799.32	230.46
799.64	230.57
799.96	230.53
800.28	230.65
800.60	230.58
800.92	230.58
801.24	230.58
801.56	230.57
801.89	230.49
802.21	230.44
802.53	230.30
802.85	230.40
803.17	230.61
803.49	230.48
803.81	230.38
804.13	230.27
804.45	230.16
804.77	230.11
805.09	230.06
805.41	229.96
805.73	229.77
806.05	229.65
806.37	229.57
806.69	229.44
807.01	229.39
807.33	229.43
807.65	229.11
807.97	229.27
808.28	229.23
808.60	229.15
808.92	229.05
809.24	229.28
809.56	229.16
809.88	228.97
810.20	228.93
810.52	229.02
810.84	228.94
811.16	228.86
811.48	228.80
811.80	228.90
812.12	228.87
812.43	228.94
812.75	228.95
813.07	228.86
813.39	228.85
813.71	228.75
814.03	228.66
814.35	228.75
814.67	228.50
814.98	228.39
815.30	228.37
815.62	228.29
815.94	228.02
816.26	228.19
816.58	228.09
816.89	228.15
817.21	228.05
817.53	228.08
817.85	228.15
818.17	228.11
818.48	227.92
818.80	228.00
819.12	227.93
819.44	227.79
819.76	227.77
820.07	227.78
820.39	227.67
820.71	227.79
821.03	227.81
821.34	227.81
821.66	227.90
821.98	227.96
822.30	227.96
822.61	228.22
822.93	227.98
823.25	228.00
823.57	227.94
823.88	228.01
824.20	228.11
824.52	228.17
824.83	228.19
825.15	228.22
825.47	228.13
825.79	228.17
826.10	228.20
826.42	228.13
826.74	228.20
827.05	228.19
827.37	228.14
827.69	228.05
828.00	228.07
828.32	228.11
828.64	228.08
828.95	228.34
829.27	228.24
829.58	228.23
829.90	228.32
830.22	228.32
830.53	228.25
830.85	228.15
831.17	227.99
831.48	228.05
831.80	228.01
832.11	228.10
832.43	228.04
832.75	228.07
833.06	228.48
833.38	228.32
833.69	228.38
834.01	228.41
834.32	228.45
834.64	228.35
834.96	228.35
835.27	228.36
835.59	228.19
835.90	228.12
836.22	228.13
836.53	227.99
836.85	227.96
837.16	228.40
837.48	228.44
837.79	228.65
838.11	228.58
838.42	228.60
838.74	228.65
839.05	228.60
839.37	228.59
839.68	228.23
840.00	228.24
840.31	228.27
840.63	228.25
840.94	228.16
841.26	228.15
841.57	228.11
841.88	228.08
842.20	227.99
842.51	227.89
842.83	227.90
843.14	228.30
843.46	228.33
843.77	228.11
844.08	228.08
844.40	227.89
844.71	227.84
845.03	227.86
845.34	227.80
845.65	227.74
845.97	227.75
846.28	227.79
846.60	227.74
846.91	227.66
847.22	227.64
847.54	227.75
847.85	227.81
848.16	227.77
848.48	227.75
848.79	227.93
849.10	228.01
849.42	227.97
849.73	227.51
850.04	227.45
850.36	227.21
850.67	227.25
850.98	227.28
851.30	227.30
851.61	227.23
851.92	227.19
852.23	227.34
852.55	227.31
852.86	227.20
853.17	227.28
853.49	227.43
853.80	227.46
854.11	227.48
854.42	227.53
854.74	227.47
855.05	227.54
855.36	227.27
855.67	227.30
855.99	227.32
856.30	227.92
856.61	227.92
856.92	227.94
857.23	227.93
857.55	227.88
857.86	227.83
858.17	227.87
858.48	227.76
858.79	227.68
859.11	227.71
859.42	227.72
859.73	227.65
860.04	227.54
860.35	227.37
860.66	227.24
860.98	227.15
861.29	227.21
861.60	227.13
861.91	227.23
862.22	227.10
862.53	227.05
862.84	226.48
863.16	226.61
863.47	226.54
863.78	226.54
864.09	226.56
864.40	226.62
864.71	226.65
865.02	226.81
865.33	226.71
865.64	226.65
865.95	226.69
866.27	226.98
866.58	226.94
866.89	227.05
867.20	227.04
867.51	227.02
867.82	227.00
868.13	227.15
868.44	227.07
868.75	227.19
869.06	227.23
869.37	227.30
869.68	227.19
869.99	227.24
870.30	227.23
870.61	227.27
870.92	227.20
871.23	227.18
871.54	227.18
871.85	227.33
872.16	227.41
872.47	227.33
872.78	227.14
873.09	227.17
873.40	227.15
873.71	227.19
874.02	227.20
874.33	227.13
874.64	227.03
874.95	227.12
875.26	226.99
875.56	227.03
875.87	226.99
876.18	226.92
876.49	227.42
876.80	227.40
877.11	227.33
877.42	227.35
877.73	227.35
878.04	227.31
878.35	227.38
878.66	227.36
878.96	227.43
879.27	227.41
879.58	227.44
879.89	227.44
880.20	227.61
880.51	227.62
880.82	227.63
881.12	227.66
881.43	227.59
881.74	227.62
882.05	227.47
882.36	227.52
882.67	227.62
882.97	227.11
883.28	227.02
883.59	227.05
883.90	227.12
884.21	227.15
884.51	227.06
884.82	226.94
885.13	226.94
885.44	226.88
885.74	226.88
886.05	226.83
886.36	226.80
886.67	226.63
886.98	226.89
887.28	226.97
887.59	226.95
887.90	226.90
888.20	226.85
888.51	227.01
888.82	226.94
889.13	226.97
889.43	227.37
889.74	227.41
890.05	227.37
890.35	227.27
890.66	227.20
890.97	227.23
891.28	227.23
891.58	227.20
891.89	227.18
892.20	227.10
892.50	227.09
892.81	227.08
893.12	227.05
893.42	226.86
893.73	226.80
894.04	226.73
894.34	226.81
894.65	226.77
894.95	226.61
895.26	226.61
895.57	226.75
895.87	226.28
896.18	226.33
896.48	226.33
896.79	226.40
897.10	226.45
897.40	226.46
897.71	226.47
898.01	226.44
898.32	226.54
898.63	226.52
898.93	226.52
899.24	226.55
899.54	226.53
899.85	226.43
900.15	226.39
900.46	226.49
900.76	226.51
901.07	226.53
901.38	226.55
901.68	226.57
901.99	226.31
902.29	226.33
902.60	226.24
902.90	226.21
903.21	226.15
903.51	226.14
903.82	226.18
904.12	226.17
904.43	226.19
904.73	226.16
905.03	226.11
905.34	226.52
905.64	226.47
905.95	226.48
906.25	226.45
906.56	226.56
906.86	226.52
907.17	226.47
907.47	226.51
907.77	226.48
908.08	226.36
908.38	226.40
908.69	226.42
908.99	226.50
909.30	226.52
909.60	226.55
909.90	226.54
910.21	226.40
910.51	226.34
910.81	226.39
911.12	226.37
911.42	226.45
911.73	226.02
912.03	226.04
912.33	226.09
912.64	226.09
912.94	225.97
913.24	225.95
913.55	225.92
913.85	225.89
914.15	226.03
914.46	226.17
914.76	226.09
915.06	226.13
915.37	226.07
915.67	226.02
915.97	226.02
916.27	225.92
916.58	225.97
916.88	225.99
917.18	225.98
917.49	226.32
917.79	226.30
918.09	226.36
918.39	226.54
918.70	226.50
919.00	226.52
919.30	226.80
919.60	226.71
919.91	226.70
920.21	226.76
920.51	226.63
920.81	226.63
921.12	226.77
921.42	226.74
921.72	226.79
922.02	226.89
922.32	226.95
922.63	227.00
922.93	227.29
923.23	227.34
923.53	227.22
923.83	226.87
924.13	227.01
924.44	227.03
924.74	227.04
925.04	227.19
925.34	227.21
925.64	226.98
925.94	226.97
926.24	227.30
926.55	227.22
926.85	227.29
927.15	227.21
927.45	227.27
927.75	227.24
928.05	227.25
928.35	227.18
928.65	227.22
928.95	227.30
929.26	227.09
929.56	227.11
929.86	227.23
930.16	227.24
930.46	227.09
930.76	227.10
931.06	226.87
931.36	226.77
931.66	226.83
931.96	226.84
932.26	226.84
932.56	226.60
932.86	226.61
933.16	226.65
933.46	226.64
933.76	226.47
934.06	226.59
934.36	226.67
934.66	226.66
934.96	226.60
935.26	226.60
935.56	226.68
935.86	226.56
936.16	226.43
936.46	226.42
936.76	226.51
937.06	226.43
937.36	226.51
937.66	226.50
937.96	226.44
938.26	226.36
938.56	226.37
938.86	226.43
939.16	226.52
939.46	226.56
939.76	226.55
940.06	226.55
940.35	226.47
940.65	226.30
940.95	226.32
941.25	226.24
941.55	226.19
941.85	226.14
942.15	226.26
942.45	226.37
942.75	226.37
943.04	226.31
943.34	226.38
943.64	226.30
943.94	226.20
944.24	226.27
944.54	226.36
944.84	226.32
945.13	226.23
945.43	226.21
945.73	226.17
946.03	226.14
946.33	226.13
946.62	226.06
946.92	226.02
947.22	226.03
947.52	226.06
947.82	226.09
948.11	225.99
948.41	225.86
948.71	225.75
949.01	225.77
949.31	225.78
949.60	225.79
949.90	225.86
950.20	225.90
950.50	225.82
950.79	225.80
951.09	225.92
951.39	225.87
951.69	225.79
951.98	225.89
952.28	225.95
952.58	225.96
952.87	226.05
953.17	226.11
953.47	226.07
953.76	226.07
954.06	226.00
954.36	225.97
954.66	226.01
954.95	226.18
955.25	226.16
955.55	226.20
955.84	226.04
956.14	226.14
956.44	226.13
956.73	226.09
957.03	226.05
957.32	226.05
957.62	226.08
957.92	226.21
958.21	226.24
958.51	226.80
958.81	226.90
959.10	226.89
959.40	227.05
959.69	227.13
959.99	227.23
960.29	227.23
960.58	227.23
960.88	227.39
961.17	227.34
961.47	227.40
961.76	227.39
962.06	227.56
962.36	227.43
962.65	227.51
962.95	227.56
963.24	227.48
963.54	227.44
963.83	227.46
964.13	227.37
964.42	227.17
964.72	226.76
965.01	226.68
965.31	226.61
965.60	226.50
965.90	226.78
966.19	226.67
966.49	226.66
966.78	226.67
967.08	226.63
967.37	226.63
967.67	226.57
967.96	226.58
968.26	226.47
968.55	226.58
968.85	226.50
969.14	226.53
969.43	226.59
969.73	226.64
970.02	226.64
970.32	226.62
970.61	226.65
970.91	226.55
971.20	226.52
971.49	226.51
971.79	226.52
972.08	226.21
972.38	226.26
972.67	226.25
972.96	226.33
973.26	226.21
973.55	226.39
973.85	226.36
974.14	226.40
974.43	226.51
974.73	226.40
975.02	226.36
975.31	226.30
975.61	226.36
975.90	226.28
976.19	226.15
976.49	226.21
976.78	226.24
977.07	226.25
977.37	226.30
977.66	226.39
977.95	226.35
978.24	226.34
978.54	226.36
978.83	226.30
979.12	226.30
979.42	226.31
979.71	226.16
980.00	226.16
980.29	226.08
980.59	225.92
980.88	226.03
981.17	226.04
981.46	226.10
981.76	226.02
982.05	226.21
982.34	226.26
982.63	226.31
982.93	226.27
983.22	226.38
983.51	226.41
983.80	226.45
984.09	226.46
984.39	226.46
984.68	226.42
984.97	226.43
985.26	226.39
985.55	226.38
985.85	226.29
986.14	226.35
986.43	226.42
986.72	226.44
987.01	226.33
987.30	226.27
987.59	226.25
987.89	226.28
988.18	226.06
988.47	226.02
988.76	225.91
989.05	225.90
989.34	225.79
989.63	225.87
989.92	225.71
990.22	225.67
990.51	225.68
990.80	225.65
991.09	225.73
991.38	225.74
991.67	225.74
991.96	225.70
992.25	225.67
992.54	225.67
992.83	225.70
993.12	225.66
993.41	225.79
993.70	225.90
993.99	226.00
994.28	226.09
994.58	226.18
994.87	226.10
995.16	226.04
995.45	226.01
995.74	225.81
996.03	225.96
996.32	226.06
996.61	226.17
996.90	226.10
997.19	226.14
997.48	226.14
997.77	226.12
998.06	226.20
998.34	226.15
998.63	226.08
998.92	226.14
999.21	226.22
999.50	226.23
999.79	226.11
1000.08	226.10
1000.37	226.07
1000.66	226.01
1000.95	226.22
1001.24	226.25
1001.53	226.34
1001.82	226.37
1002.11	226.32
1002.40	226.33
1002.68	226.39
1002.97	226.81
1003.26	226.72
1003.55	226.72
1003.84	226.75
1004.13	226.87
1004.42	226.86
1004.71	226.89
1004.99	226.84
1005.28	226.97
1005.57	226.90
1005.86	226.81
1006.15	226.77
1006.44	226.81
1006.72	226.95
1007.01	226.84
1007.30	226.89
1007.59	226.85
1007.88	226.82
1008.17	226.82
1008.45	226.70
1008.74	226.52
1009.03	226.25
1009.32	226.26
1009.60	226.24
1009.89	226.19
1010.18	225.99
1010.47	226.05
1010.76	226.05
1011.04	226.01
1011.33	226.03
1011.62	226.09
1011.91	226.19
1012.19	226.21
1012.48	226.19
1012.77	226.14
1013.05	226.37
1013.34	226.38
1013.63	226.33
1013.92	226.41
1014.20	226.40
1014.49	226.44
1014.78	226.50
1015.06	226.44
1015.35	226.43
1015.64	226.43
1015.92	226.49
1016.21	226.54
1016.50	226.52
1016.78	226.60
1017.07	226.72
1017.36	226.61
1017.64	226.58
1017.93	226.60
1018.22	226.55
1018.50	226.54
1018.79	226.49
1019.08	226.26
1019.36	226.30
1019.65	226.26
1019.93	226.40
1020.22	226.45
1020.51	226.74
1020.79	226.69
1021.08	225.90
1021.36	225.65
1021.65	225.55
1021.94	226.25
1022.22	226.60
1022.51	225.85
1022.79	229.45
1023.08	226.65
1023.36	232.45
1023.65	225.55
>>>>>End Processed Spectral Data<<<<<
