SpectraSuite Data File
++++++++++++++++++++++++++++++++++++
Date: Wed Sep 04 17:47:52 EDT 2013
User: lab3
Dark Spectrum Present: Yes
Reference Spectrum Present: No
Number of Sampled Component Spectra: 1
Spectrometers: USB2E7196
Integration Time (usec): 170000 (USB2E7196)
Spectra Averaged: 20 (USB2E7196)
Boxcar Smoothing: 10 (USB2E7196)
Correct for Electrical Dark: No (USB2E7196)
Strobe/Lamp Enabled: No (USB2E7196)
Correct for Detector Non-linearity: No (USB2E7196)
Correct for Stray Light: No (USB2E7196)
Number of Pixels in Processed Spectrum: 2048
>>>>>Begin Processed Spectral Data<<<<<
339.09	0.00
339.48	212.50
339.86	214.20
340.24	215.45
340.63	215.25
341.01	224.45
341.39	220.55
341.78	222.70
342.16	223.75
342.54	224.65
342.93	212.14
343.31	222.82
343.69	223.38
344.07	223.84
344.46	224.35
344.84	224.82
345.22	224.85
345.60	225.11
345.99	225.24
346.37	225.39
346.75	225.43
347.13	225.45
347.52	225.55
347.90	225.83
348.28	225.86
348.66	226.04
349.05	225.94
349.43	226.05
349.81	226.14
350.19	226.14
350.57	226.19
350.96	226.28
351.34	226.42
351.72	226.45
352.10	226.59
352.48	226.60
352.87	226.68
353.25	226.70
353.63	226.71
354.01	226.77
354.39	226.88
354.77	226.94
355.15	227.13
355.54	227.12
355.92	226.96
356.30	227.05
356.68	227.42
357.06	227.55
357.44	227.47
357.82	227.55
358.20	228.03
358.58	228.10
358.97	228.12
359.35	228.23
359.73	228.49
360.11	228.53
360.49	228.62
360.87	228.65
361.25	228.77
361.63	229.00
362.01	229.08
362.39	229.05
362.77	229.09
363.15	229.13
363.53	229.16
363.91	229.20
364.29	229.19
364.67	228.70
365.05	228.71
365.43	228.86
365.81	228.90
366.19	228.81
366.57	229.00
366.95	229.03
367.33	228.94
367.71	228.92
368.09	228.98
368.47	229.00
368.85	229.02
369.23	229.16
369.61	228.97
369.99	229.08
370.37	229.12
370.75	229.42
371.13	229.28
371.51	229.16
371.89	229.24
372.27	229.33
372.65	229.37
373.03	229.31
373.41	229.16
373.78	229.15
374.16	228.77
374.54	228.58
374.92	228.51
375.30	228.47
375.68	228.29
376.06	228.26
376.44	228.12
376.82	228.09
377.19	227.95
377.57	227.89
377.95	227.64
378.33	227.50
378.71	227.05
379.09	227.12
379.47	227.15
379.84	226.97
380.22	226.72
380.60	226.55
380.98	226.45
381.36	226.39
381.73	226.21
382.11	226.23
382.49	226.20
382.87	226.05
383.25	225.91
383.62	226.39
384.00	226.17
384.38	226.13
384.76	226.12
385.13	226.30
385.51	226.14
385.89	226.05
386.27	225.98
386.64	225.96
387.02	225.75
387.40	225.69
387.78	225.66
388.15	225.69
388.53	225.63
388.91	225.60
389.29	225.48
389.66	225.46
390.04	225.39
390.42	225.41
390.79	225.41
391.17	225.39
391.55	224.87
391.92	224.89
392.30	224.94
392.68	224.83
393.05	224.76
393.43	224.91
393.81	224.95
394.18	224.90
394.56	224.98
394.94	225.16
395.31	225.05
395.69	225.25
396.06	225.36
396.44	225.47
396.82	225.44
397.19	225.79
397.57	225.84
397.95	225.96
398.32	225.90
398.70	226.06
399.07	226.29
399.45	226.35
399.82	226.44
400.20	226.51
400.58	226.67
400.95	226.56
401.33	226.77
401.70	227.20
402.08	227.30
402.45	227.52
402.83	227.72
403.20	228.03
403.58	228.14
403.95	228.36
404.33	228.64
404.71	228.88
405.08	229.36
405.46	229.55
405.83	229.80
406.21	230.05
406.58	230.38
406.96	230.64
407.33	230.99
407.70	231.38
408.08	232.06
408.45	232.54
408.83	233.02
409.20	233.38
409.58	233.63
409.95	234.24
410.33	234.74
410.70	235.16
411.08	235.82
411.45	236.47
411.82	237.08
412.20	237.77
412.57	238.79
412.95	239.15
413.32	240.13
413.69	240.94
414.07	241.90
414.44	242.78
414.82	243.91
415.19	245.09
415.56	246.26
415.94	247.31
416.31	248.67
416.68	250.03
417.06	251.65
417.43	253.19
417.81	254.96
418.18	256.68
418.55	258.58
418.93	260.50
419.30	262.62
419.67	264.83
420.04	267.15
420.42	269.40
420.79	272.38
421.16	275.08
421.54	278.10
421.91	281.07
422.28	284.09
422.66	287.22
423.03	290.65
423.40	294.06
423.77	297.53
424.15	300.94
424.52	304.71
424.89	308.79
425.26	312.71
425.64	316.34
426.01	320.44
426.38	324.66
426.75	329.11
427.13	333.52
427.50	338.19
427.87	342.98
428.24	347.90
428.61	352.29
428.99	357.48
429.36	362.90
429.73	368.32
430.10	373.86
430.47	379.50
430.85	385.03
431.22	391.09
431.59	397.80
431.96	404.15
432.33	410.87
432.70	417.38
433.08	425.15
433.45	432.57
433.82	439.90
434.19	448.00
434.56	456.02
434.93	463.53
435.30	471.16
435.68	479.54
436.05	487.78
436.42	495.97
436.79	503.58
437.16	511.77
437.53	520.39
437.90	529.01
438.27	537.32
438.64	546.01
439.01	554.21
439.38	561.24
439.75	568.17
440.13	576.13
440.50	583.47
440.87	589.36
441.24	595.67
441.61	602.57
441.98	607.83
442.35	613.61
442.72	619.63
443.09	625.38
443.46	628.80
443.83	631.11
444.20	633.12
444.57	635.68
444.94	636.72
445.31	637.83
445.68	639.20
446.05	639.51
446.42	638.39
446.79	636.88
447.16	635.41
447.53	634.23
447.90	630.81
448.27	627.36
448.64	622.65
449.01	619.03
449.37	612.95
449.74	606.73
450.11	599.91
450.48	592.17
450.85	584.29
451.22	577.50
451.59	570.96
451.96	564.82
452.33	556.92
452.70	549.69
453.07	541.14
453.43	531.97
453.80	523.65
454.17	515.71
454.54	508.15
454.91	500.04
455.28	492.07
455.65	484.64
456.02	477.86
456.38	471.72
456.75	464.19
457.12	457.80
457.49	451.70
457.86	445.42
458.23	440.44
458.59	434.75
458.96	429.16
459.33	424.15
459.70	419.07
460.07	415.02
460.43	410.37
460.80	406.19
461.17	402.68
461.54	398.76
461.91	395.00
462.27	391.21
462.64	388.00
463.01	384.60
463.38	381.37
463.74	377.49
464.11	374.45
464.48	371.77
464.85	368.97
465.21	366.95
465.58	364.72
465.95	361.83
466.32	359.74
466.68	357.42
467.05	355.29
467.42	353.11
467.78	350.89
468.15	348.86
468.52	347.27
468.88	345.01
469.25	343.10
469.62	341.72
469.98	340.21
470.35	338.76
470.72	337.36
471.08	335.64
471.45	334.32
471.82	333.13
472.18	331.64
472.55	330.65
472.92	329.31
473.28	328.23
473.65	327.23
474.02	326.22
474.38	325.46
474.75	324.61
475.11	323.84
475.48	323.15
475.85	322.53
476.21	321.89
476.58	321.42
476.94	321.01
477.31	320.39
477.67	319.95
478.04	319.53
478.41	319.24
478.77	319.49
479.14	319.29
479.50	319.19
479.87	319.24
480.23	319.26
480.60	319.22
480.96	319.18
481.33	319.59
481.69	319.75
482.06	320.01
482.42	320.35
482.79	320.66
483.15	321.18
483.52	321.83
483.88	322.35
484.25	322.97
484.61	323.69
484.98	324.36
485.34	325.35
485.71	326.32
486.07	327.35
486.44	327.96
486.80	329.06
487.17	330.12
487.53	331.47
487.90	332.82
488.26	334.46
488.62	336.17
488.99	337.63
489.35	339.32
489.72	341.12
490.08	343.00
490.44	344.97
490.81	347.03
491.17	349.13
491.54	351.66
491.90	354.17
492.26	356.80
492.63	359.59
492.99	362.31
493.36	365.41
493.72	368.66
494.08	372.03
494.45	375.70
494.81	379.62
495.17	383.54
495.54	387.74
495.90	391.86
496.26	396.23
496.63	400.93
496.99	405.79
497.35	410.80
497.72	416.12
498.08	421.61
498.44	427.28
498.80	433.35
499.17	439.21
499.53	445.49
499.89	452.05
500.26	458.96
500.62	465.87
500.98	473.26
501.34	480.53
501.71	488.22
502.07	495.91
502.43	503.82
502.79	512.09
503.16	520.61
503.52	529.59
503.88	538.75
504.24	548.29
504.60	558.17
504.97	568.55
505.33	578.81
505.69	589.89
506.05	600.83
506.41	611.84
506.78	623.51
507.14	635.36
507.50	647.57
507.86	660.04
508.22	673.03
508.59	685.82
508.95	699.58
509.31	713.65
509.67	727.93
510.03	742.14
510.39	756.50
510.75	771.41
511.12	786.60
511.48	802.29
511.84	817.90
512.20	833.67
512.56	849.64
512.92	866.29
513.28	882.75
513.64	899.95
514.00	917.48
514.37	934.80
514.73	952.72
515.09	970.91
515.45	989.25
515.81	1007.28
516.17	1025.61
516.53	1043.93
516.89	1062.32
517.25	1081.30
517.61	1101.37
517.97	1121.68
518.33	1141.51
518.69	1161.65
519.05	1181.64
519.41	1202.03
519.77	1222.77
520.13	1243.37
520.49	1263.85
520.85	1285.97
521.21	1306.60
521.57	1327.45
521.93	1348.32
522.29	1369.28
522.65	1389.60
523.01	1410.14
523.37	1430.89
523.73	1451.92
524.09	1472.10
524.45	1492.40
524.81	1513.10
525.17	1533.25
525.53	1553.58
525.89	1574.08
526.25	1594.25
526.61	1614.21
526.97	1635.13
527.33	1656.21
527.68	1677.68
528.04	1698.71
528.40	1718.07
528.76	1739.00
529.12	1759.38
529.48	1779.88
529.84	1799.77
530.20	1820.72
530.56	1841.10
530.91	1861.58
531.27	1881.76
531.63	1902.23
531.99	1922.73
532.35	1942.39
532.71	1962.31
533.07	1982.71
533.42	2002.37
533.78	2021.99
534.14	2041.82
534.50	2060.53
534.86	2079.35
535.21	2096.48
535.57	2114.52
535.93	2131.81
536.29	2149.06
536.65	2166.65
537.00	2183.67
537.36	2200.62
537.72	2216.25
538.08	2232.94
538.44	2248.99
538.79	2264.79
539.15	2280.91
539.51	2296.40
539.87	2311.24
540.22	2324.87
540.58	2338.35
540.94	2351.10
541.29	2363.60
541.65	2375.77
542.01	2387.98
542.37	2397.95
542.72	2408.74
543.08	2418.58
543.44	2429.96
543.79	2439.54
544.15	2449.62
544.51	2459.36
544.87	2468.72
545.22	2477.21
545.58	2484.65
545.94	2491.70
546.29	2497.97
546.65	2503.84
547.01	2509.26
547.36	2514.42
547.72	2519.58
548.07	2523.34
548.43	2528.60
548.79	2532.52
549.14	2536.10
549.50	2539.49
549.86	2543.57
550.21	2547.03
550.57	2550.68
550.92	2551.64
551.28	2552.79
551.64	2554.35
551.99	2555.85
552.35	2556.77
552.70	2558.87
553.06	2560.13
553.41	2561.15
553.77	2562.25
554.13	2563.39
554.48	2564.77
554.84	2565.63
555.19	2566.77
555.55	2568.52
555.90	2567.33
556.26	2566.62
556.61	2565.05
556.97	2562.67
557.32	2561.36
557.68	2559.69
558.03	2557.76
558.39	2556.30
558.74	2555.60
559.10	2552.18
559.45	2548.27
559.81	2544.19
560.16	2538.59
560.52	2533.91
560.87	2529.34
561.23	2524.31
561.58	2518.70
561.94	2511.52
562.29	2504.51
562.64	2497.46
563.00	2489.11
563.35	2482.43
563.71	2475.86
564.06	2469.59
564.42	2463.06
564.77	2456.40
565.12	2449.08
565.48	2441.11
565.83	2433.06
566.19	2424.92
566.54	2417.14
566.89	2409.60
567.25	2401.94
567.60	2395.07
567.96	2387.44
568.31	2379.29
568.66	2370.59
569.02	2361.65
569.37	2353.35
569.72	2345.62
570.08	2336.38
570.43	2326.95
570.78	2317.90
571.14	2308.55
571.49	2298.36
571.84	2288.95
572.20	2278.11
572.55	2267.86
572.90	2257.17
573.26	2247.08
573.61	2236.00
573.96	2224.82
574.31	2212.97
574.67	2201.06
575.02	2188.64
575.37	2175.99
575.72	2162.99
576.08	2150.91
576.43	2138.14
576.78	2125.45
577.13	2112.03
577.49	2099.40
577.84	2087.60
578.19	2075.90
578.54	2063.27
578.90	2051.64
579.25	2039.28
579.60	2026.91
579.95	2014.41
580.30	2001.97
580.66	1988.68
581.01	1975.43
581.36	1961.86
581.71	1949.27
582.06	1936.58
582.42	1924.07
582.77	1911.71
583.12	1900.16
583.47	1888.21
583.82	1877.15
584.17	1865.32
584.53	1853.68
584.88	1841.09
585.23	1828.14
585.58	1814.36
585.93	1801.48
586.28	1788.47
586.63	1774.76
586.98	1761.00
587.34	1747.98
587.69	1734.78
588.04	1722.66
588.39	1710.74
588.74	1698.65
589.09	1686.85
589.44	1674.58
589.79	1662.60
590.14	1650.70
590.49	1638.88
590.84	1627.13
591.19	1615.06
591.54	1603.13
591.89	1591.30
592.25	1581.46
592.60	1570.34
592.95	1558.87
593.30	1547.10
593.65	1535.17
594.00	1523.44
594.35	1513.78
594.70	1502.03
595.05	1490.79
595.40	1478.83
595.75	1467.10
596.10	1456.06
596.45	1444.72
596.80	1434.16
597.15	1423.19
597.50	1411.81
597.85	1400.36
598.19	1389.00
598.54	1377.30
598.89	1366.12
599.24	1355.77
599.59	1344.15
599.94	1333.49
600.29	1323.47
600.64	1313.59
600.99	1303.38
601.34	1294.01
601.69	1282.90
602.04	1273.44
602.39	1263.97
602.74	1254.88
603.08	1245.62
603.43	1236.61
603.78	1227.07
604.13	1217.55
604.48	1207.96
604.83	1198.40
605.18	1189.15
605.53	1179.89
605.87	1171.03
606.22	1162.62
606.57	1153.36
606.92	1144.29
607.27	1135.41
607.62	1127.04
607.96	1118.55
608.31	1110.59
608.66	1102.37
609.01	1094.19
609.36	1085.87
609.70	1077.47
610.05	1069.10
610.40	1061.14
610.75	1052.59
611.10	1044.52
611.44	1035.98
611.79	1027.97
612.14	1020.35
612.49	1012.41
612.83	1005.06
613.18	997.47
613.53	989.97
613.88	982.27
614.22	974.73
614.57	967.10
614.92	959.20
615.27	951.86
615.61	944.36
615.96	936.80
616.31	929.55
616.65	922.77
617.00	915.82
617.35	908.73
617.70	901.69
618.04	894.75
618.39	887.82
618.74	881.74
619.08	874.91
619.43	868.18
619.78	861.37
620.12	854.20
620.47	847.59
620.82	840.56
621.16	834.07
621.51	827.87
621.85	821.70
622.20	815.30
622.55	808.81
622.89	802.56
623.24	796.56
623.59	790.31
623.93	784.00
624.28	778.06
624.62	772.67
624.97	767.01
625.32	761.27
625.66	755.61
626.01	749.66
626.35	744.41
626.70	738.93
627.04	733.82
627.39	728.63
627.73	723.28
628.08	718.30
628.43	712.92
628.77	707.72
629.12	702.56
629.46	697.96
629.81	693.57
630.15	688.80
630.50	684.07
630.84	679.33
631.19	674.63
631.53	670.08
631.88	664.96
632.22	660.11
632.57	655.97
632.91	651.48
633.26	647.33
633.60	642.77
633.95	638.29
634.29	633.74
634.64	629.34
634.98	624.76
635.32	620.57
635.67	616.72
636.01	612.63
636.36	608.31
636.70	604.35
637.05	600.07
637.39	596.05
637.73	591.99
638.08	588.00
638.42	583.95
638.77	579.65
639.11	575.39
639.45	571.15
639.80	566.71
640.14	562.68
640.49	558.58
640.83	554.75
641.17	551.24
641.52	547.74
641.86	544.27
642.20	541.31
642.55	537.71
642.89	534.10
643.23	530.51
643.58	527.58
643.92	523.84
644.26	520.48
644.61	517.33
644.95	514.00
645.29	510.77
645.64	507.69
645.98	504.69
646.32	502.07
646.66	498.99
647.01	496.28
647.35	493.65
647.69	490.90
648.04	488.33
648.38	485.59
648.72	482.77
649.06	479.80
649.41	476.74
649.75	473.71
650.09	470.97
650.43	468.19
650.78	465.33
651.12	462.62
651.46	459.89
651.80	457.13
652.14	454.50
652.49	452.05
652.83	449.45
653.17	447.00
653.51	444.25
653.85	442.10
654.20	439.50
654.54	436.75
654.88	434.16
655.22	431.93
655.56	429.39
655.90	427.00
656.25	424.75
656.59	422.54
656.93	420.51
657.27	418.47
657.61	416.09
657.95	413.77
658.29	411.71
658.64	409.65
658.98	407.51
659.32	405.30
659.66	403.13
660.00	401.18
660.34	399.10
660.68	397.15
661.02	394.99
661.36	393.11
661.70	391.37
662.05	389.50
662.39	387.59
662.73	385.87
663.07	384.27
663.41	382.42
663.75	380.48
664.09	378.61
664.43	376.55
664.77	374.99
665.11	373.23
665.45	371.60
665.79	370.01
666.13	368.28
666.47	366.75
666.81	365.11
667.15	363.34
667.49	361.98
667.83	360.63
668.17	359.20
668.51	357.70
668.85	356.36
669.19	355.25
669.53	353.68
669.87	352.15
670.21	350.68
670.55	349.28
670.89	348.24
671.23	347.02
671.57	345.73
671.91	344.39
672.25	343.25
672.58	341.99
672.92	340.51
673.26	339.41
673.60	338.16
673.94	337.10
674.28	336.09
674.62	334.85
674.96	333.57
675.30	332.45
675.64	331.35
675.97	330.08
676.31	328.71
676.65	327.47
676.99	326.61
677.33	325.48
677.67	324.53
678.01	323.19
678.34	322.14
678.68	321.30
679.02	320.26
679.36	319.26
679.70	318.26
680.04	317.42
680.37	316.37
680.71	315.44
681.05	314.51
681.39	313.59
681.73	312.70
682.06	311.76
682.40	310.91
682.74	310.11
683.08	309.40
683.42	308.48
683.75	307.73
684.09	306.75
684.43	305.93
684.77	305.05
685.10	304.38
685.44	303.58
685.78	302.68
686.12	301.92
686.45	301.12
686.79	300.27
687.13	299.52
687.46	298.85
687.80	298.22
688.14	297.38
688.48	296.59
688.81	295.83
689.15	295.28
689.49	294.55
689.82	293.84
690.16	293.00
690.50	292.27
690.83	291.57
691.17	290.79
691.51	290.06
691.84	289.45
692.18	288.75
692.52	288.09
692.85	287.51
693.19	287.11
693.52	286.43
693.86	285.75
694.20	285.12
694.53	284.45
694.87	283.80
695.21	283.21
695.54	282.64
695.88	281.93
696.21	281.10
696.55	280.45
696.88	279.80
697.22	279.17
697.56	278.74
697.89	278.17
698.23	277.64
698.56	277.14
698.90	276.67
699.23	276.11
699.57	275.52
699.90	274.89
700.24	274.21
700.58	273.81
700.91	273.51
701.25	273.44
701.58	273.35
701.92	272.90
702.25	272.40
702.59	271.93
702.92	271.59
703.26	271.23
703.59	270.94
703.93	270.97
704.26	270.60
704.60	270.22
704.93	269.79
705.26	269.39
705.60	268.97
705.93	268.46
706.27	268.21
706.60	268.04
706.94	267.90
707.27	267.41
707.61	267.09
707.94	266.64
708.27	265.86
708.61	265.14
708.94	264.78
709.28	264.45
709.61	264.04
709.94	263.70
710.28	263.36
710.61	263.01
710.95	262.20
711.28	262.22
711.61	261.83
711.95	261.62
712.28	261.25
712.61	260.98
712.95	260.92
713.28	260.76
713.61	260.30
713.95	259.86
714.28	259.70
714.61	259.35
714.95	259.07
715.28	258.70
715.61	258.39
715.95	258.13
716.28	257.75
716.61	257.58
716.95	257.23
717.28	256.96
717.61	256.60
717.94	256.34
718.28	255.67
718.61	255.35
718.94	255.01
719.27	254.79
719.61	254.47
719.94	254.13
720.27	253.64
720.60	253.40
720.94	253.18
721.27	253.00
721.60	252.77
721.93	252.45
722.27	252.49
722.60	252.31
722.93	252.01
723.26	251.85
723.59	251.57
723.93	251.51
724.26	251.35
724.59	251.08
724.92	250.89
725.25	250.75
725.59	250.50
725.92	250.32
726.25	250.07
726.58	250.00
726.91	249.71
727.24	249.60
727.57	249.40
727.91	249.06
728.24	248.82
728.57	248.54
728.90	248.44
729.23	248.06
729.56	248.11
729.89	247.94
730.22	247.77
730.55	247.56
730.89	247.26
731.22	247.09
731.55	246.88
731.88	246.73
732.21	246.49
732.54	246.26
732.87	246.01
733.20	245.93
733.53	245.70
733.86	245.55
734.19	245.30
734.52	245.12
734.85	245.37
735.18	245.08
735.51	245.12
735.84	244.92
736.17	244.89
736.50	244.40
736.83	244.75
737.16	244.55
737.49	244.39
737.82	244.20
738.15	244.00
738.48	243.93
738.81	243.72
739.14	243.52
739.47	243.47
739.80	243.34
740.13	243.15
740.46	242.92
740.79	242.71
741.12	242.55
741.45	242.30
741.78	241.87
742.11	241.87
742.44	241.59
742.77	241.55
743.10	241.32
743.43	241.23
743.75	240.58
744.08	241.06
744.41	240.85
744.74	240.79
745.07	240.59
745.40	240.54
745.73	240.58
746.06	240.43
746.39	240.32
746.71	240.18
747.04	239.98
747.37	239.78
747.70	239.71
748.03	239.60
748.36	239.60
748.68	239.51
749.01	239.28
749.34	239.13
749.67	238.97
750.00	238.85
750.33	239.15
750.65	239.09
750.98	238.34
751.31	238.30
751.64	238.19
751.97	238.32
752.29	238.11
752.62	237.85
752.95	237.73
753.28	237.51
753.60	237.40
753.93	237.55
754.26	237.54
754.59	237.33
754.91	237.11
755.24	236.97
755.57	236.87
755.90	236.74
756.22	236.66
756.55	236.54
756.88	236.42
757.20	235.95
757.53	235.68
757.86	235.66
758.19	235.60
758.51	235.39
758.84	235.09
759.17	234.98
759.49	234.91
759.82	235.12
760.15	235.20
760.47	235.15
760.80	234.83
761.13	234.81
761.45	234.79
761.78	234.79
762.11	234.75
762.43	234.57
762.76	234.54
763.08	234.45
763.41	234.46
763.74	234.39
764.06	234.37
764.39	234.40
764.71	234.29
765.04	234.15
765.37	234.07
765.69	234.01
766.02	233.94
766.34	233.84
766.67	233.60
767.00	233.52
767.32	233.70
767.65	233.97
767.97	233.85
768.30	233.81
768.62	233.77
768.95	233.68
769.27	233.63
769.60	233.56
769.92	233.44
770.25	233.25
770.57	233.11
770.90	233.05
771.22	232.92
771.55	232.88
771.87	232.91
772.20	232.88
772.52	233.20
772.85	233.75
773.17	233.73
773.50	233.63
773.82	233.50
774.15	233.22
774.47	232.87
774.80	232.78
775.12	232.68
775.45	232.59
775.77	232.51
776.09	232.48
776.42	232.50
776.74	232.58
777.07	232.52
777.39	232.57
777.72	232.42
778.04	232.45
778.36	232.32
778.69	232.21
779.01	232.17
779.33	231.66
779.66	231.02
779.98	230.92
780.31	230.86
780.63	231.08
780.95	231.10
781.28	231.02
781.60	230.89
781.92	230.83
782.25	230.76
782.57	230.73
782.89	230.64
783.22	230.57
783.54	230.42
783.86	230.39
784.19	230.20
784.51	230.32
784.83	230.17
785.16	230.15
785.48	230.15
785.80	230.14
786.12	230.15
786.45	230.08
786.77	230.06
787.09	230.02
787.42	229.78
787.74	229.70
788.06	229.62
788.38	229.64
788.71	229.61
789.03	229.65
789.35	229.65
789.67	229.63
789.99	229.65
790.32	229.62
790.64	229.67
790.96	230.15
791.28	229.95
791.61	229.90
791.93	229.91
792.25	229.87
792.57	230.18
792.89	230.04
793.21	230.05
793.54	229.95
793.86	229.85
794.18	229.89
794.50	229.80
794.82	229.76
795.14	229.78
795.47	229.86
795.79	229.74
796.11	229.63
796.43	229.56
796.75	229.43
797.07	229.39
797.39	229.27
797.71	228.84
798.04	228.85
798.36	228.81
798.68	228.76
799.00	228.74
799.32	228.45
799.64	228.61
799.96	228.64
800.28	228.71
800.60	228.73
800.92	228.64
801.24	228.57
801.56	228.67
801.89	228.55
802.21	228.48
802.53	228.50
802.85	228.62
803.17	228.81
803.49	228.75
803.81	228.73
804.13	228.74
804.45	228.62
804.77	228.66
805.09	228.73
805.41	228.75
805.73	228.59
806.05	228.48
806.37	228.42
806.69	228.35
807.01	228.36
807.33	228.39
807.65	228.20
807.97	228.48
808.28	228.41
808.60	228.47
808.92	228.47
809.24	228.71
809.56	228.59
809.88	228.48
810.20	228.44
810.52	228.55
810.84	228.45
811.16	228.50
811.48	228.43
811.80	228.62
812.12	228.48
812.43	228.65
812.75	228.71
813.07	228.66
813.39	228.61
813.71	228.54
814.03	228.47
814.35	228.52
814.67	228.25
814.98	228.22
815.30	228.21
815.62	228.11
815.94	227.81
816.26	228.02
816.58	227.89
816.89	227.94
817.21	227.76
817.53	227.80
817.85	227.78
818.17	227.86
818.48	227.63
818.80	227.82
819.12	227.73
819.44	227.62
819.76	227.60
820.07	227.62
820.39	227.56
820.71	227.63
821.03	227.63
821.34	227.66
821.66	227.69
821.98	227.73
822.30	227.75
822.61	228.00
822.93	227.77
823.25	227.75
823.57	227.71
823.88	227.83
824.20	227.87
824.52	227.97
824.83	227.84
825.15	227.89
825.47	227.84
825.79	227.90
826.10	227.88
826.42	227.85
826.74	227.90
827.05	227.90
827.37	227.90
827.69	227.97
828.00	227.97
828.32	227.98
828.64	227.91
828.95	228.13
829.27	228.00
829.58	227.98
829.90	228.07
830.22	228.13
830.53	228.01
830.85	227.94
831.17	227.77
831.48	227.78
831.80	227.76
832.11	227.68
832.43	227.68
832.75	227.75
833.06	228.06
833.38	227.97
833.69	228.00
834.01	228.05
834.32	227.95
834.64	227.89
834.96	227.97
835.27	227.97
835.59	227.86
835.90	227.79
836.22	227.79
836.53	227.73
836.85	227.72
837.16	228.20
837.48	228.23
837.79	228.46
838.11	228.48
838.42	228.46
838.74	228.54
839.05	228.42
839.37	228.38
839.68	228.03
840.00	227.98
840.31	227.98
840.63	227.86
840.94	227.87
841.26	227.82
841.57	227.74
841.88	227.81
842.20	227.68
842.51	227.55
842.83	227.57
843.14	227.95
843.46	227.98
843.77	227.73
844.08	227.70
844.40	227.53
844.71	227.46
845.03	227.44
845.34	227.40
845.65	227.44
845.97	227.38
846.28	227.45
846.60	227.50
846.91	227.45
847.22	227.44
847.54	227.48
847.85	227.48
848.16	227.44
848.48	227.32
848.79	227.51
849.10	227.66
849.42	227.65
849.73	227.24
850.04	227.15
850.36	227.00
850.67	227.06
850.98	227.01
851.30	227.13
851.61	227.04
851.92	227.03
852.23	227.11
852.55	227.18
852.86	227.18
853.17	227.22
853.49	227.34
853.80	227.47
854.11	227.51
854.42	227.57
854.74	227.55
855.05	227.58
855.36	227.34
855.67	227.33
855.99	227.29
856.30	227.92
856.61	227.90
856.92	227.88
857.23	227.85
857.55	227.80
857.86	227.69
858.17	227.78
858.48	227.69
858.79	227.65
859.11	227.63
859.42	227.57
859.73	227.51
860.04	227.37
860.35	227.19
860.66	227.06
860.98	227.02
861.29	226.96
861.60	226.90
861.91	227.01
862.22	226.90
862.53	226.83
862.84	226.23
863.16	226.39
863.47	226.30
863.78	226.18
864.09	226.31
864.40	226.36
864.71	226.38
865.02	226.44
865.33	226.32
865.64	226.28
865.95	226.32
866.27	226.58
866.58	226.59
866.89	226.67
867.20	226.62
867.51	226.58
867.82	226.61
868.13	226.69
868.44	226.58
868.75	226.74
869.06	226.86
869.37	226.84
869.68	226.60
869.99	226.61
870.30	226.73
870.61	226.72
870.92	226.65
871.23	226.56
871.54	226.67
871.85	226.85
872.16	226.87
872.47	226.77
872.78	226.47
873.09	226.47
873.40	226.44
873.71	226.54
874.02	226.61
874.33	226.62
874.64	226.52
874.95	226.56
875.26	226.45
875.56	226.37
875.87	226.38
876.18	226.42
876.49	226.93
876.80	226.85
877.11	226.79
877.42	226.85
877.73	226.94
878.04	226.85
878.35	226.73
878.66	226.78
878.96	226.82
879.27	226.81
879.58	226.87
879.89	226.80
880.20	226.95
880.51	226.96
880.82	226.95
881.12	227.01
881.43	226.96
881.74	226.88
882.05	226.88
882.36	226.94
882.67	226.96
882.97	226.46
883.28	226.40
883.59	226.40
883.90	226.40
884.21	226.43
884.51	226.41
884.82	226.38
885.13	226.39
885.44	226.33
885.74	226.33
886.05	226.32
886.36	226.32
886.67	226.17
886.98	226.42
887.28	226.40
887.59	226.47
887.90	226.55
888.20	226.55
888.51	226.66
888.82	226.64
889.13	226.70
889.43	227.11
889.74	227.11
890.05	227.05
890.35	227.00
890.66	226.91
890.97	226.88
891.28	226.85
891.58	226.83
891.89	226.89
892.20	226.90
892.50	226.84
892.81	226.85
893.12	226.85
893.42	226.47
893.73	226.53
894.04	226.45
894.34	226.46
894.65	226.45
894.95	226.43
895.26	226.43
895.57	226.60
895.87	226.14
896.18	226.22
896.48	226.25
896.79	226.26
897.10	226.37
897.40	226.37
897.71	226.38
898.01	226.32
898.32	226.36
898.63	226.31
898.93	226.33
899.24	226.32
899.54	226.22
899.85	226.29
900.15	226.27
900.46	226.31
900.76	226.34
901.07	226.32
901.38	226.21
901.68	226.28
901.99	226.04
902.29	226.11
902.60	226.07
902.90	226.05
903.21	226.02
903.51	225.94
903.82	226.00
904.12	225.99
904.43	226.02
904.73	225.97
905.03	226.02
905.34	226.43
905.64	226.41
905.95	226.43
906.25	226.36
906.56	226.33
906.86	226.28
907.17	226.14
907.47	226.21
907.77	226.17
908.08	225.97
908.38	225.91
908.69	225.87
908.99	225.94
909.30	225.94
909.60	225.89
909.90	225.94
910.21	225.80
910.51	225.76
910.81	225.74
911.12	225.73
911.42	225.66
911.73	225.19
912.03	225.19
912.33	225.22
912.64	225.19
912.94	225.08
913.24	225.00
913.55	225.04
913.85	224.94
914.15	225.00
914.46	225.07
914.76	225.06
915.06	225.09
915.37	224.93
915.67	224.91
915.97	224.96
916.27	224.87
916.58	224.91
916.88	224.86
917.18	224.85
917.49	225.18
917.79	225.21
918.09	225.34
918.39	225.45
918.70	225.47
919.00	225.51
919.30	225.80
919.60	225.86
919.91	225.76
920.21	225.84
920.51	225.81
920.81	225.80
921.12	225.97
921.42	225.96
921.72	226.06
922.02	226.16
922.32	226.23
922.63	226.26
922.93	226.53
923.23	226.53
923.53	226.52
923.83	226.25
924.13	226.41
924.44	226.39
924.74	226.47
925.04	226.61
925.34	226.62
925.64	226.42
925.94	226.34
926.24	226.61
926.55	226.59
926.85	226.67
927.15	226.75
927.45	226.69
927.75	226.77
928.05	226.83
928.35	226.78
928.65	226.86
928.95	226.88
929.26	226.66
929.56	226.88
929.86	226.90
930.16	226.86
930.46	226.71
930.76	226.73
931.06	226.55
931.36	226.38
931.66	226.49
931.96	226.56
932.26	226.64
932.56	226.47
932.86	226.52
933.16	226.45
933.46	226.41
933.76	226.33
934.06	226.43
934.36	226.59
934.66	226.58
934.96	226.51
935.26	226.55
935.56	226.58
935.86	226.43
936.16	226.38
936.46	226.35
936.76	226.32
937.06	226.25
937.36	226.33
937.66	226.37
937.96	226.30
938.26	226.17
938.56	226.12
938.86	226.13
939.16	226.26
939.46	226.33
939.76	226.32
940.06	226.34
940.35	226.16
940.65	225.89
940.95	225.91
941.25	225.77
941.55	225.70
941.85	225.67
942.15	225.77
942.45	225.92
942.75	225.93
943.04	226.03
943.34	226.15
943.64	226.07
943.94	226.04
944.24	226.03
944.54	226.14
944.84	226.15
945.13	226.10
945.43	225.92
945.73	225.88
946.03	225.84
946.33	225.82
946.62	225.81
946.92	225.85
947.22	225.82
947.52	225.90
947.82	225.94
948.11	225.90
948.41	225.75
948.71	225.61
949.01	225.66
949.31	225.52
949.60	225.48
949.90	225.53
950.20	225.54
950.50	225.64
950.79	225.53
951.09	225.63
951.39	225.65
951.69	225.65
951.98	225.75
952.28	225.77
952.58	225.71
952.87	225.70
953.17	225.79
953.47	225.80
953.76	225.85
954.06	225.77
954.36	225.76
954.66	225.78
954.95	225.95
955.25	225.95
955.55	226.04
955.84	225.95
956.14	225.98
956.44	225.98
956.73	225.83
957.03	225.95
957.32	225.97
957.62	225.95
957.92	226.01
958.21	225.89
958.51	226.45
958.81	226.53
959.10	226.60
959.40	226.70
959.69	226.76
959.99	226.77
960.29	226.82
960.58	226.83
960.88	227.09
961.17	227.05
961.47	227.12
961.76	227.11
962.06	227.19
962.36	227.14
962.65	227.14
962.95	227.21
963.24	227.08
963.54	227.10
963.83	227.11
964.13	227.09
964.42	227.02
964.72	226.60
965.01	226.65
965.31	226.63
965.60	226.54
965.90	226.77
966.19	226.61
966.49	226.65
966.78	226.62
967.08	226.54
967.37	226.45
967.67	226.40
967.96	226.43
968.26	226.41
968.55	226.50
968.85	226.47
969.14	226.46
969.43	226.51
969.73	226.37
970.02	226.45
970.32	226.40
970.61	226.39
970.91	226.30
971.20	226.23
971.49	226.18
971.79	226.16
972.08	225.87
972.38	225.93
972.67	225.85
972.96	225.93
973.26	225.80
973.55	225.97
973.85	225.94
974.14	225.95
974.43	225.95
974.73	225.81
975.02	225.75
975.31	225.77
975.61	225.77
975.90	225.77
976.19	225.69
976.49	225.73
976.78	225.75
977.07	225.71
977.37	225.70
977.66	225.76
977.95	225.73
978.24	225.71
978.54	225.80
978.83	225.84
979.12	225.82
979.42	225.84
979.71	225.71
980.00	225.70
980.29	225.70
980.59	225.64
980.88	225.77
981.17	225.77
981.46	225.75
981.76	225.75
982.05	225.92
982.34	225.90
982.63	225.87
982.93	225.91
983.22	226.19
983.51	226.22
983.80	226.27
984.09	226.30
984.39	226.30
984.68	226.25
984.97	226.26
985.26	226.18
985.55	226.23
985.85	226.15
986.14	226.23
986.43	226.29
986.72	226.20
987.01	226.03
987.30	226.08
987.59	226.01
987.89	226.07
988.18	225.88
988.47	225.85
988.76	225.80
989.05	225.79
989.34	225.59
989.63	225.74
989.92	225.71
990.22	225.62
990.51	225.68
990.80	225.61
991.09	225.62
991.38	225.72
991.67	225.67
991.96	225.66
992.25	225.70
992.54	225.63
992.83	225.70
993.12	225.74
993.41	225.83
993.70	226.02
993.99	226.14
994.28	226.25
994.58	226.36
994.87	226.40
995.16	226.35
995.45	226.33
995.74	226.09
996.03	226.15
996.32	226.26
996.61	226.28
996.90	226.25
997.19	226.27
997.48	226.20
997.77	226.16
998.06	226.18
998.34	226.08
998.63	226.09
998.92	226.09
999.21	226.12
999.50	226.13
999.79	225.98
1000.08	225.88
1000.37	225.88
1000.66	225.85
1000.95	225.92
1001.24	225.97
1001.53	225.98
1001.82	226.04
1002.11	225.84
1002.40	225.87
1002.68	226.02
1002.97	226.40
1003.26	226.28
1003.55	226.26
1003.84	226.24
1004.13	226.37
1004.42	226.35
1004.71	226.31
1004.99	226.25
1005.28	226.33
1005.57	226.30
1005.86	226.25
1006.15	226.16
1006.44	226.00
1006.72	225.98
1007.01	225.89
1007.30	225.87
1007.59	225.84
1007.88	225.73
1008.17	225.74
1008.45	225.57
1008.74	225.34
1009.03	225.11
1009.32	225.11
1009.60	225.13
1009.89	225.12
1010.18	224.90
1010.47	224.82
1010.76	224.78
1011.04	224.85
1011.33	224.90
1011.62	224.95
1011.91	224.99
1012.19	225.07
1012.48	225.11
1012.77	225.15
1013.05	225.33
1013.34	225.37
1013.63	225.32
1013.92	225.45
1014.20	225.51
1014.49	225.59
1014.78	225.64
1015.06	225.48
1015.35	225.52
1015.64	225.61
1015.92	225.65
1016.21	225.68
1016.50	225.74
1016.78	225.80
1017.07	225.77
1017.36	225.60
1017.64	225.50
1017.93	225.52
1018.22	225.45
1018.50	225.46
1018.79	225.45
1019.08	225.25
1019.36	225.30
1019.65	225.27
1019.93	225.41
1020.22	225.45
1020.51	225.71
1020.79	225.61
1021.08	224.65
1021.36	224.40
1021.65	226.35
1021.94	224.25
1022.22	226.80
1022.51	224.45
1022.79	228.65
1023.08	226.30
1023.36	231.35
1023.65	223.60
>>>>>End Processed Spectral Data<<<<<
