SpectraSuite Data File
++++++++++++++++++++++++++++++++++++
Date: Wed Sep 04 18:03:25 EDT 2013
User: lab3
Dark Spectrum Present: Yes
Reference Spectrum Present: No
Number of Sampled Component Spectra: 1
Spectrometers: USB2E7196
Integration Time (usec): 170000 (USB2E7196)
Spectra Averaged: 20 (USB2E7196)
Boxcar Smoothing: 10 (USB2E7196)
Correct for Electrical Dark: No (USB2E7196)
Strobe/Lamp Enabled: No (USB2E7196)
Correct for Detector Non-linearity: No (USB2E7196)
Correct for Stray Light: No (USB2E7196)
Number of Pixels in Processed Spectrum: 2048
>>>>>Begin Processed Spectral Data<<<<<
339.09	0.00
339.48	213.25
339.86	214.75
340.24	215.10
340.63	218.35
341.01	224.55
341.39	221.10
341.78	222.65
342.16	223.10
342.54	223.75
342.93	212.68
343.31	223.38
343.69	223.98
344.07	224.44
344.46	225.01
344.84	225.40
345.22	225.43
345.60	225.75
345.99	225.91
346.37	226.09
346.75	226.19
347.13	226.20
347.52	226.31
347.90	226.52
348.28	226.54
348.66	226.67
349.05	226.55
349.43	226.67
349.81	226.76
350.19	226.73
350.57	226.79
350.96	226.87
351.34	226.95
351.72	227.02
352.10	227.10
352.48	227.17
352.87	227.21
353.25	227.32
353.63	227.29
354.01	227.40
354.39	227.48
354.77	227.56
355.15	227.72
355.54	227.65
355.92	227.49
356.30	227.53
356.68	227.87
357.06	227.95
357.44	227.88
357.82	227.96
358.20	228.49
358.58	228.47
358.97	228.50
359.35	228.69
359.73	228.78
360.11	228.90
360.49	228.94
360.87	228.99
361.25	229.12
361.63	229.32
362.01	229.40
362.39	229.43
362.77	229.47
363.15	229.51
363.53	229.56
363.91	229.79
364.29	229.85
364.67	229.44
365.05	229.49
365.43	229.54
365.81	229.60
366.19	229.44
366.57	229.69
366.95	229.71
367.33	229.61
367.71	229.66
368.09	229.77
368.47	229.70
368.85	229.70
369.23	229.70
369.61	229.50
369.99	229.63
370.37	229.65
370.75	229.95
371.13	229.89
371.51	229.89
371.89	229.83
372.27	229.78
372.65	229.75
373.03	229.76
373.41	229.77
373.78	229.66
374.16	229.38
374.54	229.19
374.92	229.15
375.30	229.07
375.68	228.91
376.06	228.88
376.44	228.80
376.82	228.75
377.19	228.71
377.57	228.65
377.95	228.43
378.33	228.32
378.71	227.90
379.09	227.88
379.47	227.88
379.84	227.77
380.22	227.65
380.60	227.57
380.98	227.44
381.36	227.41
381.73	227.30
382.11	227.33
382.49	227.32
382.87	227.17
383.25	227.12
383.62	227.61
384.00	227.41
384.38	227.38
384.76	227.43
385.13	227.49
385.51	227.50
385.89	227.35
386.27	227.36
386.64	227.34
387.02	227.32
387.40	227.16
387.78	227.17
388.15	227.16
388.53	227.08
388.91	227.00
389.29	226.91
389.66	226.98
390.04	226.86
390.42	226.88
390.79	226.96
391.17	226.98
391.55	226.44
391.92	226.47
392.30	226.51
392.68	226.43
393.05	226.39
393.43	226.33
393.81	226.35
394.18	226.25
394.56	226.26
394.94	226.32
395.31	226.36
395.69	226.52
396.06	226.59
396.44	226.62
396.82	226.74
397.19	226.98
397.57	226.99
397.95	227.12
398.32	227.12
398.70	227.12
399.07	227.27
399.45	227.36
399.82	227.38
400.20	227.41
400.58	227.45
400.95	227.36
401.33	227.58
401.70	228.05
402.08	228.24
402.45	228.42
402.83	228.63
403.20	228.79
403.58	228.81
403.95	229.10
404.33	229.38
404.71	229.49
405.08	229.88
405.46	230.14
405.83	230.40
406.21	230.65
406.58	231.02
406.96	231.28
407.33	231.60
407.70	232.04
408.08	232.79
408.45	233.26
408.83	233.83
409.20	234.23
409.58	234.39
409.95	234.96
410.33	235.56
410.70	235.98
411.08	236.59
411.45	237.28
411.82	237.79
412.20	238.63
412.57	239.64
412.95	240.03
413.32	240.95
413.69	241.75
414.07	242.77
414.44	243.75
414.82	244.83
415.19	246.07
415.56	247.22
415.94	248.21
416.31	249.68
416.68	251.10
417.06	252.78
417.43	254.40
417.81	256.11
418.18	257.89
418.55	259.85
418.93	261.93
419.30	263.95
419.67	266.32
420.04	268.55
420.42	270.87
420.79	274.02
421.16	276.77
421.54	279.87
421.91	282.78
422.28	285.88
422.66	289.13
423.03	292.68
423.40	296.13
423.77	299.68
424.15	303.23
424.52	307.03
424.89	311.29
425.26	315.29
425.64	319.15
426.01	323.31
426.38	327.73
426.75	332.33
427.13	336.95
427.50	341.71
427.87	346.56
428.24	351.53
428.61	356.10
428.99	361.36
429.36	366.88
429.73	372.43
430.10	378.10
430.47	383.75
430.85	389.28
431.22	395.54
431.59	402.36
431.96	408.65
432.33	415.63
432.70	422.34
433.08	430.24
433.45	437.73
433.82	445.14
434.19	453.25
434.56	461.31
434.93	468.96
435.30	476.73
435.68	485.52
436.05	493.96
436.42	502.21
436.79	509.91
437.16	518.35
437.53	527.15
437.90	535.76
438.27	544.50
438.64	553.57
439.01	561.78
439.38	569.15
439.75	576.38
440.13	584.43
440.50	591.92
440.87	598.02
441.24	604.42
441.61	611.46
441.98	616.68
442.35	622.59
442.72	628.82
443.09	634.68
443.46	638.02
443.83	640.30
444.20	642.40
444.57	645.18
444.94	646.10
445.31	647.18
445.68	648.59
446.05	648.53
446.42	647.04
446.79	645.75
447.16	644.04
447.53	642.76
447.90	639.17
448.27	635.45
448.64	630.51
449.01	626.68
449.37	620.43
449.74	614.37
450.11	607.41
450.48	599.61
450.85	591.51
451.22	584.74
451.59	578.14
451.96	571.68
452.33	563.51
452.70	556.23
453.07	547.52
453.43	538.29
453.80	529.98
454.17	521.90
454.54	513.91
454.91	505.64
455.28	497.65
455.65	490.07
456.02	483.18
456.38	476.91
456.75	469.20
457.12	462.74
457.49	456.41
457.86	450.03
458.23	444.88
458.59	439.19
458.96	433.34
459.33	428.23
459.70	423.23
460.07	419.04
460.43	414.32
460.80	410.09
461.17	406.45
461.54	402.51
461.91	398.79
462.27	395.12
462.64	391.87
463.01	388.22
463.38	384.87
463.74	380.82
464.11	377.78
464.48	375.14
464.85	372.21
465.21	370.02
465.58	367.68
465.95	364.78
466.32	362.50
466.68	360.17
467.05	357.95
467.42	355.62
467.78	353.41
468.15	351.23
468.52	349.63
468.88	347.38
469.25	345.35
469.62	343.77
469.98	342.02
470.35	340.45
470.72	339.02
471.08	337.30
471.45	336.04
471.82	334.70
472.18	333.18
472.55	332.16
472.92	330.86
473.28	329.75
473.65	328.70
474.02	327.66
474.38	326.74
474.75	326.04
475.11	325.09
475.48	324.42
475.85	323.77
476.21	323.10
476.58	322.52
476.94	322.17
477.31	321.72
477.67	321.40
478.04	321.07
478.41	320.86
478.77	321.11
479.14	320.81
479.50	320.70
479.87	320.83
480.23	320.83
480.60	320.74
480.96	320.73
481.33	321.02
481.69	321.22
482.06	321.48
482.42	321.62
482.79	322.06
483.15	322.40
483.52	323.11
483.88	323.55
484.25	324.17
484.61	324.81
484.98	325.50
485.34	326.48
485.71	327.35
486.07	328.29
486.44	328.85
486.80	329.98
487.17	331.09
487.53	332.41
487.90	333.95
488.26	335.75
488.62	337.38
488.99	338.86
489.35	340.57
489.72	342.38
490.08	344.49
490.44	346.53
490.81	348.83
491.17	351.06
491.54	353.57
491.90	356.13
492.26	358.72
492.63	361.51
492.99	364.31
493.36	367.44
493.72	370.91
494.08	374.41
494.45	378.17
494.81	382.08
495.17	385.96
495.54	390.07
495.90	394.22
496.26	398.79
496.63	403.45
496.99	408.30
497.35	413.57
497.72	418.85
498.08	424.36
498.44	430.05
498.80	436.10
499.17	442.20
499.53	448.45
499.89	455.23
500.26	462.18
500.62	469.18
500.98	476.55
501.34	483.77
501.71	491.47
502.07	499.21
502.43	507.34
502.79	515.75
503.16	524.51
503.52	533.56
503.88	542.87
504.24	552.90
504.60	562.91
504.97	573.22
505.33	583.74
505.69	594.84
506.05	605.84
506.41	617.04
506.78	628.57
507.14	640.66
507.50	653.10
507.86	665.79
508.22	678.92
508.59	692.02
508.95	705.90
509.31	720.05
509.67	734.41
510.03	748.73
510.39	763.47
510.75	778.42
511.12	793.49
511.48	809.00
511.84	824.47
512.20	840.56
512.56	856.67
512.92	873.45
513.28	890.11
513.64	907.46
514.00	925.02
514.37	942.80
514.73	960.83
515.09	979.12
515.45	997.50
515.81	1015.69
516.17	1034.62
516.53	1053.21
516.89	1071.98
517.25	1091.58
517.61	1111.98
517.97	1132.31
518.33	1152.67
518.69	1173.27
519.05	1193.77
519.41	1214.81
519.77	1235.84
520.13	1256.79
520.49	1277.46
520.85	1299.96
521.21	1321.09
521.57	1342.56
521.93	1363.45
522.29	1384.63
522.65	1405.16
523.01	1426.32
523.37	1447.13
523.73	1468.33
524.09	1489.13
524.45	1510.04
524.81	1530.97
525.17	1551.41
525.53	1572.08
525.89	1592.97
526.25	1613.82
526.61	1634.44
526.97	1655.19
527.33	1676.50
527.68	1698.51
528.04	1719.96
528.40	1739.65
528.76	1760.93
529.12	1781.15
529.48	1802.06
529.84	1822.51
530.20	1843.66
530.56	1864.42
530.91	1885.55
531.27	1906.00
531.63	1926.70
531.99	1947.59
532.35	1967.78
532.71	1988.35
533.07	2009.07
533.42	2028.77
533.78	2049.00
534.14	2069.01
534.50	2088.44
534.86	2107.51
535.21	2125.28
535.57	2143.88
535.93	2161.76
536.29	2179.34
536.65	2197.79
537.00	2215.55
537.36	2233.42
537.72	2250.32
538.08	2267.46
538.44	2284.48
538.79	2301.13
539.15	2317.47
539.51	2333.23
539.87	2348.52
540.22	2362.73
540.58	2377.03
540.94	2390.67
541.29	2403.11
541.65	2415.88
542.01	2428.45
542.37	2439.53
542.72	2450.57
543.08	2461.16
543.44	2472.95
543.79	2483.31
544.15	2493.02
544.51	2503.46
544.87	2513.35
545.22	2522.00
545.58	2529.99
545.94	2537.50
546.29	2544.29
546.65	2551.17
547.01	2556.90
547.36	2562.47
547.72	2567.88
548.07	2572.56
548.43	2577.93
548.79	2582.87
549.14	2586.92
549.50	2590.79
549.86	2594.92
550.21	2598.95
550.57	2602.36
550.92	2603.69
551.28	2605.41
551.64	2607.92
551.99	2609.87
552.35	2611.29
552.70	2613.60
553.06	2615.16
553.41	2616.16
553.77	2617.82
554.13	2619.10
554.48	2620.89
554.84	2622.35
555.19	2623.91
555.55	2625.36
555.90	2624.64
556.26	2623.98
556.61	2622.73
556.97	2620.78
557.32	2620.23
557.68	2618.97
558.03	2617.83
558.39	2617.19
558.74	2616.22
559.10	2613.44
559.45	2610.12
559.81	2605.84
560.16	2600.93
560.52	2596.45
560.87	2592.21
561.23	2586.68
561.58	2580.72
561.94	2573.95
562.29	2566.75
562.64	2559.63
563.00	2551.02
563.35	2544.63
563.71	2538.06
564.06	2531.80
564.42	2525.23
564.77	2518.24
565.12	2510.66
565.48	2503.15
565.83	2495.13
566.19	2486.75
566.54	2478.81
566.89	2470.22
567.25	2462.65
567.60	2455.16
567.96	2447.64
568.31	2439.61
568.66	2430.98
569.02	2422.24
569.37	2414.03
569.72	2406.32
570.08	2396.89
570.43	2387.50
570.78	2378.35
571.14	2369.00
571.49	2358.97
571.84	2349.26
572.20	2337.78
572.55	2327.72
572.90	2316.46
573.26	2306.08
573.61	2295.46
573.96	2284.48
574.31	2272.97
574.67	2260.77
575.02	2248.17
575.37	2235.34
575.72	2221.84
576.08	2209.52
576.43	2196.93
576.78	2183.69
577.13	2169.84
577.49	2157.17
577.84	2145.28
578.19	2132.87
578.54	2120.54
578.90	2108.59
579.25	2096.45
579.60	2084.22
579.95	2070.96
580.30	2058.07
580.66	2044.53
581.01	2030.72
581.36	2016.46
581.71	2003.60
582.06	1990.84
582.42	1978.31
582.77	1965.50
583.12	1953.64
583.47	1941.37
583.82	1929.50
584.17	1917.66
584.53	1905.87
584.88	1893.24
585.23	1880.28
585.58	1866.13
585.93	1852.43
586.28	1838.60
586.63	1824.26
586.98	1810.28
587.34	1797.23
587.69	1783.73
588.04	1771.00
588.39	1758.66
588.74	1746.29
589.09	1733.90
589.44	1720.74
589.79	1708.54
590.14	1696.78
590.49	1684.46
590.84	1672.24
591.19	1659.71
591.54	1647.08
591.89	1634.69
592.25	1624.09
592.60	1612.69
592.95	1601.62
593.30	1589.45
593.65	1577.60
594.00	1565.58
594.35	1555.75
594.70	1543.63
595.05	1532.16
595.40	1520.19
595.75	1508.35
596.10	1497.22
596.45	1485.72
596.80	1475.09
597.15	1463.39
597.50	1451.26
597.85	1439.82
598.19	1428.29
598.54	1416.70
598.89	1405.45
599.24	1394.92
599.59	1383.16
599.94	1371.96
600.29	1361.03
600.64	1350.53
600.99	1339.66
601.34	1330.34
601.69	1318.82
602.04	1309.18
602.39	1299.45
602.74	1289.84
603.08	1280.63
603.43	1271.32
603.78	1261.46
604.13	1251.65
604.48	1241.94
604.83	1232.24
605.18	1222.41
605.53	1212.86
605.87	1203.58
606.22	1195.10
606.57	1185.60
606.92	1176.11
607.27	1167.07
607.62	1158.35
607.96	1149.64
608.31	1141.57
608.66	1133.05
609.01	1124.66
609.36	1115.86
609.70	1107.27
610.05	1098.61
610.40	1089.75
610.75	1080.67
611.10	1072.34
611.44	1063.64
611.79	1055.41
612.14	1047.70
612.49	1039.67
612.83	1032.15
613.18	1024.68
613.53	1016.83
613.88	1008.82
614.22	1001.29
614.57	993.45
614.92	985.48
615.27	978.24
615.61	970.64
615.96	962.59
616.31	954.85
616.65	947.68
617.00	940.29
617.35	932.90
617.70	925.66
618.04	918.50
618.39	911.65
618.74	905.32
619.08	898.60
619.43	891.05
619.78	883.99
620.12	876.65
620.47	869.42
620.82	862.01
621.16	855.21
621.51	848.82
621.85	842.40
622.20	835.85
622.55	828.97
622.89	822.29
623.24	815.98
623.59	809.55
623.93	803.14
624.28	796.85
624.62	791.33
624.97	785.50
625.32	779.80
625.66	773.65
626.01	767.37
626.35	761.56
626.70	756.12
627.04	751.04
627.39	745.32
627.73	739.94
628.08	734.68
628.43	729.17
628.77	723.38
629.12	717.95
629.46	713.02
629.81	708.17
630.15	703.50
630.50	698.59
630.84	693.65
631.19	688.76
631.53	684.12
631.88	678.62
632.22	673.66
632.57	669.14
632.91	664.39
633.26	659.89
633.60	655.24
633.95	650.46
634.29	645.35
634.64	641.00
634.98	636.29
635.32	631.91
635.67	627.87
636.01	623.62
636.36	619.20
636.70	615.19
637.05	610.99
637.39	606.69
637.73	602.51
638.08	598.52
638.42	594.24
638.77	589.83
639.11	585.50
639.45	581.23
639.80	576.85
640.14	572.87
640.49	568.75
640.83	564.76
641.17	561.20
641.52	557.64
641.86	553.91
642.20	550.74
642.55	547.01
642.89	543.40
643.23	539.99
643.58	536.95
643.92	533.07
644.26	529.59
644.61	526.18
644.95	522.75
645.29	519.39
645.64	516.28
645.98	513.26
646.32	510.31
646.66	507.25
647.01	504.15
647.35	501.11
647.69	498.34
648.04	495.76
648.38	492.88
648.72	489.92
649.06	486.94
649.41	483.65
649.75	480.74
650.09	477.90
650.43	474.96
650.78	471.97
651.12	469.29
651.46	466.42
651.80	463.63
652.14	461.01
652.49	458.56
652.83	455.97
653.17	453.33
653.51	450.68
653.85	448.14
654.20	445.69
654.54	443.11
654.88	440.52
655.22	438.10
655.56	435.56
655.90	433.16
656.25	430.89
656.59	428.71
656.93	426.44
657.27	424.29
657.61	421.85
657.95	419.67
658.29	417.40
658.64	415.35
658.98	413.17
659.32	410.86
659.66	408.42
660.00	406.25
660.34	404.20
660.68	402.17
661.02	400.23
661.36	398.20
661.70	396.24
662.05	394.16
662.39	392.10
662.73	390.39
663.07	388.77
663.41	386.90
663.75	384.92
664.09	383.10
664.43	381.13
664.77	379.46
665.11	377.63
665.45	375.95
665.79	374.32
666.13	372.65
666.47	370.97
666.81	369.43
667.15	367.77
667.49	366.12
667.83	364.73
668.17	363.18
668.51	361.72
668.85	360.38
669.19	359.24
669.53	357.64
669.87	356.05
670.21	354.38
670.55	353.02
670.89	351.96
671.23	350.60
671.57	349.16
671.91	347.78
672.25	346.47
672.58	345.30
672.92	343.83
673.26	342.50
673.60	341.21
673.94	339.99
674.28	338.86
674.62	337.85
674.96	336.52
675.30	335.33
675.64	334.16
675.97	332.80
676.31	331.41
676.65	330.31
676.99	329.30
677.33	328.17
677.67	327.14
678.01	325.70
678.34	324.55
678.68	323.60
679.02	322.44
679.36	321.31
679.70	320.14
680.04	319.07
680.37	318.12
680.71	317.24
681.05	316.37
681.39	315.34
681.73	314.24
682.06	313.24
682.40	312.33
682.74	311.50
683.08	310.89
683.42	310.04
683.75	309.20
684.09	308.21
684.43	307.42
684.77	306.52
685.10	305.79
685.44	305.05
685.78	304.22
686.12	303.59
686.45	302.83
686.79	302.07
687.13	301.45
687.46	300.61
687.80	299.92
688.14	299.01
688.48	298.34
688.81	297.49
689.15	296.96
689.49	296.21
689.82	295.44
690.16	294.45
690.50	293.78
690.83	293.01
691.17	292.21
691.51	291.49
691.84	290.83
692.18	290.07
692.52	289.30
692.85	288.71
693.19	288.21
693.52	287.57
693.86	286.91
694.20	286.23
694.53	285.68
694.87	284.95
695.21	284.31
695.54	283.72
695.88	283.23
696.21	282.53
696.55	281.95
696.88	281.35
697.22	280.80
697.56	280.20
697.89	279.67
698.23	279.22
698.56	278.71
698.90	278.21
699.23	277.80
699.57	277.39
699.90	276.79
700.24	276.12
700.58	275.71
700.91	275.28
701.25	275.16
701.58	275.03
701.92	274.78
702.25	274.35
702.59	273.91
702.92	273.37
703.26	272.93
703.59	272.49
703.93	272.49
704.26	272.17
704.60	271.79
704.93	271.31
705.26	270.85
705.60	270.50
705.93	270.03
706.27	269.70
706.60	269.41
706.94	269.27
707.27	268.89
707.61	268.50
707.94	268.12
708.27	267.44
708.61	266.71
708.94	266.19
709.28	265.85
709.61	265.35
709.94	265.08
710.28	264.71
710.61	264.36
710.95	263.53
711.28	263.42
711.61	263.03
711.95	262.75
712.28	262.37
712.61	261.99
712.95	261.87
713.28	261.70
713.61	261.24
713.95	260.69
714.28	260.37
714.61	259.95
714.95	259.59
715.28	259.16
715.61	258.76
715.95	258.47
716.28	258.12
716.61	257.88
716.95	257.57
717.28	257.19
717.61	256.88
717.94	256.53
718.28	255.90
718.61	255.57
718.94	255.24
719.27	254.97
719.61	254.70
719.94	254.29
720.27	253.76
720.60	253.46
720.94	253.21
721.27	252.90
721.60	252.76
721.93	252.47
722.27	252.38
722.60	252.31
722.93	252.07
723.26	251.87
723.59	251.62
723.93	251.41
724.26	251.25
724.59	250.96
724.92	250.89
725.25	250.86
725.59	250.67
725.92	250.50
726.25	250.27
726.58	250.09
726.91	249.87
727.24	249.82
727.57	249.62
727.91	249.39
728.24	249.30
728.57	249.03
728.90	248.91
729.23	248.64
729.56	248.61
729.89	248.39
730.22	248.25
730.55	247.98
730.89	247.76
731.22	247.64
731.55	247.48
731.88	247.28
732.21	246.96
732.54	246.74
732.87	246.65
733.20	246.52
733.53	246.38
733.86	246.19
734.19	245.93
734.52	245.80
734.85	245.99
735.18	245.71
735.51	245.76
735.84	245.60
736.17	245.59
736.50	245.23
736.83	245.61
737.16	245.46
737.49	245.43
737.82	245.34
738.15	245.23
738.48	245.15
738.81	244.95
739.14	244.71
739.47	244.57
739.80	244.39
740.13	244.34
740.46	244.11
740.79	243.87
741.12	243.73
741.45	243.60
741.78	243.24
742.11	243.28
742.44	242.95
742.77	242.95
743.10	242.75
743.43	242.58
743.75	241.96
744.08	242.39
744.41	242.20
744.74	242.06
745.07	241.85
745.40	241.70
745.73	241.80
746.06	241.65
746.39	241.57
746.71	241.36
747.04	241.15
747.37	241.07
747.70	241.06
748.03	240.94
748.36	240.92
748.68	240.69
749.01	240.40
749.34	240.40
749.67	240.20
750.00	240.16
750.33	240.40
750.65	240.32
750.98	239.64
751.31	239.61
751.64	239.46
751.97	239.67
752.29	239.57
752.62	239.27
752.95	239.26
753.28	239.10
753.60	239.04
753.93	239.05
754.26	238.95
754.59	238.72
754.91	238.61
755.24	238.45
755.57	238.36
755.90	238.26
756.22	238.06
756.55	237.95
756.88	237.66
757.20	237.26
757.53	236.98
757.86	236.82
758.19	236.73
758.51	236.67
758.84	236.26
759.17	236.16
759.49	236.03
759.82	236.15
760.15	236.14
760.47	235.95
760.80	235.73
761.13	235.66
761.45	235.62
761.78	235.53
762.11	235.40
762.43	235.30
762.76	235.21
763.08	235.08
763.41	235.00
763.74	234.93
764.06	234.82
764.39	234.78
764.71	234.68
765.04	234.50
765.37	234.33
765.69	234.27
766.02	234.09
766.34	234.01
766.67	233.76
767.00	233.75
767.32	234.02
767.65	234.22
767.97	234.10
768.30	234.04
768.62	233.93
768.95	233.81
769.27	233.70
769.60	233.74
769.92	233.61
770.25	233.45
770.57	233.33
770.90	233.21
771.22	233.14
771.55	233.12
771.87	233.09
772.20	233.09
772.52	233.44
772.85	234.04
773.17	234.02
773.50	233.89
773.82	233.73
774.15	233.39
774.47	233.05
774.80	232.96
775.12	232.95
775.45	232.87
775.77	232.83
776.09	232.85
776.42	232.76
776.74	232.87
777.07	232.82
777.39	232.79
777.72	232.70
778.04	232.74
778.36	232.62
778.69	232.64
779.01	232.59
779.33	232.11
779.66	231.48
779.98	231.41
780.31	231.46
780.63	231.64
780.95	231.72
781.28	231.65
781.60	231.62
781.92	231.60
782.25	231.63
782.57	231.64
782.89	231.55
783.22	231.49
783.54	231.42
783.86	231.40
784.19	231.35
784.51	231.51
784.83	231.39
785.16	231.39
785.48	231.36
785.80	231.37
786.12	231.34
786.45	231.34
786.77	231.41
787.09	231.30
787.42	231.05
787.74	230.99
788.06	230.99
788.38	230.96
788.71	230.89
789.03	230.85
789.35	230.90
789.67	230.88
789.99	230.91
790.32	230.78
790.64	230.84
790.96	231.20
791.28	231.04
791.61	230.99
791.93	230.98
792.25	230.88
792.57	231.15
792.89	231.07
793.21	231.07
793.54	231.00
793.86	230.94
794.18	231.00
794.50	230.94
794.82	230.92
795.14	230.85
795.47	230.89
795.79	230.86
796.11	230.72
796.43	230.65
796.75	230.58
797.07	230.55
797.39	230.50
797.71	230.22
798.04	230.18
798.36	230.17
798.68	230.15
799.00	230.16
799.32	229.88
799.64	230.01
799.96	229.98
800.28	229.90
800.60	229.94
800.92	229.91
801.24	229.88
801.56	229.94
801.89	229.96
802.21	229.94
802.53	229.81
802.85	229.91
803.17	230.14
803.49	230.04
803.81	230.01
804.13	229.94
804.45	229.83
804.77	229.91
805.09	229.92
805.41	229.83
805.73	229.80
806.05	229.63
806.37	229.54
806.69	229.42
807.01	229.40
807.33	229.36
807.65	229.23
807.97	229.39
808.28	229.29
808.60	229.27
808.92	229.18
809.24	229.51
809.56	229.37
809.88	229.18
810.20	229.16
810.52	229.33
810.84	229.26
811.16	229.23
811.48	229.12
811.80	229.21
812.12	229.19
812.43	229.26
812.75	229.36
813.07	229.28
813.39	229.31
813.71	229.21
814.03	229.15
814.35	229.11
814.67	228.87
814.98	228.72
815.30	228.66
815.62	228.55
815.94	228.21
816.26	228.37
816.58	228.31
816.89	228.36
817.21	228.18
817.53	228.17
817.85	228.18
818.17	228.22
818.48	228.05
818.80	228.20
819.12	228.03
819.44	227.86
819.76	227.81
820.07	227.83
820.39	227.79
820.71	227.79
821.03	227.77
821.34	227.77
821.66	227.93
821.98	228.00
822.30	228.02
822.61	228.36
822.93	228.15
823.25	228.16
823.57	228.10
823.88	228.20
824.20	228.18
824.52	228.24
824.83	228.20
825.15	228.10
825.47	228.08
825.79	228.18
826.10	228.16
826.42	228.11
826.74	228.06
827.05	228.11
827.37	228.12
827.69	228.08
828.00	228.05
828.32	228.05
828.64	227.99
828.95	228.27
829.27	228.06
829.58	228.02
829.90	228.04
830.22	228.07
830.53	227.83
830.85	227.79
831.17	227.62
831.48	227.61
831.80	227.64
832.11	227.56
832.43	227.46
832.75	227.46
833.06	227.80
833.38	227.75
833.69	227.83
834.01	227.88
834.32	227.94
834.64	227.95
834.96	227.93
835.27	227.92
835.59	227.75
835.90	227.68
836.22	227.68
836.53	227.59
836.85	227.55
837.16	228.05
837.48	228.12
837.79	228.30
838.11	228.35
838.42	228.38
838.74	228.44
839.05	228.43
839.37	228.47
839.68	228.11
840.00	228.08
840.31	228.10
840.63	228.04
840.94	227.98
841.26	227.92
841.57	227.98
841.88	228.05
842.20	227.99
842.51	227.95
842.83	227.93
843.14	228.35
843.46	228.37
843.77	228.17
844.08	228.11
844.40	227.97
844.71	227.85
845.03	227.83
845.34	227.80
845.65	227.79
845.97	227.83
846.28	227.90
846.60	227.89
846.91	227.74
847.22	227.77
847.54	227.95
847.85	227.96
848.16	227.87
848.48	227.72
848.79	227.88
849.10	227.93
849.42	227.99
849.73	227.55
850.04	227.53
850.36	227.36
850.67	227.45
850.98	227.47
851.30	227.56
851.61	227.55
851.92	227.52
852.23	227.68
852.55	227.68
852.86	227.72
853.17	227.80
853.49	227.93
853.80	227.98
854.11	227.92
854.42	227.98
854.74	227.91
855.05	227.94
855.36	227.70
855.67	227.69
855.99	227.69
856.30	228.26
856.61	228.26
856.92	228.32
857.23	228.31
857.55	228.25
857.86	228.23
858.17	228.26
858.48	228.17
858.79	228.05
859.11	228.05
859.42	228.04
859.73	227.99
860.04	227.94
860.35	227.81
860.66	227.64
860.98	227.64
861.29	227.69
861.60	227.63
861.91	227.74
862.22	227.66
862.53	227.55
862.84	226.95
863.16	227.08
863.47	226.97
863.78	226.92
864.09	226.91
864.40	226.92
864.71	226.97
865.02	227.07
865.33	226.97
865.64	226.86
865.95	226.84
866.27	227.13
866.58	227.16
866.89	227.22
867.20	227.25
867.51	227.10
867.82	227.13
868.13	227.34
868.44	227.23
868.75	227.32
869.06	227.36
869.37	227.40
869.68	227.20
869.99	227.27
870.30	227.33
870.61	227.44
870.92	227.40
871.23	227.32
871.54	227.34
871.85	227.48
872.16	227.53
872.47	227.45
872.78	227.17
873.09	227.14
873.40	227.13
873.71	227.19
874.02	227.26
874.33	227.14
874.64	226.94
874.95	226.98
875.26	226.84
875.56	226.90
875.87	226.90
876.18	226.87
876.49	227.30
876.80	227.22
877.11	227.05
877.42	226.99
877.73	226.97
878.04	226.94
878.35	226.95
878.66	227.01
878.96	227.02
879.27	227.03
879.58	226.99
879.89	226.88
880.20	226.96
880.51	226.92
880.82	226.92
881.12	226.98
881.43	226.87
881.74	226.90
882.05	226.78
882.36	226.82
882.67	226.83
882.97	226.38
883.28	226.37
883.59	226.45
883.90	226.51
884.21	226.63
884.51	226.55
884.82	226.46
885.13	226.44
885.44	226.42
885.74	226.40
886.05	226.42
886.36	226.51
886.67	226.38
886.98	226.61
887.28	226.69
887.59	226.74
887.90	226.82
888.20	226.81
888.51	226.90
888.82	226.78
889.13	226.83
889.43	227.20
889.74	227.16
890.05	227.12
890.35	227.08
890.66	226.96
890.97	226.99
891.28	226.96
891.58	226.90
891.89	226.94
892.20	226.88
892.50	226.83
892.81	226.77
893.12	226.71
893.42	226.52
893.73	226.55
894.04	226.48
894.34	226.57
894.65	226.55
894.95	226.56
895.26	226.63
895.57	226.91
895.87	226.49
896.18	226.65
896.48	226.71
896.79	226.79
897.10	226.83
897.40	226.85
897.71	226.90
898.01	226.96
898.32	226.99
898.63	226.98
898.93	227.05
899.24	227.05
899.54	227.03
899.85	227.08
900.15	227.07
900.46	227.06
900.76	226.99
901.07	226.98
901.38	226.93
901.68	226.99
901.99	226.71
902.29	226.75
902.60	226.61
902.90	226.54
903.21	226.47
903.51	226.49
903.82	226.56
904.12	226.56
904.43	226.51
904.73	226.49
905.03	226.56
905.34	226.96
905.64	226.95
905.95	227.04
906.25	227.00
906.56	227.02
906.86	227.09
907.17	227.06
907.47	227.07
907.77	227.11
908.08	227.03
908.38	227.07
908.69	227.11
908.99	227.21
909.30	227.30
909.60	227.30
909.90	227.31
910.21	227.22
910.51	227.20
910.81	227.20
911.12	227.18
911.42	227.15
911.73	226.72
912.03	226.80
912.33	226.80
912.64	226.70
912.94	226.60
913.24	226.48
913.55	226.49
913.85	226.46
914.15	226.51
914.46	226.57
914.76	226.51
915.06	226.41
915.37	226.35
915.67	226.25
915.97	226.26
916.27	226.17
916.58	226.17
916.88	226.15
917.18	226.13
917.49	226.45
917.79	226.45
918.09	226.46
918.39	226.55
918.70	226.56
919.00	226.63
919.30	226.86
919.60	226.89
919.91	226.83
920.21	226.91
920.51	226.78
920.81	226.78
921.12	226.79
921.42	226.80
921.72	226.80
922.02	226.87
922.32	226.96
922.63	226.99
922.93	227.20
923.23	227.19
923.53	227.14
923.83	226.83
924.13	226.86
924.44	226.89
924.74	226.87
925.04	226.97
925.34	226.95
925.64	226.72
925.94	226.70
926.24	226.95
926.55	226.86
926.85	226.92
927.15	226.88
927.45	226.91
927.75	226.84
928.05	226.84
928.35	226.78
928.65	226.78
928.95	226.76
929.26	226.51
929.56	226.62
929.86	226.69
930.16	226.66
930.46	226.67
930.76	226.65
931.06	226.49
931.36	226.38
931.66	226.36
931.96	226.40
932.26	226.40
932.56	226.24
932.86	226.26
933.16	226.29
933.46	226.25
933.76	226.20
934.06	226.44
934.36	226.60
934.66	226.64
934.96	226.58
935.26	226.57
935.56	226.66
935.86	226.49
936.16	226.44
936.46	226.42
936.76	226.35
937.06	226.30
937.36	226.27
937.66	226.32
937.96	226.30
938.26	226.26
938.56	226.26
938.86	226.25
939.16	226.33
939.46	226.33
939.76	226.32
940.06	226.35
940.35	226.15
940.65	225.90
940.95	225.85
941.25	225.80
941.55	225.78
941.85	225.80
942.15	225.94
942.45	226.05
942.75	226.05
943.04	226.08
943.34	226.19
943.64	226.26
943.94	226.20
944.24	226.33
944.54	226.35
944.84	226.33
945.13	226.28
945.43	226.25
945.73	226.28
946.03	226.31
946.33	226.31
946.62	226.31
946.92	226.33
947.22	226.39
947.52	226.43
947.82	226.53
948.11	226.48
948.41	226.37
948.71	226.24
949.01	226.22
949.31	226.24
949.60	226.23
949.90	226.26
950.20	226.21
950.50	226.15
950.79	226.16
951.09	226.23
951.39	226.20
951.69	226.18
951.98	226.29
952.28	226.31
952.58	226.27
952.87	226.29
953.17	226.40
953.47	226.38
953.76	226.28
954.06	226.19
954.36	226.10
954.66	226.14
954.95	226.38
955.25	226.45
955.55	226.42
955.84	226.27
956.14	226.41
956.44	226.45
956.73	226.40
957.03	226.46
957.32	226.41
957.62	226.45
957.92	226.54
958.21	226.45
958.51	226.93
958.81	227.01
959.10	227.05
959.40	227.13
959.69	227.19
959.99	227.37
960.29	227.39
960.58	227.38
960.88	227.58
961.17	227.44
961.47	227.54
961.76	227.53
962.06	227.64
962.36	227.52
962.65	227.55
962.95	227.53
963.24	227.45
963.54	227.52
963.83	227.55
964.13	227.49
964.42	227.35
964.72	227.02
965.01	226.99
965.31	226.95
965.60	226.80
965.90	227.05
966.19	226.90
966.49	226.89
966.78	226.92
967.08	226.84
967.37	226.90
967.67	226.78
967.96	226.86
968.26	226.82
968.55	226.85
968.85	226.85
969.14	226.88
969.43	226.90
969.73	226.80
970.02	226.75
970.32	226.70
970.61	226.74
970.91	226.58
971.20	226.49
971.49	226.47
971.79	226.56
972.08	226.22
972.38	226.35
972.67	226.35
972.96	226.41
973.26	226.38
973.55	226.51
973.85	226.44
974.14	226.40
974.43	226.47
974.73	226.37
975.02	226.35
975.31	226.34
975.61	226.29
975.90	226.32
976.19	226.30
976.49	226.36
976.78	226.35
977.07	226.39
977.37	226.47
977.66	226.55
977.95	226.51
978.24	226.59
978.54	226.64
978.83	226.70
979.12	226.66
979.42	226.63
979.71	226.50
980.00	226.51
980.29	226.52
980.59	226.44
980.88	226.61
981.17	226.56
981.46	226.67
981.76	226.74
982.05	226.90
982.34	226.99
982.63	226.95
982.93	227.01
983.22	227.12
983.51	227.12
983.80	227.16
984.09	227.20
984.39	227.20
984.68	227.12
984.97	227.10
985.26	227.06
985.55	227.07
985.85	226.96
986.14	227.12
986.43	227.22
986.72	227.22
987.01	227.06
987.30	227.10
987.59	227.00
987.89	227.00
988.18	226.76
988.47	226.64
988.76	226.58
989.05	226.47
989.34	226.34
989.63	226.41
989.92	226.26
990.22	226.22
990.51	226.15
990.80	226.06
991.09	226.08
991.38	226.16
991.67	226.07
991.96	226.00
992.25	225.96
992.54	225.86
992.83	225.85
993.12	225.84
993.41	225.91
993.70	226.14
993.99	226.18
994.28	226.31
994.58	226.44
994.87	226.48
995.16	226.57
995.45	226.50
995.74	226.40
996.03	226.47
996.32	226.46
996.61	226.53
996.90	226.54
997.19	226.55
997.48	226.57
997.77	226.58
998.06	226.59
998.34	226.50
998.63	226.52
998.92	226.53
999.21	226.59
999.50	226.60
999.79	226.38
1000.08	226.36
1000.37	226.39
1000.66	226.27
1000.95	226.36
1001.24	226.37
1001.53	226.49
1001.82	226.46
1002.11	226.39
1002.40	226.53
1002.68	226.65
1002.97	227.00
1003.26	226.85
1003.55	226.76
1003.84	226.75
1004.13	226.92
1004.42	226.93
1004.71	226.92
1004.99	226.85
1005.28	226.98
1005.57	226.89
1005.86	226.83
1006.15	226.80
1006.44	226.66
1006.72	226.71
1007.01	226.70
1007.30	226.71
1007.59	226.65
1007.88	226.61
1008.17	226.60
1008.45	226.42
1008.74	226.20
1009.03	226.06
1009.32	226.10
1009.60	226.05
1009.89	226.06
1010.18	225.89
1010.47	225.95
1010.76	225.93
1011.04	225.86
1011.33	225.78
1011.62	225.83
1011.91	225.87
1012.19	225.90
1012.48	225.92
1012.77	225.97
1013.05	226.08
1013.34	226.08
1013.63	226.03
1013.92	226.19
1014.20	226.21
1014.49	226.24
1014.78	226.28
1015.06	226.01
1015.35	225.98
1015.64	226.09
1015.92	226.18
1016.21	226.19
1016.50	226.17
1016.78	226.25
1017.07	226.38
1017.36	226.28
1017.64	226.21
1017.93	226.28
1018.22	226.18
1018.50	226.21
1018.79	226.24
1019.08	226.02
1019.36	226.05
1019.65	226.00
1019.93	225.99
1020.22	226.05
1020.51	226.32
1020.79	226.22
1021.08	224.60
1021.36	225.60
1021.65	227.25
1021.94	225.80
1022.22	226.70
1022.51	224.30
1022.79	227.20
1023.08	226.85
1023.36	232.30
1023.65	223.70
>>>>>End Processed Spectral Data<<<<<
