SpectraSuite Data File
++++++++++++++++++++++++++++++++++++
Date: Wed Sep 04 17:58:47 EDT 2013
User: lab3
Dark Spectrum Present: Yes
Reference Spectrum Present: No
Number of Sampled Component Spectra: 1
Spectrometers: USB2E7196
Integration Time (usec): 170000 (USB2E7196)
Spectra Averaged: 20 (USB2E7196)
Boxcar Smoothing: 10 (USB2E7196)
Correct for Electrical Dark: No (USB2E7196)
Strobe/Lamp Enabled: No (USB2E7196)
Correct for Detector Non-linearity: No (USB2E7196)
Correct for Stray Light: No (USB2E7196)
Number of Pixels in Processed Spectrum: 2048
>>>>>Begin Processed Spectral Data<<<<<
339.09	0.00
339.48	214.30
339.86	214.95
340.24	215.30
340.63	217.30
341.01	225.25
341.39	220.15
341.78	220.95
342.16	223.85
342.54	223.40
342.93	212.26
343.31	223.04
343.69	223.50
344.07	223.90
344.46	224.45
344.84	224.85
345.22	224.86
345.60	225.16
345.99	225.39
346.37	225.55
346.75	225.64
347.13	225.64
347.52	225.64
347.90	225.88
348.28	226.02
348.66	226.26
349.05	226.14
349.43	226.22
349.81	226.26
350.19	226.28
350.57	226.36
350.96	226.59
351.34	226.58
351.72	226.69
352.10	226.84
352.48	226.85
352.87	226.91
353.25	226.98
353.63	226.98
354.01	227.02
354.39	227.07
354.77	227.19
355.15	227.44
355.54	227.46
355.92	227.33
356.30	227.28
356.68	227.52
357.06	227.65
357.44	227.66
357.82	227.70
358.20	228.16
358.58	228.14
358.97	228.06
359.35	228.22
359.73	228.36
360.11	228.37
360.49	228.50
360.87	228.52
361.25	228.59
361.63	228.80
362.01	228.91
362.39	228.96
362.77	228.96
363.15	228.96
363.53	229.03
363.91	229.09
364.29	229.20
364.67	228.79
365.05	228.78
365.43	228.87
365.81	228.97
366.19	228.83
366.57	229.13
366.95	229.22
367.33	229.11
367.71	229.25
368.09	229.39
368.47	229.32
368.85	229.37
369.23	229.50
369.61	229.35
369.99	229.53
370.37	229.59
370.75	229.89
371.13	229.78
371.51	229.69
371.89	229.68
372.27	229.60
372.65	229.65
373.03	229.63
373.41	229.59
373.78	229.53
374.16	229.27
374.54	229.08
374.92	229.04
375.30	229.05
375.68	228.81
376.06	228.75
376.44	228.70
376.82	228.65
377.19	228.57
377.57	228.50
377.95	228.28
378.33	228.08
378.71	227.71
379.09	227.74
379.47	227.76
379.84	227.66
380.22	227.57
380.60	227.40
380.98	227.27
381.36	227.18
381.73	227.06
382.11	227.05
382.49	227.00
382.87	226.82
383.25	226.73
383.62	227.24
384.00	227.12
384.38	227.08
384.76	227.16
385.13	227.22
385.51	227.15
385.89	227.00
386.27	227.01
386.64	227.05
387.02	226.91
387.40	226.83
387.78	226.84
388.15	226.87
388.53	226.81
388.91	226.83
389.29	226.78
389.66	226.82
390.04	226.71
390.42	226.77
390.79	226.74
391.17	226.73
391.55	226.10
391.92	226.09
392.30	226.16
392.68	226.00
393.05	226.03
393.43	226.04
393.81	226.12
394.18	226.09
394.56	226.15
394.94	226.32
395.31	226.31
395.69	226.48
396.06	226.58
396.44	226.66
396.82	226.69
397.19	226.96
397.57	227.00
397.95	227.15
398.32	227.08
398.70	227.28
399.07	227.44
399.45	227.58
399.82	227.68
400.20	227.67
400.58	227.77
400.95	227.65
401.33	227.93
401.70	228.46
402.08	228.62
402.45	228.68
402.83	228.88
403.20	229.07
403.58	229.19
403.95	229.41
404.33	229.65
404.71	229.97
405.08	230.43
405.46	230.66
405.83	230.97
406.21	231.20
406.58	231.42
406.96	231.68
407.33	232.00
407.70	232.39
408.08	233.11
408.45	233.63
408.83	234.15
409.20	234.45
409.58	234.45
409.95	234.95
410.33	235.53
410.70	235.90
411.08	236.59
411.45	237.13
411.82	237.70
412.20	238.53
412.57	239.45
412.95	239.80
413.32	240.63
413.69	241.37
414.07	242.36
414.44	243.37
414.82	244.45
415.19	245.73
415.56	246.92
415.94	247.95
416.31	249.27
416.68	250.66
417.06	252.32
417.43	254.04
417.81	255.90
418.18	257.75
418.55	259.70
418.93	261.65
419.30	263.75
419.67	265.94
420.04	268.21
420.42	270.58
420.79	273.66
421.16	276.49
421.54	279.51
421.91	282.46
422.28	285.55
422.66	288.79
423.03	292.18
423.40	295.51
423.77	299.08
424.15	302.69
424.52	306.42
424.89	310.66
425.26	314.62
425.64	318.36
426.01	322.53
426.38	326.93
426.75	331.46
427.13	336.07
427.50	340.81
427.87	345.59
428.24	350.40
428.61	354.93
428.99	360.23
429.36	365.84
429.73	371.49
430.10	376.95
430.47	382.67
430.85	388.29
431.22	394.54
431.59	401.34
431.96	407.61
432.33	414.67
432.70	421.37
433.08	429.23
433.45	436.54
433.82	443.97
434.19	452.31
434.56	460.56
434.93	468.38
435.30	476.18
435.68	484.98
436.05	493.59
436.42	501.92
436.79	509.69
437.16	517.97
437.53	526.62
437.90	535.47
438.27	544.12
438.64	553.10
439.01	561.39
439.38	568.49
439.75	575.68
440.13	583.77
440.50	591.28
440.87	597.49
441.24	604.08
441.61	611.23
441.98	616.19
442.35	621.87
442.72	627.92
443.09	633.91
443.46	637.30
443.83	639.70
444.20	641.64
444.57	644.35
444.94	645.64
445.31	646.87
445.68	648.29
446.05	648.36
446.42	647.10
446.79	645.81
447.16	644.28
447.53	643.04
447.90	639.13
448.27	635.55
448.64	630.71
449.01	626.97
449.37	620.61
449.74	614.52
450.11	607.73
450.48	599.85
450.85	591.77
451.22	584.93
451.59	578.16
451.96	571.91
452.33	563.77
452.70	556.27
453.07	547.53
453.43	538.26
453.80	529.93
454.17	521.88
454.54	513.99
454.91	505.85
455.28	497.73
455.65	490.35
456.02	483.29
456.38	476.82
456.75	469.05
457.12	462.47
457.49	456.11
457.86	449.71
458.23	444.57
458.59	438.85
458.96	433.03
459.33	427.85
459.70	422.77
460.07	418.59
460.43	413.87
460.80	409.56
461.17	405.83
461.54	401.85
461.91	397.98
462.27	394.17
462.64	390.87
463.01	387.39
463.38	384.09
463.74	380.12
464.11	377.00
464.48	374.28
464.85	371.39
465.21	369.39
465.58	367.07
465.95	364.16
466.32	361.91
466.68	359.57
467.05	357.32
467.42	355.02
467.78	352.66
468.15	350.43
468.52	348.89
468.88	346.65
469.25	344.65
469.62	343.19
469.98	341.40
470.35	339.79
470.72	338.33
471.08	336.70
471.45	335.39
471.82	334.18
472.18	332.73
472.55	331.83
472.92	330.41
473.28	329.24
473.65	328.08
474.02	326.95
474.38	326.06
474.75	325.25
475.11	324.29
475.48	323.64
475.85	323.11
476.21	322.30
476.58	321.84
476.94	321.48
477.31	320.95
477.67	320.59
478.04	320.39
478.41	320.10
478.77	320.36
479.14	320.07
479.50	320.04
479.87	320.10
480.23	319.97
480.60	319.93
480.96	320.01
481.33	320.51
481.69	320.80
482.06	321.02
482.42	321.35
482.79	321.71
483.15	322.14
483.52	322.71
483.88	323.30
484.25	323.83
484.61	324.55
484.98	325.17
485.34	326.20
485.71	327.07
486.07	328.13
486.44	328.72
486.80	329.80
487.17	330.89
487.53	332.23
487.90	333.73
488.26	335.45
488.62	337.15
488.99	338.56
489.35	340.20
489.72	342.17
490.08	344.21
490.44	346.39
490.81	348.67
491.17	351.01
491.54	353.57
491.90	356.25
492.26	358.81
492.63	361.67
492.99	364.42
493.36	367.42
493.72	370.64
494.08	374.06
494.45	377.81
494.81	381.75
495.17	385.67
495.54	389.83
495.90	394.07
496.26	398.44
496.63	403.22
496.99	408.06
497.35	413.13
497.72	418.39
498.08	423.89
498.44	429.51
498.80	435.37
499.17	441.28
499.53	447.62
499.89	454.42
500.26	461.31
500.62	468.36
500.98	475.88
501.34	483.43
501.71	491.14
502.07	498.94
502.43	507.00
502.79	515.36
503.16	524.23
503.52	533.21
503.88	542.53
504.24	552.30
504.60	562.31
504.97	572.60
505.33	583.07
505.69	594.18
506.05	605.30
506.41	616.71
506.78	628.57
507.14	640.54
507.50	652.70
507.86	665.36
508.22	678.54
508.59	691.53
508.95	705.16
509.31	719.34
509.67	733.74
510.03	747.99
510.39	762.74
510.75	777.61
511.12	792.93
511.48	808.57
511.84	824.22
512.20	840.13
512.56	856.40
512.92	873.20
513.28	890.09
513.64	907.69
514.00	925.14
514.37	942.79
514.73	960.92
515.09	979.26
515.45	997.74
515.81	1016.02
516.17	1034.93
516.53	1053.65
516.89	1072.42
517.25	1091.85
517.61	1112.40
517.97	1132.69
518.33	1152.67
518.69	1173.13
519.05	1193.83
519.41	1214.51
519.77	1235.74
520.13	1256.75
520.49	1277.41
520.85	1298.28
521.21	1319.27
521.57	1340.79
521.93	1361.81
522.29	1383.13
522.65	1403.87
523.01	1424.70
523.37	1445.54
523.73	1466.54
524.09	1487.21
524.45	1508.19
524.81	1529.19
525.17	1549.58
525.53	1570.24
525.89	1591.22
526.25	1612.30
526.61	1632.86
526.97	1654.23
527.33	1675.62
527.68	1697.58
528.04	1718.99
528.40	1740.04
528.76	1760.92
529.12	1781.06
529.48	1802.09
529.84	1822.07
530.20	1843.54
530.56	1864.43
530.91	1885.60
531.27	1906.18
531.63	1926.97
531.99	1947.44
532.35	1967.49
532.71	1987.91
533.07	2008.68
533.42	2028.77
533.78	2048.64
534.14	2068.65
534.50	2087.54
534.86	2106.85
535.21	2124.33
535.57	2143.12
535.93	2160.87
536.29	2178.68
536.65	2197.12
537.00	2214.58
537.36	2232.39
537.72	2248.76
538.08	2266.17
538.44	2283.02
538.79	2299.57
539.15	2316.25
539.51	2332.36
539.87	2347.40
540.22	2361.23
540.58	2375.58
540.94	2389.06
541.29	2401.35
541.65	2413.69
542.01	2426.53
542.37	2437.17
542.72	2448.34
543.08	2458.75
543.44	2470.41
543.79	2480.72
544.15	2490.63
544.51	2500.65
544.87	2510.24
545.22	2519.13
545.58	2526.62
545.94	2533.64
546.29	2540.33
546.65	2546.76
547.01	2552.59
547.36	2558.65
547.72	2564.73
548.07	2568.91
548.43	2574.10
548.79	2579.33
549.14	2583.82
549.50	2587.62
549.86	2591.62
550.21	2595.38
550.57	2598.80
550.92	2600.54
551.28	2601.99
551.64	2604.33
551.99	2606.62
552.35	2608.56
552.70	2610.27
553.06	2612.47
553.41	2613.57
553.77	2615.23
554.13	2616.45
554.48	2617.85
554.84	2619.33
555.19	2620.47
555.55	2622.19
555.90	2621.48
556.26	2620.60
556.61	2618.89
556.97	2617.07
557.32	2616.41
557.68	2615.36
558.03	2614.01
558.39	2612.75
558.74	2611.98
559.10	2608.80
559.45	2605.08
559.81	2600.41
560.16	2595.91
560.52	2590.62
560.87	2586.39
561.23	2581.15
561.58	2575.28
561.94	2568.62
562.29	2561.10
562.64	2554.18
563.00	2545.75
563.35	2539.34
563.71	2532.70
564.06	2526.36
564.42	2519.65
564.77	2512.89
565.12	2505.23
565.48	2497.51
565.83	2489.45
566.19	2481.30
566.54	2473.85
566.89	2465.64
567.25	2458.28
567.60	2450.79
567.96	2443.44
568.31	2435.58
568.66	2427.00
569.02	2417.95
569.37	2409.47
569.72	2402.14
570.08	2392.62
570.43	2383.43
570.78	2374.58
571.14	2365.20
571.49	2355.03
571.84	2345.48
572.20	2334.25
572.55	2324.22
572.90	2313.31
573.26	2303.10
573.61	2292.07
573.96	2280.65
574.31	2268.66
574.67	2256.45
575.02	2243.79
575.37	2231.21
575.72	2217.88
576.08	2205.93
576.43	2193.59
576.78	2180.31
577.13	2166.23
577.49	2153.56
577.84	2141.60
578.19	2129.05
578.54	2116.35
578.90	2104.56
579.25	2091.57
579.60	2079.19
579.95	2066.23
580.30	2053.23
580.66	2039.64
581.01	2025.93
581.36	2011.80
581.71	1999.40
582.06	1986.19
582.42	1973.90
582.77	1961.02
583.12	1949.00
583.47	1936.41
583.82	1924.15
584.17	1912.44
584.53	1900.48
584.88	1887.59
585.23	1874.15
585.58	1860.18
585.93	1846.76
586.28	1833.12
586.63	1819.50
586.98	1805.35
587.34	1792.09
587.69	1778.84
588.04	1766.22
588.39	1754.14
588.74	1742.32
589.09	1730.16
589.44	1717.83
589.79	1705.15
590.14	1693.12
590.49	1680.98
590.84	1668.66
591.19	1656.88
591.54	1644.27
591.89	1632.15
592.25	1621.71
592.60	1610.28
592.95	1598.66
593.30	1586.63
593.65	1574.62
594.00	1562.62
594.35	1552.48
594.70	1540.33
595.05	1528.65
595.40	1516.58
595.75	1504.59
596.10	1492.92
596.45	1481.05
596.80	1469.99
597.15	1458.60
597.50	1446.76
597.85	1435.00
598.19	1423.19
598.54	1411.50
598.89	1400.62
599.24	1389.93
599.59	1378.36
599.94	1367.48
600.29	1356.84
600.64	1346.76
600.99	1336.03
601.34	1326.53
601.69	1315.36
602.04	1305.43
602.39	1296.07
602.74	1286.69
603.08	1277.01
603.43	1267.61
603.78	1257.94
604.13	1248.21
604.48	1238.34
604.83	1228.70
605.18	1219.24
605.53	1209.65
605.87	1200.09
606.22	1191.12
606.57	1181.85
606.92	1172.30
607.27	1163.33
607.62	1154.79
607.96	1145.96
608.31	1137.83
608.66	1129.24
609.01	1120.83
609.36	1112.23
609.70	1103.40
610.05	1094.85
610.40	1086.45
610.75	1077.85
611.10	1069.45
611.44	1060.96
611.79	1052.84
612.14	1044.87
612.49	1036.79
612.83	1029.29
613.18	1021.65
613.53	1013.97
613.88	1005.89
614.22	998.31
614.57	990.16
614.92	982.22
615.27	974.60
615.61	966.96
615.96	959.25
616.31	951.64
616.65	944.53
617.00	937.19
617.35	929.82
617.70	922.60
618.04	915.35
618.39	908.33
618.74	901.69
619.08	894.91
619.43	887.87
619.78	880.85
620.12	873.76
620.47	866.79
620.82	859.52
621.16	852.59
621.51	846.13
621.85	839.96
622.20	833.14
622.55	826.41
622.89	819.95
623.24	813.62
623.59	807.20
623.93	801.02
624.28	794.74
624.62	789.07
624.97	783.32
625.32	777.41
625.66	771.32
626.01	765.27
626.35	759.58
626.70	753.87
627.04	748.58
627.39	742.94
627.73	737.47
628.08	732.34
628.43	726.91
628.77	721.27
629.12	715.76
629.46	711.05
629.81	706.41
630.15	701.55
630.50	696.52
630.84	691.69
631.19	686.75
631.53	682.06
631.88	676.73
632.22	671.76
632.57	667.38
632.91	662.85
633.26	658.23
633.60	653.74
633.95	649.14
634.29	644.20
634.64	639.72
634.98	635.08
635.32	630.73
635.67	626.77
636.01	622.64
636.36	618.35
636.70	614.16
637.05	609.82
637.39	605.70
637.73	601.47
638.08	597.31
638.42	593.08
638.77	588.77
639.11	584.43
639.45	580.14
639.80	575.51
640.14	571.32
640.49	567.30
640.83	563.34
641.17	559.67
641.52	556.06
641.86	552.42
642.20	549.20
642.55	545.45
642.89	541.77
643.23	538.23
643.58	535.27
643.92	531.59
644.26	528.22
644.61	524.89
644.95	521.49
645.29	518.14
645.64	514.92
645.98	511.87
646.32	509.03
646.66	505.90
647.01	503.05
647.35	500.37
647.69	497.53
648.04	494.67
648.38	491.81
648.72	488.90
649.06	485.95
649.41	482.90
649.75	479.83
650.09	477.05
650.43	474.16
650.78	470.94
651.12	468.05
651.46	465.18
651.80	462.43
652.14	459.85
652.49	457.33
652.83	454.93
653.17	452.27
653.51	449.41
653.85	447.15
654.20	444.63
654.54	442.04
654.88	439.60
655.22	437.30
655.56	434.80
655.90	432.50
656.25	430.23
656.59	427.93
656.93	425.80
657.27	423.66
657.61	421.20
657.95	419.07
658.29	417.12
658.64	414.94
658.98	412.66
659.32	410.38
659.66	408.12
660.00	405.90
660.34	403.85
660.68	401.96
661.02	399.77
661.36	397.80
661.70	395.76
662.05	393.73
662.39	391.72
662.73	389.91
663.07	388.22
663.41	386.40
663.75	384.55
664.09	382.67
664.43	380.64
664.77	379.09
665.11	377.35
665.45	375.68
665.79	374.08
666.13	372.40
666.47	370.72
666.81	369.11
667.15	367.32
667.49	365.81
667.83	364.49
668.17	363.10
668.51	361.70
668.85	360.30
669.19	359.12
669.53	357.51
669.87	355.97
670.21	354.31
670.55	352.94
670.89	351.80
671.23	350.52
671.57	349.15
671.91	347.62
672.25	346.24
672.58	344.90
672.92	343.42
673.26	342.12
673.60	340.93
673.94	339.79
674.28	338.79
674.62	337.60
674.96	336.21
675.30	334.98
675.64	333.71
675.97	332.57
676.31	331.17
676.65	330.07
676.99	329.17
677.33	328.11
677.67	327.04
678.01	325.68
678.34	324.55
678.68	323.53
679.02	322.59
679.36	321.58
679.70	320.55
680.04	319.68
680.37	318.74
680.71	317.78
681.05	316.81
681.39	315.76
681.73	314.77
682.06	313.89
682.40	313.00
682.74	312.24
683.08	311.45
683.42	310.62
683.75	309.74
684.09	308.78
684.43	307.92
684.77	307.00
685.10	306.20
685.44	305.41
685.78	304.57
686.12	303.77
686.45	302.99
686.79	302.15
687.13	301.51
687.46	300.74
687.80	300.07
688.14	299.23
688.48	298.50
688.81	297.74
689.15	297.13
689.49	296.38
689.82	295.61
690.16	294.71
690.50	294.02
690.83	293.32
691.17	292.57
691.51	291.84
691.84	291.21
692.18	290.51
692.52	289.80
692.85	289.23
693.19	288.82
693.52	288.14
693.86	287.41
694.20	286.69
694.53	286.15
694.87	285.52
695.21	284.91
695.54	284.29
695.88	283.64
696.21	282.86
696.55	282.28
696.88	281.70
697.22	281.06
697.56	280.48
697.89	279.87
698.23	279.35
698.56	278.80
698.90	278.35
699.23	277.83
699.57	277.33
699.90	276.79
700.24	276.10
700.58	275.66
700.91	275.33
701.25	275.22
701.58	275.08
701.92	274.72
702.25	274.26
702.59	273.86
702.92	273.47
703.26	273.11
703.59	272.57
703.93	272.52
704.26	272.19
704.60	271.79
704.93	271.36
705.26	270.77
705.60	270.51
705.93	269.88
706.27	269.63
706.60	269.37
706.94	269.09
707.27	268.67
707.61	268.31
707.94	267.87
708.27	267.10
708.61	266.36
708.94	265.87
709.28	265.60
709.61	265.14
709.94	264.81
710.28	264.37
710.61	264.07
710.95	263.24
711.28	263.21
711.61	262.81
711.95	262.59
712.28	262.28
712.61	261.85
712.95	261.82
713.28	261.66
713.61	261.25
713.95	260.89
714.28	260.56
714.61	260.16
714.95	259.81
715.28	259.46
715.61	259.09
715.95	258.85
716.28	258.40
716.61	258.15
716.95	257.77
717.28	257.48
717.61	257.12
717.94	256.80
718.28	256.15
718.61	255.86
718.94	255.51
719.27	255.26
719.61	255.04
719.94	254.67
720.27	254.19
720.60	253.87
720.94	253.59
721.27	253.47
721.60	253.35
721.93	253.10
722.27	252.96
722.60	252.85
722.93	252.46
723.26	252.35
723.59	252.12
723.93	251.91
724.26	251.74
724.59	251.61
724.92	251.42
725.25	251.32
725.59	251.02
725.92	250.84
726.25	250.64
726.58	250.53
726.91	250.34
727.24	250.15
727.57	249.99
727.91	249.63
728.24	249.39
728.57	249.08
728.90	249.00
729.23	248.70
729.56	248.73
729.89	248.56
730.22	248.26
730.55	248.07
730.89	247.91
731.22	247.70
731.55	247.50
731.88	247.38
732.21	247.09
732.54	246.96
732.87	246.83
733.20	246.73
733.53	246.49
733.86	246.35
734.19	246.12
734.52	246.00
734.85	246.22
735.18	245.96
735.51	245.95
735.84	245.78
736.17	245.76
736.50	245.27
736.83	245.70
737.16	245.69
737.49	245.54
737.82	245.35
738.15	245.24
738.48	245.06
738.81	244.83
739.14	244.69
739.47	244.57
739.80	244.40
740.13	244.23
740.46	244.03
740.79	243.73
741.12	243.54
741.45	243.35
741.78	242.93
742.11	242.90
742.44	242.61
742.77	242.50
743.10	242.29
743.43	242.14
743.75	241.49
744.08	241.81
744.41	241.64
744.74	241.47
745.07	241.28
745.40	241.18
745.73	241.16
746.06	241.06
746.39	240.95
746.71	240.76
747.04	240.59
747.37	240.44
747.70	240.44
748.03	240.39
748.36	240.34
748.68	240.28
749.01	240.02
749.34	239.98
749.67	239.81
750.00	239.74
750.33	240.03
750.65	240.00
750.98	239.31
751.31	239.20
751.64	239.14
751.97	239.29
752.29	239.17
752.62	238.96
752.95	238.84
753.28	238.68
753.60	238.61
753.93	238.61
754.26	238.53
754.59	238.28
754.91	238.13
755.24	237.95
755.57	237.90
755.90	237.78
756.22	237.64
756.55	237.54
756.88	237.34
757.20	236.89
757.53	236.64
757.86	236.57
758.19	236.50
758.51	236.42
758.84	236.10
759.17	235.98
759.49	235.98
759.82	236.08
760.15	236.10
760.47	235.98
760.80	235.77
761.13	235.74
761.45	235.66
761.78	235.62
762.11	235.57
762.43	235.38
762.76	235.35
763.08	235.26
763.41	235.19
763.74	235.19
764.06	235.10
764.39	235.04
764.71	234.85
765.04	234.75
765.37	234.64
765.69	234.54
766.02	234.46
766.34	234.35
766.67	234.07
767.00	234.07
767.32	234.23
767.65	234.44
767.97	234.33
768.30	234.38
768.62	234.32
768.95	234.12
769.27	234.05
769.60	234.00
769.92	233.90
770.25	233.74
770.57	233.59
770.90	233.50
771.22	233.39
771.55	233.42
771.87	233.37
772.20	233.32
772.52	233.57
772.85	234.09
773.17	234.05
773.50	234.03
773.82	233.91
774.15	233.58
774.47	233.24
774.80	233.16
775.12	233.02
775.45	232.91
775.77	232.85
776.09	232.82
776.42	232.75
776.74	232.89
777.07	232.84
777.39	232.85
777.72	232.78
778.04	232.78
778.36	232.73
778.69	232.70
779.01	232.69
779.33	232.29
779.66	231.71
779.98	231.53
780.31	231.47
780.63	231.55
780.95	231.67
781.28	231.60
781.60	231.47
781.92	231.49
782.25	231.48
782.57	231.54
782.89	231.37
783.22	231.39
783.54	231.24
783.86	231.27
784.19	231.13
784.51	231.28
784.83	231.18
785.16	231.10
785.48	231.07
785.80	231.03
786.12	231.05
786.45	231.02
786.77	231.13
787.09	231.05
787.42	230.81
787.74	230.76
788.06	230.73
788.38	230.68
788.71	230.63
789.03	230.62
789.35	230.61
789.67	230.58
789.99	230.54
790.32	230.42
790.64	230.45
790.96	230.84
791.28	230.63
791.61	230.55
791.93	230.60
792.25	230.58
792.57	230.85
792.89	230.73
793.21	230.73
793.54	230.60
793.86	230.52
794.18	230.60
794.50	230.48
794.82	230.49
795.14	230.56
795.47	230.56
795.79	230.51
796.11	230.39
796.43	230.37
796.75	230.34
797.07	230.39
797.39	230.31
797.71	229.95
798.04	230.00
798.36	230.09
798.68	230.06
799.00	230.05
799.32	229.86
799.64	229.96
799.96	229.95
800.28	230.00
800.60	229.97
800.92	229.91
801.24	229.90
801.56	229.95
801.89	229.96
802.21	229.94
802.53	229.89
802.85	230.02
803.17	230.22
803.49	230.11
803.81	230.06
804.13	230.05
804.45	229.97
804.77	230.00
805.09	229.96
805.41	229.90
805.73	229.78
806.05	229.61
806.37	229.56
806.69	229.48
807.01	229.43
807.33	229.46
807.65	229.34
807.97	229.60
808.28	229.51
808.60	229.49
808.92	229.40
809.24	229.65
809.56	229.59
809.88	229.41
810.20	229.40
810.52	229.47
810.84	229.31
811.16	229.29
811.48	229.20
811.80	229.31
812.12	229.25
812.43	229.27
812.75	229.30
813.07	229.21
813.39	229.26
813.71	229.18
814.03	229.15
814.35	229.17
814.67	228.92
814.98	228.86
815.30	228.78
815.62	228.69
815.94	228.32
816.26	228.47
816.58	228.40
816.89	228.43
817.21	228.34
817.53	228.42
817.85	228.39
818.17	228.33
818.48	228.13
818.80	228.22
819.12	228.21
819.44	228.11
819.76	228.07
820.07	228.08
820.39	228.11
820.71	228.11
821.03	228.06
821.34	228.06
821.66	228.09
821.98	228.19
822.30	228.19
822.61	228.55
822.93	228.32
823.25	228.32
823.57	228.26
823.88	228.28
824.20	228.20
824.52	228.28
824.83	228.26
825.15	228.23
825.47	228.22
825.79	228.24
826.10	228.26
826.42	228.18
826.74	228.15
827.05	228.19
827.37	228.23
827.69	228.20
828.00	228.13
828.32	228.15
828.64	228.00
828.95	228.29
829.27	228.12
829.58	228.14
829.90	228.22
830.22	228.24
830.53	228.11
830.85	228.16
831.17	228.09
831.48	228.13
831.80	228.16
832.11	228.11
832.43	228.02
832.75	227.98
833.06	228.27
833.38	228.16
833.69	228.11
834.01	228.09
834.32	228.11
834.64	228.12
834.96	228.12
835.27	228.09
835.59	227.91
835.90	227.85
836.22	227.82
836.53	227.76
836.85	227.61
837.16	228.17
837.48	228.13
837.79	228.21
838.11	228.20
838.42	228.16
838.74	228.17
839.05	228.15
839.37	228.14
839.68	227.87
840.00	227.88
840.31	227.89
840.63	227.94
840.94	227.90
841.26	227.88
841.57	227.84
841.88	228.00
842.20	227.90
842.51	227.77
842.83	227.71
843.14	228.14
843.46	228.22
843.77	227.98
844.08	227.92
844.40	227.82
844.71	227.82
845.03	227.84
845.34	227.81
845.65	227.82
845.97	227.80
846.28	227.91
846.60	227.88
846.91	227.87
847.22	227.83
847.54	227.90
847.85	227.93
848.16	227.92
848.48	227.81
848.79	228.07
849.10	228.17
849.42	228.26
849.73	227.75
850.04	227.80
850.36	227.57
850.67	227.65
850.98	227.63
851.30	227.65
851.61	227.56
851.92	227.55
852.23	227.73
852.55	227.76
852.86	227.71
853.17	227.78
853.49	227.78
853.80	227.94
854.11	227.94
854.42	227.98
854.74	227.93
855.05	227.93
855.36	227.63
855.67	227.65
855.99	227.60
856.30	228.23
856.61	228.25
856.92	228.21
857.23	228.26
857.55	228.17
857.86	228.08
858.17	228.22
858.48	228.11
858.79	228.02
859.11	228.01
859.42	227.94
859.73	227.83
860.04	227.81
860.35	227.59
860.66	227.44
860.98	227.40
861.29	227.45
861.60	227.39
861.91	227.51
862.22	227.33
862.53	227.26
862.84	226.66
863.16	226.78
863.47	226.72
863.78	226.65
864.09	226.65
864.40	226.79
864.71	226.78
865.02	226.87
865.33	226.81
865.64	226.81
865.95	226.84
866.27	227.20
866.58	227.18
866.89	227.15
867.20	227.19
867.51	227.08
867.82	227.05
868.13	227.21
868.44	227.06
868.75	227.22
869.06	227.33
869.37	227.40
869.68	227.18
869.99	227.26
870.30	227.28
870.61	227.42
870.92	227.30
871.23	227.18
871.54	227.27
871.85	227.31
872.16	227.25
872.47	227.23
872.78	226.85
873.09	226.92
873.40	226.90
873.71	226.90
874.02	226.94
874.33	226.90
874.64	226.76
874.95	226.91
875.26	226.77
875.56	226.66
875.87	226.57
876.18	226.50
876.49	226.91
876.80	226.80
877.11	226.67
877.42	226.66
877.73	226.67
878.04	226.57
878.35	226.53
878.66	226.55
878.96	226.55
879.27	226.59
879.58	226.50
879.89	226.43
880.20	226.56
880.51	226.52
880.82	226.57
881.12	226.58
881.43	226.45
881.74	226.42
882.05	226.41
882.36	226.48
882.67	226.61
882.97	226.16
883.28	226.20
883.59	226.25
883.90	226.34
884.21	226.51
884.51	226.50
884.82	226.50
885.13	226.55
885.44	226.51
885.74	226.50
886.05	226.51
886.36	226.61
886.67	226.44
886.98	226.69
887.28	226.68
887.59	226.69
887.90	226.71
888.20	226.73
888.51	226.90
888.82	226.88
889.13	226.86
889.43	227.23
889.74	227.17
890.05	227.07
890.35	227.05
890.66	226.98
890.97	226.93
891.28	226.92
891.58	226.92
891.89	226.95
892.20	226.92
892.50	226.91
892.81	226.94
893.12	226.92
893.42	226.72
893.73	226.81
894.04	226.87
894.34	226.96
894.65	226.99
894.95	226.88
895.26	226.91
895.57	227.16
895.87	226.74
896.18	226.87
896.48	227.02
896.79	226.96
897.10	226.95
897.40	227.05
897.71	227.16
898.01	227.09
898.32	227.18
898.63	227.21
898.93	227.20
899.24	227.19
899.54	227.21
899.85	227.25
900.15	227.15
900.46	227.10
900.76	227.11
901.07	227.09
901.38	227.10
901.68	227.16
901.99	226.90
902.29	226.95
902.60	226.96
902.90	226.88
903.21	226.88
903.51	226.90
903.82	226.93
904.12	226.86
904.43	226.92
904.73	226.90
905.03	226.97
905.34	227.45
905.64	227.40
905.95	227.42
906.25	227.42
906.56	227.43
906.86	227.43
907.17	227.35
907.47	227.36
907.77	227.28
908.08	227.15
908.38	227.15
908.69	227.22
908.99	227.24
909.30	227.28
909.60	227.28
909.90	227.28
910.21	227.16
910.51	227.11
910.81	227.07
911.12	227.05
911.42	226.98
911.73	226.43
912.03	226.47
912.33	226.52
912.64	226.47
912.94	226.41
913.24	226.29
913.55	226.30
913.85	226.25
914.15	226.40
914.46	226.47
914.76	226.48
915.06	226.41
915.37	226.29
915.67	226.28
915.97	226.28
916.27	226.11
916.58	226.13
916.88	226.08
917.18	226.10
917.49	226.45
917.79	226.41
918.09	226.50
918.39	226.55
918.70	226.54
919.00	226.52
919.30	226.78
919.60	226.83
919.91	226.82
920.21	226.83
920.51	226.73
920.81	226.65
921.12	226.63
921.42	226.62
921.72	226.65
922.02	226.59
922.32	226.62
922.63	226.68
922.93	226.88
923.23	226.88
923.53	226.82
923.83	226.47
924.13	226.47
924.44	226.51
924.74	226.67
925.04	226.78
925.34	226.80
925.64	226.56
925.94	226.57
926.24	226.80
926.55	226.77
926.85	226.82
927.15	226.85
927.45	226.88
927.75	226.86
928.05	226.90
928.35	226.94
928.65	227.07
928.95	227.16
929.26	226.97
929.56	227.11
929.86	227.22
930.16	227.17
930.46	227.24
930.76	227.23
931.06	227.00
931.36	226.83
931.66	226.93
931.96	227.02
932.26	227.04
932.56	226.92
932.86	226.97
933.16	226.99
933.46	227.00
933.76	226.95
934.06	227.07
934.36	227.22
934.66	227.25
934.96	227.15
935.26	227.14
935.56	227.25
935.86	227.11
936.16	227.00
936.46	227.03
936.76	226.98
937.06	226.90
937.36	226.98
937.66	227.02
937.96	226.99
938.26	226.90
938.56	226.84
938.86	226.76
939.16	226.86
939.46	226.90
939.76	226.85
940.06	226.89
940.35	226.83
940.65	226.62
940.95	226.62
941.25	226.50
941.55	226.47
941.85	226.44
942.15	226.57
942.45	226.77
942.75	226.79
943.04	226.76
943.34	226.89
943.64	226.80
943.94	226.75
944.24	226.72
944.54	226.72
944.84	226.70
945.13	226.65
945.43	226.52
945.73	226.48
946.03	226.44
946.33	226.39
946.62	226.33
946.92	226.31
947.22	226.34
947.52	226.45
947.82	226.44
948.11	226.40
948.41	226.29
948.71	226.10
949.01	226.15
949.31	226.14
949.60	226.07
949.90	226.16
950.20	226.21
950.50	226.18
950.79	226.14
951.09	226.20
951.39	226.25
951.69	226.22
951.98	226.34
952.28	226.45
952.58	226.34
952.87	226.31
953.17	226.35
953.47	226.27
953.76	226.21
954.06	226.17
954.36	226.01
954.66	226.02
954.95	226.13
955.25	226.10
955.55	226.12
955.84	226.06
956.14	226.05
956.44	226.03
956.73	225.99
957.03	226.08
957.32	226.05
957.62	225.99
957.92	226.11
958.21	226.06
958.51	226.55
958.81	226.59
959.10	226.68
959.40	226.84
959.69	226.91
959.99	226.97
960.29	227.00
960.58	227.02
960.88	227.22
961.17	227.18
961.47	227.25
961.76	227.21
962.06	227.26
962.36	227.23
962.65	227.26
962.95	227.27
963.24	227.17
963.54	227.25
963.83	227.21
964.13	227.21
964.42	227.08
964.72	226.68
965.01	226.72
965.31	226.68
965.60	226.57
965.90	226.85
966.19	226.75
966.49	226.73
966.78	226.74
967.08	226.64
967.37	226.63
967.67	226.56
967.96	226.65
968.26	226.70
968.55	226.83
968.85	226.82
969.14	226.84
969.43	226.89
969.73	226.88
970.02	226.94
970.32	226.88
970.61	226.86
970.91	226.73
971.20	226.69
971.49	226.61
971.79	226.62
972.08	226.34
972.38	226.43
972.67	226.41
972.96	226.58
973.26	226.56
973.55	226.75
973.85	226.71
974.14	226.72
974.43	226.66
974.73	226.50
975.02	226.47
975.31	226.47
975.61	226.51
975.90	226.39
976.19	226.36
976.49	226.43
976.78	226.46
977.07	226.45
977.37	226.52
977.66	226.64
977.95	226.58
978.24	226.54
978.54	226.66
978.83	226.68
979.12	226.54
979.42	226.52
979.71	226.41
980.00	226.39
980.29	226.37
980.59	226.33
980.88	226.41
981.17	226.35
981.46	226.37
981.76	226.39
982.05	226.52
982.34	226.48
982.63	226.45
982.93	226.45
983.22	226.61
983.51	226.54
983.80	226.58
984.09	226.69
984.39	226.59
984.68	226.45
984.97	226.44
985.26	226.42
985.55	226.47
985.85	226.33
986.14	226.41
986.43	226.44
986.72	226.43
987.01	226.28
987.30	226.30
987.59	226.27
987.89	226.16
988.18	226.04
988.47	226.01
988.76	225.92
989.05	225.91
989.34	225.80
989.63	226.00
989.92	225.90
990.22	225.75
990.51	225.80
990.80	225.82
991.09	225.90
991.38	225.98
991.67	225.86
991.96	225.81
992.25	225.74
992.54	225.57
992.83	225.57
993.12	225.55
993.41	225.63
993.70	225.79
993.99	225.92
994.28	226.04
994.58	226.18
994.87	226.16
995.16	226.10
995.45	226.06
995.74	225.86
996.03	225.97
996.32	226.09
996.61	226.21
996.90	226.11
997.19	225.99
997.48	225.98
997.77	225.89
998.06	225.94
998.34	225.95
998.63	226.07
998.92	226.13
999.21	226.27
999.50	226.31
999.79	226.15
1000.08	226.12
1000.37	226.07
1000.66	225.98
1000.95	226.13
1001.24	226.18
1001.53	226.21
1001.82	226.28
1002.11	226.14
1002.40	226.17
1002.68	226.24
1002.97	226.68
1003.26	226.71
1003.55	226.62
1003.84	226.74
1004.13	226.88
1004.42	226.88
1004.71	226.84
1004.99	226.77
1005.28	226.88
1005.57	226.85
1005.86	226.77
1006.15	226.76
1006.44	226.65
1006.72	226.71
1007.01	226.64
1007.30	226.67
1007.59	226.66
1007.88	226.61
1008.17	226.65
1008.45	226.61
1008.74	226.50
1009.03	226.28
1009.32	226.21
1009.60	226.21
1009.89	226.12
1010.18	226.01
1010.47	226.01
1010.76	226.06
1011.04	226.08
1011.33	226.10
1011.62	226.11
1011.91	226.19
1012.19	226.26
1012.48	226.33
1012.77	226.35
1013.05	226.55
1013.34	226.55
1013.63	226.54
1013.92	226.64
1014.20	226.63
1014.49	226.64
1014.78	226.60
1015.06	226.41
1015.35	226.44
1015.64	226.52
1015.92	226.58
1016.21	226.51
1016.50	226.51
1016.78	226.49
1017.07	226.48
1017.36	226.33
1017.64	226.23
1017.93	226.26
1018.22	226.19
1018.50	226.27
1018.79	226.20
1019.08	225.98
1019.36	225.96
1019.65	225.94
1019.93	225.98
1020.22	226.07
1020.51	226.21
1020.79	226.13
1021.08	226.05
1021.36	227.10
1021.65	225.60
1021.94	225.85
1022.22	225.65
1022.51	225.75
1022.79	227.90
1023.08	227.45
1023.36	230.85
1023.65	223.95
>>>>>End Processed Spectral Data<<<<<
