SpectraSuite Data File
++++++++++++++++++++++++++++++++++++
Date: Wed Sep 04 17:42:57 EDT 2013
User: lab3
Dark Spectrum Present: Yes
Reference Spectrum Present: No
Number of Sampled Component Spectra: 1
Spectrometers: USB2E7196
Integration Time (usec): 170000 (USB2E7196)
Spectra Averaged: 20 (USB2E7196)
Boxcar Smoothing: 10 (USB2E7196)
Correct for Electrical Dark: No (USB2E7196)
Strobe/Lamp Enabled: No (USB2E7196)
Correct for Detector Non-linearity: No (USB2E7196)
Correct for Stray Light: No (USB2E7196)
Number of Pixels in Processed Spectrum: 2048
>>>>>Begin Processed Spectral Data<<<<<
339.09	0.00
339.48	212.65
339.86	213.50
340.24	215.60
340.63	217.00
341.01	224.80
341.39	219.95
341.78	221.20
342.16	223.85
342.54	223.05
342.93	212.10
343.31	222.76
343.69	223.27
344.07	223.77
344.46	224.27
344.84	224.67
345.22	224.68
345.60	224.96
345.99	225.20
346.37	225.26
346.75	225.37
347.13	225.42
347.52	225.47
347.90	225.73
348.28	225.70
348.66	225.75
349.05	225.64
349.43	225.65
349.81	225.68
350.19	225.71
350.57	225.78
350.96	225.75
351.34	225.93
351.72	226.04
352.10	226.12
352.48	226.08
352.87	226.10
353.25	226.16
353.63	226.10
354.01	226.09
354.39	226.20
354.77	226.26
355.15	226.45
355.54	226.45
355.92	226.32
356.30	226.41
356.68	226.78
357.06	226.87
357.44	226.84
357.82	226.89
358.20	227.35
358.58	227.44
358.97	227.52
359.35	227.61
359.73	227.77
360.11	227.84
360.49	227.97
360.87	228.09
361.25	228.19
361.63	228.52
362.01	228.63
362.39	228.61
362.77	228.71
363.15	228.66
363.53	228.80
363.91	228.85
364.29	228.87
364.67	228.44
365.05	228.50
365.43	228.60
365.81	228.69
366.19	228.53
366.57	228.77
366.95	228.82
367.33	228.69
367.71	228.68
368.09	228.77
368.47	228.76
368.85	228.70
369.23	228.84
369.61	228.56
369.99	228.64
370.37	228.71
370.75	228.88
371.13	228.82
371.51	228.66
371.89	228.61
372.27	228.55
372.65	228.56
373.03	228.47
373.41	228.38
373.78	228.24
374.16	227.94
374.54	227.68
374.92	227.52
375.30	227.50
375.68	227.33
376.06	227.32
376.44	227.22
376.82	227.21
377.19	227.03
377.57	227.00
377.95	226.84
378.33	226.66
378.71	226.31
379.09	226.31
379.47	226.32
379.84	226.26
380.22	226.11
380.60	225.96
380.98	225.89
381.36	225.82
381.73	225.75
382.11	225.80
382.49	225.75
382.87	225.73
383.25	225.66
383.62	226.16
384.00	225.88
384.38	225.79
384.76	225.83
385.13	225.93
385.51	225.89
385.89	225.77
386.27	225.71
386.64	225.71
387.02	225.60
387.40	225.52
387.78	225.45
388.15	225.45
388.53	225.42
388.91	225.39
389.29	225.38
389.66	225.43
390.04	225.31
390.42	225.32
390.79	225.33
391.17	225.31
391.55	224.76
391.92	224.72
392.30	224.85
392.68	224.70
393.05	224.73
393.43	224.70
393.81	224.76
394.18	224.79
394.56	224.82
394.94	224.91
395.31	224.91
395.69	225.12
396.06	225.30
396.44	225.37
396.82	225.37
397.19	225.70
397.57	225.67
397.95	225.85
398.32	225.80
398.70	225.92
399.07	226.04
399.45	226.10
399.82	226.30
400.20	226.29
400.58	226.43
400.95	226.34
401.33	226.56
401.70	226.94
402.08	227.09
402.45	227.23
402.83	227.47
403.20	227.69
403.58	227.76
403.95	227.90
404.33	228.10
404.71	228.29
405.08	228.65
405.46	228.86
405.83	229.08
406.21	229.36
406.58	229.58
406.96	229.83
407.33	230.15
407.70	230.54
408.08	231.20
408.45	231.55
408.83	231.96
409.20	232.30
409.58	232.47
409.95	232.92
410.33	233.40
410.70	233.72
411.08	234.22
411.45	234.71
411.82	235.30
412.20	236.01
412.57	236.90
412.95	237.15
413.32	237.98
413.69	238.62
414.07	239.45
414.44	240.26
414.82	241.14
415.19	242.22
415.56	243.15
415.94	243.99
416.31	245.24
416.68	246.39
417.06	247.78
417.43	249.20
417.81	250.61
418.18	252.10
418.55	253.70
418.93	255.36
419.30	257.11
419.67	258.86
420.04	260.72
420.42	262.57
420.79	265.19
421.16	267.39
421.54	269.97
421.91	272.44
422.28	275.05
422.66	277.83
423.03	280.70
423.40	283.48
423.77	286.33
424.15	289.31
424.52	292.46
424.89	295.96
425.26	299.17
425.64	302.38
426.01	305.89
426.38	309.51
426.75	313.39
427.13	317.24
427.50	321.24
427.87	325.27
428.24	329.40
428.61	333.08
428.99	337.73
429.36	342.23
429.73	346.74
430.10	351.32
430.47	356.08
430.85	360.48
431.22	365.70
431.59	371.40
431.96	376.51
432.33	382.28
432.70	387.79
433.08	394.31
433.45	400.48
433.82	406.66
434.19	413.54
434.56	420.23
434.93	426.61
435.30	433.09
435.68	440.25
436.05	447.32
436.42	454.19
436.79	460.35
437.16	467.38
437.53	474.76
437.90	481.99
438.27	489.12
438.64	496.72
439.01	503.71
439.38	509.68
439.75	515.65
440.13	522.44
440.50	528.63
440.87	533.66
441.24	539.00
441.61	544.78
441.98	549.02
442.35	553.85
442.72	558.97
443.09	563.86
443.46	566.73
443.83	568.57
444.20	570.26
444.57	572.60
444.94	573.50
445.31	574.37
445.68	575.74
446.05	576.01
446.42	574.98
446.79	573.64
447.16	572.31
447.53	571.28
447.90	568.34
448.27	565.40
448.64	561.50
449.01	558.62
449.37	553.72
449.74	548.66
450.11	543.17
450.48	536.63
450.85	529.99
451.22	524.34
451.59	519.00
451.96	513.91
452.33	507.17
452.70	501.07
453.07	493.99
453.43	486.25
453.80	479.21
454.17	472.52
454.54	466.26
454.91	459.50
455.28	453.02
455.65	446.64
456.02	441.07
456.38	435.79
456.75	429.25
457.12	423.65
457.49	418.51
457.86	413.08
458.23	408.91
458.59	404.20
458.96	399.45
459.33	395.20
459.70	390.89
460.07	387.52
460.43	383.67
460.80	380.20
461.17	377.20
461.54	373.86
461.91	370.79
462.27	367.54
462.64	364.97
463.01	362.04
463.38	359.34
463.74	355.85
464.11	353.31
464.48	351.12
464.85	348.81
465.21	347.06
465.58	345.17
465.95	342.83
466.32	341.04
466.68	339.17
467.05	337.42
467.42	335.68
467.78	333.75
468.15	332.04
468.52	330.59
468.88	328.76
469.25	327.21
469.62	326.06
469.98	324.82
470.35	323.54
470.72	322.28
471.08	320.88
471.45	319.98
471.82	319.08
472.18	317.89
472.55	317.12
472.92	316.02
473.28	315.11
473.65	314.25
474.02	313.34
474.38	312.68
474.75	312.06
475.11	311.29
475.48	310.86
475.85	310.30
476.21	309.84
476.58	309.48
476.94	309.23
477.31	308.91
477.67	308.52
478.04	308.27
478.41	308.19
478.77	308.60
479.14	308.33
479.50	308.24
479.87	308.36
480.23	308.40
480.60	308.53
480.96	308.60
481.33	308.99
481.69	309.25
482.06	309.54
482.42	309.79
482.79	310.28
483.15	310.71
483.52	311.38
483.88	311.85
484.25	312.40
484.61	313.04
484.98	313.58
485.34	314.59
485.71	315.56
486.07	316.46
486.44	316.95
486.80	318.10
487.17	319.10
487.53	320.35
487.90	321.64
488.26	323.14
488.62	324.62
488.99	326.00
489.35	327.55
489.72	329.28
490.08	331.05
490.44	332.90
490.81	334.92
491.17	336.87
491.54	339.14
491.90	341.44
492.26	343.80
492.63	346.36
492.99	348.86
493.36	351.69
493.72	354.68
494.08	357.83
494.45	361.02
494.81	364.57
495.17	368.01
495.54	371.73
495.90	375.49
496.26	379.50
496.63	383.76
496.99	388.01
497.35	392.54
497.72	397.32
498.08	402.15
498.44	407.24
498.80	412.65
499.17	418.13
499.53	423.78
499.89	429.75
500.26	435.81
500.62	442.00
500.98	448.55
501.34	455.04
501.71	461.92
502.07	468.89
502.43	476.08
502.79	483.46
503.16	491.03
503.52	498.98
503.88	507.17
504.24	515.59
504.60	524.52
504.97	533.59
505.33	542.65
505.69	552.36
506.05	562.03
506.41	571.68
506.78	581.50
507.14	591.89
507.50	602.48
507.86	613.42
508.22	624.83
508.59	635.76
508.95	647.59
509.31	659.74
509.67	672.00
510.03	684.12
510.39	696.80
510.75	709.61
511.12	722.39
511.48	735.58
511.84	748.78
512.20	762.07
512.56	775.70
512.92	789.85
513.28	803.91
513.64	818.23
514.00	832.72
514.37	847.62
514.73	862.55
515.09	877.69
515.45	892.79
515.81	907.65
516.17	923.10
516.53	938.35
516.89	953.44
517.25	969.09
517.61	985.66
517.97	1002.03
518.33	1018.08
518.69	1034.37
519.05	1051.07
519.41	1067.71
519.77	1084.75
520.13	1101.29
520.49	1117.90
520.85	1135.74
521.21	1152.66
521.57	1169.48
521.93	1185.74
522.29	1202.48
522.65	1218.38
523.01	1234.60
523.37	1250.60
523.73	1266.98
524.09	1282.94
524.45	1298.75
524.81	1314.93
525.17	1330.50
525.53	1346.04
525.89	1362.15
526.25	1377.96
526.61	1392.97
526.97	1408.65
527.33	1424.25
527.68	1440.50
528.04	1456.03
528.40	1470.21
528.76	1485.41
529.12	1500.65
529.48	1516.05
529.84	1530.74
530.20	1546.49
530.56	1561.85
530.91	1577.19
531.27	1591.84
531.63	1606.51
531.99	1621.38
532.35	1635.30
532.71	1649.54
533.07	1664.30
533.42	1678.09
533.78	1691.96
534.14	1706.08
534.50	1719.28
534.86	1732.53
535.21	1744.52
535.57	1757.03
535.93	1768.95
536.29	1780.95
536.65	1793.05
537.00	1804.65
537.36	1816.01
537.72	1826.41
538.08	1837.59
538.44	1848.43
538.79	1858.91
539.15	1869.42
539.51	1879.69
539.87	1889.51
540.22	1898.36
540.58	1906.93
540.94	1915.03
541.29	1922.75
541.65	1930.14
542.01	1937.58
542.37	1943.24
542.72	1949.08
543.08	1954.72
543.44	1961.25
543.79	1966.50
544.15	1971.44
544.51	1976.82
544.87	1981.67
545.22	1985.95
545.58	1989.08
545.94	1992.02
546.29	1994.62
546.65	1996.87
547.01	1998.65
547.36	2000.05
547.72	2001.66
548.07	2002.11
548.43	2003.55
548.79	2004.39
549.14	2004.75
549.50	2004.94
549.86	2005.18
550.21	2005.69
550.57	2005.69
550.92	2004.24
551.28	2002.60
551.64	2001.89
551.99	2000.70
552.35	1999.46
552.70	1998.63
553.06	1997.63
553.41	1996.32
553.77	1995.33
554.13	1994.11
554.48	1992.96
554.84	1991.62
555.19	1990.20
555.55	1989.30
555.90	1986.53
556.26	1983.78
556.61	1980.04
556.97	1976.19
557.32	1974.02
557.68	1970.98
558.03	1967.84
558.39	1964.70
558.74	1962.06
559.10	1957.88
559.45	1953.19
559.81	1947.93
560.16	1942.02
560.52	1936.43
560.87	1931.01
561.23	1925.21
561.58	1919.32
561.94	1912.47
562.29	1905.72
562.64	1898.72
563.00	1891.02
563.35	1884.60
563.71	1877.96
564.06	1872.30
564.42	1866.21
564.77	1859.54
565.12	1852.69
565.48	1846.04
565.83	1839.01
566.19	1831.90
566.54	1824.73
566.89	1817.78
567.25	1810.95
567.60	1804.59
567.96	1797.88
568.31	1791.07
568.66	1783.72
569.02	1775.87
569.37	1768.82
569.72	1762.28
570.08	1754.63
570.43	1746.91
570.78	1739.39
571.14	1731.75
571.49	1723.47
571.84	1715.72
572.20	1707.05
572.55	1698.89
572.90	1689.85
573.26	1681.38
573.61	1672.53
573.96	1663.69
574.31	1654.21
574.67	1645.30
575.02	1635.52
575.37	1625.62
575.72	1615.50
576.08	1606.25
576.43	1596.84
576.78	1586.76
577.13	1576.10
577.49	1566.51
577.84	1557.23
578.19	1547.88
578.54	1538.11
578.90	1529.03
579.25	1519.83
579.60	1510.29
579.95	1500.57
580.30	1490.95
580.66	1480.95
581.01	1470.99
581.36	1460.72
581.71	1451.34
582.06	1441.83
582.42	1432.96
582.77	1423.70
583.12	1414.84
583.47	1405.73
583.82	1396.85
584.17	1387.94
584.53	1379.61
584.88	1370.23
585.23	1360.99
585.58	1350.83
585.93	1341.54
586.28	1332.02
586.63	1321.81
586.98	1311.82
587.34	1302.49
587.69	1292.97
588.04	1284.13
588.39	1275.52
588.74	1266.96
589.09	1258.50
589.44	1249.27
589.79	1240.37
590.14	1231.93
590.49	1223.27
590.84	1214.61
591.19	1206.24
591.54	1197.76
591.89	1189.07
592.25	1182.18
592.60	1173.80
592.95	1165.95
593.30	1157.66
593.65	1149.38
594.00	1141.06
594.35	1134.71
594.70	1126.32
595.05	1118.41
595.40	1110.09
595.75	1101.97
596.10	1094.27
596.45	1086.22
596.80	1078.74
597.15	1071.03
597.50	1063.05
597.85	1055.39
598.19	1047.34
598.54	1039.16
598.89	1031.60
599.24	1024.30
599.59	1015.71
599.94	1008.40
600.29	1001.39
600.64	994.57
600.99	987.25
601.34	980.75
601.69	972.54
602.04	965.76
602.39	959.07
602.74	952.89
603.08	946.45
603.43	940.15
603.78	933.60
604.13	926.90
604.48	920.30
604.83	913.71
605.18	907.00
605.53	900.61
605.87	894.47
606.22	888.52
606.57	882.18
606.92	876.13
607.27	870.18
607.62	864.15
607.96	858.11
608.31	852.74
608.66	847.04
609.01	841.43
609.36	835.74
609.70	830.25
610.05	824.48
610.40	818.75
610.75	812.69
611.10	807.15
611.44	801.36
611.79	795.79
612.14	790.55
612.49	785.30
612.83	780.27
613.18	775.03
613.53	769.85
613.88	764.60
614.22	759.35
614.57	753.80
614.92	748.35
615.27	743.25
615.61	738.03
615.96	732.75
616.31	727.64
616.65	722.89
617.00	717.68
617.35	712.75
617.70	707.72
618.04	702.88
618.39	698.00
618.74	693.77
619.08	689.13
619.43	684.26
619.78	679.37
620.12	674.49
620.47	669.86
620.82	664.97
621.16	660.13
621.51	655.89
621.85	651.71
622.20	647.28
622.55	642.79
622.89	638.38
623.24	634.25
623.59	629.86
623.93	625.63
624.28	621.56
624.62	617.94
624.97	614.19
625.32	610.22
625.66	606.24
626.01	602.18
626.35	598.33
626.70	594.45
627.04	591.03
627.39	587.27
627.73	583.75
628.08	580.20
628.43	576.55
628.77	572.73
629.12	569.12
629.46	565.92
629.81	562.76
630.15	559.34
630.50	555.89
630.84	552.65
631.19	549.30
631.53	546.21
631.88	542.32
632.22	538.83
632.57	535.86
632.91	532.72
633.26	529.62
633.60	526.57
633.95	523.63
634.29	520.30
634.64	517.26
634.98	514.06
635.32	511.11
635.67	508.61
636.01	505.79
636.36	502.86
636.70	500.00
637.05	497.11
637.39	494.45
637.73	491.65
638.08	488.92
638.42	486.07
638.77	483.10
639.11	480.19
639.45	477.38
639.80	474.36
640.14	471.74
640.49	469.04
640.83	466.28
641.17	463.70
641.52	461.10
641.86	458.65
642.20	456.36
642.55	453.79
642.89	451.14
643.23	448.71
643.58	446.43
643.92	444.00
644.26	441.56
644.61	439.22
644.95	436.90
645.29	434.51
645.64	432.35
645.98	430.23
646.32	428.34
646.66	426.17
647.01	424.04
647.35	421.93
647.69	419.81
648.04	417.96
648.38	416.05
648.72	414.19
649.06	412.05
649.41	409.83
649.75	407.76
650.09	405.95
650.43	404.04
650.78	402.04
651.12	400.07
651.46	398.15
651.80	396.27
652.14	394.45
652.49	392.84
652.83	391.01
653.17	389.35
653.51	387.51
653.85	385.94
654.20	384.34
654.54	382.57
654.88	380.87
655.22	379.40
655.56	377.74
655.90	376.27
656.25	374.77
656.59	373.38
656.93	372.03
657.27	370.58
657.61	368.86
657.95	367.40
658.29	365.86
658.64	364.50
658.98	362.91
659.32	361.38
659.66	359.76
660.00	358.38
660.34	356.85
660.68	355.45
661.02	353.99
661.36	352.49
661.70	351.10
662.05	349.75
662.39	348.29
662.73	347.05
663.07	345.83
663.41	344.49
663.75	343.10
664.09	341.76
664.43	340.29
664.77	339.25
665.11	338.04
665.45	336.96
665.79	335.77
666.13	334.65
666.47	333.47
666.81	332.45
667.15	331.15
667.49	330.04
667.83	329.15
668.17	328.11
668.51	327.17
668.85	326.33
669.19	325.63
669.53	324.50
669.87	323.34
670.21	322.17
670.55	321.26
670.89	320.50
671.23	319.61
671.57	318.66
671.91	317.68
672.25	316.86
672.58	316.08
672.92	315.03
673.26	314.19
673.60	313.39
673.94	312.43
674.28	311.73
674.62	311.08
674.96	310.04
675.30	309.16
675.64	308.40
675.97	307.46
676.31	306.44
676.65	305.60
676.99	305.03
677.33	304.16
677.67	303.46
678.01	302.47
678.34	301.67
678.68	301.08
679.02	300.34
679.36	299.60
679.70	298.71
680.04	298.09
680.37	297.44
680.71	296.71
681.05	296.19
681.39	295.51
681.73	294.66
682.06	294.09
682.40	293.47
682.74	292.88
683.08	292.46
683.42	291.79
683.75	291.26
684.09	290.45
684.43	289.93
684.77	289.28
685.10	288.79
685.44	288.24
685.78	287.65
686.12	287.08
686.45	286.40
686.79	285.77
687.13	285.26
687.46	284.65
687.80	284.21
688.14	283.55
688.48	283.06
688.81	282.55
689.15	282.04
689.49	281.45
689.82	280.95
690.16	280.17
690.50	279.70
690.83	279.15
691.17	278.55
691.51	278.03
691.84	277.59
692.18	277.08
692.52	276.51
692.85	276.02
693.19	275.71
693.52	275.23
693.86	274.79
694.20	274.22
694.53	273.78
694.87	273.30
695.21	272.88
695.54	272.37
695.88	271.82
696.21	271.25
696.55	270.91
696.88	270.42
697.22	269.94
697.56	269.55
697.89	269.07
698.23	268.80
698.56	268.37
698.90	268.04
699.23	267.57
699.57	267.21
699.90	266.74
700.24	266.27
700.58	265.98
700.91	265.73
701.25	265.82
701.58	265.78
701.92	265.44
702.25	265.00
702.59	264.55
702.92	264.40
703.26	264.21
703.59	263.85
703.93	264.04
704.26	263.82
704.60	263.55
704.93	263.21
705.26	262.85
705.60	262.66
705.93	262.16
706.27	261.93
706.60	261.74
706.94	261.66
707.27	261.26
707.61	261.02
707.94	260.71
708.27	260.00
708.61	259.34
708.94	259.09
709.28	258.83
709.61	258.53
709.94	258.14
710.28	257.81
710.61	257.55
710.95	256.77
711.28	256.75
711.61	256.37
711.95	256.26
712.28	255.97
712.61	255.56
712.95	255.60
713.28	255.51
713.61	255.19
713.95	254.77
714.28	254.61
714.61	254.29
714.95	253.93
715.28	253.70
715.61	253.40
715.95	253.06
716.28	252.78
716.61	252.65
716.95	252.33
717.28	252.05
717.61	251.74
717.94	251.43
718.28	250.97
718.61	250.77
718.94	250.44
719.27	250.17
719.61	250.00
719.94	249.59
720.27	249.19
720.60	248.92
720.94	248.69
721.27	248.51
721.60	248.41
721.93	248.31
722.27	248.23
722.60	248.17
722.93	247.92
723.26	247.81
723.59	247.55
723.93	247.42
724.26	247.29
724.59	247.10
724.92	246.99
725.25	246.89
725.59	246.67
725.92	246.51
726.25	246.34
726.58	246.11
726.91	245.94
727.24	245.77
727.57	245.61
727.91	245.42
728.24	245.26
728.57	244.92
728.90	244.82
729.23	244.45
729.56	244.44
729.89	244.38
730.22	244.21
730.55	244.05
730.89	243.95
731.22	243.75
731.55	243.62
731.88	243.47
732.21	243.23
732.54	243.06
732.87	242.96
733.20	242.86
733.53	242.74
733.86	242.66
734.19	242.48
734.52	242.41
734.85	242.55
735.18	242.30
735.51	242.34
735.84	242.13
736.17	242.18
736.50	241.87
736.83	242.29
737.16	242.18
737.49	242.05
737.82	241.87
738.15	241.82
738.48	241.75
738.81	241.57
739.14	241.37
739.47	241.18
739.80	240.99
740.13	240.96
740.46	240.75
740.79	240.64
741.12	240.50
741.45	240.25
741.78	239.88
742.11	239.89
742.44	239.65
742.77	239.58
743.10	239.41
743.43	239.22
743.75	238.56
744.08	238.94
744.41	238.82
744.74	238.69
745.07	238.50
745.40	238.34
745.73	238.42
746.06	238.36
746.39	238.39
746.71	238.30
747.04	238.12
747.37	238.01
747.70	237.93
748.03	237.87
748.36	237.89
748.68	237.81
749.01	237.55
749.34	237.51
749.67	237.38
750.00	237.31
750.33	237.60
750.65	237.56
750.98	236.98
751.31	236.94
751.64	236.94
751.97	237.08
752.29	236.97
752.62	236.70
752.95	236.57
753.28	236.41
753.60	236.30
753.93	236.34
754.26	236.37
754.59	236.14
754.91	235.99
755.24	235.85
755.57	235.78
755.90	235.72
756.22	235.59
756.55	235.48
756.88	235.39
757.20	235.01
757.53	234.83
757.86	234.65
758.19	234.56
758.51	234.50
758.84	234.17
759.17	234.12
759.49	234.02
759.82	234.25
760.15	234.24
760.47	234.23
760.80	233.98
761.13	233.96
761.45	233.89
761.78	233.93
762.11	233.95
762.43	233.85
762.76	233.83
763.08	233.80
763.41	233.82
763.74	233.76
764.06	233.69
764.39	233.58
764.71	233.65
765.04	233.64
765.37	233.48
765.69	233.50
766.02	233.41
766.34	233.39
766.67	233.12
767.00	233.15
767.32	233.30
767.65	233.63
767.97	233.49
768.30	233.53
768.62	233.38
768.95	233.21
769.27	233.09
769.60	233.06
769.92	232.96
770.25	232.74
770.57	232.51
770.90	232.46
771.22	232.45
771.55	232.38
771.87	232.28
772.20	232.21
772.52	232.45
772.85	232.98
773.17	232.92
773.50	232.89
773.82	232.80
774.15	232.49
774.47	232.13
774.80	232.07
775.12	232.00
775.45	231.96
775.77	231.93
776.09	231.92
776.42	231.94
776.74	232.00
777.07	231.96
777.39	231.97
777.72	231.83
778.04	231.85
778.36	231.68
778.69	231.63
779.01	231.59
779.33	231.13
779.66	230.51
779.98	230.44
780.31	230.38
780.63	230.45
780.95	230.48
781.28	230.43
781.60	230.28
781.92	230.18
782.25	230.16
782.57	230.18
782.89	230.08
783.22	229.97
783.54	229.84
783.86	229.92
784.19	229.81
784.51	229.94
784.83	229.85
785.16	229.83
785.48	229.72
785.80	229.76
786.12	229.82
786.45	229.84
786.77	229.87
787.09	229.81
787.42	229.61
787.74	229.64
788.06	229.64
788.38	229.65
788.71	229.56
789.03	229.46
789.35	229.44
789.67	229.38
789.99	229.35
790.32	229.23
790.64	229.24
790.96	229.60
791.28	229.38
791.61	229.32
791.93	229.31
792.25	229.36
792.57	229.63
792.89	229.53
793.21	229.55
793.54	229.40
793.86	229.31
794.18	229.28
794.50	229.13
794.82	229.09
795.14	229.17
795.47	229.29
795.79	229.31
796.11	229.27
796.43	229.24
796.75	229.23
797.07	229.28
797.39	229.19
797.71	228.83
798.04	228.88
798.36	228.85
798.68	228.86
799.00	228.90
799.32	228.61
799.64	228.67
799.96	228.62
800.28	228.74
800.60	228.74
800.92	228.82
801.24	228.81
801.56	228.85
801.89	228.78
802.21	228.78
802.53	228.71
802.85	228.68
803.17	228.89
803.49	228.78
803.81	228.73
804.13	228.69
804.45	228.71
804.77	228.70
805.09	228.69
805.41	228.59
805.73	228.45
806.05	228.34
806.37	228.34
806.69	228.26
807.01	228.22
807.33	228.29
807.65	228.10
807.97	228.28
808.28	228.22
808.60	228.25
808.92	228.22
809.24	228.53
809.56	228.53
809.88	228.37
810.20	228.39
810.52	228.51
810.84	228.43
811.16	228.32
811.48	228.32
811.80	228.45
812.12	228.48
812.43	228.54
812.75	228.55
813.07	228.45
813.39	228.51
813.71	228.43
814.03	228.35
814.35	228.38
814.67	228.20
814.98	228.11
815.30	228.08
815.62	227.94
815.94	227.61
816.26	227.80
816.58	227.72
816.89	227.76
817.21	227.65
817.53	227.72
817.85	227.75
818.17	227.76
818.48	227.49
818.80	227.57
819.12	227.49
819.44	227.45
819.76	227.39
820.07	227.38
820.39	227.34
820.71	227.39
821.03	227.39
821.34	227.35
821.66	227.43
821.98	227.42
822.30	227.36
822.61	227.70
822.93	227.37
823.25	227.32
823.57	227.27
823.88	227.38
824.20	227.35
824.52	227.48
824.83	227.45
825.15	227.44
825.47	227.39
825.79	227.44
826.10	227.42
826.42	227.40
826.74	227.40
827.05	227.37
827.37	227.34
827.69	227.30
828.00	227.37
828.32	227.35
828.64	227.26
828.95	227.59
829.27	227.31
829.58	227.46
829.90	227.65
830.22	227.65
830.53	227.50
830.85	227.41
831.17	227.18
831.48	227.17
831.80	227.20
832.11	227.19
832.43	227.08
832.75	227.09
833.06	227.39
833.38	227.20
833.69	227.20
834.01	227.24
834.32	227.19
834.64	227.05
834.96	227.03
835.27	227.07
835.59	226.89
835.90	226.90
836.22	226.80
836.53	226.63
836.85	226.56
837.16	227.02
837.48	227.11
837.79	227.35
838.11	227.37
838.42	227.34
838.74	227.40
839.05	227.42
839.37	227.45
839.68	227.13
840.00	227.17
840.31	227.22
840.63	227.13
840.94	227.14
841.26	227.16
841.57	227.13
841.88	227.14
842.20	227.12
842.51	227.10
842.83	227.15
843.14	227.57
843.46	227.55
843.77	227.30
844.08	227.20
844.40	227.00
844.71	226.90
845.03	226.92
845.34	226.85
845.65	226.83
845.97	226.77
846.28	226.82
846.60	226.80
846.91	226.82
847.22	226.76
847.54	226.82
847.85	226.75
848.16	226.69
848.48	226.67
848.79	226.77
849.10	226.77
849.42	226.71
849.73	226.25
850.04	226.36
850.36	226.20
850.67	226.36
850.98	226.40
851.30	226.42
851.61	226.41
851.92	226.45
852.23	226.57
852.55	226.65
852.86	226.66
853.17	226.79
853.49	226.78
853.80	226.96
854.11	226.97
854.42	227.05
854.74	227.00
855.05	226.96
855.36	226.77
855.67	226.76
855.99	226.74
856.30	227.32
856.61	227.24
856.92	227.22
857.23	227.17
857.55	227.08
857.86	227.11
858.17	227.23
858.48	227.14
858.79	227.03
859.11	227.01
859.42	227.00
859.73	226.88
860.04	226.93
860.35	226.76
860.66	226.63
860.98	226.64
861.29	226.80
861.60	226.76
861.91	226.85
862.22	226.82
862.53	226.80
862.84	226.15
863.16	226.34
863.47	226.26
863.78	226.19
864.09	226.24
864.40	226.29
864.71	226.28
865.02	226.28
865.33	226.25
865.64	226.16
865.95	226.16
866.27	226.45
866.58	226.39
866.89	226.46
867.20	226.43
867.51	226.39
867.82	226.35
868.13	226.55
868.44	226.49
868.75	226.53
869.06	226.57
869.37	226.65
869.68	226.42
869.99	226.51
870.30	226.55
870.61	226.54
870.92	226.44
871.23	226.38
871.54	226.50
871.85	226.59
872.16	226.69
872.47	226.66
872.78	226.34
873.09	226.37
873.40	226.34
873.71	226.43
874.02	226.47
874.33	226.39
874.64	226.16
874.95	226.20
875.26	226.11
875.56	226.08
875.87	226.13
876.18	226.10
876.49	226.55
876.80	226.52
877.11	226.51
877.42	226.56
877.73	226.59
878.04	226.51
878.35	226.53
878.66	226.48
878.96	226.42
879.27	226.48
879.58	226.44
879.89	226.47
880.20	226.55
880.51	226.48
880.82	226.49
881.12	226.59
881.43	226.57
881.74	226.50
882.05	226.51
882.36	226.54
882.67	226.54
882.97	226.12
883.28	226.09
883.59	226.07
883.90	225.97
884.21	225.97
884.51	225.88
884.82	225.76
885.13	225.72
885.44	225.73
885.74	225.72
886.05	225.68
886.36	225.56
886.67	225.39
886.98	225.65
887.28	225.72
887.59	225.74
887.90	225.64
888.20	225.72
888.51	225.82
888.82	225.70
889.13	225.80
889.43	226.07
889.74	226.04
890.05	226.00
890.35	226.04
890.66	225.99
890.97	226.02
891.28	225.98
891.58	226.01
891.89	225.98
892.20	225.91
892.50	225.87
892.81	225.92
893.12	225.90
893.42	225.72
893.73	225.73
894.04	225.74
894.34	225.77
894.65	225.71
894.95	225.65
895.26	225.65
895.57	225.82
895.87	225.45
896.18	225.50
896.48	225.57
896.79	225.52
897.10	225.57
897.40	225.58
897.71	225.70
898.01	225.73
898.32	225.82
898.63	225.84
898.93	225.79
899.24	225.77
899.54	225.78
899.85	225.69
900.15	225.62
900.46	225.57
900.76	225.58
901.07	225.57
901.38	225.55
901.68	225.61
901.99	225.32
902.29	225.29
902.60	225.27
902.90	225.24
903.21	225.28
903.51	225.20
903.82	225.35
904.12	225.33
904.43	225.32
904.73	225.34
905.03	225.40
905.34	225.94
905.64	225.94
905.95	225.95
906.25	226.06
906.56	226.09
906.86	226.15
907.17	226.23
907.47	226.24
907.77	226.18
908.08	226.09
908.38	226.18
908.69	226.24
908.99	226.33
909.30	226.37
909.60	226.41
909.90	226.50
910.21	226.33
910.51	226.28
910.81	226.26
911.12	226.28
911.42	226.35
911.73	225.85
912.03	225.91
912.33	225.98
912.64	225.89
912.94	225.77
913.24	225.68
913.55	225.58
913.85	225.52
914.15	225.62
914.46	225.75
914.76	225.72
915.06	225.66
915.37	225.66
915.67	225.65
915.97	225.52
916.27	225.48
916.58	225.50
916.88	225.45
917.18	225.44
917.49	225.71
917.79	225.72
918.09	225.81
918.39	225.85
918.70	225.84
919.00	225.87
919.30	226.11
919.60	226.11
919.91	226.18
920.21	226.24
920.51	226.18
920.81	226.14
921.12	226.18
921.42	226.29
921.72	226.29
922.02	226.32
922.32	226.48
922.63	226.52
922.93	226.78
923.23	226.90
923.53	226.89
923.83	226.61
924.13	226.57
924.44	226.62
924.74	226.82
925.04	226.93
925.34	226.91
925.64	226.77
925.94	226.73
926.24	226.94
926.55	226.97
926.85	227.05
927.15	227.07
927.45	227.14
927.75	227.10
928.05	227.08
928.35	227.08
928.65	227.13
928.95	227.14
929.26	226.92
929.56	227.02
929.86	227.06
930.16	227.00
930.46	226.95
930.76	226.92
931.06	226.63
931.36	226.51
931.66	226.58
931.96	226.61
932.26	226.65
932.56	226.40
932.86	226.36
933.16	226.31
933.46	226.17
933.76	226.09
934.06	226.23
934.36	226.32
934.66	226.22
934.96	226.11
935.26	226.12
935.56	226.21
935.86	226.05
936.16	225.99
936.46	225.95
936.76	225.88
937.06	225.80
937.36	225.81
937.66	225.78
937.96	225.73
938.26	225.59
938.56	225.52
938.86	225.63
939.16	225.75
939.46	225.78
939.76	225.83
940.06	225.72
940.35	225.56
940.65	225.38
940.95	225.45
941.25	225.34
941.55	225.25
941.85	225.13
942.15	225.12
942.45	225.24
942.75	225.20
943.04	225.27
943.34	225.39
943.64	225.38
943.94	225.39
944.24	225.40
944.54	225.45
944.84	225.47
945.13	225.35
945.43	225.25
945.73	225.17
946.03	225.15
946.33	225.16
946.62	225.10
946.92	225.10
947.22	225.07
947.52	225.08
947.82	225.07
948.11	225.05
948.41	224.99
948.71	224.88
949.01	224.90
949.31	224.86
949.60	224.82
949.90	224.89
950.20	224.83
950.50	224.85
950.79	224.87
951.09	224.92
951.39	224.93
951.69	224.92
951.98	225.04
952.28	225.00
952.58	224.97
952.87	225.01
953.17	225.09
953.47	225.06
953.76	225.09
954.06	225.03
954.36	225.00
954.66	225.06
954.95	225.16
955.25	225.20
955.55	225.27
955.84	225.16
956.14	225.22
956.44	225.30
956.73	225.20
957.03	225.22
957.32	225.30
957.62	225.29
957.92	225.40
958.21	225.34
958.51	226.00
958.81	226.09
959.10	226.06
959.40	226.19
959.69	226.25
959.99	226.37
960.29	226.48
960.58	226.51
960.88	226.73
961.17	226.72
961.47	226.78
961.76	226.66
962.06	226.74
962.36	226.69
962.65	226.75
962.95	226.80
963.24	226.78
963.54	226.74
963.83	226.77
964.13	226.74
964.42	226.64
964.72	226.24
965.01	226.27
965.31	226.36
965.60	226.20
965.90	226.56
966.19	226.42
966.49	226.48
966.78	226.47
967.08	226.42
967.37	226.44
967.67	226.37
967.96	226.55
968.26	226.50
968.55	226.51
968.85	226.44
969.14	226.44
969.43	226.43
969.73	226.38
970.02	226.38
970.32	226.32
970.61	226.30
970.91	226.12
971.20	226.03
971.49	225.93
971.79	226.00
972.08	225.57
972.38	225.62
972.67	225.55
972.96	225.55
973.26	225.44
973.55	225.55
973.85	225.52
974.14	225.46
974.43	225.57
974.73	225.52
975.02	225.49
975.31	225.51
975.61	225.52
975.90	225.42
976.19	225.34
976.49	225.37
976.78	225.42
977.07	225.46
977.37	225.51
977.66	225.61
977.95	225.57
978.24	225.68
978.54	225.82
978.83	225.80
979.12	225.80
979.42	225.88
979.71	225.79
980.00	225.75
980.29	225.76
980.59	225.68
980.88	225.75
981.17	225.66
981.46	225.67
981.76	225.67
982.05	225.92
982.34	225.98
982.63	226.03
982.93	226.07
983.22	226.18
983.51	226.08
983.80	226.11
984.09	226.14
984.39	226.10
984.68	225.96
984.97	225.99
985.26	226.01
985.55	225.89
985.85	225.83
986.14	226.00
986.43	225.96
986.72	225.92
987.01	225.80
987.30	225.87
987.59	225.83
987.89	225.83
988.18	225.63
988.47	225.58
988.76	225.50
989.05	225.49
989.34	225.40
989.63	225.58
989.92	225.53
990.22	225.52
990.51	225.55
990.80	225.57
991.09	225.57
991.38	225.57
991.67	225.50
991.96	225.47
992.25	225.42
992.54	225.42
992.83	225.42
993.12	225.39
993.41	225.53
993.70	225.69
993.99	225.74
994.28	225.89
994.58	226.05
994.87	226.00
995.16	225.98
995.45	225.94
995.74	225.77
996.03	225.78
996.32	225.77
996.61	225.81
996.90	225.78
997.19	225.80
997.48	225.78
997.77	225.82
998.06	225.85
998.34	225.78
998.63	225.77
998.92	225.76
999.21	225.90
999.50	225.81
999.79	225.61
1000.08	225.63
1000.37	225.55
1000.66	225.36
1000.95	225.51
1001.24	225.50
1001.53	225.62
1001.82	225.67
1002.11	225.65
1002.40	225.71
1002.68	225.82
1002.97	226.16
1003.26	226.09
1003.55	226.08
1003.84	226.15
1004.13	226.28
1004.42	226.26
1004.71	226.28
1004.99	226.25
1005.28	226.37
1005.57	226.39
1005.86	226.37
1006.15	226.33
1006.44	226.30
1006.72	226.42
1007.01	226.30
1007.30	226.32
1007.59	226.21
1007.88	226.22
1008.17	226.26
1008.45	226.15
1008.74	226.05
1009.03	225.80
1009.32	225.75
1009.60	225.75
1009.89	225.64
1010.18	225.45
1010.47	225.48
1010.76	225.45
1011.04	225.51
1011.33	225.46
1011.62	225.50
1011.91	225.50
1012.19	225.54
1012.48	225.55
1012.77	225.51
1013.05	225.80
1013.34	225.81
1013.63	225.75
1013.92	225.76
1014.20	225.70
1014.49	225.72
1014.78	225.60
1015.06	225.46
1015.35	225.50
1015.64	225.56
1015.92	225.64
1016.21	225.65
1016.50	225.65
1016.78	225.73
1017.07	225.70
1017.36	225.67
1017.64	225.55
1017.93	225.63
1018.22	225.58
1018.50	225.57
1018.79	225.55
1019.08	225.27
1019.36	225.26
1019.65	225.25
1019.93	225.35
1020.22	225.43
1020.51	225.65
1020.79	225.63
1021.08	225.10
1021.36	225.35
1021.65	225.20
1021.94	225.15
1022.22	225.50
1022.51	224.00
1022.79	227.50
1023.08	226.55
1023.36	230.20
1023.65	223.75
>>>>>End Processed Spectral Data<<<<<
