SpectraSuite Data File
++++++++++++++++++++++++++++++++++++
Date: Wed Sep 04 18:02:23 EDT 2013
User: lab3
Dark Spectrum Present: Yes
Reference Spectrum Present: No
Number of Sampled Component Spectra: 1
Spectrometers: USB2E7196
Integration Time (usec): 170000 (USB2E7196)
Spectra Averaged: 20 (USB2E7196)
Boxcar Smoothing: 10 (USB2E7196)
Correct for Electrical Dark: No (USB2E7196)
Strobe/Lamp Enabled: No (USB2E7196)
Correct for Detector Non-linearity: No (USB2E7196)
Correct for Stray Light: No (USB2E7196)
Number of Pixels in Processed Spectrum: 2048
>>>>>Begin Processed Spectral Data<<<<<
339.09	0.00
339.48	214.05
339.86	213.95
340.24	215.50
340.63	218.45
341.01	225.75
341.39	220.80
341.78	221.65
342.16	224.05
342.54	223.00
342.93	212.45
343.31	223.14
343.69	223.69
344.07	224.13
344.46	224.60
344.84	224.96
345.22	224.98
345.60	225.22
345.99	225.45
346.37	225.53
346.75	225.69
347.13	225.77
347.52	225.95
347.90	226.14
348.28	226.21
348.66	226.42
349.05	226.31
349.43	226.34
349.81	226.45
350.19	226.50
350.57	226.47
350.96	226.60
351.34	226.71
351.72	226.79
352.10	226.96
352.48	227.01
352.87	227.02
353.25	227.09
353.63	227.12
354.01	227.15
354.39	227.23
354.77	227.31
355.15	227.46
355.54	227.39
355.92	227.31
356.30	227.36
356.68	227.70
357.06	227.72
357.44	227.69
357.82	227.72
358.20	228.20
358.58	228.33
358.97	228.37
359.35	228.53
359.73	228.70
360.11	228.72
360.49	228.81
360.87	228.90
361.25	228.94
361.63	229.17
362.01	229.31
362.39	229.27
362.77	229.30
363.15	229.30
363.53	229.38
363.91	229.46
364.29	229.43
364.67	228.99
365.05	229.04
365.43	229.18
365.81	229.24
366.19	229.11
366.57	229.28
366.95	229.27
367.33	229.14
367.71	229.09
368.09	229.22
368.47	229.21
368.85	229.18
369.23	229.29
369.61	229.12
369.99	229.21
370.37	229.30
370.75	229.52
371.13	229.44
371.51	229.35
371.89	229.39
372.27	229.43
372.65	229.49
373.03	229.42
373.41	229.34
373.78	229.28
374.16	228.96
374.54	228.82
374.92	228.76
375.30	228.78
375.68	228.65
376.06	228.61
376.44	228.54
376.82	228.56
377.19	228.52
377.57	228.46
377.95	228.21
378.33	228.16
378.71	227.83
379.09	227.82
379.47	227.86
379.84	227.81
380.22	227.71
380.60	227.53
380.98	227.51
381.36	227.35
381.73	227.17
382.11	227.20
382.49	227.11
382.87	227.01
383.25	226.93
383.62	227.46
384.00	227.25
384.38	227.25
384.76	227.31
385.13	227.40
385.51	227.35
385.89	227.33
386.27	227.29
386.64	227.30
387.02	227.30
387.40	227.18
387.78	227.11
388.15	227.07
388.53	227.00
388.91	226.90
389.29	226.90
389.66	227.03
390.04	226.99
390.42	227.06
390.79	226.98
391.17	226.98
391.55	226.37
391.92	226.41
392.30	226.37
392.68	226.19
393.05	226.10
393.43	226.13
393.81	226.11
394.18	226.01
394.56	225.99
394.94	226.05
395.31	226.06
395.69	226.24
396.06	226.36
396.44	226.47
396.82	226.50
397.19	226.79
397.57	226.66
397.95	226.78
398.32	226.66
398.70	226.83
399.07	227.01
399.45	227.00
399.82	227.11
400.20	227.20
400.58	227.32
400.95	227.33
401.33	227.46
401.70	227.81
402.08	228.02
402.45	228.25
402.83	228.44
403.20	228.58
403.58	228.60
403.95	228.90
404.33	229.17
404.71	229.47
405.08	229.91
405.46	230.27
405.83	230.53
406.21	230.84
406.58	231.12
406.96	231.35
407.33	231.76
407.70	232.14
408.08	232.86
408.45	233.36
408.83	233.82
409.20	234.26
409.58	234.56
409.95	235.11
410.33	235.60
410.70	235.99
411.08	236.69
411.45	237.33
411.82	237.83
412.20	238.63
412.57	239.60
412.95	240.03
413.32	240.90
413.69	241.75
414.07	242.71
414.44	243.78
414.82	244.81
415.19	246.07
415.56	247.30
415.94	248.41
416.31	249.81
416.68	251.25
417.06	252.90
417.43	254.54
417.81	256.39
418.18	258.21
418.55	260.25
418.93	262.30
419.30	264.43
419.67	266.73
420.04	268.91
420.42	271.17
420.79	274.15
421.16	276.92
421.54	279.99
421.91	283.02
422.28	286.11
422.66	289.49
423.03	292.96
423.40	296.31
423.77	299.75
424.15	303.37
424.52	307.19
424.89	311.37
425.26	315.38
425.64	319.08
426.01	323.35
426.38	327.65
426.75	332.24
427.13	336.92
427.50	341.73
427.87	346.79
428.24	351.80
428.61	356.34
428.99	361.75
429.36	367.19
429.73	372.82
430.10	378.30
430.47	384.03
430.85	389.67
431.22	395.97
431.59	402.92
431.96	409.19
432.33	416.30
432.70	423.07
433.08	431.01
433.45	438.32
433.82	445.69
434.19	453.99
434.56	462.14
434.93	469.85
435.30	477.59
435.68	486.15
436.05	494.56
436.42	502.94
436.79	510.48
437.16	518.98
437.53	527.65
437.90	536.51
438.27	545.14
438.64	554.10
439.01	562.41
439.38	569.62
439.75	576.83
440.13	584.81
440.50	592.24
440.87	598.31
441.24	604.91
441.61	611.94
441.98	617.04
442.35	622.73
442.72	628.60
443.09	634.28
443.46	637.75
443.83	640.09
444.20	642.03
444.57	644.89
444.94	645.87
445.31	647.01
445.68	648.12
446.05	648.36
446.42	647.03
446.79	645.43
447.16	643.60
447.53	642.26
447.90	638.47
448.27	634.80
448.64	629.75
449.01	625.97
449.37	619.70
449.74	613.64
450.11	606.85
450.48	599.16
450.85	591.26
451.22	584.31
451.59	577.83
451.96	571.61
452.33	563.40
452.70	556.02
453.07	547.34
453.43	538.32
453.80	529.70
454.17	521.67
454.54	514.02
454.91	505.92
455.28	497.82
455.65	490.23
456.02	483.30
456.38	477.02
456.75	469.19
457.12	462.69
457.49	456.34
457.86	449.81
458.23	444.67
458.59	438.99
458.96	433.24
459.33	427.85
459.70	422.67
460.07	418.55
460.43	413.83
460.80	409.45
461.17	405.68
461.54	401.63
461.91	397.71
462.27	393.82
462.64	390.52
463.01	387.11
463.38	383.89
463.74	379.91
464.11	376.92
464.48	374.39
464.85	371.49
465.21	369.35
465.58	367.01
465.95	364.10
466.32	361.85
466.68	359.63
467.05	357.46
467.42	355.28
467.78	352.97
468.15	350.89
468.52	349.30
468.88	347.14
469.25	345.26
469.62	343.91
469.98	342.20
470.35	340.69
470.72	339.21
471.08	337.53
471.45	336.24
471.82	334.98
472.18	333.54
472.55	332.54
472.92	331.16
473.28	330.16
473.65	329.14
474.02	328.00
474.38	327.13
474.75	326.35
475.11	325.44
475.48	324.90
475.85	324.30
476.21	323.62
476.58	323.17
476.94	322.85
477.31	322.31
477.67	321.97
478.04	321.70
478.41	321.50
478.77	321.78
479.14	321.49
479.50	321.29
479.87	321.24
480.23	321.27
480.60	321.16
480.96	321.09
481.33	321.46
481.69	321.75
482.06	321.92
482.42	322.24
482.79	322.55
483.15	322.90
483.52	323.52
483.88	324.03
484.25	324.53
484.61	325.15
484.98	325.80
485.34	326.72
485.71	327.69
486.07	328.61
486.44	329.18
486.80	330.41
487.17	331.61
487.53	333.01
487.90	334.41
488.26	336.24
488.62	338.07
488.99	339.59
489.35	341.33
489.72	343.23
490.08	345.18
490.44	347.22
490.81	349.42
491.17	351.48
491.54	354.03
491.90	356.63
492.26	359.26
492.63	362.06
492.99	364.89
493.36	367.82
493.72	371.09
494.08	374.46
494.45	378.13
494.81	382.02
495.17	385.93
495.54	390.18
495.90	394.34
496.26	398.71
496.63	403.33
496.99	408.23
497.35	413.30
497.72	418.61
498.08	424.13
498.44	429.85
498.80	435.97
499.17	442.03
499.53	448.30
499.89	455.01
500.26	461.88
500.62	468.89
500.98	476.42
501.34	483.89
501.71	491.61
502.07	499.32
502.43	507.39
502.79	515.77
503.16	524.32
503.52	533.39
503.88	542.65
504.24	552.26
504.60	562.07
504.97	572.30
505.33	582.85
505.69	594.00
506.05	605.06
506.41	616.20
506.78	627.92
507.14	639.90
507.50	652.17
507.86	664.75
508.22	677.73
508.59	690.75
508.95	704.50
509.31	718.66
509.67	733.17
510.03	747.43
510.39	762.18
510.75	777.30
511.12	792.45
511.48	808.04
511.84	824.12
512.20	840.07
512.56	856.52
512.92	873.28
513.28	890.00
513.64	907.33
514.00	924.93
514.37	942.66
514.73	960.90
515.09	979.12
515.45	997.55
515.81	1016.31
516.17	1035.20
516.53	1053.97
516.89	1072.68
517.25	1092.17
517.61	1112.48
517.97	1132.93
518.33	1152.88
518.69	1173.46
519.05	1194.17
519.41	1214.70
519.77	1236.01
520.13	1256.77
520.49	1277.50
520.85	1300.25
521.21	1321.50
521.57	1343.05
521.93	1363.82
522.29	1385.06
522.65	1405.65
523.01	1426.77
523.37	1447.46
523.73	1468.52
524.09	1489.32
524.45	1510.25
524.81	1531.14
525.17	1551.85
525.53	1572.44
525.89	1593.48
526.25	1614.38
526.61	1634.84
526.97	1656.17
527.33	1677.74
527.68	1699.60
528.04	1720.96
528.40	1740.50
528.76	1761.45
529.12	1781.86
529.48	1802.86
529.84	1822.98
530.20	1844.61
530.56	1865.36
530.91	1886.55
531.27	1907.03
531.63	1927.67
531.99	1948.30
532.35	1968.38
532.71	1989.06
533.07	2010.02
533.42	2030.19
533.78	2050.06
534.14	2069.90
534.50	2088.51
534.86	2107.56
535.21	2125.26
535.57	2144.09
535.93	2161.85
536.29	2179.70
536.65	2197.94
537.00	2215.56
537.36	2233.45
537.72	2249.92
538.08	2267.31
538.44	2283.75
538.79	2300.43
539.15	2317.05
539.51	2333.15
539.87	2348.54
540.22	2362.66
540.58	2376.86
540.94	2390.18
541.29	2403.01
541.65	2415.95
542.01	2429.07
542.37	2439.60
542.72	2450.90
543.08	2461.34
543.44	2473.06
543.79	2483.21
544.15	2493.12
544.51	2503.53
544.87	2513.15
545.22	2521.93
545.58	2529.58
545.94	2536.98
546.29	2543.55
546.65	2549.86
547.01	2555.61
547.36	2561.57
547.72	2567.00
548.07	2570.86
548.43	2576.22
548.79	2580.86
549.14	2584.86
549.50	2588.78
549.86	2592.98
550.21	2596.63
550.57	2600.26
550.92	2601.79
551.28	2603.35
551.64	2605.94
551.99	2607.58
552.35	2609.45
552.70	2611.79
553.06	2613.41
553.41	2614.74
553.77	2616.61
554.13	2618.23
554.48	2619.91
554.84	2621.10
555.19	2622.57
555.55	2624.41
555.90	2623.85
556.26	2623.32
556.61	2622.00
556.97	2620.03
557.32	2619.48
557.68	2618.36
558.03	2616.90
558.39	2615.59
558.74	2614.84
559.10	2611.39
559.45	2608.28
559.81	2603.70
560.16	2598.96
560.52	2594.40
560.87	2590.74
561.23	2585.32
561.58	2579.68
561.94	2573.07
562.29	2565.60
562.64	2558.43
563.00	2550.14
563.35	2543.66
563.71	2537.07
564.06	2530.74
564.42	2524.16
564.77	2517.35
565.12	2510.00
565.48	2502.31
565.83	2494.51
566.19	2486.54
566.54	2478.97
566.89	2470.82
567.25	2463.34
567.60	2455.84
567.96	2448.51
568.31	2439.87
568.66	2431.53
569.02	2422.30
569.37	2414.01
569.72	2406.74
570.08	2397.48
570.43	2388.24
570.78	2379.12
571.14	2369.57
571.49	2359.67
571.84	2350.09
572.20	2339.05
572.55	2328.79
572.90	2317.70
573.26	2307.55
573.61	2296.35
573.96	2285.15
574.31	2273.34
574.67	2261.38
575.02	2248.57
575.37	2235.61
575.72	2222.56
576.08	2210.06
576.43	2197.66
576.78	2184.15
577.13	2170.12
577.49	2157.18
577.84	2145.24
578.19	2132.99
578.54	2120.37
578.90	2108.15
579.25	2095.58
579.60	2083.18
579.95	2070.07
580.30	2057.06
580.66	2043.54
581.01	2029.95
581.36	2015.76
581.71	2002.97
582.06	1989.75
582.42	1977.17
582.77	1964.58
583.12	1952.29
583.47	1939.97
583.82	1927.79
584.17	1916.05
584.53	1904.30
584.88	1891.40
585.23	1878.19
585.58	1863.77
585.93	1850.37
586.28	1836.94
586.63	1822.85
586.98	1808.32
587.34	1795.20
587.69	1781.88
588.04	1769.04
588.39	1756.97
588.74	1744.68
589.09	1732.34
589.44	1719.61
589.79	1707.48
590.14	1695.19
590.49	1682.92
590.84	1670.57
591.19	1658.68
591.54	1646.29
591.89	1633.81
592.25	1623.55
592.60	1611.79
592.95	1600.73
593.30	1588.87
593.65	1576.85
594.00	1564.87
594.35	1555.32
594.70	1543.33
595.05	1531.94
595.40	1519.73
595.75	1507.78
596.10	1496.76
596.45	1485.11
596.80	1474.34
597.15	1462.70
597.50	1450.87
597.85	1439.54
598.19	1428.01
598.54	1415.91
598.89	1404.47
599.24	1394.02
599.59	1382.14
599.94	1371.46
600.29	1360.70
600.64	1350.14
600.99	1339.22
601.34	1329.67
601.69	1318.23
602.04	1308.24
602.39	1298.22
602.74	1289.21
603.08	1279.70
603.43	1270.27
603.78	1260.51
604.13	1250.75
604.48	1241.14
604.83	1231.61
605.18	1221.84
605.53	1212.27
605.87	1203.19
606.22	1194.63
606.57	1185.07
606.92	1175.71
607.27	1166.56
607.62	1157.68
607.96	1148.82
608.31	1141.02
608.66	1132.36
609.01	1123.83
609.36	1115.38
609.70	1106.88
610.05	1097.98
610.40	1089.12
610.75	1080.26
611.10	1071.74
611.44	1062.84
611.79	1054.43
612.14	1046.63
612.49	1038.60
612.83	1031.00
613.18	1023.31
613.53	1015.62
613.88	1007.59
614.22	999.95
614.57	992.10
614.92	984.34
615.27	976.95
615.61	969.13
615.96	961.55
616.31	954.04
616.65	946.96
617.00	939.61
617.35	932.22
617.70	925.31
618.04	918.18
618.39	911.28
618.74	905.01
619.08	897.92
619.43	890.57
619.78	883.46
620.12	876.25
620.47	869.08
620.82	861.58
621.16	854.75
621.51	848.32
621.85	841.91
622.20	835.31
622.55	828.69
622.89	822.11
623.24	815.65
623.59	808.92
623.93	802.49
624.28	796.26
624.62	790.49
624.97	784.44
625.32	778.70
625.66	772.58
626.01	766.51
626.35	761.10
626.70	755.44
627.04	750.06
627.39	744.41
627.73	738.97
628.08	733.91
628.43	728.43
628.77	722.80
629.12	717.38
629.46	712.52
629.81	707.66
630.15	702.81
630.50	698.08
630.84	693.42
631.19	688.52
631.53	683.99
631.88	678.74
632.22	673.78
632.57	669.23
632.91	664.62
633.26	660.10
633.60	655.40
633.95	650.84
634.29	646.05
634.64	641.61
634.98	637.01
635.32	632.52
635.67	628.62
636.01	624.38
636.36	620.15
636.70	615.93
637.05	611.61
637.39	607.44
637.73	603.03
638.08	598.97
638.42	594.70
638.77	590.33
639.11	586.12
639.45	581.85
639.80	577.30
640.14	573.25
640.49	569.08
640.83	565.08
641.17	561.33
641.52	557.59
641.86	553.95
642.20	550.60
642.55	546.81
642.89	543.00
643.23	539.62
643.58	536.35
643.92	532.60
644.26	529.32
644.61	526.00
644.95	522.57
645.29	519.04
645.64	515.90
645.98	512.76
646.32	509.80
646.66	506.73
647.01	503.78
647.35	500.93
647.69	498.10
648.04	495.45
648.38	492.63
648.72	489.77
649.06	486.71
649.41	483.54
649.75	480.67
650.09	477.82
650.43	474.74
650.78	471.67
651.12	468.94
651.46	466.07
651.80	463.39
652.14	460.73
652.49	458.30
652.83	455.69
653.17	452.95
653.51	450.23
653.85	447.79
654.20	445.27
654.54	442.53
654.88	440.00
655.22	437.60
655.56	435.14
655.90	432.74
656.25	430.49
656.59	428.33
656.93	426.06
657.27	424.03
657.61	421.58
657.95	419.35
658.29	417.08
658.64	414.96
658.98	412.63
659.32	410.39
659.66	408.07
660.00	405.85
660.34	403.88
660.68	401.83
661.02	399.72
661.36	397.69
661.70	395.72
662.05	393.72
662.39	391.68
662.73	389.84
663.07	388.09
663.41	386.22
663.75	384.25
664.09	382.45
664.43	380.50
664.77	378.92
665.11	377.25
665.45	375.64
665.79	373.96
666.13	372.30
666.47	370.69
666.81	369.05
667.15	367.45
667.49	365.88
667.83	364.57
668.17	363.08
668.51	361.70
668.85	360.42
669.19	359.20
669.53	357.76
669.87	356.27
670.21	354.87
670.55	353.43
670.89	352.34
671.23	350.93
671.57	349.50
671.91	348.15
672.25	346.77
672.58	345.57
672.92	344.07
673.26	342.71
673.60	341.46
673.94	340.24
674.28	339.11
674.62	337.97
674.96	336.58
675.30	335.43
675.64	334.12
675.97	332.91
676.31	331.54
676.65	330.21
676.99	329.15
677.33	327.90
677.67	326.90
678.01	325.54
678.34	324.53
678.68	323.62
679.02	322.63
679.36	321.67
679.70	320.52
680.04	319.65
680.37	318.83
680.71	317.89
681.05	316.97
681.39	316.02
681.73	314.94
682.06	314.06
682.40	313.15
682.74	312.45
683.08	311.73
683.42	310.85
683.75	310.10
684.09	309.23
684.43	308.39
684.77	307.47
685.10	306.77
685.44	305.93
685.78	305.00
686.12	304.14
686.45	303.30
686.79	302.51
687.13	301.80
687.46	300.94
687.80	300.28
688.14	299.45
688.48	298.73
688.81	298.01
689.15	297.36
689.49	296.59
689.82	295.80
690.16	294.86
690.50	294.17
690.83	293.47
691.17	292.66
691.51	292.05
691.84	291.41
692.18	290.67
692.52	289.97
692.85	289.34
693.19	288.92
693.52	288.28
693.86	287.64
694.20	286.94
694.53	286.38
694.87	285.65
695.21	285.08
695.54	284.38
695.88	283.72
696.21	282.96
696.55	282.43
696.88	281.75
697.22	281.07
697.56	280.59
697.89	279.94
698.23	279.43
698.56	278.82
698.90	278.33
699.23	277.70
699.57	277.19
699.90	276.49
700.24	275.85
700.58	275.38
700.91	274.94
701.25	274.79
701.58	274.61
701.92	274.31
702.25	273.82
702.59	273.34
702.92	272.92
703.26	272.54
703.59	272.03
703.93	272.05
704.26	271.76
704.60	271.18
704.93	270.80
705.26	270.29
705.60	269.91
705.93	269.39
706.27	269.17
706.60	268.93
706.94	268.82
707.27	268.32
707.61	267.98
707.94	267.56
708.27	266.81
708.61	266.15
708.94	265.67
709.28	265.35
709.61	264.94
709.94	264.65
710.28	264.33
710.61	263.97
710.95	263.16
711.28	263.10
711.61	262.82
711.95	262.56
712.28	262.24
712.61	261.89
712.95	261.78
713.28	261.67
713.61	261.20
713.95	260.74
714.28	260.51
714.61	260.13
714.95	259.74
715.28	259.36
715.61	258.97
715.95	258.69
716.28	258.28
716.61	258.01
716.95	257.65
717.28	257.38
717.61	257.05
717.94	256.77
718.28	256.10
718.61	255.75
718.94	255.37
719.27	255.06
719.61	254.86
719.94	254.55
720.27	254.05
720.60	253.78
720.94	253.52
721.27	253.32
721.60	253.10
721.93	252.83
722.27	252.82
722.60	252.64
722.93	252.34
723.26	252.18
723.59	251.90
723.93	251.75
724.26	251.50
724.59	251.32
724.92	251.14
725.25	251.10
725.59	251.01
725.92	250.90
726.25	250.75
726.58	250.55
726.91	250.26
727.24	250.08
727.57	249.92
727.91	249.65
728.24	249.46
728.57	249.28
728.90	249.19
729.23	248.82
729.56	248.82
729.89	248.61
730.22	248.37
730.55	248.21
730.89	248.04
731.22	247.79
731.55	247.56
731.88	247.35
732.21	247.11
732.54	246.75
732.87	246.50
733.20	246.31
733.53	246.10
733.86	245.99
734.19	245.79
734.52	245.68
734.85	245.87
735.18	245.63
735.51	245.54
735.84	245.41
736.17	245.39
736.50	245.02
736.83	245.43
737.16	245.35
737.49	245.24
737.82	245.05
738.15	244.97
738.48	244.87
738.81	244.70
739.14	244.48
739.47	244.37
739.80	244.23
740.13	244.15
740.46	243.91
740.79	243.72
741.12	243.50
741.45	243.27
741.78	242.83
742.11	242.85
742.44	242.67
742.77	242.56
743.10	242.32
743.43	242.12
743.75	241.43
744.08	241.93
744.41	241.65
744.74	241.48
745.07	241.27
745.40	241.17
745.73	241.24
746.06	241.10
746.39	241.00
746.71	240.77
747.04	240.61
747.37	240.48
747.70	240.40
748.03	240.33
748.36	240.32
748.68	240.24
749.01	239.89
749.34	239.69
749.67	239.65
750.00	239.64
750.33	239.98
750.65	240.02
750.98	239.29
751.31	239.25
751.64	239.16
751.97	239.33
752.29	239.14
752.62	238.87
752.95	238.77
753.28	238.66
753.60	238.66
753.93	238.57
754.26	238.58
754.59	238.38
754.91	238.22
755.24	238.03
755.57	237.99
755.90	237.96
756.22	237.85
756.55	237.58
756.88	237.39
757.20	236.88
757.53	236.60
757.86	236.47
758.19	236.43
758.51	236.33
758.84	235.96
759.17	235.91
759.49	235.79
759.82	235.95
760.15	235.91
760.47	235.81
760.80	235.71
761.13	235.72
761.45	235.67
761.78	235.65
762.11	235.68
762.43	235.46
762.76	235.30
763.08	235.30
763.41	235.31
763.74	235.27
764.06	235.15
764.39	235.10
764.71	235.09
765.04	234.96
765.37	234.90
765.69	234.90
766.02	234.81
766.34	234.74
766.67	234.43
767.00	234.43
767.32	234.60
767.65	234.78
767.97	234.61
768.30	234.53
768.62	234.47
768.95	234.29
769.27	234.29
769.60	234.35
769.92	234.18
770.25	234.00
770.57	233.84
770.90	233.82
771.22	233.74
771.55	233.65
771.87	233.64
772.20	233.51
772.52	233.85
772.85	234.35
773.17	234.36
773.50	234.27
773.82	234.12
774.15	233.85
774.47	233.55
774.80	233.43
775.12	233.29
775.45	233.16
775.77	233.10
776.09	233.03
776.42	232.90
776.74	232.93
777.07	232.87
777.39	232.88
777.72	232.75
778.04	232.74
778.36	232.70
778.69	232.69
779.01	232.71
779.33	232.23
779.66	231.60
779.98	231.48
780.31	231.42
780.63	231.63
780.95	231.59
781.28	231.52
781.60	231.44
781.92	231.48
782.25	231.44
782.57	231.41
782.89	231.27
783.22	231.20
783.54	231.16
783.86	231.14
784.19	231.08
784.51	231.23
784.83	231.06
785.16	231.01
785.48	230.89
785.80	230.80
786.12	230.74
786.45	230.74
786.77	230.74
787.09	230.78
787.42	230.57
787.74	230.52
788.06	230.49
788.38	230.51
788.71	230.41
789.03	230.35
789.35	230.33
789.67	230.28
789.99	230.28
790.32	230.11
790.64	230.14
790.96	230.45
791.28	230.19
791.61	230.17
791.93	230.15
792.25	230.11
792.57	230.41
792.89	230.34
793.21	230.32
793.54	230.21
793.86	230.10
794.18	230.05
794.50	230.02
794.82	229.93
795.14	229.92
795.47	229.98
795.79	230.02
796.11	229.95
796.43	229.91
796.75	229.87
797.07	229.96
797.39	229.97
797.71	229.67
798.04	229.73
798.36	229.78
798.68	229.66
799.00	229.72
799.32	229.47
799.64	229.50
799.96	229.50
800.28	229.56
800.60	229.55
800.92	229.61
801.24	229.50
801.56	229.59
801.89	229.56
802.21	229.60
802.53	229.51
802.85	229.58
803.17	229.85
803.49	229.79
803.81	229.69
804.13	229.65
804.45	229.55
804.77	229.64
805.09	229.60
805.41	229.65
805.73	229.49
806.05	229.40
806.37	229.45
806.69	229.38
807.01	229.36
807.33	229.39
807.65	229.26
807.97	229.52
808.28	229.46
808.60	229.39
808.92	229.29
809.24	229.64
809.56	229.55
809.88	229.34
810.20	229.35
810.52	229.50
810.84	229.45
811.16	229.38
811.48	229.34
811.80	229.57
812.12	229.50
812.43	229.62
812.75	229.62
813.07	229.56
813.39	229.62
813.71	229.53
814.03	229.45
814.35	229.40
814.67	229.18
814.98	229.10
815.30	229.11
815.62	229.03
815.94	228.67
816.26	228.77
816.58	228.71
816.89	228.76
817.21	228.66
817.53	228.66
817.85	228.67
818.17	228.67
818.48	228.45
818.80	228.47
819.12	228.38
819.44	228.34
819.76	228.28
820.07	228.19
820.39	228.16
820.71	228.23
821.03	228.22
821.34	228.16
821.66	228.25
821.98	228.33
822.30	228.29
822.61	228.53
822.93	228.33
823.25	228.33
823.57	228.20
823.88	228.20
824.20	228.12
824.52	228.12
824.83	228.04
825.15	227.90
825.47	227.85
825.79	227.84
826.10	227.71
826.42	227.55
826.74	227.57
827.05	227.57
827.37	227.49
827.69	227.44
828.00	227.41
828.32	227.33
828.64	227.26
828.95	227.46
829.27	227.37
829.58	227.34
829.90	227.34
830.22	227.44
830.53	227.35
830.85	227.32
831.17	227.20
831.48	227.16
831.80	227.20
832.11	227.18
832.43	227.10
832.75	227.15
833.06	227.48
833.38	227.36
833.69	227.35
834.01	227.36
834.32	227.38
834.64	227.33
834.96	227.36
835.27	227.35
835.59	227.19
835.90	227.04
836.22	227.10
836.53	227.11
836.85	227.07
837.16	227.53
837.48	227.54
837.79	227.75
838.11	227.86
838.42	227.88
838.74	227.97
839.05	227.97
839.37	228.01
839.68	227.75
840.00	227.81
840.31	227.91
840.63	227.86
840.94	227.80
841.26	227.84
841.57	227.87
841.88	227.95
842.20	227.88
842.51	227.88
842.83	227.85
843.14	228.20
843.46	228.20
843.77	227.98
844.08	228.00
844.40	227.90
844.71	227.82
845.03	227.77
845.34	227.77
845.65	227.80
845.97	227.88
846.28	227.98
846.60	228.01
846.91	227.90
847.22	227.97
847.54	228.11
847.85	228.16
848.16	228.10
848.48	228.06
848.79	228.35
849.10	228.43
849.42	228.56
849.73	228.18
850.04	228.21
850.36	228.04
850.67	228.17
850.98	228.13
851.30	228.16
851.61	228.19
851.92	228.21
852.23	228.39
852.55	228.33
852.86	228.37
853.17	228.43
853.49	228.53
853.80	228.65
854.11	228.68
854.42	228.80
854.74	228.79
855.05	228.77
855.36	228.50
855.67	228.51
855.99	228.45
856.30	228.99
856.61	228.99
856.92	228.99
857.23	228.95
857.55	228.94
857.86	228.91
858.17	228.95
858.48	228.83
858.79	228.70
859.11	228.71
859.42	228.63
859.73	228.53
860.04	228.54
860.35	228.36
860.66	228.19
860.98	228.09
861.29	228.10
861.60	228.03
861.91	228.11
862.22	228.04
862.53	227.93
862.84	227.33
863.16	227.41
863.47	227.28
863.78	227.17
864.09	227.12
864.40	227.13
864.71	227.08
865.02	227.13
865.33	227.00
865.64	226.89
865.95	226.82
866.27	227.08
866.58	226.95
866.89	227.00
867.20	227.03
867.51	226.90
867.82	226.83
868.13	227.00
868.44	226.90
868.75	226.89
869.06	226.90
869.37	227.03
869.68	226.83
869.99	226.93
870.30	227.00
870.61	227.13
870.92	227.07
871.23	227.08
871.54	227.12
871.85	227.24
872.16	227.30
872.47	227.35
872.78	227.12
873.09	227.22
873.40	227.17
873.71	227.19
874.02	227.25
874.33	227.31
874.64	227.20
874.95	227.35
875.26	227.33
875.56	227.33
875.87	227.21
876.18	227.22
876.49	227.65
876.80	227.58
877.11	227.42
877.42	227.44
877.73	227.49
878.04	227.49
878.35	227.48
878.66	227.52
878.96	227.49
879.27	227.41
879.58	227.34
879.89	227.30
880.20	227.40
880.51	227.38
880.82	227.39
881.12	227.41
881.43	227.22
881.74	227.12
882.05	227.10
882.36	227.18
882.67	227.25
882.97	226.75
883.28	226.78
883.59	226.79
883.90	226.86
884.21	226.91
884.51	226.85
884.82	226.90
885.13	226.90
885.44	226.97
885.74	227.00
886.05	227.05
886.36	227.11
886.67	226.99
886.98	227.23
887.28	227.28
887.59	227.27
887.90	227.35
888.20	227.43
888.51	227.53
888.82	227.45
889.13	227.46
889.43	227.86
889.74	227.81
890.05	227.87
890.35	227.80
890.66	227.70
890.97	227.63
891.28	227.53
891.58	227.52
891.89	227.46
892.20	227.41
892.50	227.35
892.81	227.27
893.12	227.26
893.42	227.08
893.73	227.01
894.04	227.01
894.34	227.03
894.65	226.97
894.95	226.86
895.26	226.90
895.57	227.17
895.87	226.75
896.18	226.85
896.48	226.88
896.79	226.90
897.10	227.00
897.40	227.05
897.71	227.10
898.01	227.10
898.32	227.11
898.63	227.18
898.93	227.22
899.24	227.25
899.54	227.24
899.85	227.25
900.15	227.24
900.46	227.23
900.76	227.25
901.07	227.23
901.38	227.23
901.68	227.25
901.99	226.96
902.29	226.97
902.60	226.94
902.90	226.90
903.21	226.84
903.51	226.77
903.82	226.83
904.12	226.86
904.43	226.82
904.73	226.85
905.03	226.83
905.34	227.25
905.64	227.25
905.95	227.22
906.25	227.19
906.56	227.14
906.86	227.13
907.17	227.05
907.47	227.14
907.77	227.11
908.08	227.01
908.38	227.02
908.69	227.04
908.99	227.08
909.30	227.02
909.60	227.05
909.90	227.07
910.21	226.93
910.51	226.81
910.81	226.83
911.12	226.74
911.42	226.72
911.73	226.19
912.03	226.22
912.33	226.30
912.64	226.29
912.94	226.29
913.24	226.19
913.55	226.22
913.85	226.11
914.15	226.20
914.46	226.25
914.76	226.23
915.06	226.20
915.37	226.14
915.67	226.18
915.97	226.19
916.27	226.10
916.58	226.20
916.88	226.28
917.18	226.23
917.49	226.59
917.79	226.58
918.09	226.65
918.39	226.71
918.70	226.75
919.00	226.81
919.30	227.05
919.60	227.01
919.91	226.92
920.21	227.03
920.51	226.95
920.81	226.88
921.12	226.94
921.42	226.97
921.72	227.01
922.02	226.99
922.32	227.06
922.63	227.13
922.93	227.37
923.23	227.31
923.53	227.33
923.83	227.04
924.13	227.10
924.44	227.19
924.74	227.27
925.04	227.38
925.34	227.35
925.64	227.13
925.94	227.19
926.24	227.42
926.55	227.31
926.85	227.31
927.15	227.39
927.45	227.43
927.75	227.42
928.05	227.40
928.35	227.41
928.65	227.44
928.95	227.50
929.26	227.23
929.56	227.30
929.86	227.37
930.16	227.31
930.46	227.28
930.76	227.28
931.06	227.09
931.36	226.97
931.66	227.04
931.96	227.02
932.26	227.05
932.56	226.95
932.86	227.08
933.16	227.17
933.46	227.09
933.76	226.96
934.06	227.06
934.36	227.21
934.66	227.24
934.96	227.22
935.26	227.20
935.56	227.33
935.86	227.26
936.16	227.21
936.46	227.17
936.76	227.15
937.06	226.98
937.36	227.03
937.66	227.00
937.96	226.89
938.26	226.88
938.56	226.83
938.86	226.79
939.16	226.81
939.46	226.89
939.76	226.93
940.06	226.99
940.35	226.88
940.65	226.64
940.95	226.64
941.25	226.47
941.55	226.37
941.85	226.35
942.15	226.49
942.45	226.55
942.75	226.64
943.04	226.72
943.34	226.89
943.64	226.80
943.94	226.77
944.24	226.82
944.54	226.82
944.84	226.82
945.13	226.76
945.43	226.72
945.73	226.59
946.03	226.63
946.33	226.50
946.62	226.50
946.92	226.52
947.22	226.47
947.52	226.52
947.82	226.60
948.11	226.54
948.41	226.37
948.71	226.23
949.01	226.27
949.31	226.15
949.60	226.08
949.90	226.15
950.20	226.09
950.50	226.08
950.79	226.04
951.09	226.11
951.39	226.09
951.69	226.05
951.98	226.17
952.28	226.14
952.58	226.08
952.87	226.10
953.17	226.13
953.47	226.10
953.76	226.12
954.06	226.06
954.36	225.94
954.66	225.98
954.95	226.11
955.25	226.09
955.55	226.19
955.84	226.09
956.14	226.19
956.44	226.21
956.73	226.12
957.03	226.21
957.32	226.22
957.62	226.27
957.92	226.30
958.21	226.23
958.51	226.75
958.81	226.95
959.10	226.94
959.40	227.10
959.69	227.18
959.99	227.17
960.29	227.13
960.58	227.12
960.88	227.30
961.17	227.28
961.47	227.32
961.76	227.24
962.06	227.37
962.36	227.35
962.65	227.41
962.95	227.48
963.24	227.38
963.54	227.40
963.83	227.47
964.13	227.50
964.42	227.43
964.72	227.06
965.01	227.00
965.31	227.03
965.60	226.94
965.90	227.22
966.19	227.23
966.49	227.32
966.78	227.45
967.08	227.39
967.37	227.36
967.67	227.26
967.96	227.37
968.26	227.34
968.55	227.30
968.85	227.33
969.14	227.38
969.43	227.40
969.73	227.35
970.02	227.34
970.32	227.32
970.61	227.31
970.91	227.19
971.20	227.21
971.49	227.16
971.79	227.21
972.08	226.89
972.38	226.88
972.67	226.85
972.96	226.79
973.26	226.68
973.55	226.79
973.85	226.78
974.14	226.75
974.43	226.83
974.73	226.80
975.02	226.72
975.31	226.72
975.61	226.73
975.90	226.74
976.19	226.67
976.49	226.78
976.78	226.86
977.07	226.84
977.37	226.87
977.66	226.95
977.95	226.79
978.24	226.80
978.54	226.86
978.83	226.82
979.12	226.84
979.42	226.86
979.71	226.77
980.00	226.79
980.29	226.79
980.59	226.66
980.88	226.70
981.17	226.68
981.46	226.63
981.76	226.67
982.05	226.76
982.34	226.85
982.63	226.73
982.93	226.65
983.22	226.81
983.51	226.78
983.80	226.80
984.09	226.88
984.39	226.82
984.68	226.72
984.97	226.68
985.26	226.61
985.55	226.60
985.85	226.48
986.14	226.53
986.43	226.58
986.72	226.55
987.01	226.39
987.30	226.45
987.59	226.40
987.89	226.31
988.18	226.14
988.47	226.00
988.76	225.95
989.05	225.94
989.34	225.80
989.63	225.91
989.92	225.83
990.22	225.75
990.51	225.74
990.80	225.68
991.09	225.77
991.38	225.81
991.67	225.81
991.96	225.84
992.25	225.82
992.54	225.70
992.83	225.70
993.12	225.76
993.41	225.76
993.70	225.96
993.99	226.05
994.28	226.10
994.58	226.15
994.87	226.16
995.16	226.08
995.45	226.01
995.74	225.81
996.03	225.85
996.32	225.98
996.61	226.11
996.90	226.17
997.19	226.13
997.48	226.18
997.77	226.13
998.06	226.07
998.34	226.03
998.63	225.97
998.92	226.04
999.21	226.17
999.50	226.15
999.79	226.01
1000.08	226.05
1000.37	226.10
1000.66	226.10
1000.95	226.12
1001.24	226.23
1001.53	226.34
1001.82	226.37
1002.11	226.30
1002.40	226.26
1002.68	226.39
1002.97	226.76
1003.26	226.70
1003.55	226.60
1003.84	226.72
1004.13	226.93
1004.42	226.90
1004.71	226.92
1004.99	226.87
1005.28	226.93
1005.57	226.87
1005.86	226.80
1006.15	226.78
1006.44	226.68
1006.72	226.75
1007.01	226.72
1007.30	226.72
1007.59	226.68
1007.88	226.69
1008.17	226.74
1008.45	226.66
1008.74	226.47
1009.03	226.20
1009.32	226.29
1009.60	226.30
1009.89	226.13
1010.18	225.94
1010.47	226.01
1010.76	226.06
1011.04	226.03
1011.33	225.98
1011.62	226.14
1011.91	226.17
1012.19	226.21
1012.48	226.29
1012.77	226.26
1013.05	226.46
1013.34	226.49
1013.63	226.48
1013.92	226.48
1014.20	226.39
1014.49	226.51
1014.78	226.51
1015.06	226.36
1015.35	226.32
1015.64	226.33
1015.92	226.45
1016.21	226.49
1016.50	226.46
1016.78	226.48
1017.07	226.48
1017.36	226.39
1017.64	226.29
1017.93	226.36
1018.22	226.24
1018.50	226.19
1018.79	226.16
1019.08	226.00
1019.36	225.95
1019.65	225.88
1019.93	225.95
1020.22	226.05
1020.51	226.25
1020.79	226.25
1021.08	225.25
1021.36	225.20
1021.65	226.10
1021.94	226.65
1022.22	225.45
1022.51	225.25
1022.79	227.55
1023.08	226.50
1023.36	232.15
1023.65	225.80
>>>>>End Processed Spectral Data<<<<<
