SpectraSuite Data File
++++++++++++++++++++++++++++++++++++
Date: Wed Sep 04 17:51:28 EDT 2013
User: lab3
Dark Spectrum Present: Yes
Reference Spectrum Present: No
Number of Sampled Component Spectra: 1
Spectrometers: USB2E7196
Integration Time (usec): 170000 (USB2E7196)
Spectra Averaged: 20 (USB2E7196)
Boxcar Smoothing: 10 (USB2E7196)
Correct for Electrical Dark: No (USB2E7196)
Strobe/Lamp Enabled: No (USB2E7196)
Correct for Detector Non-linearity: No (USB2E7196)
Correct for Stray Light: No (USB2E7196)
Number of Pixels in Processed Spectrum: 2048
>>>>>Begin Processed Spectral Data<<<<<
339.09	0.00
339.48	212.90
339.86	213.65
340.24	214.45
340.63	217.45
341.01	226.30
341.39	219.35
341.78	222.45
342.16	223.15
342.54	222.75
342.93	212.21
343.31	222.86
343.69	223.38
344.07	223.88
344.46	224.44
344.84	224.81
345.22	224.69
345.60	225.04
345.99	225.20
346.37	225.36
346.75	225.50
347.13	225.48
347.52	225.60
347.90	225.81
348.28	225.83
348.66	226.00
349.05	225.88
349.43	225.98
349.81	226.02
350.19	226.06
350.57	226.15
350.96	226.29
351.34	226.46
351.72	226.61
352.10	226.71
352.48	226.76
352.87	226.80
353.25	226.95
353.63	226.91
354.01	226.99
354.39	227.07
354.77	227.14
355.15	227.34
355.54	227.30
355.92	227.14
356.30	227.23
356.68	227.50
357.06	227.51
357.44	227.47
357.82	227.52
358.20	227.98
358.58	227.98
358.97	228.02
359.35	228.13
359.73	228.26
360.11	228.40
360.49	228.50
360.87	228.57
361.25	228.64
361.63	228.90
362.01	228.92
362.39	228.93
362.77	228.95
363.15	228.95
363.53	229.04
363.91	229.15
364.29	229.18
364.67	228.80
365.05	228.88
365.43	228.98
365.81	229.17
366.19	228.96
366.57	229.24
366.95	229.24
367.33	229.17
367.71	229.17
368.09	229.22
368.47	229.18
368.85	229.20
369.23	229.28
369.61	229.06
369.99	229.28
370.37	229.29
370.75	229.55
371.13	229.41
371.51	229.33
371.89	229.35
372.27	229.33
372.65	229.34
373.03	229.32
373.41	229.26
373.78	229.09
374.16	228.87
374.54	228.64
374.92	228.50
375.30	228.46
375.68	228.32
376.06	228.30
376.44	228.20
376.82	228.14
377.19	228.06
377.57	228.01
377.95	227.78
378.33	227.70
378.71	227.39
379.09	227.39
379.47	227.36
379.84	227.24
380.22	227.09
380.60	226.91
380.98	226.73
381.36	226.60
381.73	226.52
382.11	226.50
382.49	226.42
382.87	226.30
383.25	226.23
383.62	226.73
384.00	226.55
384.38	226.45
384.76	226.48
385.13	226.58
385.51	226.50
385.89	226.36
386.27	226.29
386.64	226.26
387.02	226.20
387.40	226.12
387.78	226.13
388.15	226.12
388.53	226.05
388.91	226.06
389.29	226.01
389.66	226.02
390.04	225.97
390.42	226.12
390.79	226.20
391.17	226.19
391.55	225.59
391.92	225.61
392.30	225.70
392.68	225.60
393.05	225.53
393.43	225.63
393.81	225.65
394.18	225.64
394.56	225.63
394.94	225.77
395.31	225.75
395.69	225.87
396.06	226.01
396.44	226.15
396.82	226.22
397.19	226.62
397.57	226.64
397.95	226.73
398.32	226.61
398.70	226.73
399.07	226.89
399.45	227.03
399.82	227.09
400.20	227.18
400.58	227.21
400.95	227.17
401.33	227.33
401.70	227.81
402.08	227.96
402.45	228.12
402.83	228.36
403.20	228.64
403.58	228.79
403.95	229.02
404.33	229.25
404.71	229.49
405.08	229.82
405.46	230.05
405.83	230.34
406.21	230.64
406.58	230.98
406.96	231.26
407.33	231.60
407.70	231.95
408.08	232.67
408.45	233.20
408.83	233.70
409.20	234.04
409.58	234.15
409.95	234.81
410.33	235.32
410.70	235.68
411.08	236.21
411.45	236.83
411.82	237.37
412.20	238.14
412.57	239.06
412.95	239.47
413.32	240.43
413.69	241.21
414.07	242.12
414.44	243.08
414.82	244.10
415.19	245.25
415.56	246.45
415.94	247.39
416.31	248.84
416.68	250.22
417.06	251.89
417.43	253.51
417.81	255.14
418.18	256.97
418.55	258.96
418.93	260.99
419.30	263.07
419.67	265.31
420.04	267.58
420.42	269.86
420.79	272.85
421.16	275.50
421.54	278.61
421.91	281.50
422.28	284.52
422.66	287.81
423.03	291.18
423.40	294.52
423.77	298.10
424.15	301.66
424.52	305.45
424.89	309.53
425.26	313.50
425.64	317.25
426.01	321.32
426.38	325.59
426.75	330.15
427.13	334.68
427.50	339.42
427.87	344.16
428.24	349.02
428.61	353.48
428.99	358.83
429.36	364.14
429.73	369.62
430.10	375.09
430.47	380.61
430.85	386.23
431.22	392.30
431.59	398.91
431.96	405.00
432.33	411.84
432.70	418.44
433.08	426.26
433.45	433.64
433.82	441.10
434.19	449.33
434.56	457.25
434.93	464.88
435.30	472.53
435.68	481.24
436.05	489.64
436.42	497.94
436.79	505.54
437.16	513.83
437.53	522.49
437.90	531.12
438.27	539.63
438.64	548.49
439.01	556.70
439.38	564.03
439.75	571.23
440.13	579.12
440.50	586.51
440.87	592.53
441.24	598.87
441.61	605.79
441.98	610.77
442.35	616.54
442.72	622.52
443.09	628.45
443.46	631.69
443.83	633.93
444.20	635.88
444.57	638.57
444.94	639.71
445.31	640.90
445.68	642.36
446.05	642.60
446.42	641.44
446.79	640.23
447.16	638.47
447.53	637.21
447.90	633.64
448.27	630.20
448.64	625.35
449.01	621.72
449.37	615.60
449.74	609.67
450.11	603.03
450.48	595.26
450.85	587.32
451.22	580.63
451.59	574.16
451.96	568.02
452.33	559.94
452.70	552.66
453.07	544.10
453.43	535.08
453.80	526.65
454.17	518.58
454.54	510.86
454.91	502.82
455.28	494.83
455.65	487.45
456.02	480.56
456.38	474.34
456.75	466.68
457.12	460.25
457.49	453.97
457.86	447.61
458.23	442.53
458.59	436.80
458.96	430.99
459.33	425.94
459.70	420.76
460.07	416.78
460.43	412.09
460.80	407.76
461.17	404.00
461.54	400.17
461.91	396.33
462.27	392.49
462.64	389.17
463.01	385.74
463.38	382.48
463.74	378.48
464.11	375.39
464.48	372.71
464.85	369.85
465.21	367.69
465.58	365.24
465.95	362.36
466.32	360.12
466.68	357.98
467.05	355.75
467.42	353.61
467.78	351.30
468.15	349.20
468.52	347.65
468.88	345.45
469.25	343.47
469.62	342.05
469.98	340.35
470.35	338.82
470.72	337.33
471.08	335.59
471.45	334.39
471.82	333.12
472.18	331.74
472.55	330.75
472.92	329.36
473.28	328.39
473.65	327.34
474.02	326.16
474.38	325.25
474.75	324.50
475.11	323.50
475.48	322.79
475.85	322.09
476.21	321.45
476.58	320.90
476.94	320.56
477.31	320.08
477.67	319.69
478.04	319.44
478.41	319.24
478.77	319.51
479.14	319.21
479.50	319.09
479.87	319.12
480.23	319.05
480.60	319.01
480.96	318.93
481.33	319.25
481.69	319.54
482.06	319.80
482.42	320.12
482.79	320.61
483.15	321.09
483.52	321.84
483.88	322.28
484.25	322.86
484.61	323.32
484.98	324.01
485.34	324.94
485.71	325.87
486.07	326.74
486.44	327.35
486.80	328.45
487.17	329.66
487.53	330.93
487.90	332.44
488.26	334.13
488.62	335.85
488.99	337.35
489.35	339.20
489.72	341.09
490.08	342.95
490.44	344.92
490.81	347.15
491.17	349.30
491.54	351.78
491.90	354.35
492.26	357.16
492.63	359.99
492.99	362.87
493.36	365.89
493.72	369.26
494.08	372.70
494.45	376.35
494.81	380.18
495.17	384.02
495.54	388.17
495.90	392.47
496.26	396.93
496.63	401.70
496.99	406.54
497.35	411.44
497.72	416.74
498.08	422.20
498.44	427.79
498.80	433.70
499.17	439.75
499.53	446.04
499.89	452.66
500.26	459.45
500.62	466.37
500.98	473.87
501.34	481.34
501.71	489.16
502.07	497.03
502.43	505.12
502.79	513.66
503.16	522.19
503.52	531.15
503.88	540.45
504.24	550.09
504.60	559.88
504.97	570.21
505.33	580.60
505.69	591.51
506.05	602.72
506.41	614.04
506.78	625.74
507.14	637.79
507.50	650.08
507.86	662.64
508.22	675.56
508.59	688.40
508.95	701.90
509.31	716.06
509.67	730.24
510.03	744.61
510.39	759.07
510.75	774.13
511.12	789.25
511.48	804.82
511.84	820.42
512.20	836.41
512.56	852.80
512.92	869.58
513.28	886.58
513.64	903.40
514.00	920.74
514.37	938.47
514.73	956.39
515.09	974.56
515.45	992.95
515.81	1011.37
516.17	1030.24
516.53	1048.87
516.89	1067.19
517.25	1086.68
517.61	1106.85
517.97	1127.09
518.33	1146.99
518.69	1167.06
519.05	1187.25
519.41	1207.75
519.77	1228.68
520.13	1249.22
520.49	1269.68
520.85	1291.83
521.21	1313.06
521.57	1334.13
521.93	1354.57
522.29	1375.87
522.65	1396.15
523.01	1416.85
523.37	1437.35
523.73	1458.21
524.09	1478.62
524.45	1499.30
524.81	1519.86
525.17	1540.45
525.53	1561.06
525.89	1581.93
526.25	1602.98
526.61	1623.36
526.97	1644.52
527.33	1665.76
527.68	1687.40
528.04	1708.68
528.40	1728.16
528.76	1749.16
529.12	1769.66
529.48	1790.45
529.84	1810.24
530.20	1831.55
530.56	1852.14
530.91	1873.01
531.27	1893.27
531.63	1913.91
531.99	1934.22
532.35	1954.07
532.71	1973.87
533.07	1994.20
533.42	2014.00
533.78	2033.60
534.14	2053.26
534.50	2071.93
534.86	2090.75
535.21	2108.22
535.57	2126.62
535.93	2144.30
536.29	2161.80
536.65	2179.73
537.00	2197.46
537.36	2214.91
537.72	2230.96
538.08	2248.09
538.44	2264.57
538.79	2281.00
539.15	2297.23
539.51	2313.07
539.87	2328.16
540.22	2341.89
540.58	2356.39
540.94	2369.56
541.29	2381.95
541.65	2394.54
542.01	2407.13
542.37	2417.24
542.72	2428.34
543.08	2438.24
543.44	2449.81
543.79	2459.38
544.15	2468.91
544.51	2478.83
544.87	2488.05
545.22	2497.00
545.58	2504.72
545.94	2511.65
546.29	2517.80
546.65	2524.21
547.01	2530.07
547.36	2535.42
547.72	2540.85
548.07	2544.42
548.43	2549.65
548.79	2554.23
549.14	2557.90
549.50	2561.80
549.86	2566.02
550.21	2569.06
550.57	2572.71
550.92	2573.64
551.28	2575.14
551.64	2577.52
551.99	2579.00
552.35	2580.47
552.70	2582.48
553.06	2584.36
553.41	2585.48
553.77	2587.22
554.13	2588.50
554.48	2589.58
554.84	2590.80
555.19	2592.17
555.55	2593.61
555.90	2592.27
556.26	2591.26
556.61	2589.97
556.97	2587.21
557.32	2586.59
557.68	2585.59
558.03	2584.19
558.39	2582.86
558.74	2582.01
559.10	2578.84
559.45	2575.37
559.81	2571.19
560.16	2565.84
560.52	2560.20
560.87	2555.98
561.23	2550.53
561.58	2544.30
561.94	2537.70
562.29	2530.68
562.64	2523.67
563.00	2515.27
563.35	2508.83
563.71	2502.06
564.06	2495.71
564.42	2489.56
564.77	2482.36
565.12	2474.83
565.48	2466.98
565.83	2459.09
566.19	2451.01
566.54	2443.13
566.89	2434.80
567.25	2427.35
567.60	2419.91
567.96	2412.61
568.31	2404.56
568.66	2396.01
569.02	2387.48
569.37	2379.25
569.72	2371.76
570.08	2362.24
570.43	2352.98
570.78	2344.02
571.14	2334.88
571.49	2324.47
571.84	2314.52
572.20	2303.59
572.55	2293.50
572.90	2282.69
573.26	2272.30
573.61	2261.16
573.96	2249.56
574.31	2237.63
574.67	2225.36
575.02	2212.91
575.37	2199.95
575.72	2186.64
576.08	2174.44
576.43	2161.76
576.78	2148.69
577.13	2134.72
577.49	2122.12
577.84	2110.42
578.19	2098.36
578.54	2085.94
578.90	2074.63
579.25	2062.57
579.60	2050.44
579.95	2037.39
580.30	2024.15
580.66	2011.01
581.01	1997.68
581.36	1984.16
581.71	1971.52
582.06	1958.92
582.42	1946.34
582.77	1933.97
583.12	1922.36
583.47	1910.30
583.82	1898.48
584.17	1886.49
584.53	1874.75
584.88	1861.83
585.23	1848.74
585.58	1834.92
585.93	1821.70
586.28	1808.08
586.63	1794.04
586.98	1779.96
587.34	1766.89
587.69	1753.98
588.04	1741.59
588.39	1729.64
588.74	1717.53
589.09	1705.42
589.44	1692.86
589.79	1681.00
590.14	1669.05
590.49	1657.11
590.84	1644.98
591.19	1632.79
591.54	1620.32
591.89	1608.09
592.25	1598.07
592.60	1586.81
592.95	1575.46
593.30	1563.61
593.65	1551.77
594.00	1540.07
594.35	1530.33
594.70	1518.73
595.05	1507.55
595.40	1495.34
595.75	1483.46
596.10	1472.51
596.45	1461.44
596.80	1450.72
597.15	1439.40
597.50	1427.76
597.85	1416.45
598.19	1404.99
598.54	1393.56
598.89	1382.85
599.24	1372.50
599.59	1361.05
599.94	1350.20
600.29	1339.75
600.64	1329.56
600.99	1318.97
601.34	1309.36
601.69	1298.23
602.04	1288.75
602.39	1278.99
602.74	1270.12
603.08	1260.90
603.43	1251.66
603.78	1242.18
604.13	1232.71
604.48	1223.17
604.83	1213.71
605.18	1203.84
605.53	1194.54
605.87	1185.63
606.22	1176.95
606.57	1167.74
606.92	1158.35
607.27	1149.51
607.62	1140.83
607.96	1132.37
608.31	1124.69
608.66	1116.54
609.01	1108.07
609.36	1099.36
609.70	1090.87
610.05	1082.12
610.40	1073.50
610.75	1064.66
611.10	1056.29
611.44	1047.65
611.79	1039.61
612.14	1031.91
612.49	1024.03
612.83	1016.46
613.18	1008.62
613.53	1001.10
613.88	993.34
614.22	985.70
614.57	977.78
614.92	969.98
615.27	962.60
615.61	954.81
615.96	947.22
616.31	939.78
616.65	932.75
617.00	925.58
617.35	918.39
617.70	911.46
618.04	904.63
618.39	897.61
618.74	891.17
619.08	884.40
619.43	877.30
619.78	870.46
620.12	863.26
620.47	856.40
620.82	849.27
621.16	842.44
621.51	836.18
621.85	830.05
622.20	823.49
622.55	816.82
622.89	810.50
623.24	804.26
623.59	797.98
623.93	791.80
624.28	785.53
624.62	780.00
624.97	774.32
625.32	768.56
625.66	762.72
626.01	756.70
626.35	751.16
626.70	745.65
627.04	740.38
627.39	734.90
627.73	729.69
628.08	724.47
628.43	719.19
628.77	713.86
629.12	708.49
629.46	703.84
629.81	699.16
630.15	694.28
630.50	689.34
630.84	684.54
631.19	679.79
631.53	675.38
631.88	670.12
632.22	665.15
632.57	660.69
632.91	656.03
633.26	651.62
633.60	646.83
633.95	642.38
634.29	637.67
634.64	633.50
634.98	628.78
635.32	624.53
635.67	620.54
636.01	616.42
636.36	612.20
636.70	608.07
637.05	603.97
637.39	599.90
637.73	595.86
638.08	591.95
638.42	587.81
638.77	583.55
639.11	579.41
639.45	575.14
639.80	570.78
640.14	566.95
640.49	562.90
640.83	559.23
641.17	555.64
641.52	552.04
641.86	548.38
642.20	545.26
642.55	541.70
642.89	538.18
643.23	534.68
643.58	531.59
643.92	527.88
644.26	524.35
644.61	521.23
644.95	517.80
645.29	514.31
645.64	511.28
645.98	508.25
646.32	505.33
646.66	502.41
647.01	499.60
647.35	496.80
647.69	494.04
648.04	491.27
648.38	488.30
648.72	485.52
649.06	482.54
649.41	479.45
649.75	476.36
650.09	473.48
650.43	470.48
650.78	467.57
651.12	464.94
651.46	462.18
651.80	459.27
652.14	456.62
652.49	454.27
652.83	451.68
653.17	449.02
653.51	446.34
653.85	443.96
654.20	441.31
654.54	438.67
654.88	436.09
655.22	433.79
655.56	431.55
655.90	429.14
656.25	426.93
656.59	424.78
656.93	422.74
657.27	420.64
657.61	418.32
657.95	416.06
658.29	413.86
658.64	411.77
658.98	409.59
659.32	407.54
659.66	405.31
660.00	403.15
660.34	401.12
660.68	399.11
661.02	397.06
661.36	395.23
661.70	393.23
662.05	391.38
662.39	389.37
662.73	387.51
663.07	385.87
663.41	383.98
663.75	382.00
664.09	380.12
664.43	378.22
664.77	376.73
665.11	374.95
665.45	373.32
665.79	371.75
666.13	370.10
666.47	368.42
666.81	366.82
667.15	364.99
667.49	363.59
667.83	362.26
668.17	360.76
668.51	359.31
668.85	358.06
669.19	356.85
669.53	355.36
669.87	353.89
670.21	352.35
670.55	350.96
670.89	349.81
671.23	348.40
671.57	346.95
671.91	345.54
672.25	344.33
672.58	343.02
672.92	341.58
673.26	340.35
673.60	339.23
673.94	338.02
674.28	337.06
674.62	335.90
674.96	334.57
675.30	333.46
675.64	332.25
675.97	330.97
676.31	329.65
676.65	328.53
676.99	327.55
677.33	326.40
677.67	325.43
678.01	324.22
678.34	323.28
678.68	322.38
679.02	321.36
679.36	320.33
679.70	319.37
680.04	318.42
680.37	317.43
680.71	316.39
681.05	315.48
681.39	314.53
681.73	313.46
682.06	312.59
682.40	311.69
682.74	310.90
683.08	310.24
683.42	309.39
683.75	308.63
684.09	307.66
684.43	306.92
684.77	306.04
685.10	305.27
685.44	304.45
685.78	303.64
686.12	302.79
686.45	301.97
686.79	301.10
687.13	300.48
687.46	299.75
687.80	299.25
688.14	298.43
688.48	297.73
688.81	297.00
689.15	296.48
689.49	295.77
689.82	295.11
690.16	294.25
690.50	293.54
690.83	292.76
691.17	292.02
691.51	291.37
691.84	290.72
692.18	289.98
692.52	289.27
692.85	288.67
693.19	288.33
693.52	287.79
693.86	287.12
694.20	286.41
694.53	285.83
694.87	285.03
695.21	284.42
695.54	283.80
695.88	283.24
696.21	282.46
696.55	281.83
696.88	281.15
697.22	280.47
697.56	279.96
697.89	279.37
698.23	278.89
698.56	278.30
698.90	277.88
699.23	277.34
699.57	276.82
699.90	276.20
700.24	275.49
700.58	274.96
700.91	274.59
701.25	274.52
701.58	274.31
701.92	273.97
702.25	273.62
702.59	273.15
702.92	272.72
703.26	272.23
703.59	271.83
703.93	271.79
704.26	271.42
704.60	270.95
704.93	270.60
705.26	270.15
705.60	269.75
705.93	269.20
706.27	268.99
706.60	268.72
706.94	268.49
707.27	268.12
707.61	267.83
707.94	267.38
708.27	266.61
708.61	266.02
708.94	265.56
709.28	265.15
709.61	264.70
709.94	264.35
710.28	264.00
710.61	263.58
710.95	262.81
711.28	262.78
711.61	262.36
711.95	262.08
712.28	261.62
712.61	261.27
712.95	261.21
713.28	260.99
713.61	260.61
713.95	260.18
714.28	259.86
714.61	259.38
714.95	259.05
715.28	258.55
715.61	258.11
715.95	257.80
716.28	257.45
716.61	257.25
716.95	256.90
717.28	256.56
717.61	256.32
717.94	256.08
718.28	255.46
718.61	255.24
718.94	254.87
719.27	254.62
719.61	254.38
719.94	253.99
720.27	253.52
720.60	253.17
720.94	252.96
721.27	252.71
721.60	252.60
721.93	252.35
722.27	252.35
722.60	252.19
722.93	251.95
723.26	251.73
723.59	251.46
723.93	251.36
724.26	251.21
724.59	250.96
724.92	250.74
725.25	250.69
725.59	250.44
725.92	250.31
726.25	250.13
726.58	249.95
726.91	249.66
727.24	249.57
727.57	249.37
727.91	249.08
728.24	248.95
728.57	248.66
728.90	248.48
729.23	248.21
729.56	248.25
729.89	248.08
730.22	247.89
730.55	247.74
730.89	247.45
731.22	247.22
731.55	246.99
731.88	246.79
732.21	246.49
732.54	246.22
732.87	246.00
733.20	245.86
733.53	245.70
733.86	245.66
734.19	245.43
734.52	245.40
734.85	245.55
735.18	245.29
735.51	245.32
735.84	245.20
736.17	245.21
736.50	244.86
736.83	245.16
737.16	244.99
737.49	244.79
737.82	244.65
738.15	244.58
738.48	244.42
738.81	244.24
739.14	244.10
739.47	243.97
739.80	243.85
740.13	243.70
740.46	243.46
740.79	243.24
741.12	243.05
741.45	242.85
741.78	242.41
742.11	242.36
742.44	242.04
742.77	241.95
743.10	241.68
743.43	241.47
743.75	240.93
744.08	241.45
744.41	241.33
744.74	241.19
745.07	240.97
745.40	240.93
745.73	241.04
746.06	240.90
746.39	240.83
746.71	240.67
747.04	240.47
747.37	240.34
747.70	240.27
748.03	240.14
748.36	240.08
748.68	239.96
749.01	239.75
749.34	239.68
749.67	239.58
750.00	239.52
750.33	239.67
750.65	239.64
750.98	238.95
751.31	238.85
751.64	238.75
751.97	238.86
752.29	238.71
752.62	238.43
752.95	238.25
753.28	238.13
753.60	237.97
753.93	238.10
754.26	238.07
754.59	237.73
754.91	237.64
755.24	237.39
755.57	237.32
755.90	237.20
756.22	237.11
756.55	236.94
756.88	236.72
757.20	236.37
757.53	236.08
757.86	235.98
758.19	235.88
758.51	235.83
758.84	235.55
759.17	235.42
759.49	235.35
759.82	235.52
760.15	235.49
760.47	235.34
760.80	235.04
761.13	235.04
761.45	235.07
761.78	235.00
762.11	234.93
762.43	234.77
762.76	234.73
763.08	234.70
763.41	234.64
763.74	234.65
764.06	234.60
764.39	234.54
764.71	234.40
765.04	234.31
765.37	234.10
765.69	234.00
766.02	233.91
766.34	233.71
766.67	233.53
767.00	233.51
767.32	233.77
767.65	233.94
767.97	233.77
768.30	233.77
768.62	233.73
768.95	233.72
769.27	233.78
769.60	233.82
769.92	233.65
770.25	233.57
770.57	233.46
770.90	233.33
771.22	233.23
771.55	233.20
771.87	233.13
772.20	233.14
772.52	233.52
772.85	234.08
773.17	234.08
773.50	233.95
773.82	233.88
774.15	233.66
774.47	233.37
774.80	233.28
775.12	233.13
775.45	233.10
775.77	233.02
776.09	232.91
776.42	232.80
776.74	232.88
777.07	232.78
777.39	232.71
777.72	232.78
778.04	232.83
778.36	232.76
778.69	232.77
779.01	232.78
779.33	232.38
779.66	231.83
779.98	231.76
780.31	231.75
780.63	231.90
780.95	231.89
781.28	231.84
781.60	231.74
781.92	231.78
782.25	231.67
782.57	231.63
782.89	231.57
783.22	231.49
783.54	231.32
783.86	231.33
784.19	231.24
784.51	231.28
784.83	231.14
785.16	231.06
785.48	231.06
785.80	231.00
786.12	230.90
786.45	230.88
786.77	230.93
787.09	230.84
787.42	230.56
787.74	230.50
788.06	230.52
788.38	230.51
788.71	230.36
789.03	230.36
789.35	230.43
789.67	230.30
789.99	230.30
790.32	230.23
790.64	230.24
790.96	230.64
791.28	230.43
791.61	230.44
791.93	230.40
792.25	230.28
792.57	230.58
792.89	230.49
793.21	230.42
793.54	230.34
793.86	230.28
794.18	230.30
794.50	230.22
794.82	230.15
795.14	230.17
795.47	230.26
795.79	230.16
796.11	230.00
796.43	230.00
796.75	230.01
797.07	230.06
797.39	229.98
797.71	229.60
798.04	229.60
798.36	229.56
798.68	229.55
799.00	229.52
799.32	229.27
799.64	229.36
799.96	229.27
800.28	229.33
800.60	229.22
800.92	229.15
801.24	229.13
801.56	229.11
801.89	229.00
802.21	228.96
802.53	228.90
802.85	228.97
803.17	229.21
803.49	229.09
803.81	228.96
804.13	228.95
804.45	228.89
804.77	228.87
805.09	228.86
805.41	228.83
805.73	228.80
806.05	228.64
806.37	228.66
806.69	228.69
807.01	228.63
807.33	228.74
807.65	228.60
807.97	228.79
808.28	228.78
808.60	228.82
808.92	228.76
809.24	229.07
809.56	229.01
809.88	228.69
810.20	228.65
810.52	228.83
810.84	228.79
811.16	228.73
811.48	228.70
811.80	228.83
812.12	228.87
812.43	228.92
812.75	228.92
813.07	228.80
813.39	228.78
813.71	228.65
814.03	228.62
814.35	228.65
814.67	228.37
814.98	228.24
815.30	228.20
815.62	228.12
815.94	227.67
816.26	227.84
816.58	227.82
816.89	227.88
817.21	227.72
817.53	227.70
817.85	227.80
818.17	227.79
818.48	227.59
818.80	227.66
819.12	227.57
819.44	227.59
819.76	227.50
820.07	227.56
820.39	227.54
820.71	227.55
821.03	227.59
821.34	227.57
821.66	227.73
821.98	227.72
822.30	227.67
822.61	228.10
822.93	227.93
823.25	227.95
823.57	227.93
823.88	227.95
824.20	228.01
824.52	228.01
824.83	227.97
825.15	227.99
825.47	227.90
825.79	227.97
826.10	227.85
826.42	227.81
826.74	227.86
827.05	227.85
827.37	227.84
827.69	227.83
828.00	227.85
828.32	227.84
828.64	227.81
828.95	228.13
829.27	227.98
829.58	227.96
829.90	227.97
830.22	228.00
830.53	227.92
830.85	227.77
831.17	227.64
831.48	227.60
831.80	227.63
832.11	227.57
832.43	227.50
832.75	227.50
833.06	227.85
833.38	227.64
833.69	227.69
834.01	227.72
834.32	227.65
834.64	227.55
834.96	227.58
835.27	227.60
835.59	227.42
835.90	227.34
836.22	227.31
836.53	227.29
836.85	227.25
837.16	227.72
837.48	227.80
837.79	227.94
838.11	228.03
838.42	227.98
838.74	228.04
839.05	227.95
839.37	227.96
839.68	227.62
840.00	227.63
840.31	227.67
840.63	227.59
840.94	227.50
841.26	227.48
841.57	227.42
841.88	227.49
842.20	227.40
842.51	227.30
842.83	227.29
843.14	227.71
843.46	227.73
843.77	227.41
844.08	227.37
844.40	227.21
844.71	227.09
845.03	227.07
845.34	227.08
845.65	227.10
845.97	227.07
846.28	227.08
846.60	227.09
846.91	227.00
847.22	226.96
847.54	227.08
847.85	227.13
848.16	227.07
848.48	226.89
848.79	227.06
849.10	227.12
849.42	227.16
849.73	226.68
850.04	226.55
850.36	226.41
850.67	226.48
850.98	226.47
851.30	226.48
851.61	226.43
851.92	226.39
852.23	226.55
852.55	226.63
852.86	226.71
853.17	226.74
853.49	226.89
853.80	227.06
854.11	227.12
854.42	227.20
854.74	227.17
855.05	227.25
855.36	227.05
855.67	227.04
855.99	227.05
856.30	227.60
856.61	227.65
856.92	227.67
857.23	227.69
857.55	227.73
857.86	227.73
858.17	227.83
858.48	227.74
858.79	227.57
859.11	227.58
859.42	227.53
859.73	227.50
860.04	227.41
860.35	227.21
860.66	227.05
860.98	227.03
861.29	227.06
861.60	227.07
861.91	227.18
862.22	227.12
862.53	226.99
862.84	226.44
863.16	226.59
863.47	226.50
863.78	226.48
864.09	226.47
864.40	226.53
864.71	226.49
865.02	226.66
865.33	226.65
865.64	226.53
865.95	226.55
866.27	226.83
866.58	226.80
866.89	226.91
867.20	226.95
867.51	226.87
867.82	226.85
868.13	226.91
868.44	226.77
868.75	226.91
869.06	227.00
869.37	227.10
869.68	226.88
869.99	226.98
870.30	226.95
870.61	226.96
870.92	226.85
871.23	226.81
871.54	226.83
871.85	226.94
872.16	226.94
872.47	226.80
872.78	226.53
873.09	226.54
873.40	226.45
873.71	226.48
874.02	226.53
874.33	226.48
874.64	226.37
874.95	226.51
875.26	226.34
875.56	226.33
875.87	226.24
876.18	226.27
876.49	226.71
876.80	226.65
877.11	226.60
877.42	226.60
877.73	226.61
878.04	226.44
878.35	226.48
878.66	226.55
878.96	226.61
879.27	226.57
879.58	226.58
879.89	226.55
880.20	226.62
880.51	226.50
880.82	226.49
881.12	226.53
881.43	226.37
881.74	226.31
882.05	226.22
882.36	226.20
882.67	226.24
882.97	225.73
883.28	225.69
883.59	225.64
883.90	225.73
884.21	225.75
884.51	225.74
884.82	225.59
885.13	225.60
885.44	225.59
885.74	225.60
886.05	225.57
886.36	225.57
886.67	225.41
886.98	225.78
887.28	225.85
887.59	225.90
887.90	225.93
888.20	225.90
888.51	226.08
888.82	226.10
889.13	226.13
889.43	226.51
889.74	226.58
890.05	226.64
890.35	226.54
890.66	226.48
890.97	226.52
891.28	226.58
891.58	226.57
891.89	226.61
892.20	226.60
892.50	226.54
892.81	226.54
893.12	226.56
893.42	226.33
893.73	226.36
894.04	226.30
894.34	226.35
894.65	226.38
894.95	226.26
895.26	226.32
895.57	226.52
895.87	226.11
896.18	226.17
896.48	226.20
896.79	226.30
897.10	226.39
897.40	226.40
897.71	226.36
898.01	226.35
898.32	226.43
898.63	226.45
898.93	226.56
899.24	226.67
899.54	226.64
899.85	226.59
900.15	226.55
900.46	226.62
900.76	226.61
901.07	226.70
901.38	226.79
901.68	226.81
901.99	226.64
902.29	226.72
902.60	226.68
902.90	226.64
903.21	226.64
903.51	226.62
903.82	226.73
904.12	226.79
904.43	226.83
904.73	226.78
905.03	226.82
905.34	227.21
905.64	227.13
905.95	227.22
906.25	227.20
906.56	227.18
906.86	227.10
907.17	227.15
907.47	227.11
907.77	227.03
908.08	226.95
908.38	226.94
908.69	226.98
908.99	227.07
909.30	227.09
909.60	227.09
909.90	227.13
910.21	226.99
910.51	226.90
910.81	226.89
911.12	226.92
911.42	226.89
911.73	226.48
912.03	226.47
912.33	226.54
912.64	226.55
912.94	226.52
913.24	226.48
913.55	226.44
913.85	226.40
914.15	226.56
914.46	226.54
914.76	226.52
915.06	226.43
915.37	226.31
915.67	226.32
915.97	226.33
916.27	226.24
916.58	226.25
916.88	226.29
917.18	226.21
917.49	226.52
917.79	226.52
918.09	226.49
918.39	226.59
918.70	226.47
919.00	226.47
919.30	226.74
919.60	226.73
919.91	226.62
920.21	226.65
920.51	226.45
920.81	226.47
921.12	226.52
921.42	226.53
921.72	226.54
922.02	226.53
922.32	226.55
922.63	226.57
922.93	226.81
923.23	226.74
923.53	226.67
923.83	226.30
924.13	226.35
924.44	226.33
924.74	226.39
925.04	226.52
925.34	226.53
925.64	226.31
925.94	226.35
926.24	226.65
926.55	226.63
926.85	226.67
927.15	226.61
927.45	226.57
927.75	226.52
928.05	226.54
928.35	226.45
928.65	226.55
928.95	226.60
929.26	226.33
929.56	226.43
929.86	226.53
930.16	226.53
930.46	226.45
930.76	226.49
931.06	226.34
931.36	226.18
931.66	226.20
931.96	226.23
932.26	226.25
932.56	225.97
932.86	225.98
933.16	226.01
933.46	225.98
933.76	225.91
934.06	226.04
934.36	226.22
934.66	226.25
934.96	226.18
935.26	226.16
935.56	226.29
935.86	226.19
936.16	226.16
936.46	226.15
936.76	226.12
937.06	226.08
937.36	226.10
937.66	226.16
937.96	226.18
938.26	226.06
938.56	226.02
938.86	226.14
939.16	226.30
939.46	226.30
939.76	226.40
940.06	226.45
940.35	226.35
940.65	226.10
940.95	226.21
941.25	226.07
941.55	225.99
941.85	225.93
942.15	226.02
942.45	226.18
942.75	226.13
943.04	226.23
943.34	226.39
943.64	226.34
943.94	226.25
944.24	226.26
944.54	226.33
944.84	226.28
945.13	226.23
945.43	226.07
945.73	226.08
946.03	226.05
946.33	226.01
946.62	226.00
946.92	225.99
947.22	226.02
947.52	226.10
947.82	226.20
948.11	226.21
948.41	226.09
948.71	225.94
949.01	226.01
949.31	225.93
949.60	225.83
949.90	225.91
950.20	225.88
950.50	225.91
950.79	225.90
951.09	226.02
951.39	226.00
951.69	226.01
951.98	226.12
952.28	226.16
952.58	226.09
952.87	226.02
953.17	226.12
953.47	226.00
953.76	225.90
954.06	225.78
954.36	225.67
954.66	225.73
954.95	225.86
955.25	225.84
955.55	225.85
955.84	225.75
956.14	225.79
956.44	225.87
956.73	225.73
957.03	225.73
957.32	225.73
957.62	225.62
957.92	225.71
958.21	225.58
958.51	226.05
958.81	226.15
959.10	226.27
959.40	226.38
959.69	226.40
959.99	226.50
960.29	226.49
960.58	226.54
960.88	226.66
961.17	226.56
961.47	226.64
961.76	226.59
962.06	226.67
962.36	226.57
962.65	226.56
962.95	226.62
963.24	226.53
963.54	226.48
963.83	226.58
964.13	226.49
964.42	226.42
964.72	226.04
965.01	226.09
965.31	226.01
965.60	225.84
965.90	226.10
966.19	226.06
966.49	226.09
966.78	225.99
967.08	225.94
967.37	225.91
967.67	225.80
967.96	225.90
968.26	225.83
968.55	225.86
968.85	225.80
969.14	225.74
969.43	225.77
969.73	225.79
970.02	225.78
970.32	225.73
970.61	225.72
970.91	225.60
971.20	225.41
971.49	225.34
971.79	225.40
972.08	225.08
972.38	225.11
972.67	225.11
972.96	225.24
973.26	225.13
973.55	225.34
973.85	225.40
974.14	225.35
974.43	225.44
974.73	225.39
975.02	225.42
975.31	225.52
975.61	225.55
975.90	225.55
976.19	225.43
976.49	225.50
976.78	225.53
977.07	225.55
977.37	225.62
977.66	225.74
977.95	225.70
978.24	225.74
978.54	225.85
978.83	225.82
979.12	225.82
979.42	225.84
979.71	225.73
980.00	225.65
980.29	225.65
980.59	225.56
980.88	225.77
981.17	225.85
981.46	225.86
981.76	225.84
982.05	225.97
982.34	226.13
982.63	226.16
982.93	226.21
983.22	226.35
983.51	226.39
983.80	226.49
984.09	226.58
984.39	226.62
984.68	226.53
984.97	226.58
985.26	226.53
985.55	226.57
985.85	226.47
986.14	226.57
986.43	226.65
986.72	226.62
987.01	226.41
987.30	226.29
987.59	226.18
987.89	226.21
988.18	226.06
988.47	226.05
988.76	226.01
989.05	225.91
989.34	225.78
989.63	225.92
989.92	225.83
990.22	225.74
990.51	225.64
990.80	225.60
991.09	225.69
991.38	225.70
991.67	225.73
991.96	225.72
992.25	225.75
992.54	225.67
992.83	225.66
993.12	225.63
993.41	225.71
993.70	225.90
993.99	225.98
994.28	226.02
994.58	226.02
994.87	225.93
995.16	225.98
995.45	225.96
995.74	225.79
996.03	225.77
996.32	225.85
996.61	226.00
996.90	225.93
997.19	225.80
997.48	225.84
997.77	225.71
998.06	225.73
998.34	225.64
998.63	225.62
998.92	225.66
999.21	225.73
999.50	225.82
999.79	225.73
1000.08	225.66
1000.37	225.62
1000.66	225.53
1000.95	225.66
1001.24	225.68
1001.53	225.72
1001.82	225.69
1002.11	225.68
1002.40	225.75
1002.68	225.84
1002.97	226.21
1003.26	226.24
1003.55	226.14
1003.84	226.16
1004.13	226.36
1004.42	226.39
1004.71	226.39
1004.99	226.37
1005.28	226.52
1005.57	226.43
1005.86	226.39
1006.15	226.41
1006.44	226.40
1006.72	226.46
1007.01	226.39
1007.30	226.39
1007.59	226.40
1007.88	226.44
1008.17	226.46
1008.45	226.27
1008.74	226.07
1009.03	225.87
1009.32	225.87
1009.60	225.95
1009.89	225.96
1010.18	225.80
1010.47	225.77
1010.76	225.77
1011.04	225.79
1011.33	225.69
1011.62	225.71
1011.91	225.73
1012.19	225.71
1012.48	225.74
1012.77	225.76
1013.05	225.99
1013.34	226.05
1013.63	226.02
1013.92	226.01
1014.20	225.98
1014.49	226.09
1014.78	226.17
1015.06	225.99
1015.35	225.97
1015.64	225.99
1015.92	226.09
1016.21	226.06
1016.50	226.07
1016.78	226.14
1017.07	226.19
1017.36	226.20
1017.64	226.17
1017.93	226.16
1018.22	226.14
1018.50	226.10
1018.79	226.17
1019.08	225.99
1019.36	225.95
1019.65	225.90
1019.93	226.04
1020.22	226.16
1020.51	226.44
1020.79	226.35
1021.08	225.05
1021.36	225.05
1021.65	227.65
1021.94	226.35
1022.22	226.10
1022.51	225.15
1022.79	227.55
1023.08	228.15
1023.36	233.05
1023.65	224.75
>>>>>End Processed Spectral Data<<<<<
