SpectraSuite Data File
++++++++++++++++++++++++++++++++++++
Date: Wed Sep 04 17:47:32 EDT 2013
User: lab3
Dark Spectrum Present: Yes
Reference Spectrum Present: No
Number of Sampled Component Spectra: 1
Spectrometers: USB2E7196
Integration Time (usec): 170000 (USB2E7196)
Spectra Averaged: 20 (USB2E7196)
Boxcar Smoothing: 10 (USB2E7196)
Correct for Electrical Dark: No (USB2E7196)
Strobe/Lamp Enabled: No (USB2E7196)
Correct for Detector Non-linearity: No (USB2E7196)
Correct for Stray Light: No (USB2E7196)
Number of Pixels in Processed Spectrum: 2048
>>>>>Begin Processed Spectral Data<<<<<
339.09	0.00
339.48	211.95
339.86	214.70
340.24	215.20
340.63	217.60
341.01	224.70
341.39	218.65
341.78	222.10
342.16	223.30
342.54	223.90
342.93	212.05
343.31	222.70
343.69	223.29
344.07	223.67
344.46	224.19
344.84	224.58
345.22	224.67
345.60	225.03
345.99	225.21
346.37	225.25
346.75	225.37
347.13	225.40
347.52	225.52
347.90	225.82
348.28	225.81
348.66	225.91
349.05	225.80
349.43	225.82
349.81	225.98
350.19	225.95
350.57	225.95
350.96	226.12
351.34	226.30
351.72	226.40
352.10	226.60
352.48	226.59
352.87	226.56
353.25	226.54
353.63	226.55
354.01	226.55
354.39	226.74
354.77	226.72
355.15	226.97
355.54	226.90
355.92	226.76
356.30	226.85
356.68	227.20
357.06	227.31
357.44	227.31
357.82	227.25
358.20	227.79
358.58	227.88
358.97	227.90
359.35	227.99
359.73	228.14
360.11	228.11
360.49	228.21
360.87	228.30
361.25	228.37
361.63	228.59
362.01	228.64
362.39	228.65
362.77	228.78
363.15	228.74
363.53	228.82
363.91	228.85
364.29	228.89
364.67	228.47
365.05	228.51
365.43	228.57
365.81	228.67
366.19	228.46
366.57	228.67
366.95	228.74
367.33	228.61
367.71	228.60
368.09	228.82
368.47	228.81
368.85	228.81
369.23	228.95
369.61	228.77
369.99	228.88
370.37	228.91
370.75	229.13
371.13	228.98
371.51	228.86
371.89	228.90
372.27	228.97
372.65	229.05
373.03	229.05
373.41	229.00
373.78	228.94
374.16	228.67
374.54	228.42
374.92	228.30
375.30	228.33
375.68	228.15
376.06	228.01
376.44	227.92
376.82	227.86
377.19	227.80
377.57	227.83
377.95	227.68
378.33	227.60
378.71	227.18
379.09	227.25
379.47	227.24
379.84	227.11
380.22	226.96
380.60	226.78
380.98	226.66
381.36	226.54
381.73	226.43
382.11	226.48
382.49	226.57
382.87	226.46
383.25	226.38
383.62	226.97
384.00	226.83
384.38	226.85
384.76	226.96
385.13	227.10
385.51	226.96
385.89	226.87
386.27	226.85
386.64	226.94
387.02	226.86
387.40	226.94
387.78	226.98
388.15	227.01
388.53	226.99
388.91	226.97
389.29	226.96
389.66	227.05
390.04	226.95
390.42	226.97
390.79	227.01
391.17	226.99
391.55	226.47
391.92	226.46
392.30	226.52
392.68	226.40
393.05	226.34
393.43	226.37
393.81	226.41
394.18	226.39
394.56	226.42
394.94	226.50
395.31	226.39
395.69	226.48
396.06	226.52
396.44	226.61
396.82	226.65
397.19	226.95
397.57	226.90
397.95	227.00
398.32	226.96
398.70	227.07
399.07	227.28
399.45	227.28
399.82	227.36
400.20	227.38
400.58	227.49
400.95	227.41
401.33	227.63
401.70	228.06
402.08	228.18
402.45	228.32
402.83	228.56
403.20	228.80
403.58	228.89
403.95	229.13
404.33	229.33
404.71	229.52
405.08	229.94
405.46	230.14
405.83	230.39
406.21	230.62
406.58	230.84
406.96	231.15
407.33	231.41
407.70	231.73
408.08	232.48
408.45	232.85
408.83	233.31
409.20	233.59
409.58	233.75
409.95	234.33
410.33	234.82
410.70	235.13
411.08	235.76
411.45	236.44
411.82	236.93
412.20	237.62
412.57	238.60
412.95	238.92
413.32	239.83
413.69	240.67
414.07	241.57
414.44	242.56
414.82	243.52
415.19	244.77
415.56	245.99
415.94	246.95
416.31	248.33
416.68	249.67
417.06	251.30
417.43	252.98
417.81	254.56
418.18	256.39
418.55	258.39
418.93	260.30
419.30	262.29
419.67	264.44
420.04	266.63
420.42	268.83
420.79	271.88
421.16	274.64
421.54	277.70
421.91	280.56
422.28	283.49
422.66	286.67
423.03	290.08
423.40	293.33
423.77	296.79
424.15	300.33
424.52	304.11
424.89	308.27
425.26	312.16
425.64	316.07
426.01	320.16
426.38	324.48
426.75	328.96
427.13	333.59
427.50	338.36
427.87	343.23
428.24	348.10
428.61	352.56
428.99	357.75
429.36	363.16
429.73	368.73
430.10	374.25
430.47	379.74
430.85	385.20
431.22	391.33
431.59	398.07
431.96	404.26
432.33	411.12
432.70	417.53
433.08	425.29
433.45	432.47
433.82	439.79
434.19	447.77
434.56	455.73
434.93	463.16
435.30	470.76
435.68	479.18
436.05	487.45
436.42	495.60
436.79	503.15
437.16	511.35
437.53	519.90
437.90	528.43
438.27	537.05
438.64	545.81
439.01	553.94
439.38	560.90
439.75	567.88
440.13	575.69
440.50	583.08
440.87	589.01
441.24	595.36
441.61	602.24
441.98	607.33
442.35	613.12
442.72	619.16
443.09	624.85
443.46	628.34
443.83	630.60
444.20	632.55
444.57	635.21
444.94	636.22
445.31	637.54
445.68	638.95
446.05	638.99
446.42	637.74
446.79	636.43
447.16	634.99
447.53	633.84
447.90	630.30
448.27	627.00
448.64	622.17
449.01	618.51
449.37	612.37
449.74	606.36
450.11	599.60
450.48	591.94
450.85	584.19
451.22	577.56
451.59	571.04
451.96	564.87
452.33	556.86
452.70	549.68
453.07	540.99
453.43	532.13
453.80	524.01
454.17	516.21
454.54	508.55
454.91	500.40
455.28	492.61
455.65	485.37
456.02	478.38
456.38	472.26
456.75	464.60
457.12	458.22
457.49	452.07
457.86	445.80
458.23	440.70
458.59	435.10
458.96	429.17
459.33	424.21
459.70	419.21
460.07	415.28
460.43	410.62
460.80	406.34
461.17	402.56
461.54	398.56
461.91	394.75
462.27	391.09
462.64	387.90
463.01	384.32
463.38	380.98
463.74	377.11
464.11	374.11
464.48	371.55
464.85	368.63
465.21	366.54
465.58	364.24
465.95	361.38
466.32	359.12
466.68	356.95
467.05	354.76
467.42	352.55
467.78	350.20
468.15	348.01
468.52	346.50
468.88	344.27
469.25	342.31
469.62	340.79
469.98	339.02
470.35	337.44
470.72	335.94
471.08	334.22
471.45	332.86
471.82	331.56
472.18	330.10
472.55	329.17
472.92	327.77
473.28	326.70
473.65	325.64
474.02	324.55
474.38	323.68
474.75	322.92
475.11	322.04
475.48	321.48
475.85	320.92
476.21	320.26
476.58	319.82
476.94	319.51
477.31	319.06
477.67	318.70
478.04	318.40
478.41	318.25
478.77	318.56
479.14	318.40
479.50	318.24
479.87	318.28
480.23	318.28
480.60	318.34
480.96	318.39
481.33	318.80
481.69	319.00
482.06	319.23
482.42	319.50
482.79	319.95
483.15	320.30
483.52	320.89
483.88	321.34
484.25	321.90
484.61	322.55
484.98	323.21
485.34	324.18
485.71	325.20
486.07	326.17
486.44	326.79
486.80	327.92
487.17	329.05
487.53	330.45
487.90	331.85
488.26	333.56
488.62	335.25
488.99	336.75
489.35	338.60
489.72	340.60
490.08	342.51
490.44	344.48
490.81	346.80
491.17	349.01
491.54	351.53
491.90	354.11
492.26	356.69
492.63	359.53
492.99	362.38
493.36	365.51
493.72	368.82
494.08	372.23
494.45	375.91
494.81	379.77
495.17	383.64
495.54	387.96
495.90	392.09
496.26	396.43
496.63	401.07
496.99	405.88
497.35	410.90
497.72	416.20
498.08	421.60
498.44	427.15
498.80	433.10
499.17	439.05
499.53	445.29
499.89	452.12
500.26	458.83
500.62	465.72
500.98	472.94
501.34	480.34
501.71	487.93
502.07	495.70
502.43	503.80
502.79	512.01
503.16	520.48
503.52	529.54
503.88	538.81
504.24	548.53
504.60	558.31
504.97	568.42
505.33	578.70
505.69	589.73
506.05	600.70
506.41	611.99
506.78	623.60
507.14	635.41
507.50	647.38
507.86	660.00
508.22	673.03
508.59	686.02
508.95	699.48
509.31	713.51
509.67	727.64
510.03	741.61
510.39	756.25
510.75	771.03
511.12	785.99
511.48	801.52
511.84	816.95
512.20	832.59
512.56	848.66
512.92	865.26
513.28	881.98
513.64	898.96
514.00	916.28
514.37	933.79
514.73	951.76
515.09	969.70
515.45	987.65
515.81	1005.71
516.17	1024.44
516.53	1042.99
516.89	1061.38
517.25	1080.54
517.61	1100.81
517.97	1120.69
518.33	1140.68
518.69	1160.73
519.05	1180.78
519.41	1201.12
519.77	1222.06
520.13	1242.74
520.49	1263.36
520.85	1285.29
521.21	1306.25
521.57	1327.18
521.93	1347.88
522.29	1368.68
522.65	1389.14
523.01	1410.04
523.37	1430.48
523.73	1451.10
524.09	1471.43
524.45	1491.94
524.81	1512.40
525.17	1532.71
525.53	1553.17
525.89	1573.68
526.25	1594.19
526.61	1614.22
526.97	1635.10
527.33	1655.83
527.68	1677.24
528.04	1698.21
528.40	1717.69
528.76	1738.10
529.12	1758.47
529.48	1779.06
529.84	1799.12
530.20	1820.20
530.56	1840.51
530.91	1861.10
531.27	1880.94
531.63	1900.83
531.99	1921.32
532.35	1941.05
532.71	1960.79
533.07	1981.04
533.42	2000.56
533.78	2019.92
534.14	2039.50
534.50	2057.87
534.86	2076.71
535.21	2093.68
535.57	2111.50
535.93	2128.64
536.29	2146.15
536.65	2163.76
537.00	2180.67
537.36	2197.78
537.72	2213.33
538.08	2229.89
538.44	2246.32
538.79	2262.04
539.15	2278.23
539.51	2293.60
539.87	2308.14
540.22	2321.98
540.58	2335.65
540.94	2348.74
541.29	2361.19
541.65	2373.70
542.01	2385.88
542.37	2396.05
542.72	2406.59
543.08	2416.63
543.44	2427.94
543.79	2437.64
544.15	2447.08
544.51	2456.72
544.87	2465.63
545.22	2474.21
545.58	2481.75
545.94	2488.19
546.29	2494.70
546.65	2500.34
547.01	2505.40
547.36	2510.93
547.72	2516.05
548.07	2519.90
548.43	2524.60
548.79	2528.95
549.14	2532.38
549.50	2536.02
549.86	2539.72
550.21	2543.59
550.57	2547.05
550.92	2547.97
551.28	2549.00
551.64	2550.63
551.99	2552.18
552.35	2553.48
552.70	2555.57
553.06	2557.16
553.41	2558.41
553.77	2560.06
554.13	2561.57
554.48	2562.99
554.84	2563.82
555.19	2564.45
555.55	2565.72
555.90	2564.47
556.26	2563.18
556.61	2561.52
556.97	2559.18
557.32	2558.39
557.68	2556.42
558.03	2554.68
558.39	2553.11
558.74	2552.20
559.10	2549.14
559.45	2545.57
559.81	2541.41
560.16	2535.82
560.52	2530.71
560.87	2526.03
561.23	2520.24
561.58	2514.34
561.94	2507.54
562.29	2500.34
562.64	2493.13
563.00	2484.89
563.35	2478.65
563.71	2472.00
564.06	2465.43
564.42	2459.21
564.77	2451.96
565.12	2444.78
565.48	2436.99
565.83	2429.03
566.19	2420.73
566.54	2412.73
566.89	2404.86
567.25	2396.98
567.60	2389.93
567.96	2382.35
568.31	2374.42
568.66	2366.07
569.02	2357.13
569.37	2349.04
569.72	2341.50
570.08	2332.38
570.43	2322.99
570.78	2313.91
571.14	2304.50
571.49	2294.75
571.84	2284.81
572.20	2274.31
572.55	2264.41
572.90	2253.67
573.26	2243.58
573.61	2232.50
573.96	2221.71
574.31	2209.32
574.67	2197.51
575.02	2185.01
575.37	2172.48
575.72	2159.11
576.08	2147.38
576.43	2135.18
576.78	2122.05
577.13	2108.30
577.49	2096.11
577.84	2084.81
578.19	2072.68
578.54	2060.61
578.90	2048.90
579.25	2036.80
579.60	2024.44
579.95	2011.60
580.30	1998.58
580.66	1985.39
581.01	1972.53
581.36	1958.65
581.71	1946.49
582.06	1933.89
582.42	1921.51
582.77	1909.09
583.12	1897.60
583.47	1885.13
583.82	1873.32
584.17	1861.30
584.53	1849.93
584.88	1837.01
585.23	1823.78
585.58	1809.93
585.93	1796.78
586.28	1783.56
586.63	1769.86
586.98	1755.89
587.34	1742.85
587.69	1730.06
588.04	1717.66
588.39	1705.69
588.74	1693.80
589.09	1681.94
589.44	1669.42
589.79	1657.53
590.14	1645.63
590.49	1633.78
590.84	1622.00
591.19	1610.37
591.54	1598.41
591.89	1586.28
592.25	1576.40
592.60	1565.17
592.95	1554.16
593.30	1542.54
593.65	1530.61
594.00	1519.20
594.35	1509.70
594.70	1498.14
595.05	1486.91
595.40	1475.25
595.75	1463.34
596.10	1452.31
596.45	1440.98
596.80	1430.51
597.15	1419.44
597.50	1407.90
597.85	1397.04
598.19	1385.68
598.54	1374.27
598.89	1363.39
599.24	1353.15
599.59	1341.63
599.94	1331.15
600.29	1321.10
600.64	1311.10
600.99	1300.82
601.34	1291.26
601.69	1280.19
602.04	1270.79
602.39	1261.32
602.74	1252.40
603.08	1243.44
603.43	1234.33
603.78	1225.06
604.13	1215.50
604.48	1206.03
604.83	1196.70
605.18	1187.05
605.53	1177.86
605.87	1168.70
606.22	1160.61
606.57	1151.68
606.92	1142.59
607.27	1133.97
607.62	1125.38
607.96	1116.98
608.31	1109.16
608.66	1100.86
609.01	1092.79
609.36	1084.45
609.70	1075.99
610.05	1067.53
610.40	1059.18
610.75	1050.68
611.10	1042.38
611.44	1034.12
611.79	1026.18
612.14	1018.51
612.49	1010.87
612.83	1003.61
613.18	996.02
613.53	988.22
613.88	980.45
614.22	973.27
614.57	965.37
614.92	957.68
615.27	950.32
615.61	942.89
615.96	935.62
616.31	928.28
616.65	921.36
617.00	914.55
617.35	907.48
617.70	900.70
618.04	893.80
618.39	887.01
618.74	880.79
619.08	874.11
619.43	867.38
619.78	860.59
620.12	853.43
620.47	846.84
620.82	839.97
621.16	833.43
621.51	826.93
621.85	820.87
622.20	814.39
622.55	807.79
622.89	801.59
623.24	795.38
623.59	789.24
623.93	783.09
624.28	777.28
624.62	771.81
624.97	766.23
625.32	760.70
625.66	754.92
626.01	748.83
626.35	743.54
626.70	737.98
627.04	732.70
627.39	727.55
627.73	722.52
628.08	717.62
628.43	712.32
628.77	707.11
629.12	701.85
629.46	697.40
629.81	693.05
630.15	688.31
630.50	683.53
630.84	678.84
631.19	673.99
631.53	669.48
631.88	664.40
632.22	659.39
632.57	654.94
632.91	650.44
633.26	646.27
633.60	641.67
633.95	637.28
634.29	632.71
634.64	628.27
634.98	623.52
635.32	619.15
635.67	615.26
636.01	611.29
636.36	607.05
636.70	602.92
637.05	598.65
637.39	594.61
637.73	590.62
638.08	586.70
638.42	582.65
638.77	578.27
639.11	574.19
639.45	570.12
639.80	565.92
640.14	562.15
640.49	558.27
640.83	554.55
641.17	551.06
641.52	547.49
641.86	544.04
642.20	541.00
642.55	537.43
642.89	533.83
643.23	530.30
643.58	527.24
643.92	523.64
644.26	520.37
644.61	517.26
644.95	513.96
645.29	510.73
645.64	507.76
645.98	504.72
646.32	501.78
646.66	498.80
647.01	495.95
647.35	493.18
647.69	490.33
648.04	487.56
648.38	484.78
648.72	482.06
649.06	479.02
649.41	476.08
649.75	473.19
650.09	470.30
650.43	467.60
650.78	464.74
651.12	462.04
651.46	459.38
651.80	456.69
652.14	454.03
652.49	451.67
652.83	449.02
653.17	446.49
653.51	443.90
653.85	441.70
654.20	439.20
654.54	436.63
654.88	434.04
655.22	431.76
655.56	429.36
655.90	427.08
656.25	424.93
656.59	422.69
656.93	420.64
657.27	418.72
657.61	416.32
657.95	414.19
658.29	411.97
658.64	409.92
658.98	407.77
659.32	405.57
659.66	403.32
660.00	401.37
660.34	399.28
660.68	397.31
661.02	395.18
661.36	393.27
661.70	391.34
662.05	389.61
662.39	387.74
662.73	386.01
663.07	384.32
663.41	382.55
663.75	380.67
664.09	378.83
664.43	376.90
664.77	375.28
665.11	373.58
665.45	372.06
665.79	370.43
666.13	368.63
666.47	367.10
666.81	365.53
667.15	363.80
667.49	362.42
667.83	361.03
668.17	359.59
668.51	358.18
668.85	356.91
669.19	355.79
669.53	354.28
669.87	352.87
670.21	351.34
670.55	349.88
670.89	348.70
671.23	347.31
671.57	345.94
671.91	344.58
672.25	343.26
672.58	342.05
672.92	340.71
673.26	339.50
673.60	338.36
673.94	337.12
674.28	336.15
674.62	335.02
674.96	333.81
675.30	332.63
675.64	331.50
675.97	330.22
676.31	328.69
676.65	327.39
676.99	326.39
677.33	325.26
677.67	324.25
678.01	323.00
678.34	321.99
678.68	321.10
679.02	320.01
679.36	318.98
679.70	317.90
680.04	316.91
680.37	315.97
680.71	314.91
681.05	314.14
681.39	313.12
681.73	312.10
682.06	311.22
682.40	310.27
682.74	309.43
683.08	308.81
683.42	307.97
683.75	307.43
684.09	306.45
684.43	305.67
684.77	304.84
685.10	304.05
685.44	303.37
685.78	302.52
686.12	301.87
686.45	301.15
686.79	300.31
687.13	299.54
687.46	298.88
687.80	298.32
688.14	297.39
688.48	296.70
688.81	295.95
689.15	295.29
689.49	294.65
689.82	294.01
690.16	293.05
690.50	292.49
690.83	291.70
691.17	290.95
691.51	290.28
691.84	289.74
692.18	289.12
692.52	288.33
692.85	287.82
693.19	287.31
693.52	286.70
693.86	286.04
694.20	285.49
694.53	284.83
694.87	284.15
695.21	283.51
695.54	282.89
695.88	282.30
696.21	281.57
696.55	280.99
696.88	280.35
697.22	279.76
697.56	279.20
697.89	278.62
698.23	278.08
698.56	277.50
698.90	277.01
699.23	276.42
699.57	275.97
699.90	275.31
700.24	274.61
700.58	274.17
700.91	273.78
701.25	273.62
701.58	273.56
701.92	273.24
702.25	272.89
702.59	272.45
702.92	272.05
703.26	271.70
703.59	271.32
703.93	271.33
704.26	270.96
704.60	270.49
704.93	270.08
705.26	269.63
705.60	269.29
705.93	268.68
706.27	268.45
706.60	268.15
706.94	267.97
707.27	267.59
707.61	267.20
707.94	266.84
708.27	266.13
708.61	265.31
708.94	264.81
709.28	264.47
709.61	264.10
709.94	263.79
710.28	263.41
710.61	263.04
710.95	262.18
711.28	262.20
711.61	261.85
711.95	261.60
712.28	261.29
712.61	260.88
712.95	260.81
713.28	260.67
713.61	260.24
713.95	259.75
714.28	259.50
714.61	259.09
714.95	258.67
715.28	258.30
715.61	258.04
715.95	257.66
716.28	257.29
716.61	257.07
716.95	256.72
717.28	256.35
717.61	256.03
717.94	255.78
718.28	255.10
718.61	254.85
718.94	254.47
719.27	254.17
719.61	253.99
719.94	253.65
720.27	253.16
720.60	252.95
720.94	252.73
721.27	252.53
721.60	252.44
721.93	252.28
722.27	252.21
722.60	252.03
722.93	251.82
723.26	251.64
723.59	251.26
723.93	251.07
724.26	250.97
724.59	250.70
724.92	250.61
725.25	250.50
725.59	250.23
725.92	250.07
726.25	249.90
726.58	249.69
726.91	249.46
727.24	249.33
727.57	249.01
727.91	248.74
728.24	248.53
728.57	248.27
728.90	248.20
729.23	247.87
729.56	247.88
729.89	247.70
730.22	247.42
730.55	247.30
730.89	247.10
731.22	246.81
731.55	246.62
731.88	246.37
732.21	246.15
732.54	246.00
732.87	245.84
733.20	245.66
733.53	245.45
733.86	245.30
734.19	245.00
734.52	244.98
734.85	245.14
735.18	244.90
735.51	244.83
735.84	244.63
736.17	244.55
736.50	244.15
736.83	244.59
737.16	244.43
737.49	244.25
737.82	244.13
738.15	244.07
738.48	243.98
738.81	243.75
739.14	243.48
739.47	243.26
739.80	243.13
740.13	242.95
740.46	242.72
740.79	242.51
741.12	242.45
741.45	242.12
741.78	241.74
742.11	241.68
742.44	241.43
742.77	241.34
743.10	241.14
743.43	240.97
743.75	240.26
744.08	240.84
744.41	240.64
744.74	240.40
745.07	240.13
745.40	240.00
745.73	240.10
746.06	240.02
746.39	240.01
746.71	239.79
747.04	239.65
747.37	239.58
747.70	239.54
748.03	239.39
748.36	239.41
748.68	239.28
749.01	239.02
749.34	238.94
749.67	238.83
750.00	238.73
750.33	238.97
750.65	238.90
750.98	238.11
751.31	238.04
751.64	237.99
751.97	238.21
752.29	238.08
752.62	237.84
752.95	237.67
753.28	237.47
753.60	237.33
753.93	237.38
754.26	237.33
754.59	237.11
754.91	236.98
755.24	236.82
755.57	236.67
755.90	236.66
756.22	236.50
756.55	236.32
756.88	236.21
757.20	235.86
757.53	235.59
757.86	235.54
758.19	235.59
758.51	235.51
758.84	235.12
759.17	234.98
759.49	234.85
759.82	234.98
760.15	234.95
760.47	234.87
760.80	234.64
761.13	234.59
761.45	234.45
761.78	234.39
762.11	234.39
762.43	234.29
762.76	234.25
763.08	234.22
763.41	234.17
763.74	234.15
764.06	234.00
764.39	234.07
764.71	233.91
765.04	233.69
765.37	233.55
765.69	233.53
766.02	233.53
766.34	233.45
766.67	233.30
767.00	233.34
767.32	233.56
767.65	233.83
767.97	233.72
768.30	233.70
768.62	233.63
768.95	233.50
769.27	233.46
769.60	233.46
769.92	233.37
770.25	233.23
770.57	233.03
770.90	232.99
771.22	232.85
771.55	232.85
771.87	232.83
772.20	232.78
772.52	233.10
772.85	233.54
773.17	233.55
773.50	233.48
773.82	233.34
774.15	233.08
774.47	232.74
774.80	232.60
775.12	232.55
775.45	232.44
775.77	232.43
776.09	232.37
776.42	232.30
776.74	232.37
777.07	232.32
777.39	232.39
777.72	232.33
778.04	232.34
778.36	232.22
778.69	232.21
779.01	232.27
779.33	231.82
779.66	231.31
779.98	231.20
780.31	231.11
780.63	231.31
780.95	231.27
781.28	231.24
781.60	231.19
781.92	231.15
782.25	231.09
782.57	231.00
782.89	230.96
783.22	230.81
783.54	230.67
783.86	230.64
784.19	230.56
784.51	230.67
784.83	230.65
785.16	230.65
785.48	230.58
785.80	230.51
786.12	230.50
786.45	230.43
786.77	230.42
787.09	230.38
787.42	230.16
787.74	230.15
788.06	230.09
788.38	230.03
788.71	229.97
789.03	229.98
789.35	230.00
789.67	229.89
789.99	229.90
790.32	229.79
790.64	229.83
790.96	230.17
791.28	229.96
791.61	229.84
791.93	229.85
792.25	229.88
792.57	230.16
792.89	230.06
793.21	229.99
793.54	229.98
793.86	229.95
794.18	229.94
794.50	229.82
794.82	229.84
795.14	229.95
795.47	230.08
795.79	230.00
796.11	229.90
796.43	229.91
796.75	229.94
797.07	229.91
797.39	229.88
797.71	229.48
798.04	229.49
798.36	229.50
798.68	229.40
799.00	229.39
799.32	229.11
799.64	229.22
799.96	229.25
800.28	229.26
800.60	229.21
800.92	229.14
801.24	229.12
801.56	229.06
801.89	229.00
802.21	228.90
802.53	228.89
802.85	229.04
803.17	229.23
803.49	229.12
803.81	229.07
804.13	229.03
804.45	228.99
804.77	228.95
805.09	228.95
805.41	228.98
805.73	228.87
806.05	228.85
806.37	228.81
806.69	228.82
807.01	228.77
807.33	228.80
807.65	228.66
807.97	228.86
808.28	228.88
808.60	228.81
808.92	228.73
809.24	229.00
809.56	228.81
809.88	228.60
810.20	228.65
810.52	228.85
810.84	228.73
811.16	228.69
811.48	228.66
811.80	228.80
812.12	228.74
812.43	228.85
812.75	228.70
813.07	228.58
813.39	228.58
813.71	228.48
814.03	228.42
814.35	228.48
814.67	228.21
814.98	228.14
815.30	228.15
815.62	228.07
815.94	227.80
816.26	227.95
816.58	227.87
816.89	227.87
817.21	227.63
817.53	227.65
817.85	227.69
818.17	227.66
818.48	227.46
818.80	227.50
819.12	227.38
819.44	227.38
819.76	227.35
820.07	227.29
820.39	227.24
820.71	227.25
821.03	227.25
821.34	227.27
821.66	227.28
821.98	227.25
822.30	227.28
822.61	227.54
822.93	227.31
823.25	227.23
823.57	227.19
823.88	227.27
824.20	227.27
824.52	227.29
824.83	227.22
825.15	227.17
825.47	227.13
825.79	227.14
826.10	227.09
826.42	227.04
826.74	227.04
827.05	227.00
827.37	227.06
827.69	227.00
828.00	227.03
828.32	227.06
828.64	227.05
828.95	227.28
829.27	227.10
829.58	227.13
829.90	227.25
830.22	227.23
830.53	227.17
830.85	227.14
831.17	227.04
831.48	227.13
831.80	227.17
832.11	227.18
832.43	227.08
832.75	227.12
833.06	227.44
833.38	227.32
833.69	227.35
834.01	227.33
834.32	227.30
834.64	227.25
834.96	227.21
835.27	227.24
835.59	227.00
835.90	226.93
836.22	226.95
836.53	226.90
836.85	226.88
837.16	227.36
837.48	227.42
837.79	227.50
838.11	227.49
838.42	227.50
838.74	227.53
839.05	227.56
839.37	227.47
839.68	227.16
840.00	227.22
840.31	227.34
840.63	227.30
840.94	227.26
841.26	227.24
841.57	227.26
841.88	227.29
842.20	227.26
842.51	227.22
842.83	227.25
843.14	227.65
843.46	227.67
843.77	227.39
844.08	227.31
844.40	227.24
844.71	227.25
845.03	227.22
845.34	227.17
845.65	227.16
845.97	227.25
846.28	227.26
846.60	227.23
846.91	227.16
847.22	227.11
847.54	227.28
847.85	227.27
848.16	227.25
848.48	227.10
848.79	227.30
849.10	227.33
849.42	227.30
849.73	226.92
850.04	226.85
850.36	226.61
850.67	226.70
850.98	226.72
851.30	226.73
851.61	226.75
851.92	226.74
852.23	226.86
852.55	226.83
852.86	226.91
853.17	226.99
853.49	227.08
853.80	227.18
854.11	227.15
854.42	227.25
854.74	227.13
855.05	227.23
855.36	227.02
855.67	227.06
855.99	227.04
856.30	227.59
856.61	227.57
856.92	227.62
857.23	227.66
857.55	227.56
857.86	227.45
858.17	227.51
858.48	227.46
858.79	227.33
859.11	227.41
859.42	227.29
859.73	227.18
860.04	227.15
860.35	226.95
860.66	226.75
860.98	226.70
861.29	226.79
861.60	226.66
861.91	226.70
862.22	226.60
862.53	226.53
862.84	225.95
863.16	226.10
863.47	226.01
863.78	225.81
864.09	225.88
864.40	225.92
864.71	225.86
865.02	225.86
865.33	225.85
865.64	225.76
865.95	225.76
866.27	226.03
866.58	225.97
866.89	226.09
867.20	226.15
867.51	226.08
867.82	226.01
868.13	226.16
868.44	226.08
868.75	226.19
869.06	226.24
869.37	226.28
869.68	226.15
869.99	226.28
870.30	226.36
870.61	226.41
870.92	226.38
871.23	226.35
871.54	226.44
871.85	226.54
872.16	226.60
872.47	226.56
872.78	226.33
873.09	226.38
873.40	226.33
873.71	226.38
874.02	226.43
874.33	226.41
874.64	226.30
874.95	226.42
875.26	226.34
875.56	226.34
875.87	226.35
876.18	226.38
876.49	226.89
876.80	226.86
877.11	226.78
877.42	226.84
877.73	226.79
878.04	226.74
878.35	226.75
878.66	226.81
878.96	226.87
879.27	226.90
879.58	226.84
879.89	226.83
880.20	226.95
880.51	226.94
880.82	226.98
881.12	227.01
881.43	226.93
881.74	226.81
882.05	226.77
882.36	226.85
882.67	226.85
882.97	226.33
883.28	226.29
883.59	226.30
883.90	226.38
884.21	226.59
884.51	226.56
884.82	226.46
885.13	226.39
885.44	226.36
885.74	226.32
886.05	226.32
886.36	226.33
886.67	226.17
886.98	226.44
887.28	226.48
887.59	226.55
887.90	226.58
888.20	226.59
888.51	226.75
888.82	226.56
889.13	226.54
889.43	226.92
889.74	226.91
890.05	226.88
890.35	226.75
890.66	226.54
890.97	226.45
891.28	226.39
891.58	226.31
891.89	226.30
892.20	226.23
892.50	226.14
892.81	226.05
893.12	226.03
893.42	225.69
893.73	225.71
894.04	225.68
894.34	225.69
894.65	225.65
894.95	225.58
895.26	225.67
895.57	225.85
895.87	225.37
896.18	225.42
896.48	225.37
896.79	225.31
897.10	225.39
897.40	225.49
897.71	225.53
898.01	225.56
898.32	225.64
898.63	225.56
898.93	225.62
899.24	225.65
899.54	225.67
899.85	225.64
900.15	225.58
900.46	225.55
900.76	225.56
901.07	225.51
901.38	225.39
901.68	225.34
901.99	225.17
902.29	225.23
902.60	225.23
902.90	225.18
903.21	225.22
903.51	225.12
903.82	225.16
904.12	225.19
904.43	225.22
904.73	225.14
905.03	225.23
905.34	225.74
905.64	225.71
905.95	225.60
906.25	225.60
906.56	225.55
906.86	225.55
907.17	225.45
907.47	225.56
907.77	225.58
908.08	225.55
908.38	225.56
908.69	225.60
908.99	225.65
909.30	225.73
909.60	225.71
909.90	225.83
910.21	225.70
910.51	225.64
910.81	225.66
911.12	225.70
911.42	225.75
911.73	225.20
912.03	225.25
912.33	225.42
912.64	225.50
912.94	225.48
913.24	225.43
913.55	225.45
913.85	225.44
914.15	225.57
914.46	225.64
914.76	225.58
915.06	225.53
915.37	225.40
915.67	225.41
915.97	225.48
916.27	225.38
916.58	225.43
916.88	225.50
917.18	225.48
917.49	225.80
917.79	225.72
918.09	225.88
918.39	226.03
918.70	225.99
919.00	225.97
919.30	226.21
919.60	226.19
919.91	226.23
920.21	226.34
920.51	226.23
920.81	226.21
921.12	226.31
921.42	226.32
921.72	226.41
922.02	226.46
922.32	226.57
922.63	226.63
922.93	226.85
923.23	226.84
923.53	226.81
923.83	226.55
924.13	226.65
924.44	226.66
924.74	226.79
925.04	226.95
925.34	227.00
925.64	226.82
925.94	226.86
926.24	227.10
926.55	226.93
926.85	227.00
927.15	227.01
927.45	227.06
927.75	226.98
928.05	227.07
928.35	227.00
928.65	226.94
928.95	226.97
929.26	226.79
929.56	226.94
929.86	227.04
930.16	226.97
930.46	226.95
930.76	226.93
931.06	226.56
931.36	226.37
931.66	226.40
931.96	226.48
932.26	226.52
932.56	226.25
932.86	226.38
933.16	226.40
933.46	226.31
933.76	226.13
934.06	226.31
934.36	226.39
934.66	226.38
934.96	226.36
935.26	226.35
935.56	226.39
935.86	226.14
936.16	225.99
936.46	225.92
936.76	225.86
937.06	225.75
937.36	225.82
937.66	225.86
937.96	225.80
938.26	225.63
938.56	225.55
938.86	225.59
939.16	225.61
939.46	225.56
939.76	225.65
940.06	225.65
940.35	225.51
940.65	225.29
940.95	225.37
941.25	225.24
941.55	225.16
941.85	225.10
942.15	225.25
942.45	225.40
942.75	225.39
943.04	225.41
943.34	225.54
943.64	225.49
943.94	225.38
944.24	225.37
944.54	225.45
944.84	225.48
945.13	225.43
945.43	225.36
945.73	225.34
946.03	225.30
946.33	225.32
946.62	225.33
946.92	225.35
947.22	225.29
947.52	225.34
947.82	225.46
948.11	225.41
948.41	225.37
948.71	225.18
949.01	225.27
949.31	225.20
949.60	225.11
949.90	225.20
950.20	225.27
950.50	225.37
950.79	225.35
951.09	225.36
951.39	225.34
951.69	225.31
951.98	225.41
952.28	225.37
952.58	225.34
952.87	225.32
953.17	225.33
953.47	225.37
953.76	225.40
954.06	225.32
954.36	225.22
954.66	225.15
954.95	225.34
955.25	225.36
955.55	225.49
955.84	225.47
956.14	225.60
956.44	225.63
956.73	225.50
957.03	225.54
957.32	225.59
957.62	225.60
957.92	225.78
958.21	225.72
958.51	226.24
958.81	226.37
959.10	226.45
959.40	226.62
959.69	226.59
959.99	226.63
960.29	226.66
960.58	226.79
960.88	227.01
961.17	226.97
961.47	227.04
961.76	226.97
962.06	227.04
962.36	226.89
962.65	226.86
962.95	226.89
963.24	226.83
963.54	226.83
963.83	226.90
964.13	226.83
964.42	226.75
964.72	226.43
965.01	226.38
965.31	226.31
965.60	226.19
965.90	226.52
966.19	226.38
966.49	226.44
966.78	226.36
967.08	226.32
967.37	226.32
967.67	226.26
967.96	226.36
968.26	226.39
968.55	226.50
968.85	226.53
969.14	226.50
969.43	226.54
969.73	226.52
970.02	226.46
970.32	226.41
970.61	226.48
970.91	226.35
971.20	226.30
971.49	226.28
971.79	226.37
972.08	226.08
972.38	226.21
972.67	226.21
972.96	226.30
973.26	226.20
973.55	226.32
973.85	226.32
974.14	226.19
974.43	226.16
974.73	226.11
975.02	226.04
975.31	225.99
975.61	225.93
975.90	225.89
976.19	225.84
976.49	225.89
976.78	225.87
977.07	225.89
977.37	225.90
977.66	225.97
977.95	225.80
978.24	225.75
978.54	225.85
978.83	225.73
979.12	225.70
979.42	225.67
979.71	225.63
980.00	225.52
980.29	225.56
980.59	225.52
980.88	225.55
981.17	225.57
981.46	225.70
981.76	225.73
982.05	225.85
982.34	225.90
982.63	225.87
982.93	225.88
983.22	225.95
983.51	226.00
983.80	226.06
984.09	226.12
984.39	226.12
984.68	226.04
984.97	226.05
985.26	226.01
985.55	226.09
985.85	225.90
986.14	226.06
986.43	226.14
986.72	226.10
987.01	225.99
987.30	226.02
987.59	225.92
987.89	225.97
988.18	225.82
988.47	225.76
988.76	225.79
989.05	225.70
989.34	225.65
989.63	225.75
989.92	225.67
990.22	225.64
990.51	225.68
990.80	225.65
991.09	225.69
991.38	225.71
991.67	225.63
991.96	225.65
992.25	225.66
992.54	225.55
992.83	225.56
993.12	225.53
993.41	225.53
993.70	225.77
993.99	225.87
994.28	225.96
994.58	226.08
994.87	225.97
995.16	225.95
995.45	225.95
995.74	225.77
996.03	225.85
996.32	225.91
996.61	225.96
996.90	225.98
997.19	225.99
997.48	226.05
997.77	226.05
998.06	226.15
998.34	226.05
998.63	226.10
998.92	226.10
999.21	226.24
999.50	226.30
999.79	226.15
1000.08	226.12
1000.37	226.15
1000.66	226.19
1000.95	226.34
1001.24	226.41
1001.53	226.47
1001.82	226.48
1002.11	226.41
1002.40	226.43
1002.68	226.58
1002.97	226.83
1003.26	226.78
1003.55	226.69
1003.84	226.73
1004.13	226.81
1004.42	226.83
1004.71	226.85
1004.99	226.86
1005.28	226.98
1005.57	226.94
1005.86	226.83
1006.15	226.68
1006.44	226.56
1006.72	226.50
1007.01	226.40
1007.30	226.44
1007.59	226.32
1007.88	226.30
1008.17	226.33
1008.45	226.29
1008.74	226.06
1009.03	225.89
1009.32	225.89
1009.60	225.84
1009.89	225.77
1010.18	225.62
1010.47	225.57
1010.76	225.50
1011.04	225.47
1011.33	225.40
1011.62	225.37
1011.91	225.41
1012.19	225.50
1012.48	225.53
1012.77	225.51
1013.05	225.70
1013.34	225.68
1013.63	225.66
1013.92	225.73
1014.20	225.62
1014.49	225.55
1014.78	225.58
1015.06	225.39
1015.35	225.40
1015.64	225.53
1015.92	225.56
1016.21	225.52
1016.50	225.45
1016.78	225.59
1017.07	225.62
1017.36	225.56
1017.64	225.55
1017.93	225.67
1018.22	225.61
1018.50	225.52
1018.79	225.49
1019.08	225.33
1019.36	225.31
1019.65	225.36
1019.93	225.40
1020.22	225.44
1020.51	225.70
1020.79	225.57
1021.08	224.75
1021.36	223.55
1021.65	225.55
1021.94	225.90
1022.22	225.25
1022.51	226.25
1022.79	226.35
1023.08	225.00
1023.36	230.55
1023.65	222.80
>>>>>End Processed Spectral Data<<<<<
