SpectraSuite Data File
++++++++++++++++++++++++++++++++++++
Date: Wed Sep 04 18:03:57 EDT 2013
User: lab3
Dark Spectrum Present: Yes
Reference Spectrum Present: No
Number of Sampled Component Spectra: 1
Spectrometers: USB2E7196
Integration Time (usec): 170000 (USB2E7196)
Spectra Averaged: 20 (USB2E7196)
Boxcar Smoothing: 10 (USB2E7196)
Correct for Electrical Dark: No (USB2E7196)
Strobe/Lamp Enabled: No (USB2E7196)
Correct for Detector Non-linearity: No (USB2E7196)
Correct for Stray Light: No (USB2E7196)
Number of Pixels in Processed Spectrum: 2048
>>>>>Begin Processed Spectral Data<<<<<
339.09	0.00
339.48	213.45
339.86	215.00
340.24	215.75
340.63	217.05
341.01	226.20
341.39	220.35
341.78	221.70
342.16	224.40
342.54	223.60
342.93	212.82
343.31	223.57
343.69	224.16
344.07	224.62
344.46	225.15
344.84	225.60
345.22	225.58
345.60	225.94
345.99	226.14
346.37	226.21
346.75	226.28
347.13	226.39
347.52	226.50
347.90	226.67
348.28	226.75
348.66	226.80
349.05	226.67
349.43	226.71
349.81	226.74
350.19	226.72
350.57	226.79
350.96	226.89
351.34	227.01
351.72	227.04
352.10	227.10
352.48	227.13
352.87	227.12
353.25	227.21
353.63	227.15
354.01	227.21
354.39	227.36
354.77	227.45
355.15	227.58
355.54	227.57
355.92	227.51
356.30	227.50
356.68	227.95
357.06	227.98
357.44	227.95
357.82	228.05
358.20	228.56
358.58	228.55
358.97	228.67
359.35	228.80
359.73	228.93
360.11	229.09
360.49	229.16
360.87	229.24
361.25	229.32
361.63	229.54
362.01	229.60
362.39	229.54
362.77	229.64
363.15	229.66
363.53	229.76
363.91	229.75
364.29	229.83
364.67	229.43
365.05	229.55
365.43	229.66
365.81	229.74
366.19	229.55
366.57	229.80
366.95	229.65
367.33	229.54
367.71	229.63
368.09	229.65
368.47	229.60
368.85	229.58
369.23	229.66
369.61	229.50
369.99	229.66
370.37	229.82
370.75	230.05
371.13	229.91
371.51	229.83
371.89	229.89
372.27	229.90
372.65	229.87
373.03	229.83
373.41	229.72
373.78	229.64
374.16	229.39
374.54	229.19
374.92	229.23
375.30	229.17
375.68	228.92
376.06	228.87
376.44	228.79
376.82	228.81
377.19	228.74
377.57	228.70
377.95	228.42
378.33	228.18
378.71	227.82
379.09	227.84
379.47	227.80
379.84	227.73
380.22	227.55
380.60	227.39
380.98	227.24
381.36	227.17
381.73	227.04
382.11	227.07
382.49	227.06
382.87	226.90
383.25	226.86
383.62	227.41
384.00	227.26
384.38	227.27
384.76	227.34
385.13	227.49
385.51	227.42
385.89	227.38
386.27	227.39
386.64	227.38
387.02	227.28
387.40	227.18
387.78	227.06
388.15	227.02
388.53	226.96
388.91	226.92
389.29	226.88
389.66	226.87
390.04	226.75
390.42	226.80
390.79	226.83
391.17	226.83
391.55	226.19
391.92	226.23
392.30	226.27
392.68	226.11
393.05	226.04
393.43	226.04
393.81	226.06
394.18	226.05
394.56	226.11
394.94	226.27
395.31	226.29
395.69	226.55
396.06	226.64
396.44	226.78
396.82	226.84
397.19	227.16
397.57	227.20
397.95	227.37
398.32	227.29
398.70	227.41
399.07	227.47
399.45	227.69
399.82	227.70
400.20	227.74
400.58	227.79
400.95	227.68
401.33	227.88
401.70	228.33
402.08	228.50
402.45	228.58
402.83	228.79
403.20	228.99
403.58	229.08
403.95	229.35
404.33	229.60
404.71	229.80
405.08	230.20
405.46	230.47
405.83	230.75
406.21	230.95
406.58	231.29
406.96	231.59
407.33	231.99
407.70	232.42
408.08	233.14
408.45	233.65
408.83	234.17
409.20	234.55
409.58	234.73
409.95	235.28
410.33	235.83
410.70	236.25
411.08	236.86
411.45	237.45
411.82	238.07
412.20	238.83
412.57	239.81
412.95	240.15
413.32	241.02
413.69	241.81
414.07	242.76
414.44	243.69
414.82	244.78
415.19	245.90
415.56	247.16
415.94	248.20
416.31	249.64
416.68	251.01
417.06	252.61
417.43	254.19
417.81	255.91
418.18	257.77
418.55	259.69
418.93	261.79
419.30	263.87
419.67	266.10
420.04	268.42
420.42	270.76
420.79	273.94
421.16	276.69
421.54	279.73
421.91	282.84
422.28	285.93
422.66	289.32
423.03	292.70
423.40	295.88
423.77	299.48
424.15	303.10
424.52	306.99
424.89	311.21
425.26	315.24
425.64	318.99
426.01	323.25
426.38	327.65
426.75	332.08
427.13	336.77
427.50	341.49
427.87	346.38
428.24	351.39
428.61	355.94
428.99	361.33
429.36	366.86
429.73	372.35
430.10	378.00
430.47	383.53
430.85	389.31
431.22	395.70
431.59	402.43
431.96	408.71
432.33	415.66
432.70	422.29
433.08	430.18
433.45	437.65
433.82	445.14
434.19	453.46
434.56	461.60
434.93	469.30
435.30	477.14
435.68	485.74
436.05	494.24
436.42	502.68
436.79	510.64
437.16	518.96
437.53	527.76
437.90	536.52
438.27	545.20
438.64	554.00
439.01	562.29
439.38	569.54
439.75	576.72
440.13	584.90
440.50	592.70
440.87	598.91
441.24	605.47
441.61	612.42
441.98	617.57
442.35	623.43
442.72	629.54
443.09	635.32
443.46	638.73
443.83	641.10
444.20	642.79
444.57	645.39
444.94	646.52
445.31	647.63
445.68	648.99
446.05	649.18
446.42	648.02
446.79	646.52
447.16	645.04
447.53	643.67
447.90	639.77
448.27	635.87
448.64	630.76
449.01	626.98
449.37	620.76
449.74	614.63
450.11	607.81
450.48	599.92
450.85	591.87
451.22	584.98
451.59	578.25
451.96	571.89
452.33	563.57
452.70	556.20
453.07	547.49
453.43	538.15
453.80	529.65
454.17	521.40
454.54	513.75
454.91	505.34
455.28	497.33
455.65	489.89
456.02	482.91
456.38	476.70
456.75	468.80
457.12	462.18
457.49	455.80
457.86	449.35
458.23	444.18
458.59	438.53
458.96	432.76
459.33	427.55
459.70	422.52
460.07	418.33
460.43	413.57
460.80	409.30
461.17	405.59
461.54	401.69
461.91	397.93
462.27	393.95
462.64	390.73
463.01	387.24
463.38	383.86
463.74	380.05
464.11	376.92
464.48	374.25
464.85	371.43
465.21	369.24
465.58	366.92
465.95	363.97
466.32	361.64
466.68	359.37
467.05	357.15
467.42	354.94
467.78	352.71
468.15	350.55
468.52	348.94
468.88	346.73
469.25	344.74
469.62	343.27
469.98	341.68
470.35	340.23
470.72	338.68
471.08	337.03
471.45	335.75
471.82	334.56
472.18	333.30
472.55	332.33
472.92	331.01
473.28	329.86
473.65	328.86
474.02	327.85
474.38	326.99
474.75	326.19
475.11	325.34
475.48	324.76
475.85	324.20
476.21	323.57
476.58	323.16
476.94	322.85
477.31	322.41
477.67	322.00
478.04	321.60
478.41	321.43
478.77	321.77
479.14	321.43
479.50	321.28
479.87	321.22
480.23	321.19
480.60	321.18
480.96	321.21
481.33	321.64
481.69	321.86
482.06	322.09
482.42	322.40
482.79	322.75
483.15	323.19
483.52	323.69
483.88	324.09
484.25	324.61
484.61	325.21
484.98	325.83
485.34	326.85
485.71	327.78
486.07	328.74
486.44	329.32
486.80	330.40
487.17	331.57
487.53	332.99
487.90	334.40
488.26	336.09
488.62	337.86
488.99	339.33
489.35	341.13
489.72	343.03
490.08	344.98
490.44	347.10
490.81	349.31
491.17	351.55
491.54	354.10
491.90	356.72
492.26	359.40
492.63	362.20
492.99	364.96
493.36	368.03
493.72	371.42
494.08	374.75
494.45	378.45
494.81	382.24
495.17	386.08
495.54	390.29
495.90	394.42
496.26	398.86
496.63	403.46
496.99	408.28
497.35	413.26
497.72	418.70
498.08	424.16
498.44	429.79
498.80	435.81
499.17	441.98
499.53	448.27
499.89	455.02
500.26	461.79
500.62	468.78
500.98	476.19
501.34	483.49
501.71	491.41
502.07	499.21
502.43	507.44
502.79	515.81
503.16	524.52
503.52	533.69
503.88	542.84
504.24	552.43
504.60	562.39
504.97	572.76
505.33	583.20
505.69	594.29
506.05	605.23
506.41	616.61
506.78	628.13
507.14	640.18
507.50	652.45
507.86	665.20
508.22	678.33
508.59	691.49
508.95	705.44
509.31	719.52
509.67	733.90
510.03	748.33
510.39	763.05
510.75	777.93
511.12	793.13
511.48	808.94
511.84	825.01
512.20	841.29
512.56	857.59
512.92	874.26
513.28	891.14
513.64	908.54
514.00	925.87
514.37	943.81
514.73	961.73
515.09	980.15
515.45	998.66
515.81	1017.05
516.17	1035.78
516.53	1054.29
516.89	1073.08
517.25	1092.57
517.61	1112.76
517.97	1133.37
518.33	1153.60
518.69	1173.99
519.05	1194.54
519.41	1215.10
519.77	1235.98
520.13	1256.81
520.49	1277.58
520.85	1300.01
521.21	1321.37
521.57	1342.93
521.93	1363.92
522.29	1385.49
522.65	1406.20
523.01	1427.26
523.37	1448.16
523.73	1469.59
524.09	1490.12
524.45	1510.92
524.81	1531.82
525.17	1552.56
525.53	1573.10
525.89	1594.25
526.25	1615.25
526.61	1635.79
526.97	1656.97
527.33	1678.28
527.68	1700.29
528.04	1721.72
528.40	1741.21
528.76	1762.14
529.12	1782.30
529.48	1803.00
529.84	1823.11
530.20	1844.57
530.56	1865.45
530.91	1886.41
531.27	1906.65
531.63	1927.66
531.99	1948.66
532.35	1969.01
532.71	1989.28
533.07	2010.17
533.42	2029.80
533.78	2049.57
534.14	2069.30
534.50	2088.35
534.86	2107.41
535.21	2125.10
535.57	2143.55
535.93	2161.61
536.29	2179.66
536.65	2198.30
537.00	2215.89
537.36	2233.49
537.72	2250.01
538.08	2267.07
538.44	2284.02
538.79	2300.89
539.15	2317.83
539.51	2333.68
539.87	2349.02
540.22	2363.39
540.58	2377.75
540.94	2391.72
541.29	2404.89
541.65	2417.71
542.01	2430.76
542.37	2441.86
542.72	2453.04
543.08	2464.04
543.44	2476.13
543.79	2486.39
544.15	2496.21
544.51	2506.64
544.87	2516.34
545.22	2525.00
545.58	2532.92
545.94	2540.35
546.29	2546.78
546.65	2553.02
547.01	2558.55
547.36	2564.15
547.72	2569.78
548.07	2573.99
548.43	2579.02
548.79	2583.97
549.14	2588.41
549.50	2592.20
549.86	2596.29
550.21	2599.92
550.57	2603.33
550.92	2604.52
551.28	2605.89
551.64	2608.49
551.99	2610.59
552.35	2612.59
552.70	2614.72
553.06	2616.55
553.41	2617.74
553.77	2619.78
554.13	2621.35
554.48	2622.97
554.84	2624.40
555.19	2625.80
555.55	2627.22
555.90	2626.76
556.26	2626.03
556.61	2624.51
556.97	2622.45
557.32	2622.04
557.68	2621.28
558.03	2619.60
558.39	2618.56
558.74	2617.94
559.10	2614.83
559.45	2611.42
559.81	2606.96
560.16	2602.23
560.52	2597.67
560.87	2593.33
561.23	2587.60
561.58	2581.44
561.94	2574.90
562.29	2567.55
562.64	2560.37
563.00	2552.35
563.35	2545.95
563.71	2539.10
564.06	2532.96
564.42	2526.49
564.77	2519.39
565.12	2511.53
565.48	2504.03
565.83	2496.19
566.19	2488.06
566.54	2480.45
566.89	2472.20
567.25	2464.48
567.60	2456.92
567.96	2449.11
568.31	2441.09
568.66	2432.48
569.02	2423.76
569.37	2415.56
569.72	2408.07
570.08	2398.65
570.43	2389.10
570.78	2380.08
571.14	2370.37
571.49	2360.25
571.84	2350.59
572.20	2339.45
572.55	2329.61
572.90	2318.62
573.26	2308.29
573.61	2297.15
573.96	2285.73
574.31	2273.72
574.67	2261.84
575.02	2249.17
575.37	2236.50
575.72	2223.13
576.08	2210.98
576.43	2198.50
576.78	2185.15
577.13	2171.10
577.49	2158.57
577.84	2146.76
578.19	2134.43
578.54	2121.95
578.90	2109.89
579.25	2097.39
579.60	2084.96
579.95	2071.81
580.30	2058.83
580.66	2045.25
581.01	2031.62
581.36	2017.69
581.71	2005.16
582.06	1991.85
582.42	1979.00
582.77	1966.24
583.12	1954.08
583.47	1941.84
583.82	1929.64
584.17	1917.67
584.53	1906.15
584.88	1893.09
585.23	1879.82
585.58	1865.37
585.93	1852.19
586.28	1838.55
586.63	1824.52
586.98	1810.42
587.34	1796.97
587.69	1783.68
588.04	1770.81
588.39	1758.62
588.74	1746.05
589.09	1733.68
589.44	1721.25
589.79	1709.48
590.14	1697.26
590.49	1685.16
590.84	1672.96
591.19	1660.86
591.54	1648.37
591.89	1635.84
592.25	1625.40
592.60	1613.99
592.95	1602.75
593.30	1590.68
593.65	1578.72
594.00	1566.89
594.35	1556.75
594.70	1545.14
595.05	1533.67
595.40	1521.63
595.75	1509.36
596.10	1498.56
596.45	1486.83
596.80	1475.93
597.15	1464.33
597.50	1452.62
597.85	1441.19
598.19	1429.42
598.54	1417.63
598.89	1406.23
599.24	1395.70
599.59	1383.98
599.94	1372.81
600.29	1361.96
600.64	1351.40
600.99	1340.33
601.34	1330.53
601.69	1319.32
602.04	1309.20
602.39	1299.52
602.74	1290.30
603.08	1281.06
603.43	1271.22
603.78	1261.62
604.13	1251.75
604.48	1241.80
604.83	1232.23
605.18	1222.70
605.53	1212.90
605.87	1203.82
606.22	1195.39
606.57	1185.80
606.92	1176.25
607.27	1167.25
607.62	1158.47
607.96	1149.94
608.31	1142.28
608.66	1133.94
609.01	1125.37
609.36	1116.73
609.70	1107.91
610.05	1099.08
610.40	1090.49
610.75	1081.72
611.10	1073.05
611.44	1064.45
611.79	1056.23
612.14	1048.12
612.49	1039.95
612.83	1032.46
613.18	1024.46
613.53	1016.42
613.88	1008.45
614.22	1000.78
614.57	992.84
614.92	985.08
615.27	977.51
615.61	969.48
615.96	961.76
616.31	954.17
616.65	947.22
617.00	939.87
617.35	932.43
617.70	925.29
618.04	918.26
618.39	911.40
618.74	904.87
619.08	897.83
619.43	890.61
619.78	883.40
620.12	876.43
620.47	869.49
620.82	862.47
621.16	855.64
621.51	849.39
621.85	842.88
622.20	836.06
622.55	829.17
622.89	822.72
623.24	816.07
623.59	809.74
623.93	803.07
624.28	796.75
624.62	791.17
624.97	785.13
625.32	779.27
625.66	773.20
626.01	766.96
626.35	761.37
626.70	755.79
627.04	750.63
627.39	744.85
627.73	739.50
628.08	734.23
628.43	728.81
628.77	723.10
629.12	717.75
629.46	712.78
629.81	708.09
630.15	703.17
630.50	698.11
630.84	693.06
631.19	688.24
631.53	683.64
631.88	678.15
632.22	673.27
632.57	668.82
632.91	664.16
633.26	659.67
633.60	655.16
633.95	650.50
634.29	645.44
634.64	640.99
634.98	636.01
635.32	631.53
635.67	627.43
636.01	623.29
636.36	618.95
636.70	615.10
637.05	610.79
637.39	606.69
637.73	602.59
638.08	598.61
638.42	594.46
638.77	590.15
639.11	585.78
639.45	581.46
639.80	576.87
640.14	572.64
640.49	568.74
640.83	564.84
641.17	561.20
641.52	557.57
641.86	554.00
642.20	551.01
642.55	547.26
642.89	543.54
643.23	539.96
643.58	536.85
643.92	533.00
644.26	529.60
644.61	526.24
644.95	522.87
645.29	519.40
645.64	516.16
645.98	513.04
646.32	510.25
646.66	507.24
647.01	504.25
647.35	501.49
647.69	498.42
648.04	495.52
648.38	492.63
648.72	489.71
649.06	486.65
649.41	483.47
649.75	480.50
650.09	477.65
650.43	474.71
650.78	471.65
651.12	468.94
651.46	466.05
651.80	463.50
652.14	460.86
652.49	458.37
652.83	455.83
653.17	453.22
653.51	450.54
653.85	448.08
654.20	445.55
654.54	442.95
654.88	440.46
655.22	438.35
655.56	435.84
655.90	433.39
656.25	431.15
656.59	428.82
656.93	426.73
657.27	424.67
657.61	422.20
657.95	420.06
658.29	417.75
658.64	415.65
658.98	413.18
659.32	410.96
659.66	408.62
660.00	406.39
660.34	404.28
660.68	402.15
661.02	400.01
661.36	398.10
661.70	396.08
662.05	394.15
662.39	392.04
662.73	390.08
663.07	388.50
663.41	386.57
663.75	384.62
664.09	382.69
664.43	380.73
664.77	379.14
665.11	377.30
665.45	375.58
665.79	373.90
666.13	372.23
666.47	370.46
666.81	368.88
667.15	367.21
667.49	365.67
667.83	364.35
668.17	362.85
668.51	361.30
668.85	359.93
669.19	358.77
669.53	357.23
669.87	355.88
670.21	354.31
670.55	353.00
670.89	351.89
671.23	350.57
671.57	349.12
671.91	347.64
672.25	346.33
672.58	345.17
672.92	343.67
673.26	342.45
673.60	341.28
673.94	340.10
674.28	338.96
674.62	337.84
674.96	336.54
675.30	335.25
675.64	334.14
675.97	332.85
676.31	331.35
676.65	330.03
676.99	329.00
677.33	327.81
677.67	326.71
678.01	325.38
678.34	324.33
678.68	323.39
679.02	322.33
679.36	321.32
679.70	320.26
680.04	319.49
680.37	318.53
680.71	317.50
681.05	316.57
681.39	315.70
681.73	314.75
682.06	313.81
682.40	312.99
682.74	312.08
683.08	311.40
683.42	310.49
683.75	309.75
684.09	308.80
684.43	308.10
684.77	307.16
685.10	306.47
685.44	305.63
685.78	304.83
686.12	304.06
686.45	303.29
686.79	302.44
687.13	301.71
687.46	300.90
687.80	300.26
688.14	299.40
688.48	298.64
688.81	297.81
689.15	297.21
689.49	296.53
689.82	295.92
690.16	295.05
690.50	294.36
690.83	293.66
691.17	292.92
691.51	292.15
691.84	291.59
692.18	290.81
692.52	290.06
692.85	289.47
693.19	289.12
693.52	288.40
693.86	287.78
694.20	287.09
694.53	286.50
694.87	285.84
695.21	285.26
695.54	284.69
695.88	284.05
696.21	283.27
696.55	282.62
696.88	281.97
697.22	281.40
697.56	281.01
697.89	280.38
698.23	279.92
698.56	279.40
698.90	278.92
699.23	278.38
699.57	277.95
699.90	277.33
700.24	276.57
700.58	276.16
700.91	275.65
701.25	275.46
701.58	275.34
701.92	274.95
702.25	274.48
702.59	273.95
702.92	273.53
703.26	273.13
703.59	272.68
703.93	272.61
704.26	272.18
704.60	271.67
704.93	271.32
705.26	270.77
705.60	270.31
705.93	269.75
706.27	269.48
706.60	269.16
706.94	268.96
707.27	268.60
707.61	268.22
707.94	267.86
708.27	267.06
708.61	266.29
708.94	265.86
709.28	265.46
709.61	265.04
709.94	264.74
710.28	264.30
710.61	263.95
710.95	263.17
711.28	263.17
711.61	262.81
711.95	262.51
712.28	262.17
712.61	261.79
712.95	261.70
713.28	261.54
713.61	261.06
713.95	260.50
714.28	260.17
714.61	259.73
714.95	259.44
715.28	259.14
715.61	258.77
715.95	258.48
716.28	258.11
716.61	257.91
716.95	257.48
717.28	257.20
717.61	256.85
717.94	256.59
718.28	255.88
718.61	255.50
718.94	255.05
719.27	254.83
719.61	254.66
719.94	254.23
720.27	253.71
720.60	253.49
720.94	253.29
721.27	253.11
721.60	252.96
721.93	252.67
722.27	252.53
722.60	252.37
722.93	252.08
723.26	251.92
723.59	251.55
723.93	251.46
724.26	251.31
724.59	251.22
724.92	251.05
725.25	251.00
725.59	250.79
725.92	250.74
726.25	250.55
726.58	250.34
726.91	250.17
727.24	250.07
727.57	249.92
727.91	249.66
728.24	249.47
728.57	249.27
728.90	249.21
729.23	248.91
729.56	248.99
729.89	248.84
730.22	248.67
730.55	248.58
730.89	248.37
731.22	248.22
731.55	248.05
731.88	247.85
732.21	247.61
732.54	247.47
732.87	247.34
733.20	247.18
733.53	247.06
733.86	246.98
734.19	246.73
734.52	246.58
734.85	246.78
735.18	246.57
735.51	246.58
735.84	246.41
736.17	246.40
736.50	245.98
736.83	246.37
737.16	246.25
737.49	246.17
737.82	246.04
738.15	245.89
738.48	245.68
738.81	245.58
739.14	245.42
739.47	245.23
739.80	245.05
740.13	244.96
740.46	244.65
740.79	244.40
741.12	244.37
741.45	244.18
741.78	243.77
742.11	243.81
742.44	243.55
742.77	243.53
743.10	243.37
743.43	243.21
743.75	242.60
744.08	243.09
744.41	242.89
744.74	242.67
745.07	242.46
745.40	242.40
745.73	242.43
746.06	242.33
746.39	242.25
746.71	242.08
747.04	241.82
747.37	241.79
747.70	241.69
748.03	241.48
748.36	241.46
748.68	241.25
749.01	240.90
749.34	240.80
749.67	240.57
750.00	240.49
750.33	240.70
750.65	240.63
750.98	239.86
751.31	239.71
751.64	239.63
751.97	239.76
752.29	239.54
752.62	239.19
752.95	238.98
753.28	238.85
753.60	238.73
753.93	238.77
754.26	238.69
754.59	238.40
754.91	238.29
755.24	238.08
755.57	238.10
755.90	237.99
756.22	237.79
756.55	237.61
756.88	237.34
757.20	237.03
757.53	236.72
757.86	236.58
758.19	236.47
758.51	236.38
758.84	236.07
759.17	235.93
759.49	235.80
759.82	235.99
760.15	235.92
760.47	235.80
760.80	235.62
761.13	235.55
761.45	235.52
761.78	235.38
762.11	235.31
762.43	235.08
762.76	234.98
763.08	234.98
763.41	234.95
763.74	234.95
764.06	234.79
764.39	234.75
764.71	234.63
765.04	234.51
765.37	234.28
765.69	234.21
766.02	234.15
766.34	234.06
766.67	233.76
767.00	233.68
767.32	233.88
767.65	234.08
767.97	233.96
768.30	233.83
768.62	233.65
768.95	233.55
769.27	233.51
769.60	233.55
769.92	233.35
770.25	233.13
770.57	232.98
770.90	232.85
771.22	232.73
771.55	232.69
771.87	232.73
772.20	232.79
772.52	233.17
772.85	233.66
773.17	233.65
773.50	233.60
773.82	233.53
774.15	233.20
774.47	232.79
774.80	232.68
775.12	232.68
775.45	232.69
775.77	232.65
776.09	232.65
776.42	232.60
776.74	232.74
777.07	232.80
777.39	232.74
777.72	232.77
778.04	232.82
778.36	232.77
778.69	232.72
779.01	232.73
779.33	232.24
779.66	231.74
779.98	231.58
780.31	231.59
780.63	231.80
780.95	231.79
781.28	231.81
781.60	231.79
781.92	231.78
782.25	231.78
782.57	231.82
782.89	231.79
783.22	231.70
783.54	231.51
783.86	231.52
784.19	231.46
784.51	231.54
784.83	231.35
785.16	231.30
785.48	231.21
785.80	231.12
786.12	231.16
786.45	231.05
786.77	231.13
787.09	231.04
787.42	230.75
787.74	230.79
788.06	230.74
788.38	230.67
788.71	230.55
789.03	230.57
789.35	230.55
789.67	230.44
789.99	230.48
790.32	230.41
790.64	230.40
790.96	230.81
791.28	230.59
791.61	230.69
791.93	230.76
792.25	230.81
792.57	231.15
792.89	230.99
793.21	231.08
793.54	231.07
793.86	230.98
794.18	231.03
794.50	230.95
794.82	231.02
795.14	231.07
795.47	231.23
795.79	231.21
796.11	231.10
796.43	231.15
796.75	231.09
797.07	231.08
797.39	231.01
797.71	230.69
798.04	230.75
798.36	230.79
798.68	230.72
799.00	230.65
799.32	230.40
799.64	230.44
799.96	230.37
800.28	230.45
800.60	230.44
800.92	230.42
801.24	230.43
801.56	230.42
801.89	230.35
802.21	230.31
802.53	230.15
802.85	230.23
803.17	230.36
803.49	230.23
803.81	230.21
804.13	230.22
804.45	230.07
804.77	230.02
805.09	229.95
805.41	229.88
805.73	229.77
806.05	229.60
806.37	229.62
806.69	229.48
807.01	229.36
807.33	229.36
807.65	229.16
807.97	229.28
808.28	229.18
808.60	229.15
808.92	229.10
809.24	229.43
809.56	229.33
809.88	229.14
810.20	229.15
810.52	229.27
810.84	229.17
811.16	229.12
811.48	229.08
811.80	229.14
812.12	229.13
812.43	229.20
812.75	229.27
813.07	229.12
813.39	229.20
813.71	229.11
814.03	229.07
814.35	229.11
814.67	228.91
814.98	228.85
815.30	228.87
815.62	228.70
815.94	228.30
816.26	228.50
816.58	228.35
816.89	228.38
817.21	228.20
817.53	228.24
817.85	228.23
818.17	228.24
818.48	228.09
818.80	228.17
819.12	228.16
819.44	228.02
819.76	228.04
820.07	228.05
820.39	228.05
820.71	228.15
821.03	228.15
821.34	228.14
821.66	228.20
821.98	228.21
822.30	228.25
822.61	228.61
822.93	228.42
823.25	228.43
823.57	228.40
823.88	228.48
824.20	228.47
824.52	228.53
824.83	228.54
825.15	228.48
825.47	228.45
825.79	228.44
826.10	228.40
826.42	228.39
826.74	228.36
827.05	228.34
827.37	228.34
827.69	228.37
828.00	228.42
828.32	228.41
828.64	228.38
828.95	228.64
829.27	228.46
829.58	228.43
829.90	228.52
830.22	228.58
830.53	228.46
830.85	228.45
831.17	228.35
831.48	228.33
831.80	228.43
832.11	228.39
832.43	228.33
832.75	228.37
833.06	228.65
833.38	228.54
833.69	228.51
834.01	228.49
834.32	228.41
834.64	228.33
834.96	228.37
835.27	228.35
835.59	228.22
835.90	228.17
836.22	228.09
836.53	228.06
836.85	228.00
837.16	228.48
837.48	228.46
837.79	228.65
838.11	228.71
838.42	228.71
838.74	228.85
839.05	228.80
839.37	228.82
839.68	228.50
840.00	228.52
840.31	228.59
840.63	228.57
840.94	228.54
841.26	228.57
841.57	228.52
841.88	228.52
842.20	228.49
842.51	228.44
842.83	228.54
843.14	228.92
843.46	228.90
843.77	228.64
844.08	228.63
844.40	228.51
844.71	228.42
845.03	228.31
845.34	228.17
845.65	228.19
845.97	228.16
846.28	228.15
846.60	228.17
846.91	228.13
847.22	228.04
847.54	228.12
847.85	228.10
848.16	228.10
848.48	227.98
848.79	228.06
849.10	228.14
849.42	228.10
849.73	227.68
850.04	227.63
850.36	227.46
850.67	227.47
850.98	227.40
851.30	227.54
851.61	227.51
851.92	227.49
852.23	227.69
852.55	227.73
852.86	227.81
853.17	227.85
853.49	227.87
853.80	228.00
854.11	228.02
854.42	228.04
854.74	227.95
855.05	228.05
855.36	227.85
855.67	227.81
855.99	227.80
856.30	228.27
856.61	228.30
856.92	228.31
857.23	228.28
857.55	228.28
857.86	228.13
858.17	228.25
858.48	228.17
858.79	227.93
859.11	227.98
859.42	227.95
859.73	227.79
860.04	227.81
860.35	227.62
860.66	227.44
860.98	227.45
861.29	227.55
861.60	227.46
861.91	227.58
862.22	227.50
862.53	227.39
862.84	226.84
863.16	226.94
863.47	226.87
863.78	226.86
864.09	226.83
864.40	226.88
864.71	226.84
865.02	226.94
865.33	226.84
865.64	226.69
865.95	226.68
866.27	227.02
866.58	226.92
866.89	226.99
867.20	227.01
867.51	226.96
867.82	226.88
868.13	227.02
868.44	226.86
868.75	226.99
869.06	227.04
869.37	227.15
869.68	227.00
869.99	227.12
870.30	227.18
870.61	227.27
870.92	227.16
871.23	227.14
871.54	227.26
871.85	227.46
872.16	227.53
872.47	227.54
872.78	227.34
873.09	227.44
873.40	227.42
873.71	227.56
874.02	227.59
874.33	227.51
874.64	227.41
874.95	227.57
875.26	227.41
875.56	227.44
875.87	227.36
876.18	227.40
876.49	227.82
876.80	227.78
877.11	227.70
877.42	227.77
877.73	227.78
878.04	227.67
878.35	227.68
878.66	227.68
878.96	227.68
879.27	227.65
879.58	227.62
879.89	227.57
880.20	227.66
880.51	227.60
880.82	227.69
881.12	227.72
881.43	227.60
881.74	227.64
882.05	227.58
882.36	227.62
882.67	227.69
882.97	227.19
883.28	227.17
883.59	227.12
883.90	227.16
884.21	227.24
884.51	227.22
884.82	227.15
885.13	227.15
885.44	227.10
885.74	227.12
886.05	227.10
886.36	227.15
886.67	226.96
886.98	227.24
887.28	227.33
887.59	227.32
887.90	227.30
888.20	227.21
888.51	227.34
888.82	227.27
889.13	227.33
889.43	227.67
889.74	227.58
890.05	227.63
890.35	227.57
890.66	227.51
890.97	227.44
891.28	227.43
891.58	227.40
891.89	227.42
892.20	227.35
892.50	227.29
892.81	227.25
893.12	227.27
893.42	226.99
893.73	227.00
894.04	227.01
894.34	227.12
894.65	227.10
894.95	226.96
895.26	227.00
895.57	227.07
895.87	226.66
896.18	226.77
896.48	226.76
896.79	226.81
897.10	226.86
897.40	226.83
897.71	226.84
898.01	226.81
898.32	226.91
898.63	226.89
898.93	226.97
899.24	227.05
899.54	226.98
899.85	226.91
900.15	226.81
900.46	226.80
900.76	226.80
901.07	226.79
901.38	226.85
901.68	226.90
901.99	226.73
902.29	226.77
902.60	226.70
902.90	226.72
903.21	226.62
903.51	226.52
903.82	226.67
904.12	226.70
904.43	226.77
904.73	226.68
905.03	226.75
905.34	227.10
905.64	226.97
905.95	227.04
906.25	227.12
906.56	227.15
906.86	227.12
907.17	227.04
907.47	227.09
907.77	227.02
908.08	226.87
908.38	226.93
908.69	226.96
908.99	227.08
909.30	227.06
909.60	227.06
909.90	227.12
910.21	226.99
910.51	226.87
910.81	226.82
911.12	226.81
911.42	226.79
911.73	226.30
912.03	226.36
912.33	226.44
912.64	226.40
912.94	226.33
913.24	226.26
913.55	226.17
913.85	226.20
914.15	226.28
914.46	226.43
914.76	226.35
915.06	226.30
915.37	226.23
915.67	226.22
915.97	226.26
916.27	226.16
916.58	226.21
916.88	226.29
917.18	226.29
917.49	226.66
917.79	226.69
918.09	226.81
918.39	227.00
918.70	226.95
919.00	227.05
919.30	227.23
919.60	227.25
919.91	227.29
920.21	227.28
920.51	227.23
920.81	227.19
921.12	227.21
921.42	227.21
921.72	227.23
922.02	227.26
922.32	227.31
922.63	227.38
922.93	227.57
923.23	227.60
923.53	227.54
923.83	227.15
924.13	227.18
924.44	227.17
924.74	227.21
925.04	227.36
925.34	227.27
925.64	227.15
925.94	227.11
926.24	227.46
926.55	227.40
926.85	227.44
927.15	227.36
927.45	227.39
927.75	227.40
928.05	227.41
928.35	227.33
928.65	227.42
928.95	227.40
929.26	227.24
929.56	227.26
929.86	227.35
930.16	227.36
930.46	227.33
930.76	227.31
931.06	227.11
931.36	226.87
931.66	226.94
931.96	226.94
932.26	227.00
932.56	226.71
932.86	226.79
933.16	226.78
933.46	226.81
933.76	226.72
934.06	226.77
934.36	226.94
934.66	226.94
934.96	226.89
935.26	226.90
935.56	226.93
935.86	226.78
936.16	226.74
936.46	226.63
936.76	226.64
937.06	226.58
937.36	226.61
937.66	226.68
937.96	226.76
938.26	226.66
938.56	226.69
938.86	226.66
939.16	226.77
939.46	226.87
939.76	226.88
940.06	226.89
940.35	226.80
940.65	226.58
940.95	226.59
941.25	226.43
941.55	226.33
941.85	226.27
942.15	226.44
942.45	226.55
942.75	226.60
943.04	226.56
943.34	226.59
943.64	226.52
943.94	226.47
944.24	226.36
944.54	226.49
944.84	226.41
945.13	226.46
945.43	226.26
945.73	226.22
946.03	226.19
946.33	226.16
946.62	226.12
946.92	226.16
947.22	226.22
947.52	226.34
947.82	226.49
948.11	226.48
948.41	226.35
948.71	226.23
949.01	226.29
949.31	226.27
949.60	226.30
949.90	226.49
950.20	226.42
950.50	226.41
950.79	226.31
951.09	226.47
951.39	226.36
951.69	226.33
951.98	226.41
952.28	226.45
952.58	226.47
952.87	226.54
953.17	226.53
953.47	226.47
953.76	226.39
954.06	226.20
954.36	226.24
954.66	226.26
954.95	226.40
955.25	226.40
955.55	226.41
955.84	226.30
956.14	226.22
956.44	226.33
956.73	226.23
957.03	226.26
957.32	226.25
957.62	226.33
957.92	226.48
958.21	226.42
958.51	226.96
958.81	227.11
959.10	227.15
959.40	227.30
959.69	227.39
959.99	227.44
960.29	227.59
960.58	227.44
960.88	227.60
961.17	227.52
961.47	227.59
961.76	227.58
962.06	227.69
962.36	227.62
962.65	227.60
962.95	227.66
963.24	227.63
963.54	227.63
963.83	227.58
964.13	227.50
964.42	227.39
964.72	226.95
965.01	226.88
965.31	226.83
965.60	226.73
965.90	226.99
966.19	226.96
966.49	226.99
966.78	227.05
967.08	227.00
967.37	226.96
967.67	226.85
967.96	226.94
968.26	226.92
968.55	227.08
968.85	227.00
969.14	227.02
969.43	227.09
969.73	227.04
970.02	227.04
970.32	227.09
970.61	227.10
970.91	226.97
971.20	226.90
971.49	226.86
971.79	226.89
972.08	226.55
972.38	226.61
972.67	226.48
972.96	226.56
973.26	226.40
973.55	226.58
973.85	226.59
974.14	226.57
974.43	226.55
974.73	226.34
975.02	226.38
975.31	226.37
975.61	226.37
975.90	226.23
976.19	226.20
976.49	226.24
976.78	226.23
977.07	226.24
977.37	226.20
977.66	226.19
977.95	226.10
978.24	226.14
978.54	226.22
978.83	226.23
979.12	226.20
979.42	226.24
979.71	226.17
980.00	226.18
980.29	226.20
980.59	226.12
980.88	226.33
981.17	226.27
981.46	226.27
981.76	226.21
982.05	226.48
982.34	226.57
982.63	226.55
982.93	226.51
983.22	226.63
983.51	226.70
983.80	226.84
984.09	226.84
984.39	226.75
984.68	226.62
984.97	226.64
985.26	226.54
985.55	226.58
985.85	226.48
986.14	226.50
986.43	226.48
986.72	226.51
987.01	226.31
987.30	226.36
987.59	226.32
987.89	226.35
988.18	226.15
988.47	226.00
988.76	225.97
989.05	225.95
989.34	225.86
989.63	225.99
989.92	225.89
990.22	225.85
990.51	225.94
990.80	225.93
991.09	225.96
991.38	226.07
991.67	225.95
991.96	225.92
992.25	225.88
992.54	225.83
992.83	225.76
993.12	225.72
993.41	225.80
993.70	226.03
993.99	226.16
994.28	226.23
994.58	226.37
994.87	226.30
995.16	226.41
995.45	226.44
995.74	226.30
996.03	226.43
996.32	226.51
996.61	226.57
996.90	226.64
997.19	226.65
997.48	226.69
997.77	226.74
998.06	226.76
998.34	226.78
998.63	226.86
998.92	226.95
999.21	227.09
999.50	227.04
999.79	226.81
1000.08	226.70
1000.37	226.70
1000.66	226.64
1000.95	226.70
1001.24	226.67
1001.53	226.69
1001.82	226.67
1002.11	226.48
1002.40	226.58
1002.68	226.70
1002.97	227.02
1003.26	226.97
1003.55	226.91
1003.84	226.96
1004.13	227.18
1004.42	227.16
1004.71	227.17
1004.99	227.14
1005.28	227.29
1005.57	227.33
1005.86	227.37
1006.15	227.38
1006.44	227.37
1006.72	227.48
1007.01	227.53
1007.30	227.54
1007.59	227.46
1007.88	227.46
1008.17	227.55
1008.45	227.41
1008.74	227.24
1009.03	227.00
1009.32	226.98
1009.60	226.97
1009.89	226.94
1010.18	226.73
1010.47	226.67
1010.76	226.64
1011.04	226.54
1011.33	226.50
1011.62	226.46
1011.91	226.53
1012.19	226.53
1012.48	226.56
1012.77	226.54
1013.05	226.73
1013.34	226.72
1013.63	226.70
1013.92	226.74
1014.20	226.70
1014.49	226.73
1014.78	226.76
1015.06	226.60
1015.35	226.63
1015.64	226.68
1015.92	226.77
1016.21	226.76
1016.50	226.80
1016.78	226.83
1017.07	226.91
1017.36	226.82
1017.64	226.81
1017.93	226.79
1018.22	226.77
1018.50	226.68
1018.79	226.59
1019.08	226.38
1019.36	226.37
1019.65	226.39
1019.93	226.47
1020.22	226.55
1020.51	226.78
1020.79	226.63
1021.08	226.40
1021.36	225.15
1021.65	225.75
1021.94	226.40
1022.22	226.20
1022.51	226.15
1022.79	228.10
1023.08	227.95
1023.36	232.00
1023.65	223.80
>>>>>End Processed Spectral Data<<<<<
