SpectraSuite Data File
++++++++++++++++++++++++++++++++++++
Date: Wed Sep 04 17:44:58 EDT 2013
User: lab3
Dark Spectrum Present: Yes
Reference Spectrum Present: No
Number of Sampled Component Spectra: 1
Spectrometers: USB2E7196
Integration Time (usec): 170000 (USB2E7196)
Spectra Averaged: 20 (USB2E7196)
Boxcar Smoothing: 10 (USB2E7196)
Correct for Electrical Dark: No (USB2E7196)
Strobe/Lamp Enabled: No (USB2E7196)
Correct for Detector Non-linearity: No (USB2E7196)
Correct for Stray Light: No (USB2E7196)
Number of Pixels in Processed Spectrum: 2048
>>>>>Begin Processed Spectral Data<<<<<
339.09	0.00
339.48	212.60
339.86	213.65
340.24	215.05
340.63	215.50
341.01	224.95
341.39	219.55
341.78	221.80
342.16	223.75
342.54	221.70
342.93	211.81
343.31	222.49
343.69	223.00
344.07	223.52
344.46	224.04
344.84	224.53
345.22	224.52
345.60	224.75
345.99	224.94
346.37	225.04
346.75	225.20
347.13	225.25
347.52	225.41
347.90	225.49
348.28	225.57
348.66	225.63
349.05	225.51
349.43	225.61
349.81	225.75
350.19	225.83
350.57	225.88
350.96	225.95
351.34	226.05
351.72	226.18
352.10	226.20
352.48	226.20
352.87	226.23
353.25	226.34
353.63	226.39
354.01	226.42
354.39	226.46
354.77	226.51
355.15	226.68
355.54	226.55
355.92	226.52
356.30	226.57
356.68	226.91
357.06	227.04
357.44	227.10
357.82	227.09
358.20	227.59
358.58	227.65
358.97	227.68
359.35	227.88
359.73	227.99
360.11	228.06
360.49	228.09
360.87	228.20
361.25	228.29
361.63	228.53
362.01	228.62
362.39	228.67
362.77	228.82
363.15	228.86
363.53	228.93
363.91	229.02
364.29	228.98
364.67	228.61
365.05	228.68
365.43	228.73
365.81	228.81
366.19	228.57
366.57	228.79
366.95	228.81
367.33	228.65
367.71	228.74
368.09	228.87
368.47	228.95
368.85	228.85
369.23	228.89
369.61	228.71
369.99	228.85
370.37	228.91
370.75	229.10
371.13	228.94
371.51	228.92
371.89	228.90
372.27	229.00
372.65	228.99
373.03	228.98
373.41	228.90
373.78	228.85
374.16	228.61
374.54	228.41
374.92	228.31
375.30	228.30
375.68	228.07
376.06	228.07
376.44	227.92
376.82	227.90
377.19	227.85
377.57	227.72
377.95	227.51
378.33	227.38
378.71	226.96
379.09	227.01
379.47	226.95
379.84	226.73
380.22	226.65
380.60	226.50
380.98	226.31
381.36	226.21
381.73	226.03
382.11	226.08
382.49	225.99
382.87	225.93
383.25	225.85
383.62	226.38
384.00	226.14
384.38	226.10
384.76	226.18
385.13	226.20
385.51	226.21
385.89	226.03
386.27	225.95
386.64	226.07
387.02	226.00
387.40	225.90
387.78	225.97
388.15	225.95
388.53	225.86
388.91	225.86
389.29	225.71
389.66	225.81
390.04	225.73
390.42	225.84
390.79	225.82
391.17	225.79
391.55	225.30
391.92	225.31
392.30	225.44
392.68	225.34
393.05	225.39
393.43	225.39
393.81	225.49
394.18	225.48
394.56	225.45
394.94	225.55
395.31	225.66
395.69	225.79
396.06	225.86
396.44	226.01
396.82	226.02
397.19	226.39
397.57	226.36
397.95	226.46
398.32	226.31
398.70	226.43
399.07	226.62
399.45	226.70
399.82	226.84
400.20	226.80
400.58	226.87
400.95	226.79
401.33	227.02
401.70	227.46
402.08	227.64
402.45	227.78
402.83	228.07
403.20	228.16
403.58	228.29
403.95	228.46
404.33	228.80
404.71	229.04
405.08	229.56
405.46	229.80
405.83	230.10
406.21	230.44
406.58	230.71
406.96	230.90
407.33	231.30
407.70	231.64
408.08	232.44
408.45	232.92
408.83	233.37
409.20	233.73
409.58	233.94
409.95	234.50
410.33	235.04
410.70	235.36
411.08	235.98
411.45	236.59
411.82	237.21
412.20	237.87
412.57	238.85
412.95	239.10
413.32	240.02
413.69	240.80
414.07	241.66
414.44	242.65
414.82	243.74
415.19	244.77
415.56	245.91
415.94	246.82
416.31	248.23
416.68	249.66
417.06	251.25
417.43	252.88
417.81	254.68
418.18	256.48
418.55	258.37
418.93	260.39
419.30	262.42
419.67	264.62
420.04	266.80
420.42	269.02
420.79	272.00
421.16	274.61
421.54	277.57
421.91	280.55
422.28	283.48
422.66	286.65
423.03	289.99
423.40	293.25
423.77	296.77
424.15	300.17
424.52	303.84
424.89	307.87
425.26	311.67
425.64	315.25
426.01	319.32
426.38	323.58
426.75	328.07
427.13	332.51
427.50	337.10
427.87	341.86
428.24	346.66
428.61	351.10
428.99	356.35
429.36	361.66
429.73	367.06
430.10	372.43
430.47	377.98
430.85	383.41
431.22	389.35
431.59	396.00
431.96	402.09
432.33	408.87
432.70	415.36
433.08	422.96
433.45	430.19
433.82	437.31
434.19	445.26
434.56	453.01
434.93	460.48
435.30	468.07
435.68	476.52
436.05	484.64
436.42	492.70
436.79	500.12
437.16	508.35
437.53	516.84
437.90	525.25
438.27	533.57
438.64	542.34
439.01	550.40
439.38	557.35
439.75	564.36
440.13	572.15
440.50	579.50
440.87	585.53
441.24	591.77
441.61	598.47
441.98	603.38
442.35	609.08
442.72	615.00
443.09	620.63
443.46	623.96
443.83	626.31
444.20	628.32
444.57	631.00
444.94	631.97
445.31	633.06
445.68	634.44
446.05	634.70
446.42	633.48
446.79	632.21
447.16	630.55
447.53	629.24
447.90	625.56
448.27	621.98
448.64	617.18
449.01	613.54
449.37	607.71
449.74	602.04
450.11	595.34
450.48	587.70
450.85	579.95
451.22	573.24
451.59	566.86
451.96	560.59
452.33	552.66
452.70	545.55
453.07	537.14
453.43	528.41
453.80	520.19
454.17	512.34
454.54	504.91
454.91	496.95
455.28	489.31
455.65	482.15
456.02	475.55
456.38	469.40
456.75	461.89
457.12	455.45
457.49	449.21
457.86	442.99
458.23	437.96
458.59	432.40
458.96	426.75
459.33	421.76
459.70	416.95
460.07	412.97
460.43	408.38
460.80	404.17
461.17	400.51
461.54	396.70
461.91	392.98
462.27	389.24
462.64	386.11
463.01	382.64
463.38	379.41
463.74	375.43
464.11	372.42
464.48	369.96
464.85	367.26
465.21	365.15
465.58	363.03
465.95	360.28
466.32	358.16
466.68	356.03
467.05	353.75
467.42	351.55
467.78	349.23
468.15	347.09
468.52	345.57
468.88	343.35
469.25	341.35
469.62	339.95
469.98	338.38
470.35	336.98
470.72	335.65
471.08	334.07
471.45	332.80
471.82	331.66
472.18	330.15
472.55	329.18
472.92	327.93
473.28	326.78
473.65	325.79
474.02	324.65
474.38	323.82
474.75	323.19
475.11	322.37
475.48	321.83
475.85	321.26
476.21	320.60
476.58	320.11
476.94	319.78
477.31	319.31
477.67	318.82
478.04	318.40
478.41	318.09
478.77	318.30
479.14	318.09
479.50	317.99
479.87	318.06
480.23	318.01
480.60	317.91
480.96	317.91
481.33	318.30
481.69	318.56
482.06	318.73
482.42	318.97
482.79	319.21
483.15	319.63
483.52	320.27
483.88	320.69
484.25	321.31
484.61	321.99
484.98	322.57
485.34	323.57
485.71	324.56
486.07	325.58
486.44	326.15
486.80	327.24
487.17	328.33
487.53	329.73
487.90	331.14
488.26	332.87
488.62	334.57
488.99	336.08
489.35	337.74
489.72	339.57
490.08	341.47
490.44	343.57
490.81	345.90
491.17	348.04
491.54	350.61
491.90	353.12
492.26	355.67
492.63	358.53
492.99	361.25
493.36	364.27
493.72	367.64
494.08	371.09
494.45	374.74
494.81	378.54
495.17	382.33
495.54	386.58
495.90	390.70
496.26	395.17
496.63	399.76
496.99	404.64
497.35	409.75
497.72	414.97
498.08	420.44
498.44	425.84
498.80	431.86
499.17	437.75
499.53	443.93
499.89	450.55
500.26	457.31
500.62	464.23
500.98	471.58
501.34	478.80
501.71	486.28
502.07	493.91
502.43	501.98
502.79	510.19
503.16	518.62
503.52	527.51
503.88	536.52
504.24	546.11
504.60	555.83
504.97	565.80
505.33	576.25
505.69	587.13
506.05	598.08
506.41	609.20
506.78	620.70
507.14	632.48
507.50	644.58
507.86	656.95
508.22	669.63
508.59	682.35
508.95	695.78
509.31	709.74
509.67	723.89
510.03	738.03
510.39	752.55
510.75	767.13
511.12	781.95
511.48	797.28
511.84	812.78
512.20	828.55
512.56	844.68
512.92	860.92
513.28	877.36
513.64	894.35
514.00	911.42
514.37	928.88
514.73	947.09
515.09	965.09
515.45	983.11
515.81	1001.24
516.17	1019.74
516.53	1037.96
516.89	1056.31
517.25	1075.15
517.61	1094.82
517.97	1114.67
518.33	1134.43
518.69	1154.25
519.05	1174.44
519.41	1194.27
519.77	1214.87
520.13	1235.06
520.49	1255.37
520.85	1276.01
521.21	1296.78
521.57	1317.73
521.93	1337.86
522.29	1358.15
522.65	1378.17
523.01	1398.73
523.37	1419.02
523.73	1439.57
524.09	1459.49
524.45	1479.79
524.81	1500.29
525.17	1520.39
525.53	1540.33
525.89	1560.47
526.25	1580.88
526.61	1600.51
526.97	1620.93
527.33	1641.42
527.68	1662.71
528.04	1683.34
528.40	1703.63
528.76	1723.85
529.12	1743.52
529.48	1763.74
529.84	1783.05
530.20	1803.35
530.56	1823.35
530.91	1843.52
531.27	1863.18
531.63	1883.34
531.99	1903.11
532.35	1922.31
532.71	1941.74
533.07	1961.59
533.42	1980.84
533.78	1999.84
534.14	2019.23
534.50	2037.56
534.86	2055.99
535.21	2072.68
535.57	2090.30
535.93	2106.92
536.29	2123.74
536.65	2141.34
537.00	2158.30
537.36	2175.39
537.72	2190.95
538.08	2207.29
538.44	2223.00
538.79	2238.61
539.15	2254.00
539.51	2269.35
539.87	2283.55
540.22	2296.86
540.58	2310.31
540.94	2322.83
541.29	2334.78
541.65	2346.35
542.01	2358.32
542.37	2368.08
542.72	2378.24
543.08	2388.05
543.44	2399.30
543.79	2408.80
544.15	2417.80
544.51	2427.13
544.87	2436.07
545.22	2444.48
545.58	2451.30
545.94	2457.96
546.29	2463.75
546.65	2469.55
547.01	2474.62
547.36	2479.72
547.72	2484.80
548.07	2488.18
548.43	2493.01
548.79	2496.75
549.14	2500.26
549.50	2503.56
549.86	2507.24
550.21	2510.83
550.57	2513.83
550.92	2514.47
551.28	2515.49
551.64	2517.14
551.99	2518.34
552.35	2519.21
552.70	2521.00
553.06	2522.50
553.41	2523.35
553.77	2524.76
554.13	2525.61
554.48	2526.22
554.84	2526.84
555.19	2527.37
555.55	2528.90
555.90	2528.07
556.26	2527.48
556.61	2525.56
556.97	2523.21
557.32	2522.14
557.68	2520.28
558.03	2518.49
558.39	2516.78
558.74	2515.47
559.10	2511.75
559.45	2507.89
559.81	2503.30
560.16	2497.74
560.52	2492.55
560.87	2488.16
561.23	2482.59
561.58	2476.98
561.94	2470.34
562.29	2463.20
562.64	2456.02
563.00	2447.28
563.35	2440.27
563.71	2433.10
564.06	2427.19
564.42	2420.47
564.77	2412.93
565.12	2405.25
565.48	2397.41
565.83	2389.71
566.19	2381.56
566.54	2374.00
566.89	2365.98
567.25	2358.41
567.60	2351.11
567.96	2343.93
568.31	2335.62
568.66	2327.08
569.02	2317.85
569.37	2309.65
569.72	2302.29
570.08	2293.03
570.43	2283.95
570.78	2274.99
571.14	2265.76
571.49	2255.25
571.84	2245.83
572.20	2235.62
572.55	2226.08
572.90	2215.76
573.26	2205.52
573.61	2194.71
573.96	2183.83
574.31	2172.22
574.67	2160.53
575.02	2148.16
575.37	2135.45
575.72	2122.39
576.08	2110.58
576.43	2098.42
576.78	2085.73
577.13	2072.29
577.49	2059.86
577.84	2048.25
578.19	2036.34
578.54	2024.29
578.90	2012.86
579.25	2000.57
579.60	1988.20
579.95	1975.45
580.30	1962.36
580.66	1949.32
581.01	1936.30
581.36	1922.62
581.71	1910.38
582.06	1897.67
582.42	1885.56
582.77	1873.36
583.12	1861.93
583.47	1849.73
583.82	1838.24
584.17	1826.69
584.53	1815.32
584.88	1802.94
585.23	1790.24
585.58	1776.56
585.93	1763.88
586.28	1751.03
586.63	1737.74
586.98	1724.39
587.34	1711.77
587.69	1698.93
588.04	1687.09
588.39	1675.25
588.74	1663.79
589.09	1652.24
589.44	1639.98
589.79	1628.35
590.14	1616.82
590.49	1605.32
590.84	1593.87
591.19	1582.38
591.54	1570.37
591.89	1558.68
592.25	1548.79
592.60	1537.92
592.95	1527.17
593.30	1515.77
593.65	1504.27
594.00	1493.22
594.35	1483.64
594.70	1472.20
595.05	1461.60
595.40	1449.89
595.75	1438.42
596.10	1427.67
596.45	1416.64
596.80	1406.47
597.15	1395.67
597.50	1384.37
597.85	1373.29
598.19	1361.99
598.54	1350.82
598.89	1340.16
599.24	1329.84
599.59	1318.94
599.94	1308.53
600.29	1298.57
600.64	1288.71
600.99	1278.47
601.34	1269.13
601.69	1258.56
602.04	1249.12
602.39	1239.81
602.74	1231.15
603.08	1222.05
603.43	1213.02
603.78	1203.49
604.13	1194.32
604.48	1185.06
604.83	1175.89
605.18	1166.69
605.53	1157.86
605.87	1149.08
606.22	1140.75
606.57	1131.95
606.92	1122.90
607.27	1114.22
607.62	1105.92
607.96	1097.73
608.31	1090.32
608.66	1082.15
609.01	1074.02
609.36	1065.90
609.70	1057.82
610.05	1049.25
610.40	1041.40
610.75	1033.23
611.10	1025.34
611.44	1017.11
611.79	1009.24
612.14	1001.79
612.49	994.39
612.83	987.17
613.18	979.71
613.53	972.42
613.88	965.05
614.22	957.81
614.57	950.22
614.92	942.61
615.27	935.37
615.61	927.98
615.96	920.68
616.31	913.47
616.65	906.83
617.00	899.77
617.35	893.09
617.70	886.29
618.04	879.34
618.39	872.80
618.74	866.72
619.08	860.16
619.43	853.20
619.78	846.50
620.12	839.64
620.47	833.12
620.82	826.38
621.16	819.96
621.51	814.04
621.85	808.29
622.20	802.12
622.55	795.84
622.89	789.68
623.24	783.78
623.59	777.76
623.93	771.69
624.28	765.83
624.62	760.48
624.97	755.04
625.32	749.63
625.66	743.98
626.01	738.15
626.35	732.96
626.70	727.87
627.04	722.89
627.39	717.65
627.73	712.54
628.08	707.66
628.43	702.40
628.77	697.02
629.12	692.04
629.46	687.52
629.81	683.14
630.15	678.55
630.50	673.80
630.84	669.16
631.19	664.68
631.53	660.14
631.88	655.05
632.22	650.19
632.57	645.92
632.91	641.49
633.26	637.38
633.60	632.96
633.95	628.52
634.29	623.81
634.64	619.66
634.98	615.30
635.32	611.20
635.67	607.40
636.01	603.60
636.36	599.40
636.70	595.50
637.05	591.38
637.39	587.48
637.73	583.54
638.08	579.77
638.42	575.75
638.77	571.79
639.11	567.76
639.45	563.73
639.80	559.57
640.14	555.77
640.49	551.84
640.83	548.25
641.17	544.76
641.52	541.44
641.86	537.91
642.20	534.85
642.55	531.24
642.89	527.79
643.23	524.20
643.58	521.08
643.92	517.43
644.26	514.08
644.61	510.85
644.95	507.69
645.29	504.40
645.64	501.41
645.98	498.51
646.32	495.81
646.66	492.90
647.01	489.96
647.35	487.39
647.69	484.61
648.04	481.82
648.38	479.20
648.72	476.48
649.06	473.66
649.41	470.78
649.75	467.89
650.09	465.08
650.43	462.39
650.78	459.56
651.12	456.94
651.46	454.24
651.80	451.63
652.14	449.07
652.49	446.80
652.83	444.24
653.17	441.73
653.51	439.08
653.85	436.81
654.20	434.54
654.54	431.96
654.88	429.53
655.22	427.46
655.56	425.22
655.90	422.90
656.25	420.80
656.59	418.55
656.93	416.53
657.27	414.63
657.61	412.37
657.95	410.35
658.29	408.31
658.64	406.44
658.98	404.41
659.32	402.28
659.66	400.10
660.00	398.12
660.34	396.10
660.68	394.16
661.02	392.24
661.36	390.40
661.70	388.50
662.05	386.64
662.39	384.72
662.73	382.89
663.07	381.33
663.41	379.53
663.75	377.69
664.09	375.92
664.43	373.98
664.77	372.44
665.11	370.77
665.45	369.21
665.79	367.57
666.13	365.90
666.47	364.38
666.81	362.82
667.15	361.13
667.49	359.76
667.83	358.56
668.17	357.16
668.51	355.64
668.85	354.40
669.19	353.42
669.53	351.83
669.87	350.35
670.21	348.80
670.55	347.56
670.89	346.53
671.23	345.29
671.57	343.98
671.91	342.71
672.25	341.49
672.58	340.32
672.92	338.87
673.26	337.76
673.60	336.57
673.94	335.45
674.28	334.41
674.62	333.32
674.96	332.10
675.30	331.01
675.64	329.95
675.97	328.69
676.31	327.38
676.65	326.23
676.99	325.34
677.33	324.29
677.67	323.20
678.01	321.89
678.34	320.90
678.68	320.11
679.02	319.14
679.36	318.23
679.70	317.22
680.04	316.46
680.37	315.45
680.71	314.49
681.05	313.59
681.39	312.72
681.73	311.75
682.06	311.00
682.40	310.10
682.74	309.36
683.08	308.77
683.42	307.80
683.75	307.10
684.09	306.19
684.43	305.48
684.77	304.64
685.10	303.94
685.44	303.14
685.78	302.25
686.12	301.50
686.45	300.64
686.79	299.82
687.13	299.14
687.46	298.41
687.80	297.88
688.14	297.10
688.48	296.41
688.81	295.62
689.15	294.83
689.49	294.08
689.82	293.34
690.16	292.43
690.50	291.75
690.83	290.99
691.17	290.24
691.51	289.48
691.84	288.90
692.18	288.21
692.52	287.50
692.85	286.92
693.19	286.39
693.52	285.76
693.86	285.06
694.20	284.41
694.53	283.83
694.87	283.10
695.21	282.45
695.54	281.77
695.88	281.11
696.21	280.35
696.55	279.80
696.88	279.11
697.22	278.60
697.56	278.13
697.89	277.54
698.23	277.03
698.56	276.54
698.90	276.08
699.23	275.58
699.57	275.09
699.90	274.47
700.24	273.86
700.58	273.41
700.91	273.12
701.25	273.12
701.58	273.04
701.92	272.74
702.25	272.42
702.59	272.03
702.92	271.73
703.26	271.44
703.59	271.06
703.93	271.18
704.26	270.76
704.60	270.33
704.93	269.92
705.26	269.45
705.60	269.09
705.93	268.55
706.27	268.35
706.60	268.06
706.94	267.93
707.27	267.59
707.61	267.25
707.94	266.81
708.27	265.92
708.61	265.13
708.94	264.64
709.28	264.28
709.61	263.91
709.94	263.63
710.28	263.23
710.61	262.89
710.95	262.05
711.28	262.01
711.61	261.69
711.95	261.55
712.28	261.16
712.61	260.83
712.95	260.78
713.28	260.57
713.61	260.13
713.95	259.62
714.28	259.28
714.61	258.86
714.95	258.53
715.28	258.18
715.61	257.83
715.95	257.57
716.28	257.10
716.61	256.80
716.95	256.38
717.28	256.15
717.61	255.80
717.94	255.42
718.28	254.75
718.61	254.39
718.94	254.01
719.27	253.76
719.61	253.47
719.94	253.06
720.27	252.54
720.60	252.24
720.94	251.95
721.27	251.75
721.60	251.60
721.93	251.33
722.27	251.34
722.60	251.11
722.93	250.76
723.26	250.65
723.59	250.37
723.93	250.22
724.26	249.97
724.59	249.72
724.92	249.53
725.25	249.43
725.59	249.21
725.92	249.01
726.25	248.81
726.58	248.63
726.91	248.41
727.24	248.31
727.57	248.17
727.91	247.99
728.24	247.80
728.57	247.54
728.90	247.41
729.23	247.00
729.56	247.09
729.89	246.99
730.22	246.80
730.55	246.59
730.89	246.47
731.22	246.26
731.55	246.09
731.88	246.05
732.21	245.94
732.54	245.74
732.87	245.63
733.20	245.50
733.53	245.35
733.86	245.27
734.19	245.07
734.52	244.94
734.85	245.14
735.18	244.92
735.51	244.92
735.84	244.78
736.17	244.79
736.50	244.43
736.83	244.83
737.16	244.72
737.49	244.68
737.82	244.47
738.15	244.42
738.48	244.32
738.81	244.15
739.14	243.84
739.47	243.73
739.80	243.58
740.13	243.46
740.46	243.31
740.79	243.03
741.12	242.88
741.45	242.74
741.78	242.28
742.11	242.32
742.44	242.08
742.77	242.01
743.10	241.81
743.43	241.67
743.75	241.07
744.08	241.55
744.41	241.36
744.74	241.26
745.07	241.09
745.40	241.03
745.73	241.16
746.06	241.14
746.39	241.06
746.71	240.94
747.04	240.81
747.37	240.61
747.70	240.56
748.03	240.44
748.36	240.37
748.68	240.26
749.01	239.95
749.34	239.90
749.67	239.82
750.00	239.77
750.33	240.00
750.65	239.90
750.98	239.17
751.31	239.09
751.64	239.04
751.97	239.12
752.29	238.94
752.62	238.55
752.95	238.39
753.28	238.24
753.60	238.04
753.93	238.07
754.26	238.06
754.59	237.84
754.91	237.65
755.24	237.56
755.57	237.49
755.90	237.44
756.22	237.28
756.55	237.10
756.88	236.83
757.20	236.44
757.53	236.14
757.86	236.00
758.19	235.88
758.51	235.73
758.84	235.34
759.17	235.26
759.49	235.19
759.82	235.31
760.15	235.27
760.47	235.20
760.80	234.94
761.13	234.93
761.45	234.84
761.78	234.74
762.11	234.58
762.43	234.37
762.76	234.18
763.08	234.13
763.41	234.05
763.74	234.10
764.06	233.98
764.39	233.94
764.71	233.82
765.04	233.76
765.37	233.66
765.69	233.60
766.02	233.38
766.34	233.26
766.67	232.91
767.00	232.90
767.32	233.09
767.65	233.26
767.97	233.13
768.30	233.16
768.62	233.15
768.95	233.02
769.27	233.02
769.60	233.01
769.92	232.87
770.25	232.67
770.57	232.41
770.90	232.38
771.22	232.28
771.55	232.26
771.87	232.20
772.20	232.09
772.52	232.39
772.85	232.95
773.17	232.85
773.50	232.82
773.82	232.71
774.15	232.39
774.47	232.08
774.80	231.87
775.12	231.75
775.45	231.69
775.77	231.74
776.09	231.73
776.42	231.71
776.74	231.80
777.07	231.83
777.39	231.83
777.72	231.75
778.04	231.80
778.36	231.74
778.69	231.68
779.01	231.68
779.33	231.31
779.66	230.81
779.98	230.74
780.31	230.67
780.63	230.84
780.95	230.90
781.28	230.85
781.60	230.87
781.92	230.90
782.25	230.86
782.57	230.79
782.89	230.66
783.22	230.64
783.54	230.53
783.86	230.54
784.19	230.53
784.51	230.61
784.83	230.45
785.16	230.42
785.48	230.42
785.80	230.44
786.12	230.46
786.45	230.35
786.77	230.36
787.09	230.40
787.42	230.16
787.74	230.14
788.06	230.19
788.38	230.11
788.71	229.98
789.03	230.02
789.35	230.05
789.67	229.94
789.99	229.93
790.32	229.87
790.64	229.85
790.96	230.22
791.28	230.05
791.61	230.02
791.93	230.00
792.25	229.90
792.57	230.16
792.89	230.00
793.21	230.08
793.54	230.10
793.86	230.05
794.18	230.07
794.50	229.93
794.82	229.82
795.14	229.83
795.47	229.99
795.79	229.93
796.11	229.80
796.43	229.79
796.75	229.75
797.07	229.74
797.39	229.66
797.71	229.28
798.04	229.26
798.36	229.34
798.68	229.29
799.00	229.34
799.32	229.05
799.64	229.12
799.96	229.02
800.28	229.04
800.60	228.95
800.92	228.96
801.24	228.90
801.56	228.99
801.89	228.99
802.21	228.95
802.53	228.84
802.85	228.99
803.17	229.16
803.49	229.07
803.81	228.99
804.13	228.99
804.45	228.95
804.77	228.98
805.09	228.97
805.41	228.94
805.73	228.87
806.05	228.76
806.37	228.72
806.69	228.69
807.01	228.70
807.33	228.71
807.65	228.52
807.97	228.78
808.28	228.69
808.60	228.71
808.92	228.58
809.24	228.87
809.56	228.77
809.88	228.65
810.20	228.65
810.52	228.78
810.84	228.73
811.16	228.64
811.48	228.58
811.80	228.69
812.12	228.68
812.43	228.75
812.75	228.73
813.07	228.71
813.39	228.69
813.71	228.61
814.03	228.59
814.35	228.59
814.67	228.41
814.98	228.35
815.30	228.25
815.62	228.13
815.94	227.83
816.26	228.01
816.58	227.90
816.89	227.95
817.21	227.76
817.53	227.72
817.85	227.79
818.17	227.75
818.48	227.55
818.80	227.65
819.12	227.53
819.44	227.54
819.76	227.48
820.07	227.46
820.39	227.28
820.71	227.35
821.03	227.36
821.34	227.30
821.66	227.38
821.98	227.44
822.30	227.49
822.61	227.74
822.93	227.45
823.25	227.51
823.57	227.46
823.88	227.59
824.20	227.63
824.52	227.69
824.83	227.68
825.15	227.65
825.47	227.58
825.79	227.62
826.10	227.58
826.42	227.52
826.74	227.55
827.05	227.69
827.37	227.65
827.69	227.65
828.00	227.68
828.32	227.62
828.64	227.57
828.95	227.75
829.27	227.60
829.58	227.60
829.90	227.66
830.22	227.65
830.53	227.53
830.85	227.42
831.17	227.29
831.48	227.29
831.80	227.27
832.11	227.28
832.43	227.24
832.75	227.16
833.06	227.50
833.38	227.39
833.69	227.35
834.01	227.42
834.32	227.35
834.64	227.23
834.96	227.25
835.27	227.16
835.59	226.94
835.90	226.90
836.22	226.89
836.53	226.79
836.85	226.73
837.16	227.17
837.48	227.22
837.79	227.35
838.11	227.35
838.42	227.40
838.74	227.37
839.05	227.31
839.37	227.35
839.68	226.95
840.00	226.99
840.31	227.06
840.63	226.96
840.94	226.87
841.26	226.93
841.57	226.94
841.88	227.02
842.20	227.09
842.51	227.04
842.83	227.12
843.14	227.50
843.46	227.54
843.77	227.28
844.08	227.30
844.40	227.12
844.71	227.05
845.03	226.98
845.34	227.05
845.65	227.10
845.97	227.08
846.28	227.17
846.60	227.21
846.91	227.13
847.22	227.11
847.54	227.25
847.85	227.24
848.16	227.24
848.48	227.18
848.79	227.31
849.10	227.35
849.42	227.29
849.73	226.87
850.04	226.91
850.36	226.73
850.67	226.76
850.98	226.83
851.30	226.91
851.61	226.97
851.92	226.88
852.23	227.00
852.55	227.04
852.86	227.14
853.17	227.15
853.49	227.28
853.80	227.37
854.11	227.39
854.42	227.40
854.74	227.34
855.05	227.35
855.36	227.13
855.67	227.08
855.99	227.09
856.30	227.67
856.61	227.59
856.92	227.64
857.23	227.61
857.55	227.49
857.86	227.44
858.17	227.49
858.48	227.46
858.79	227.35
859.11	227.37
859.42	227.28
859.73	227.25
860.04	227.21
860.35	227.03
860.66	226.87
860.98	226.88
861.29	227.01
861.60	227.00
861.91	227.11
862.22	227.10
862.53	227.04
862.84	226.47
863.16	226.61
863.47	226.45
863.78	226.38
864.09	226.51
864.40	226.51
864.71	226.49
865.02	226.46
865.33	226.41
865.64	226.31
865.95	226.35
866.27	226.64
866.58	226.53
866.89	226.63
867.20	226.70
867.51	226.64
867.82	226.50
868.13	226.65
868.44	226.52
868.75	226.63
869.06	226.58
869.37	226.67
869.68	226.57
869.99	226.74
870.30	226.81
870.61	226.88
870.92	226.86
871.23	226.78
871.54	226.91
871.85	227.07
872.16	227.17
872.47	227.05
872.78	226.70
873.09	226.73
873.40	226.73
873.71	226.74
874.02	226.73
874.33	226.62
874.64	226.48
874.95	226.63
875.26	226.47
875.56	226.55
875.87	226.51
876.18	226.44
876.49	226.88
876.80	226.82
877.11	226.66
877.42	226.70
877.73	226.70
878.04	226.60
878.35	226.50
878.66	226.49
878.96	226.50
879.27	226.54
879.58	226.51
879.89	226.43
880.20	226.58
880.51	226.57
880.82	226.64
881.12	226.71
881.43	226.57
881.74	226.59
882.05	226.56
882.36	226.51
882.67	226.56
882.97	226.04
883.28	226.00
883.59	226.01
883.90	225.97
884.21	226.03
884.51	226.05
884.82	226.01
885.13	225.99
885.44	226.00
885.74	226.03
886.05	226.09
886.36	226.19
886.67	225.98
886.98	226.22
887.28	226.32
887.59	226.30
887.90	226.35
888.20	226.30
888.51	226.39
888.82	226.38
889.13	226.36
889.43	226.78
889.74	226.85
890.05	226.81
890.35	226.84
890.66	226.82
890.97	226.78
891.28	226.71
891.58	226.65
891.89	226.61
892.20	226.56
892.50	226.52
892.81	226.38
893.12	226.36
893.42	226.14
893.73	226.07
894.04	226.04
894.34	226.05
894.65	225.98
894.95	225.95
895.26	226.00
895.57	226.27
895.87	225.86
896.18	225.88
896.48	225.96
896.79	225.94
897.10	226.04
897.40	226.00
897.71	226.03
898.01	226.06
898.32	226.15
898.63	226.11
898.93	226.13
899.24	226.17
899.54	226.15
899.85	226.09
900.15	226.06
900.46	226.06
900.76	226.09
901.07	226.11
901.38	226.04
901.68	226.01
901.99	225.68
902.29	225.67
902.60	225.61
902.90	225.58
903.21	225.57
903.51	225.51
903.82	225.65
904.12	225.78
904.43	225.81
904.73	225.77
905.03	225.80
905.34	226.20
905.64	226.15
905.95	226.22
906.25	226.27
906.56	226.29
906.86	226.32
907.17	226.25
907.47	226.29
907.77	226.26
908.08	226.19
908.38	226.21
908.69	226.21
908.99	226.30
909.30	226.29
909.60	226.29
909.90	226.28
910.21	226.10
910.51	225.92
910.81	225.90
911.12	225.90
911.42	225.91
911.73	225.48
912.03	225.51
912.33	225.61
912.64	225.56
912.94	225.51
913.24	225.38
913.55	225.39
913.85	225.38
914.15	225.45
914.46	225.53
914.76	225.51
915.06	225.45
915.37	225.37
915.67	225.31
915.97	225.33
916.27	225.28
916.58	225.39
916.88	225.43
917.18	225.35
917.49	225.71
917.79	225.70
918.09	225.77
918.39	225.93
918.70	225.83
919.00	225.87
919.30	226.16
919.60	226.17
919.91	226.15
920.21	226.19
920.51	226.12
920.81	226.13
921.12	226.22
921.42	226.27
921.72	226.30
922.02	226.38
922.32	226.39
922.63	226.45
922.93	226.68
923.23	226.67
923.53	226.64
923.83	226.32
924.13	226.43
924.44	226.40
924.74	226.44
925.04	226.64
925.34	226.59
925.64	226.39
925.94	226.40
926.24	226.68
926.55	226.64
926.85	226.73
927.15	226.73
927.45	226.66
927.75	226.65
928.05	226.66
928.35	226.69
928.65	226.85
928.95	226.87
929.26	226.69
929.56	226.82
929.86	226.94
930.16	226.87
930.46	226.75
930.76	226.73
931.06	226.57
931.36	226.43
931.66	226.60
931.96	226.66
932.26	226.68
932.56	226.49
932.86	226.56
933.16	226.55
933.46	226.38
933.76	226.38
934.06	226.53
934.36	226.69
934.66	226.68
934.96	226.52
935.26	226.47
935.56	226.51
935.86	226.31
936.16	226.28
936.46	226.30
936.76	226.26
937.06	226.23
937.36	226.20
937.66	226.24
937.96	226.19
938.26	226.06
938.56	226.07
938.86	226.03
939.16	226.07
939.46	226.13
939.76	226.27
940.06	226.27
940.35	226.11
940.65	225.82
940.95	225.75
941.25	225.67
941.55	225.57
941.85	225.54
942.15	225.75
942.45	225.88
942.75	225.82
943.04	225.91
943.34	226.05
943.64	226.00
943.94	225.87
944.24	225.82
944.54	225.91
944.84	225.85
945.13	225.79
945.43	225.72
945.73	225.71
946.03	225.64
946.33	225.58
946.62	225.50
946.92	225.57
947.22	225.68
947.52	225.64
947.82	225.72
948.11	225.68
948.41	225.56
948.71	225.37
949.01	225.38
949.31	225.30
949.60	225.20
949.90	225.27
950.20	225.22
950.50	225.18
950.79	225.09
951.09	225.19
951.39	225.23
951.69	225.16
951.98	225.23
952.28	225.29
952.58	225.28
952.87	225.41
953.17	225.43
953.47	225.26
953.76	225.31
954.06	225.22
954.36	225.10
954.66	225.03
954.95	225.12
955.25	225.17
955.55	225.27
955.84	225.14
956.14	225.12
956.44	225.20
956.73	225.13
957.03	225.12
957.32	225.07
957.62	225.01
957.92	225.21
958.21	225.16
958.51	225.65
958.81	225.70
959.10	225.70
959.40	225.82
959.69	225.95
959.99	226.07
960.29	226.14
960.58	226.19
960.88	226.36
961.17	226.34
961.47	226.44
961.76	226.31
962.06	226.44
962.36	226.46
962.65	226.46
962.95	226.59
963.24	226.60
963.54	226.68
963.83	226.73
964.13	226.61
964.42	226.51
964.72	226.09
965.01	226.07
965.31	226.03
965.60	225.86
965.90	226.16
966.19	226.02
966.49	225.97
966.78	226.03
967.08	225.98
967.37	226.05
967.67	225.91
967.96	226.11
968.26	226.14
968.55	226.15
968.85	226.11
969.14	226.03
969.43	226.02
969.73	225.98
970.02	225.94
970.32	225.93
970.61	225.91
970.91	225.79
971.20	225.80
971.49	225.80
971.79	225.92
972.08	225.59
972.38	225.66
972.67	225.68
972.96	225.65
973.26	225.56
973.55	225.67
973.85	225.64
974.14	225.53
974.43	225.59
974.73	225.46
975.02	225.43
975.31	225.44
975.61	225.44
975.90	225.32
976.19	225.30
976.49	225.31
976.78	225.35
977.07	225.42
977.37	225.42
977.66	225.44
977.95	225.36
978.24	225.36
978.54	225.45
978.83	225.45
979.12	225.48
979.42	225.49
979.71	225.38
980.00	225.42
980.29	225.42
980.59	225.30
980.88	225.52
981.17	225.57
981.46	225.61
981.76	225.60
982.05	225.82
982.34	225.87
982.63	225.91
982.93	225.87
983.22	226.00
983.51	225.99
983.80	226.01
984.09	226.11
984.39	226.08
984.68	225.98
984.97	225.97
985.26	225.83
985.55	225.87
985.85	225.80
986.14	225.79
986.43	225.87
986.72	225.83
987.01	225.70
987.30	225.76
987.59	225.75
987.89	225.73
988.18	225.55
988.47	225.43
988.76	225.42
989.05	225.36
989.34	225.20
989.63	225.36
989.92	225.35
990.22	225.26
990.51	225.34
990.80	225.26
991.09	225.30
991.38	225.45
991.67	225.40
991.96	225.37
992.25	225.40
992.54	225.30
992.83	225.31
993.12	225.24
993.41	225.20
993.70	225.37
993.99	225.52
994.28	225.63
994.58	225.78
994.87	225.64
995.16	225.69
995.45	225.67
995.74	225.45
996.03	225.51
996.32	225.56
996.61	225.63
996.90	225.68
997.19	225.68
997.48	225.61
997.77	225.56
998.06	225.68
998.34	225.71
998.63	225.73
998.92	225.72
999.21	225.87
999.50	225.82
999.79	225.61
1000.08	225.60
1000.37	225.58
1000.66	225.48
1000.95	225.58
1001.24	225.54
1001.53	225.63
1001.82	225.69
1002.11	225.51
1002.40	225.57
1002.68	225.70
1002.97	226.06
1003.26	225.99
1003.55	225.96
1003.84	226.05
1004.13	226.13
1004.42	226.07
1004.71	226.12
1004.99	226.11
1005.28	226.23
1005.57	226.31
1005.86	226.30
1006.15	226.22
1006.44	226.15
1006.72	226.24
1007.01	226.26
1007.30	226.33
1007.59	226.24
1007.88	226.21
1008.17	226.30
1008.45	226.17
1008.74	225.90
1009.03	225.62
1009.32	225.67
1009.60	225.70
1009.89	225.67
1010.18	225.43
1010.47	225.44
1010.76	225.36
1011.04	225.36
1011.33	225.29
1011.62	225.25
1011.91	225.32
1012.19	225.34
1012.48	225.36
1012.77	225.32
1013.05	225.49
1013.34	225.47
1013.63	225.50
1013.92	225.59
1014.20	225.58
1014.49	225.57
1014.78	225.68
1015.06	225.49
1015.35	225.43
1015.64	225.54
1015.92	225.55
1016.21	225.65
1016.50	225.66
1016.78	225.73
1017.07	225.78
1017.36	225.71
1017.64	225.74
1017.93	225.79
1018.22	225.73
1018.50	225.71
1018.79	225.67
1019.08	225.53
1019.36	225.59
1019.65	225.52
1019.93	225.57
1020.22	225.61
1020.51	225.90
1020.79	225.79
1021.08	224.50
1021.36	224.65
1021.65	224.70
1021.94	226.50
1022.22	226.15
1022.51	224.25
1022.79	227.45
1023.08	225.85
1023.36	231.10
1023.65	224.45
>>>>>End Processed Spectral Data<<<<<
