SpectraSuite Data File
++++++++++++++++++++++++++++++++++++
Date: Wed Sep 04 17:58:36 EDT 2013
User: lab3
Dark Spectrum Present: Yes
Reference Spectrum Present: No
Number of Sampled Component Spectra: 1
Spectrometers: USB2E7196
Integration Time (usec): 170000 (USB2E7196)
Spectra Averaged: 20 (USB2E7196)
Boxcar Smoothing: 10 (USB2E7196)
Correct for Electrical Dark: No (USB2E7196)
Strobe/Lamp Enabled: No (USB2E7196)
Correct for Detector Non-linearity: No (USB2E7196)
Correct for Stray Light: No (USB2E7196)
Number of Pixels in Processed Spectrum: 2048
>>>>>Begin Processed Spectral Data<<<<<
339.09	0.00
339.48	212.60
339.86	214.15
340.24	215.65
340.63	217.50
341.01	225.65
341.39	220.55
341.78	222.65
342.16	223.15
342.54	224.05
342.93	212.48
343.31	223.15
343.69	223.72
344.07	224.27
344.46	224.81
344.84	225.24
345.22	225.28
345.60	225.56
345.99	225.74
346.37	225.88
346.75	225.93
347.13	226.01
347.52	226.07
347.90	226.31
348.28	226.34
348.66	226.51
349.05	226.41
349.43	226.53
349.81	226.54
350.19	226.66
350.57	226.75
350.96	226.76
351.34	226.96
351.72	227.01
352.10	227.09
352.48	227.05
352.87	227.08
353.25	227.10
353.63	227.16
354.01	227.18
354.39	227.30
354.77	227.44
355.15	227.62
355.54	227.62
355.92	227.47
356.30	227.54
356.68	227.87
357.06	227.95
357.44	227.94
357.82	227.96
358.20	228.39
358.58	228.44
358.97	228.60
359.35	228.68
359.73	228.89
360.11	228.90
360.49	228.93
360.87	228.95
361.25	229.04
361.63	229.19
362.01	229.30
362.39	229.30
362.77	229.35
363.15	229.38
363.53	229.38
363.91	229.43
364.29	229.45
364.67	229.08
365.05	229.10
365.43	229.21
365.81	229.33
366.19	229.16
366.57	229.36
366.95	229.43
367.33	229.35
367.71	229.41
368.09	229.52
368.47	229.57
368.85	229.60
369.23	229.77
369.61	229.55
369.99	229.77
370.37	229.81
370.75	230.00
371.13	229.89
371.51	229.85
371.89	230.00
372.27	230.07
372.65	230.02
373.03	230.03
373.41	229.87
373.78	229.85
374.16	229.58
374.54	229.35
374.92	229.17
375.30	229.19
375.68	229.02
376.06	228.95
376.44	228.92
376.82	228.88
377.19	228.73
377.57	228.81
377.95	228.41
378.33	228.32
378.71	227.97
379.09	228.02
379.47	228.07
379.84	227.85
380.22	227.67
380.60	227.60
380.98	227.47
381.36	227.40
381.73	227.27
382.11	227.32
382.49	227.25
382.87	227.15
383.25	227.02
383.62	227.51
384.00	227.43
384.38	227.32
384.76	227.38
385.13	227.45
385.51	227.29
385.89	227.30
386.27	227.25
386.64	227.28
387.02	227.22
387.40	227.07
387.78	227.13
388.15	227.11
388.53	226.99
388.91	226.98
389.29	227.00
389.66	227.03
390.04	226.95
390.42	227.03
390.79	227.07
391.17	227.07
391.55	226.53
391.92	226.54
392.30	226.63
392.68	226.57
393.05	226.55
393.43	226.56
393.81	226.59
394.18	226.55
394.56	226.61
394.94	226.62
395.31	226.65
395.69	226.78
396.06	226.83
396.44	226.95
396.82	226.95
397.19	227.19
397.57	227.23
397.95	227.34
398.32	227.25
398.70	227.34
399.07	227.53
399.45	227.64
399.82	227.68
400.20	227.72
400.58	227.72
400.95	227.67
401.33	227.89
401.70	228.30
402.08	228.42
402.45	228.52
402.83	228.86
403.20	229.02
403.58	229.12
403.95	229.39
404.33	229.63
404.71	229.91
405.08	230.37
405.46	230.57
405.83	230.85
406.21	231.16
406.58	231.45
406.96	231.68
407.33	231.99
407.70	232.36
408.08	233.06
408.45	233.59
408.83	234.14
409.20	234.52
409.58	234.64
409.95	235.24
410.33	235.75
410.70	236.05
411.08	236.71
411.45	237.31
411.82	237.92
412.20	238.64
412.57	239.60
412.95	239.93
413.32	240.85
413.69	241.68
414.07	242.65
414.44	243.59
414.82	244.60
415.19	245.80
415.56	246.98
415.94	248.02
416.31	249.46
416.68	250.76
417.06	252.38
417.43	254.15
417.81	255.86
418.18	257.65
418.55	259.62
418.93	261.66
419.30	263.78
419.67	265.99
420.04	268.32
420.42	270.60
420.79	273.70
421.16	276.52
421.54	279.56
421.91	282.62
422.28	285.77
422.66	289.05
423.03	292.40
423.40	295.90
423.77	299.50
424.15	303.04
424.52	306.92
424.89	311.13
425.26	315.07
425.64	318.89
426.01	323.11
426.38	327.48
426.75	332.03
427.13	336.63
427.50	341.39
427.87	346.28
428.24	351.14
428.61	355.66
428.99	360.96
429.36	366.58
429.73	372.08
430.10	377.67
430.47	383.44
430.85	389.26
431.22	395.38
431.59	402.16
431.96	408.40
432.33	415.40
432.70	422.19
433.08	430.04
433.45	437.45
433.82	444.85
434.19	453.00
434.56	461.04
434.93	468.68
435.30	476.46
435.68	485.23
436.05	493.82
436.42	502.15
436.79	509.77
437.16	518.03
437.53	526.79
437.90	535.38
438.27	544.05
438.64	553.08
439.01	561.48
439.38	568.66
439.75	575.88
440.13	583.87
440.50	591.42
440.87	597.54
441.24	604.09
441.61	611.13
441.98	616.35
442.35	622.36
442.72	628.29
443.09	634.33
443.46	637.65
443.83	640.00
444.20	641.98
444.57	644.87
444.94	646.05
445.31	647.16
445.68	648.66
446.05	648.78
446.42	647.32
446.79	645.78
447.16	644.12
447.53	642.81
447.90	639.08
448.27	635.33
448.64	630.45
449.01	626.71
449.37	620.53
449.74	614.53
450.11	607.46
450.48	599.80
450.85	591.54
451.22	584.42
451.59	577.70
451.96	571.37
452.33	563.10
452.70	555.63
453.07	546.97
453.43	537.75
453.80	529.08
454.17	520.93
454.54	513.18
454.91	504.99
455.28	496.92
455.65	489.45
456.02	482.51
456.38	476.11
456.75	468.25
457.12	461.67
457.49	455.21
457.86	448.66
458.23	443.51
458.59	437.83
458.96	432.14
459.33	427.04
459.70	421.94
460.07	417.75
460.43	413.01
460.80	408.67
461.17	404.96
461.54	401.12
461.91	397.43
462.27	393.56
462.64	390.25
463.01	386.83
463.38	383.50
463.74	379.47
464.11	376.32
464.48	373.69
464.85	370.84
465.21	368.85
465.58	366.72
465.95	363.78
466.32	361.58
466.68	359.38
467.05	357.05
467.42	354.75
467.78	352.47
468.15	350.39
468.52	348.77
468.88	346.47
469.25	344.51
469.62	342.95
469.98	341.27
470.35	339.88
470.72	338.30
471.08	336.65
471.45	335.33
471.82	334.17
472.18	332.71
472.55	331.67
472.92	330.20
473.28	328.98
473.65	327.97
474.02	326.81
474.38	325.97
474.75	325.37
475.11	324.54
475.48	323.97
475.85	323.31
476.21	322.65
476.58	322.21
476.94	321.86
477.31	321.30
477.67	320.87
478.04	320.45
478.41	320.31
478.77	320.65
479.14	320.45
479.50	320.39
479.87	320.47
480.23	320.46
480.60	320.48
480.96	320.64
481.33	320.97
481.69	321.19
482.06	321.45
482.42	321.69
482.79	322.07
483.15	322.43
483.52	323.00
483.88	323.43
484.25	323.97
484.61	324.55
484.98	325.26
485.34	326.27
485.71	327.28
486.07	328.28
486.44	328.82
486.80	329.84
487.17	330.99
487.53	332.35
487.90	333.77
488.26	335.52
488.62	337.12
488.99	338.71
489.35	340.57
489.72	342.29
490.08	344.20
490.44	346.17
490.81	348.37
491.17	350.59
491.54	353.16
491.90	355.74
492.26	358.52
492.63	361.44
492.99	364.29
493.36	367.30
493.72	370.57
494.08	373.90
494.45	377.64
494.81	381.61
495.17	385.46
495.54	389.58
495.90	393.73
496.26	398.21
496.63	402.78
496.99	407.65
497.35	412.79
497.72	418.10
498.08	423.67
498.44	429.41
498.80	435.42
499.17	441.51
499.53	447.78
499.89	454.50
500.26	461.40
500.62	468.38
500.98	475.93
501.34	483.47
501.71	491.34
502.07	499.21
502.43	507.14
502.79	515.60
503.16	524.43
503.52	533.65
503.88	542.98
504.24	552.67
504.60	562.60
504.97	573.05
505.33	583.59
505.69	594.63
506.05	605.62
506.41	616.89
506.78	628.60
507.14	640.76
507.50	653.00
507.86	665.50
508.22	678.56
508.59	691.49
508.95	705.02
509.31	719.02
509.67	733.32
510.03	747.69
510.39	762.34
510.75	777.40
511.12	792.47
511.48	808.06
511.84	823.93
512.20	839.89
512.56	856.12
512.92	873.03
513.28	889.85
513.64	907.22
514.00	925.00
514.37	942.69
514.73	960.56
515.09	978.83
515.45	997.42
515.81	1015.89
516.17	1034.91
516.53	1053.58
516.89	1072.51
517.25	1091.90
517.61	1112.30
517.97	1132.82
518.33	1152.88
518.69	1173.31
519.05	1193.93
519.41	1214.74
519.77	1235.82
520.13	1256.53
520.49	1277.19
520.85	1298.34
521.21	1319.49
521.57	1340.72
521.93	1361.67
522.29	1383.30
522.65	1403.96
523.01	1424.83
523.37	1445.51
523.73	1466.44
524.09	1487.30
524.45	1508.11
524.81	1529.08
525.17	1549.56
525.53	1569.85
525.89	1590.98
526.25	1611.75
526.61	1632.20
526.97	1653.00
527.33	1674.44
527.68	1696.52
528.04	1717.84
528.40	1738.71
528.76	1759.84
529.12	1780.40
529.48	1801.60
529.84	1821.50
530.20	1842.91
530.56	1863.75
530.91	1884.99
531.27	1905.58
531.63	1926.36
531.99	1946.98
532.35	1967.36
532.71	1987.91
533.07	2009.11
533.42	2029.05
533.78	2049.17
534.14	2069.05
534.50	2088.59
534.86	2107.81
535.21	2125.76
535.57	2144.38
535.93	2162.42
536.29	2180.29
536.65	2198.44
537.00	2215.91
537.36	2233.86
537.72	2250.44
538.08	2267.95
538.44	2284.56
538.79	2300.77
539.15	2317.30
539.51	2333.72
539.87	2348.85
540.22	2362.81
540.58	2377.05
540.94	2390.40
541.29	2403.29
541.65	2416.18
542.01	2428.70
542.37	2439.16
542.72	2449.63
543.08	2460.37
543.44	2472.01
543.79	2482.07
544.15	2492.42
544.51	2502.55
544.87	2512.19
545.22	2520.83
545.58	2528.48
545.94	2535.82
546.29	2542.50
546.65	2548.80
547.01	2554.12
547.36	2559.77
547.72	2565.34
548.07	2569.20
548.43	2574.50
548.79	2579.20
549.14	2583.18
549.50	2587.02
549.86	2591.64
550.21	2595.98
550.57	2599.45
550.92	2600.66
551.28	2602.31
551.64	2604.22
551.99	2606.11
552.35	2607.64
552.70	2609.81
553.06	2611.33
553.41	2612.68
553.77	2614.92
554.13	2616.42
554.48	2618.19
554.84	2619.75
555.19	2621.00
555.55	2622.80
555.90	2621.82
556.26	2620.93
556.61	2619.41
556.97	2617.26
557.32	2616.33
557.68	2615.00
558.03	2613.64
558.39	2612.64
558.74	2611.60
559.10	2608.35
559.45	2604.51
559.81	2600.30
560.16	2595.08
560.52	2590.16
560.87	2585.78
561.23	2579.84
561.58	2574.30
561.94	2567.20
562.29	2559.65
562.64	2552.54
563.00	2544.06
563.35	2537.65
563.71	2531.15
564.06	2525.08
564.42	2518.42
564.77	2511.45
565.12	2504.04
565.48	2496.13
565.83	2487.96
566.19	2479.86
566.54	2472.23
566.89	2464.59
567.25	2456.83
567.60	2449.86
567.96	2442.54
568.31	2434.60
568.66	2426.13
569.02	2417.07
569.37	2408.83
569.72	2401.24
570.08	2392.10
570.43	2382.77
570.78	2374.12
571.14	2364.39
571.49	2353.94
571.84	2344.44
572.20	2333.31
572.55	2322.91
572.90	2311.81
573.26	2301.51
573.61	2290.68
573.96	2279.51
574.31	2267.29
574.67	2255.37
575.02	2242.50
575.37	2229.95
575.72	2216.34
576.08	2204.36
576.43	2191.41
576.78	2178.39
577.13	2164.82
577.49	2152.08
577.84	2140.22
578.19	2127.82
578.54	2115.15
578.90	2103.18
579.25	2090.88
579.60	2078.43
579.95	2065.50
580.30	2052.41
580.66	2039.21
581.01	2025.34
581.36	2011.39
581.71	1998.95
582.06	1986.08
582.42	1973.82
582.77	1961.00
583.12	1949.06
583.47	1936.69
583.82	1924.90
584.17	1912.82
584.53	1900.57
584.88	1887.82
585.23	1874.71
585.58	1860.36
585.93	1847.29
586.28	1833.83
586.63	1819.71
586.98	1805.55
587.34	1792.37
587.69	1779.10
588.04	1766.35
588.39	1754.35
588.74	1742.07
589.09	1729.73
589.44	1716.76
589.79	1704.39
590.14	1692.15
590.49	1679.92
590.84	1667.57
591.19	1655.36
591.54	1643.14
591.89	1631.11
592.25	1620.63
592.60	1609.07
592.95	1597.61
593.30	1585.47
593.65	1573.65
594.00	1561.58
594.35	1551.75
594.70	1539.58
595.05	1528.28
595.40	1516.00
595.75	1504.00
596.10	1492.53
596.45	1480.92
596.80	1470.00
597.15	1458.59
597.50	1446.95
597.85	1435.70
598.19	1424.08
598.54	1412.22
598.89	1400.90
599.24	1390.14
599.59	1378.30
599.94	1367.26
600.29	1356.70
600.64	1346.34
600.99	1335.66
601.34	1326.08
601.69	1314.86
602.04	1305.15
602.39	1295.54
602.74	1286.46
603.08	1277.21
603.43	1268.00
603.78	1258.03
604.13	1248.48
604.48	1238.53
604.83	1228.64
605.18	1218.79
605.53	1209.33
605.87	1200.69
606.22	1191.78
606.57	1182.38
606.92	1173.00
607.27	1164.28
607.62	1155.58
607.96	1147.11
608.31	1138.97
608.66	1130.43
609.01	1121.81
609.36	1113.20
609.70	1104.30
610.05	1095.45
610.40	1086.50
610.75	1077.52
611.10	1069.48
611.44	1060.84
611.79	1052.52
612.14	1044.79
612.49	1036.92
612.83	1029.33
613.18	1021.36
613.53	1013.82
613.88	1005.89
614.22	998.22
614.57	990.08
614.92	982.18
615.27	974.47
615.61	966.70
615.96	959.01
616.31	951.42
616.65	944.37
617.00	937.15
617.35	929.85
617.70	922.96
618.04	915.83
618.39	908.59
618.74	902.09
619.08	895.30
619.43	887.99
619.78	880.83
620.12	873.47
620.47	866.31
620.82	859.02
621.16	852.25
621.51	845.73
621.85	839.48
622.20	832.81
622.55	826.15
622.89	819.56
623.24	813.25
623.59	806.98
623.93	800.48
624.28	794.19
624.62	788.49
624.97	782.55
625.32	776.75
625.66	770.74
626.01	764.35
626.35	758.85
626.70	753.26
627.04	747.99
627.39	742.44
627.73	737.01
628.08	731.77
628.43	726.30
628.77	720.79
629.12	715.54
629.46	710.72
629.81	705.94
630.15	701.15
630.50	696.20
630.84	691.25
631.19	686.40
631.53	681.78
631.88	676.48
632.22	671.57
632.57	667.16
632.91	662.55
633.26	658.33
633.60	653.70
633.95	649.11
634.29	644.34
634.64	640.11
634.98	635.38
635.32	631.04
635.67	627.06
636.01	622.85
636.36	618.24
636.70	614.14
637.05	609.96
637.39	605.84
637.73	601.77
638.08	597.63
638.42	593.48
638.77	589.17
639.11	584.85
639.45	580.49
639.80	576.01
640.14	571.99
640.49	567.90
640.83	563.92
641.17	560.32
641.52	556.64
641.86	552.93
642.20	549.90
642.55	546.21
642.89	542.47
643.23	539.02
643.58	535.96
643.92	532.22
644.26	528.84
644.61	525.54
644.95	522.15
645.29	518.76
645.64	515.70
645.98	512.63
646.32	509.78
646.66	506.69
647.01	503.76
647.35	500.90
647.69	497.97
648.04	495.17
648.38	492.27
648.72	489.33
649.06	486.12
649.41	482.88
649.75	479.84
650.09	476.95
650.43	474.08
650.78	471.12
651.12	468.36
651.46	465.46
651.80	462.71
652.14	460.06
652.49	457.60
652.83	454.85
653.17	452.14
653.51	449.40
653.85	447.02
654.20	444.45
654.54	441.86
654.88	439.40
655.22	437.09
655.56	434.70
655.90	432.35
656.25	430.24
656.59	427.97
656.93	425.78
657.27	423.68
657.61	421.24
657.95	418.95
658.29	416.70
658.64	414.53
658.98	412.33
659.32	410.05
659.66	407.78
660.00	405.69
660.34	403.59
660.68	401.68
661.02	399.55
661.36	397.58
661.70	395.53
662.05	393.40
662.39	391.44
662.73	389.58
663.07	387.85
663.41	385.95
663.75	384.00
664.09	382.19
664.43	380.27
664.77	378.58
665.11	376.85
665.45	375.19
665.79	373.64
666.13	371.88
666.47	370.24
666.81	368.54
667.15	366.79
667.49	365.39
667.83	363.93
668.17	362.46
668.51	360.97
668.85	359.59
669.19	358.55
669.53	356.93
669.87	355.39
670.21	353.84
670.55	352.46
670.89	351.38
671.23	350.00
671.57	348.60
671.91	347.27
672.25	345.94
672.58	344.70
672.92	343.20
673.26	341.97
673.60	340.80
673.94	339.68
674.28	338.65
674.62	337.50
674.96	336.28
675.30	335.13
675.64	333.91
675.97	332.64
676.31	331.18
676.65	329.99
676.99	329.03
677.33	327.93
677.67	326.85
678.01	325.53
678.34	324.40
678.68	323.51
679.02	322.43
679.36	321.39
679.70	320.30
680.04	319.39
680.37	318.43
680.71	317.30
681.05	316.38
681.39	315.47
681.73	314.49
682.06	313.61
682.40	312.70
682.74	311.92
683.08	311.32
683.42	310.42
683.75	309.69
684.09	308.70
684.43	307.88
684.77	307.10
685.10	306.33
685.44	305.58
685.78	304.62
686.12	303.98
686.45	303.17
686.79	302.38
687.13	301.66
687.46	300.93
687.80	300.34
688.14	299.44
688.48	298.70
688.81	297.91
689.15	297.15
689.49	296.43
689.82	295.74
690.16	294.85
690.50	294.20
690.83	293.45
691.17	292.70
691.51	291.99
691.84	291.30
692.18	290.51
692.52	289.85
692.85	289.34
693.19	288.82
693.52	288.22
693.86	287.62
694.20	287.05
694.53	286.49
694.87	285.82
695.21	285.24
695.54	284.58
695.88	283.95
696.21	283.33
696.55	282.65
696.88	281.99
697.22	281.38
697.56	280.87
697.89	280.35
698.23	279.85
698.56	279.26
698.90	278.78
699.23	278.35
699.57	277.87
699.90	277.30
700.24	276.62
700.58	276.24
700.91	275.77
701.25	275.55
701.58	275.34
701.92	274.97
702.25	274.55
702.59	274.05
702.92	273.62
703.26	273.17
703.59	272.77
703.93	272.79
704.26	272.41
704.60	271.96
704.93	271.40
705.26	270.85
705.60	270.55
705.93	269.93
706.27	269.63
706.60	269.28
706.94	269.05
707.27	268.66
707.61	268.14
707.94	267.78
708.27	267.00
708.61	266.30
708.94	265.84
709.28	265.47
709.61	265.09
709.94	264.74
710.28	264.41
710.61	264.16
710.95	263.28
711.28	263.27
711.61	262.88
711.95	262.64
712.28	262.23
712.61	261.81
712.95	261.81
713.28	261.68
713.61	261.23
713.95	260.76
714.28	260.40
714.61	260.08
714.95	259.62
715.28	259.26
715.61	258.92
715.95	258.65
716.28	258.26
716.61	258.04
716.95	257.67
717.28	257.27
717.61	256.85
717.94	256.64
718.28	256.00
718.61	255.72
718.94	255.42
719.27	255.18
719.61	255.00
719.94	254.52
720.27	253.97
720.60	253.71
720.94	253.42
721.27	253.24
721.60	253.08
721.93	252.86
722.27	252.77
722.60	252.59
722.93	252.27
723.26	252.13
723.59	251.80
723.93	251.60
724.26	251.41
724.59	251.18
724.92	250.90
725.25	250.82
725.59	250.59
725.92	250.46
726.25	250.36
726.58	250.23
726.91	250.08
727.24	249.92
727.57	249.70
727.91	249.39
728.24	249.20
728.57	248.91
728.90	248.81
729.23	248.48
729.56	248.54
729.89	248.40
730.22	248.12
730.55	247.95
730.89	247.81
731.22	247.57
731.55	247.42
731.88	247.38
732.21	247.10
732.54	246.87
732.87	246.63
733.20	246.41
733.53	246.20
733.86	246.05
734.19	245.86
734.52	245.87
734.85	246.08
735.18	245.80
735.51	245.87
735.84	245.70
736.17	245.68
736.50	245.29
736.83	245.72
737.16	245.65
737.49	245.47
737.82	245.32
738.15	245.32
738.48	245.14
738.81	244.89
739.14	244.68
739.47	244.57
739.80	244.41
740.13	244.35
740.46	244.12
740.79	243.97
741.12	243.75
741.45	243.44
741.78	243.09
742.11	243.12
742.44	242.83
742.77	242.77
743.10	242.54
743.43	242.38
743.75	241.70
744.08	242.17
744.41	242.02
744.74	241.81
745.07	241.50
745.40	241.41
745.73	241.50
746.06	241.39
746.39	241.32
746.71	241.13
747.04	240.88
747.37	240.70
747.70	240.61
748.03	240.53
748.36	240.47
748.68	240.31
749.01	240.04
749.34	239.88
749.67	239.74
750.00	239.71
750.33	239.90
750.65	239.88
750.98	239.08
751.31	239.01
751.64	238.88
751.97	239.06
752.29	238.96
752.62	238.63
752.95	238.52
753.28	238.32
753.60	238.16
753.93	238.15
754.26	238.20
754.59	237.93
754.91	237.75
755.24	237.62
755.57	237.50
755.90	237.47
756.22	237.35
756.55	237.13
756.88	236.91
757.20	236.43
757.53	236.06
757.86	236.02
758.19	235.90
758.51	235.90
758.84	235.56
759.17	235.39
759.49	235.28
759.82	235.35
760.15	235.34
760.47	235.36
760.80	235.15
761.13	235.09
761.45	235.00
761.78	234.94
762.11	234.84
762.43	234.70
762.76	234.54
763.08	234.49
763.41	234.47
763.74	234.43
764.06	234.39
764.39	234.33
764.71	234.23
765.04	234.19
765.37	234.05
765.69	234.02
766.02	233.95
766.34	233.89
766.67	233.72
767.00	233.70
767.32	233.83
767.65	234.07
767.97	233.93
768.30	233.89
768.62	233.83
768.95	233.78
769.27	233.77
769.60	233.78
769.92	233.67
770.25	233.55
770.57	233.41
770.90	233.45
771.22	233.45
771.55	233.39
771.87	233.30
772.20	233.24
772.52	233.63
772.85	234.18
773.17	234.13
773.50	234.07
773.82	233.92
774.15	233.64
774.47	233.31
774.80	233.21
775.12	233.17
775.45	233.16
775.77	233.11
776.09	233.12
776.42	233.11
776.74	233.19
777.07	233.09
777.39	233.06
777.72	232.92
778.04	232.89
778.36	232.86
778.69	232.87
779.01	232.86
779.33	232.30
779.66	231.73
779.98	231.67
780.31	231.64
780.63	231.86
780.95	231.97
781.28	231.99
781.60	231.92
781.92	231.86
782.25	231.84
782.57	231.84
782.89	231.74
783.22	231.65
783.54	231.55
783.86	231.59
784.19	231.63
784.51	231.72
784.83	231.59
785.16	231.45
785.48	231.48
785.80	231.43
786.12	231.50
786.45	231.44
786.77	231.35
787.09	231.25
787.42	230.98
787.74	230.85
788.06	230.78
788.38	230.72
788.71	230.68
789.03	230.65
789.35	230.58
789.67	230.42
789.99	230.44
790.32	230.27
790.64	230.31
790.96	230.63
791.28	230.39
791.61	230.41
791.93	230.49
792.25	230.36
792.57	230.64
792.89	230.47
793.21	230.36
793.54	230.34
793.86	230.23
794.18	230.23
794.50	230.12
794.82	230.09
795.14	230.13
795.47	230.18
795.79	230.13
796.11	230.04
796.43	230.03
796.75	229.92
797.07	230.02
797.39	229.96
797.71	229.59
798.04	229.59
798.36	229.62
798.68	229.55
799.00	229.52
799.32	229.24
799.64	229.29
799.96	229.36
800.28	229.40
800.60	229.40
800.92	229.45
801.24	229.41
801.56	229.39
801.89	229.36
802.21	229.34
802.53	229.26
802.85	229.35
803.17	229.56
803.49	229.50
803.81	229.44
804.13	229.40
804.45	229.30
804.77	229.39
805.09	229.28
805.41	229.24
805.73	229.20
806.05	229.13
806.37	229.13
806.69	229.11
807.01	229.06
807.33	229.02
807.65	228.82
807.97	229.09
808.28	229.07
808.60	229.01
808.92	228.93
809.24	229.17
809.56	229.18
809.88	229.08
810.20	229.12
810.52	229.23
810.84	229.12
811.16	229.12
811.48	229.02
811.80	229.18
812.12	229.21
812.43	229.25
812.75	229.30
813.07	229.22
813.39	229.25
813.71	229.22
814.03	229.19
814.35	229.27
814.67	229.03
814.98	229.01
815.30	228.99
815.62	228.92
815.94	228.68
816.26	228.80
816.58	228.60
816.89	228.60
817.21	228.49
817.53	228.53
817.85	228.54
818.17	228.45
818.48	228.32
818.80	228.34
819.12	228.32
819.44	228.25
819.76	228.26
820.07	228.24
820.39	228.24
820.71	228.39
821.03	228.33
821.34	228.21
821.66	228.29
821.98	228.40
822.30	228.43
822.61	228.70
822.93	228.44
823.25	228.52
823.57	228.50
823.88	228.59
824.20	228.62
824.52	228.62
824.83	228.71
825.15	228.59
825.47	228.58
825.79	228.65
826.10	228.60
826.42	228.53
826.74	228.56
827.05	228.57
827.37	228.49
827.69	228.47
828.00	228.64
828.32	228.56
828.64	228.48
828.95	228.67
829.27	228.50
829.58	228.51
829.90	228.55
830.22	228.56
830.53	228.36
830.85	228.30
831.17	228.23
831.48	228.21
831.80	228.35
832.11	228.27
832.43	228.13
832.75	228.14
833.06	228.41
833.38	228.25
833.69	228.20
834.01	228.20
834.32	228.16
834.64	228.01
834.96	227.95
835.27	227.94
835.59	227.79
835.90	227.76
836.22	227.71
836.53	227.58
836.85	227.57
837.16	228.05
837.48	227.97
837.79	228.06
838.11	228.05
838.42	228.00
838.74	228.03
839.05	227.99
839.37	227.98
839.68	227.64
840.00	227.54
840.31	227.63
840.63	227.59
840.94	227.53
841.26	227.48
841.57	227.52
841.88	227.45
842.20	227.35
842.51	227.20
842.83	227.25
843.14	227.67
843.46	227.55
843.77	227.31
844.08	227.25
844.40	227.13
844.71	227.12
845.03	227.06
845.34	227.01
845.65	227.02
845.97	226.90
846.28	226.93
846.60	227.02
846.91	226.96
847.22	226.96
847.54	227.07
847.85	227.11
848.16	227.00
848.48	226.99
848.79	227.21
849.10	227.27
849.42	227.30
849.73	226.87
850.04	226.95
850.36	226.77
850.67	226.97
850.98	227.05
851.30	227.04
851.61	227.03
851.92	226.99
852.23	227.16
852.55	227.28
852.86	227.29
853.17	227.32
853.49	227.42
853.80	227.46
854.11	227.54
854.42	227.60
854.74	227.60
855.05	227.67
855.36	227.40
855.67	227.36
855.99	227.34
856.30	227.93
856.61	227.92
856.92	227.87
857.23	227.78
857.55	227.69
857.86	227.65
858.17	227.75
858.48	227.76
858.79	227.62
859.11	227.67
859.42	227.72
859.73	227.69
860.04	227.68
860.35	227.49
860.66	227.31
860.98	227.31
861.29	227.38
861.60	227.26
861.91	227.33
862.22	227.32
862.53	227.24
862.84	226.64
863.16	226.75
863.47	226.75
863.78	226.75
864.09	226.82
864.40	226.91
864.71	226.92
865.02	226.92
865.33	226.85
865.64	226.73
865.95	226.70
866.27	226.99
866.58	226.88
866.89	226.97
867.20	226.92
867.51	226.88
867.82	226.92
868.13	227.14
868.44	227.03
868.75	227.07
869.06	227.10
869.37	227.13
869.68	226.99
869.99	227.05
870.30	227.07
870.61	227.09
870.92	226.99
871.23	226.94
871.54	227.03
871.85	227.23
872.16	227.29
872.47	227.30
872.78	227.06
873.09	227.16
873.40	227.11
873.71	227.14
874.02	227.14
874.33	227.03
874.64	226.86
874.95	226.99
875.26	226.92
875.56	226.90
875.87	226.83
876.18	226.80
876.49	227.22
876.80	227.23
877.11	227.16
877.42	227.24
877.73	227.33
878.04	227.26
878.35	227.25
878.66	227.24
878.96	227.20
879.27	227.18
879.58	227.14
879.89	227.13
880.20	227.26
880.51	227.25
880.82	227.31
881.12	227.33
881.43	227.24
881.74	227.22
882.05	227.26
882.36	227.35
882.67	227.37
882.97	226.85
883.28	226.83
883.59	226.85
883.90	226.88
884.21	226.87
884.51	226.86
884.82	226.69
885.13	226.76
885.44	226.71
885.74	226.66
886.05	226.62
886.36	226.66
886.67	226.59
886.98	226.89
887.28	226.91
887.59	226.95
887.90	226.98
888.20	226.95
888.51	227.04
888.82	226.93
889.13	226.99
889.43	227.45
889.74	227.36
890.05	227.37
890.35	227.30
890.66	227.28
890.97	227.19
891.28	227.27
891.58	227.27
891.89	227.34
892.20	227.28
892.50	227.25
892.81	227.28
893.12	227.26
893.42	226.95
893.73	226.94
894.04	226.94
894.34	226.95
894.65	226.98
894.95	226.94
895.26	227.03
895.57	227.17
895.87	226.71
896.18	226.81
896.48	226.81
896.79	226.81
897.10	226.80
897.40	226.79
897.71	226.75
898.01	226.66
898.32	226.70
898.63	226.73
898.93	226.78
899.24	226.77
899.54	226.73
899.85	226.69
900.15	226.63
900.46	226.60
900.76	226.66
901.07	226.65
901.38	226.58
901.68	226.63
901.99	226.35
902.29	226.32
902.60	226.30
902.90	226.25
903.21	226.21
903.51	226.11
903.82	226.25
904.12	226.30
904.43	226.33
904.73	226.30
905.03	226.25
905.34	226.68
905.64	226.70
905.95	226.65
906.25	226.67
906.56	226.71
906.86	226.74
907.17	226.72
907.47	226.70
907.77	226.67
908.08	226.47
908.38	226.52
908.69	226.61
908.99	226.64
909.30	226.63
909.60	226.61
909.90	226.76
910.21	226.65
910.51	226.55
910.81	226.56
911.12	226.62
911.42	226.66
911.73	226.12
912.03	226.10
912.33	226.16
912.64	226.16
912.94	226.15
913.24	226.09
913.55	225.99
913.85	226.00
914.15	226.12
914.46	226.27
914.76	226.26
915.06	226.29
915.37	226.22
915.67	226.22
915.97	226.22
916.27	226.09
916.58	226.11
916.88	226.10
917.18	226.05
917.49	226.30
917.79	226.29
918.09	226.39
918.39	226.51
918.70	226.51
919.00	226.56
919.30	226.76
919.60	226.73
919.91	226.78
920.21	226.81
920.51	226.69
920.81	226.65
921.12	226.78
921.42	226.70
921.72	226.72
922.02	226.82
922.32	226.88
922.63	226.85
922.93	227.07
923.23	227.14
923.53	227.10
923.83	226.84
924.13	226.95
924.44	226.97
924.74	226.97
925.04	227.08
925.34	226.99
925.64	226.78
925.94	226.82
926.24	227.06
926.55	227.03
926.85	227.07
927.15	227.02
927.45	226.98
927.75	226.99
928.05	227.06
928.35	226.98
928.65	227.06
928.95	227.13
929.26	226.98
929.56	227.02
929.86	227.07
930.16	226.98
930.46	226.93
930.76	226.91
931.06	226.73
931.36	226.65
931.66	226.77
931.96	226.79
932.26	226.75
932.56	226.54
932.86	226.57
933.16	226.65
933.46	226.68
933.76	226.63
934.06	226.75
934.36	226.88
934.66	226.77
934.96	226.79
935.26	226.80
935.56	226.85
935.86	226.71
936.16	226.64
936.46	226.58
936.76	226.57
937.06	226.46
937.36	226.50
937.66	226.47
937.96	226.44
938.26	226.35
938.56	226.35
938.86	226.35
939.16	226.46
939.46	226.47
939.76	226.45
940.06	226.43
940.35	226.30
940.65	226.03
940.95	226.10
941.25	225.92
941.55	225.80
941.85	225.74
942.15	225.85
942.45	226.02
942.75	226.04
943.04	226.03
943.34	226.19
943.64	226.17
943.94	226.16
944.24	226.16
944.54	226.16
944.84	226.19
945.13	226.15
945.43	225.99
945.73	225.95
946.03	225.96
946.33	225.86
946.62	225.85
946.92	225.91
947.22	225.93
947.52	225.97
947.82	226.10
948.11	225.98
948.41	225.90
948.71	225.67
949.01	225.68
949.31	225.65
949.60	225.55
949.90	225.66
950.20	225.62
950.50	225.56
950.79	225.55
951.09	225.58
951.39	225.57
951.69	225.61
951.98	225.67
952.28	225.68
952.58	225.75
952.87	225.78
953.17	225.81
953.47	225.79
953.76	225.81
954.06	225.76
954.36	225.84
954.66	225.79
954.95	225.96
955.25	226.11
955.55	226.12
955.84	226.08
956.14	226.06
956.44	226.11
956.73	226.10
957.03	226.14
957.32	226.14
957.62	226.13
957.92	226.18
958.21	226.20
958.51	226.77
958.81	226.84
959.10	226.89
959.40	226.99
959.69	227.06
959.99	227.17
960.29	227.14
960.58	227.10
960.88	227.31
961.17	227.25
961.47	227.25
961.76	227.25
962.06	227.35
962.36	227.30
962.65	227.38
962.95	227.43
963.24	227.37
963.54	227.47
963.83	227.52
964.13	227.54
964.42	227.38
964.72	226.95
965.01	226.98
965.31	226.99
965.60	226.88
965.90	227.19
966.19	227.09
966.49	227.14
966.78	227.18
967.08	227.14
967.37	227.23
967.67	227.10
967.96	227.22
968.26	227.20
968.55	227.31
968.85	227.20
969.14	227.14
969.43	227.18
969.73	227.07
970.02	226.95
970.32	226.91
970.61	226.91
970.91	226.72
971.20	226.61
971.49	226.52
971.79	226.55
972.08	226.22
972.38	226.22
972.67	226.19
972.96	226.18
973.26	226.18
973.55	226.25
973.85	226.31
974.14	226.24
974.43	226.28
974.73	226.15
975.02	226.15
975.31	226.14
975.61	226.06
975.90	225.95
976.19	225.91
976.49	225.90
976.78	225.90
977.07	225.91
977.37	225.95
977.66	226.01
977.95	225.93
978.24	225.95
978.54	226.02
978.83	225.94
979.12	225.94
979.42	225.82
979.71	225.73
980.00	225.61
980.29	225.62
980.59	225.52
980.88	225.63
981.17	225.59
981.46	225.61
981.76	225.68
982.05	225.90
982.34	225.97
982.63	226.03
982.93	226.04
983.22	226.18
983.51	226.20
983.80	226.26
984.09	226.39
984.39	226.31
984.68	226.27
984.97	226.33
985.26	226.31
985.55	226.35
985.85	226.23
986.14	226.41
986.43	226.41
986.72	226.43
987.01	226.29
987.30	226.32
987.59	226.33
987.89	226.29
988.18	226.10
988.47	226.15
988.76	226.06
989.05	225.99
989.34	225.92
989.63	226.04
989.92	225.95
990.22	225.89
990.51	225.92
990.80	225.87
991.09	225.98
991.38	225.98
991.67	226.02
991.96	226.07
992.25	226.00
992.54	225.96
992.83	225.95
993.12	225.94
993.41	226.14
993.70	226.30
993.99	226.51
994.28	226.64
994.58	226.65
994.87	226.69
995.16	226.82
995.45	226.81
995.74	226.62
996.03	226.69
996.32	226.71
996.61	226.84
996.90	226.84
997.19	226.83
997.48	226.88
997.77	226.81
998.06	226.89
998.34	226.92
998.63	226.95
998.92	227.00
999.21	227.08
999.50	227.00
999.79	226.87
1000.08	226.77
1000.37	226.77
1000.66	226.68
1000.95	226.78
1001.24	226.76
1001.53	226.80
1001.82	226.90
1002.11	226.82
1002.40	226.93
1002.68	227.07
1002.97	227.41
1003.26	227.33
1003.55	227.25
1003.84	227.29
1004.13	227.35
1004.42	227.30
1004.71	227.32
1004.99	227.24
1005.28	227.43
1005.57	227.37
1005.86	227.35
1006.15	227.30
1006.44	227.20
1006.72	227.30
1007.01	227.17
1007.30	227.16
1007.59	227.10
1007.88	227.04
1008.17	227.07
1008.45	226.91
1008.74	226.67
1009.03	226.42
1009.32	226.42
1009.60	226.39
1009.89	226.29
1010.18	226.11
1010.47	226.12
1010.76	226.07
1011.04	226.07
1011.33	226.06
1011.62	226.11
1011.91	226.14
1012.19	226.18
1012.48	226.23
1012.77	226.18
1013.05	226.44
1013.34	226.51
1013.63	226.47
1013.92	226.54
1014.20	226.53
1014.49	226.60
1014.78	226.63
1015.06	226.48
1015.35	226.43
1015.64	226.54
1015.92	226.64
1016.21	226.67
1016.50	226.61
1016.78	226.66
1017.07	226.73
1017.36	226.60
1017.64	226.47
1017.93	226.47
1018.22	226.43
1018.50	226.43
1018.79	226.44
1019.08	226.16
1019.36	226.05
1019.65	225.99
1019.93	226.00
1020.22	226.07
1020.51	226.31
1020.79	226.20
1021.08	225.80
1021.36	226.15
1021.65	225.75
1021.94	225.65
1022.22	225.05
1022.51	224.15
1022.79	227.30
1023.08	227.70
1023.36	232.60
1023.65	224.30
>>>>>End Processed Spectral Data<<<<<
