SpectraSuite Data File
++++++++++++++++++++++++++++++++++++
Date: Wed Sep 04 17:42:01 EDT 2013
User: lab3
Dark Spectrum Present: Yes
Reference Spectrum Present: No
Number of Sampled Component Spectra: 1
Spectrometers: USB2E7196
Integration Time (usec): 170000 (USB2E7196)
Spectra Averaged: 20 (USB2E7196)
Boxcar Smoothing: 10 (USB2E7196)
Correct for Electrical Dark: No (USB2E7196)
Strobe/Lamp Enabled: No (USB2E7196)
Correct for Detector Non-linearity: No (USB2E7196)
Correct for Stray Light: No (USB2E7196)
Number of Pixels in Processed Spectrum: 2048
>>>>>Begin Processed Spectral Data<<<<<
339.09	0.00
339.48	211.80
339.86	213.60
340.24	215.65
340.63	216.65
341.01	226.45
341.39	218.65
341.78	221.90
342.16	223.45
342.54	222.35
342.93	211.77
343.31	222.40
343.69	223.02
344.07	223.50
344.46	223.96
344.84	224.40
345.22	224.33
345.60	224.69
345.99	224.86
346.37	224.98
346.75	225.08
347.13	225.11
347.52	225.17
347.90	225.40
348.28	225.46
348.66	225.60
349.05	225.46
349.43	225.52
349.81	225.56
350.19	225.57
350.57	225.60
350.96	225.71
351.34	225.90
351.72	225.92
352.10	226.06
352.48	226.08
352.87	226.10
353.25	226.13
353.63	226.08
354.01	226.08
354.39	226.11
354.77	226.20
355.15	226.40
355.54	226.37
355.92	226.27
356.30	226.35
356.68	226.70
357.06	226.77
357.44	226.78
357.82	226.87
358.20	227.34
358.58	227.44
358.97	227.46
359.35	227.59
359.73	227.75
360.11	227.75
360.49	227.87
360.87	227.89
361.25	227.96
361.63	228.22
362.01	228.34
362.39	228.38
362.77	228.44
363.15	228.39
363.53	228.49
363.91	228.52
364.29	228.53
364.67	228.09
365.05	228.16
365.43	228.22
365.81	228.29
366.19	228.14
366.57	228.32
366.95	228.32
367.33	228.18
367.71	228.13
368.09	228.27
368.47	228.25
368.85	228.29
369.23	228.43
369.61	228.25
369.99	228.37
370.37	228.46
370.75	228.65
371.13	228.61
371.51	228.54
371.89	228.59
372.27	228.60
372.65	228.59
373.03	228.55
373.41	228.43
373.78	228.35
374.16	228.11
374.54	227.92
374.92	227.86
375.30	227.86
375.68	227.78
376.06	227.73
376.44	227.64
376.82	227.58
377.19	227.46
377.57	227.37
377.95	227.16
378.33	227.02
378.71	226.70
379.09	226.72
379.47	226.69
379.84	226.58
380.22	226.47
380.60	226.39
380.98	226.26
381.36	226.22
381.73	226.07
382.11	226.05
382.49	226.03
382.87	225.95
383.25	225.89
383.62	226.40
384.00	226.13
384.38	226.11
384.76	226.20
385.13	226.36
385.51	226.28
385.89	226.16
386.27	226.11
386.64	226.13
387.02	225.99
387.40	225.91
387.78	225.84
388.15	225.82
388.53	225.73
388.91	225.71
389.29	225.69
389.66	225.72
390.04	225.60
390.42	225.65
390.79	225.62
391.17	225.47
391.55	224.93
391.92	225.00
392.30	224.98
392.68	224.83
393.05	224.74
393.43	224.81
393.81	224.89
394.18	224.84
394.56	224.83
394.94	224.95
395.31	224.96
395.69	225.17
396.06	225.30
396.44	225.43
396.82	225.49
397.19	225.80
397.57	225.85
397.95	226.06
398.32	225.94
398.70	225.98
399.07	226.21
399.45	226.24
399.82	226.40
400.20	226.52
400.58	226.66
400.95	226.59
401.33	226.81
401.70	227.25
402.08	227.38
402.45	227.53
402.83	227.76
403.20	227.89
403.58	227.94
403.95	228.14
404.33	228.36
404.71	228.58
405.08	228.89
405.46	229.05
405.83	229.25
406.21	229.51
406.58	229.86
406.96	230.13
407.33	230.44
407.70	230.65
408.08	231.33
408.45	231.67
408.83	232.14
409.20	232.36
409.58	232.44
409.95	232.94
410.33	233.42
410.70	233.70
411.08	234.28
411.45	234.83
411.82	235.21
412.20	235.86
412.57	236.78
412.95	237.09
413.32	237.82
413.69	238.52
414.07	239.38
414.44	240.18
414.82	241.06
415.19	242.13
415.56	243.15
415.94	243.88
416.31	245.14
416.68	246.35
417.06	247.68
417.43	249.07
417.81	250.54
418.18	251.97
418.55	253.60
418.93	255.19
419.30	256.91
419.67	258.85
420.04	260.65
420.42	262.46
420.79	265.02
421.16	267.38
421.54	269.85
421.91	272.27
422.28	274.87
422.66	277.55
423.03	280.44
423.40	283.20
423.77	286.11
424.15	289.01
424.52	292.07
424.89	295.65
425.26	298.95
425.64	302.08
426.01	305.60
426.38	309.29
426.75	313.13
427.13	316.96
427.50	320.85
427.87	324.94
428.24	328.94
428.61	332.63
428.99	337.05
429.36	341.66
429.73	346.27
430.10	350.86
430.47	355.55
430.85	360.20
431.22	365.42
431.59	371.17
431.96	376.36
432.33	382.05
432.70	387.50
433.08	394.01
433.45	400.20
433.82	406.37
434.19	413.12
434.56	419.80
434.93	426.15
435.30	432.66
435.68	439.77
436.05	446.91
436.42	453.89
436.79	460.31
437.16	467.19
437.53	474.49
437.90	481.79
438.27	488.89
438.64	496.18
439.01	503.15
439.38	509.02
439.75	514.98
440.13	521.78
440.50	528.04
440.87	533.03
441.24	538.28
441.61	544.15
441.98	548.32
442.35	553.12
442.72	558.15
443.09	563.04
443.46	565.96
443.83	567.97
444.20	569.65
444.57	571.83
444.94	572.79
445.31	573.73
445.68	574.92
446.05	575.14
446.42	574.11
446.79	572.97
447.16	571.66
447.53	570.73
447.90	567.76
448.27	564.85
448.64	560.92
449.01	557.98
449.37	552.92
449.74	548.12
450.11	542.48
450.48	536.07
450.85	529.37
451.22	523.66
451.59	518.19
451.96	512.93
452.33	506.19
452.70	500.12
453.07	492.90
453.43	485.23
453.80	478.33
454.17	471.74
454.54	465.40
454.91	458.71
455.28	451.94
455.65	445.73
456.02	440.25
456.38	435.02
456.75	428.58
457.12	423.27
457.49	417.98
457.86	412.80
458.23	408.57
458.59	403.95
458.96	399.28
459.33	395.06
459.70	390.95
460.07	387.67
460.43	383.80
460.80	380.36
461.17	377.39
461.54	374.06
461.91	370.94
462.27	367.63
462.64	364.93
463.01	362.14
463.38	359.44
463.74	356.00
464.11	353.46
464.48	351.37
464.85	348.85
465.21	347.08
465.58	345.17
465.95	342.88
466.32	341.02
466.68	339.07
467.05	337.27
467.42	335.37
467.78	333.45
468.15	331.68
468.52	330.37
468.88	328.38
469.25	326.86
469.62	325.59
469.98	324.35
470.35	323.11
470.72	321.90
471.08	320.46
471.45	319.52
471.82	318.54
472.18	317.34
472.55	316.60
472.92	315.53
473.28	314.62
473.65	313.70
474.02	312.86
474.38	312.32
474.75	311.71
475.11	311.09
475.48	310.63
475.85	310.22
476.21	309.70
476.58	309.48
476.94	309.19
477.31	308.91
477.67	308.57
478.04	308.37
478.41	308.18
478.77	308.61
479.14	308.33
479.50	308.22
479.87	308.23
480.23	308.25
480.60	308.35
480.96	308.48
481.33	308.91
481.69	309.23
482.06	309.52
482.42	309.79
482.79	310.14
483.15	310.64
483.52	311.20
483.88	311.75
484.25	312.17
484.61	312.81
484.98	313.52
485.34	314.45
485.71	315.42
486.07	316.36
486.44	316.74
486.80	317.76
487.17	318.78
487.53	320.11
487.90	321.42
488.26	322.89
488.62	324.50
488.99	325.87
489.35	327.45
489.72	329.06
490.08	330.82
490.44	332.65
490.81	334.71
491.17	336.80
491.54	339.03
491.90	341.47
492.26	343.94
492.63	346.39
492.99	349.03
493.36	351.78
493.72	354.84
494.08	358.07
494.45	361.50
494.81	365.11
495.17	368.57
495.54	372.45
495.90	376.20
496.26	380.18
496.63	384.40
496.99	388.80
497.35	393.44
497.72	398.27
498.08	403.16
498.44	408.22
498.80	413.62
499.17	419.05
499.53	424.74
499.89	430.68
500.26	436.84
500.62	442.90
500.98	449.52
501.34	456.15
501.71	462.96
502.07	469.80
502.43	476.92
502.79	484.27
503.16	491.74
503.52	499.76
503.88	507.70
504.24	516.25
504.60	525.07
504.97	533.96
505.33	542.95
505.69	552.72
506.05	562.27
506.41	571.97
506.78	582.12
507.14	592.50
507.50	603.06
507.86	613.88
508.22	625.08
508.59	636.10
508.95	647.74
509.31	659.95
509.67	672.31
510.03	684.41
510.39	696.89
510.75	709.70
511.12	722.54
511.48	735.93
511.84	749.10
512.20	762.23
512.56	775.95
512.92	790.07
513.28	804.12
513.64	818.60
514.00	833.17
514.37	847.81
514.73	862.61
515.09	878.01
515.45	892.99
515.81	908.11
516.17	923.49
516.53	938.76
516.89	953.87
517.25	969.48
517.61	986.10
517.97	1002.67
518.33	1018.96
518.69	1035.37
519.05	1051.90
519.41	1068.47
519.77	1085.64
520.13	1102.26
520.49	1118.60
520.85	1136.38
521.21	1153.03
521.57	1169.77
521.93	1186.19
522.29	1203.13
522.65	1218.82
523.01	1235.32
523.37	1251.31
523.73	1267.82
524.09	1283.93
524.45	1299.76
524.81	1315.78
525.17	1331.35
525.53	1346.93
525.89	1362.65
526.25	1378.35
526.61	1393.50
526.97	1409.19
527.33	1424.89
527.68	1441.05
528.04	1456.77
528.40	1471.07
528.76	1486.73
529.12	1502.05
529.48	1517.38
529.84	1532.05
530.20	1547.59
530.56	1562.44
530.91	1577.80
531.27	1592.43
531.63	1607.06
531.99	1621.55
532.35	1635.60
532.71	1649.80
533.07	1664.34
533.42	1678.47
533.78	1692.35
534.14	1706.42
534.50	1719.62
534.86	1732.85
535.21	1744.80
535.57	1757.34
535.93	1769.08
536.29	1780.94
536.65	1792.88
537.00	1804.71
537.36	1816.03
537.72	1827.00
538.08	1838.21
538.44	1849.12
538.79	1859.57
539.15	1870.08
539.51	1880.68
539.87	1890.43
540.22	1899.25
540.58	1908.38
540.94	1916.15
541.29	1923.65
541.65	1930.65
542.01	1938.12
542.37	1943.77
542.72	1949.76
543.08	1955.64
543.44	1962.38
543.79	1967.41
544.15	1972.69
544.51	1977.69
544.87	1982.27
545.22	1986.10
545.58	1989.63
545.94	1992.39
546.29	1994.67
546.65	1996.86
547.01	1998.65
547.36	2000.15
547.72	2001.74
548.07	2001.95
548.43	2003.13
548.79	2003.83
549.14	2004.58
549.50	2004.78
549.86	2005.25
550.21	2005.45
550.57	2005.42
550.92	2003.70
551.28	2002.33
551.64	2001.19
551.99	2000.00
552.35	1999.13
552.70	1998.35
553.06	1997.32
553.41	1995.97
553.77	1995.15
554.13	1994.12
554.48	1992.88
554.84	1991.62
555.19	1990.33
555.55	1989.22
555.90	1986.63
556.26	1984.17
556.61	1980.75
556.97	1976.69
557.32	1973.93
557.68	1971.16
558.03	1967.82
558.39	1964.75
558.74	1961.80
559.10	1957.25
559.45	1952.75
559.81	1947.41
560.16	1941.51
560.52	1935.80
560.87	1930.65
561.23	1924.59
561.58	1918.37
561.94	1911.46
562.29	1904.66
562.64	1897.52
563.00	1889.86
563.35	1883.51
563.71	1877.03
564.06	1870.81
564.42	1864.88
564.77	1858.17
565.12	1851.16
565.48	1844.73
565.83	1837.76
566.19	1830.87
566.54	1824.24
566.89	1816.96
567.25	1810.37
567.60	1804.33
567.96	1798.00
568.31	1790.95
568.66	1783.74
569.02	1776.21
569.37	1769.15
569.72	1762.35
570.08	1754.89
570.43	1747.08
570.78	1739.50
571.14	1731.55
571.49	1723.35
571.84	1715.47
572.20	1706.78
572.55	1698.25
572.90	1689.20
573.26	1680.62
573.61	1671.68
573.96	1662.60
574.31	1653.19
574.67	1643.68
575.02	1633.60
575.37	1623.36
575.72	1613.29
576.08	1603.75
576.43	1593.90
576.78	1583.88
577.13	1573.64
577.49	1563.72
577.84	1554.71
578.19	1545.60
578.54	1536.07
578.90	1527.18
579.25	1518.00
579.60	1508.71
579.95	1499.35
580.30	1489.62
580.66	1479.96
581.01	1470.01
581.36	1459.81
581.71	1450.48
582.06	1441.23
582.42	1432.18
582.77	1422.96
583.12	1414.23
583.47	1405.37
583.82	1396.77
584.17	1388.07
584.53	1379.45
584.88	1370.50
585.23	1360.80
585.58	1350.50
585.93	1341.00
586.28	1331.38
586.63	1321.21
586.98	1311.35
587.34	1301.76
587.69	1292.22
588.04	1283.10
588.39	1274.64
588.74	1265.85
589.09	1257.35
589.44	1248.15
589.79	1239.32
590.14	1230.79
590.49	1222.09
590.84	1213.64
591.19	1204.90
591.54	1196.28
591.89	1187.56
592.25	1180.18
592.60	1172.37
592.95	1164.60
593.30	1156.38
593.65	1148.00
594.00	1139.80
594.35	1133.17
594.70	1125.00
595.05	1117.20
595.40	1109.04
595.75	1100.61
596.10	1092.77
596.45	1084.83
596.80	1077.25
597.15	1069.56
597.50	1061.50
597.85	1053.72
598.19	1045.66
598.54	1037.80
598.89	1030.07
599.24	1022.54
599.59	1014.36
599.94	1006.80
600.29	999.63
600.64	992.67
600.99	985.70
601.34	979.07
601.69	971.05
602.04	964.40
602.39	957.63
602.74	951.33
603.08	945.01
603.43	938.87
603.78	932.20
604.13	925.58
604.48	919.00
604.83	912.60
605.18	906.15
605.53	899.84
605.87	893.79
606.22	887.94
606.57	881.84
606.92	875.70
607.27	869.61
607.62	863.61
607.96	857.88
608.31	852.31
608.66	846.60
609.01	840.80
609.36	835.10
609.70	829.42
610.05	823.50
610.40	817.76
610.75	812.01
611.10	806.44
611.44	800.86
611.79	795.15
612.14	789.73
612.49	784.28
612.83	779.04
613.18	773.63
613.53	768.30
613.88	762.89
614.22	757.55
614.57	752.24
614.92	746.94
615.27	741.65
615.61	736.35
615.96	731.17
616.31	726.18
616.65	721.44
617.00	716.57
617.35	711.67
617.70	706.77
618.04	701.87
618.39	697.14
618.74	692.77
619.08	688.26
619.43	683.61
619.78	678.69
620.12	673.80
620.47	669.19
620.82	664.44
621.16	659.90
621.51	655.78
621.85	651.56
622.20	647.10
622.55	642.63
622.89	638.14
623.24	633.96
623.59	629.64
623.93	625.30
624.28	621.18
624.62	617.63
624.97	613.82
625.32	609.89
625.66	605.80
626.01	601.58
626.35	597.89
626.70	593.95
627.04	590.60
627.39	586.90
627.73	583.50
628.08	580.11
628.43	576.43
628.77	572.52
629.12	568.85
629.46	565.60
629.81	562.57
630.15	559.37
630.50	556.02
630.84	552.79
631.19	549.54
631.53	546.30
631.88	542.49
632.22	539.14
632.57	536.28
632.91	533.28
633.26	530.31
633.60	527.10
633.95	524.04
634.29	520.67
634.64	517.84
634.98	514.54
635.32	511.45
635.67	508.78
636.01	506.10
636.36	503.19
636.70	500.34
637.05	497.37
637.39	494.54
637.73	491.88
638.08	489.20
638.42	486.24
638.77	483.32
639.11	480.43
639.45	477.42
639.80	474.30
640.14	471.43
640.49	468.59
640.83	465.96
641.17	463.50
641.52	460.96
641.86	458.31
642.20	456.14
642.55	453.62
642.89	451.22
643.23	448.67
643.58	446.47
643.92	443.95
644.26	441.62
644.61	439.47
644.95	437.01
645.29	434.63
645.64	432.56
645.98	430.49
646.32	428.53
646.66	426.45
647.01	424.32
647.35	422.48
647.69	420.55
648.04	418.57
648.38	416.60
648.72	414.65
649.06	412.57
649.41	410.46
649.75	408.47
650.09	406.45
650.43	404.54
650.78	402.54
651.12	400.65
651.46	398.75
651.80	396.77
652.14	394.85
652.49	393.14
652.83	391.22
653.17	389.34
653.51	387.47
653.85	385.85
654.20	384.18
654.54	382.24
654.88	380.46
655.22	378.93
655.56	377.26
655.90	375.64
656.25	374.09
656.59	372.45
656.93	370.97
657.27	369.53
657.61	367.94
657.95	366.41
658.29	364.83
658.64	363.35
658.98	361.87
659.32	360.41
659.66	358.91
660.00	357.62
660.34	356.23
660.68	354.80
661.02	353.29
661.36	351.94
661.70	350.62
662.05	349.26
662.39	347.84
662.73	346.64
663.07	345.50
663.41	344.17
663.75	342.84
664.09	341.52
664.43	340.10
664.77	338.92
665.11	337.68
665.45	336.63
665.79	335.52
666.13	334.28
666.47	333.08
666.81	331.84
667.15	330.47
667.49	329.50
667.83	328.63
668.17	327.60
668.51	326.50
668.85	325.69
669.19	324.98
669.53	323.77
669.87	322.66
670.21	321.63
670.55	320.70
670.89	320.00
671.23	319.09
671.57	318.10
671.91	317.19
672.25	316.36
672.58	315.50
672.92	314.42
673.26	313.60
673.60	312.78
673.94	311.96
674.28	311.27
674.62	310.47
674.96	309.57
675.30	308.78
675.64	308.05
675.97	307.07
676.31	306.10
676.65	305.38
676.99	304.75
677.33	303.87
677.67	303.15
678.01	302.18
678.34	301.41
678.68	300.78
679.02	299.99
679.36	299.13
679.70	298.27
680.04	297.66
680.37	296.97
680.71	296.37
681.05	295.80
681.39	295.18
681.73	294.37
682.06	293.72
682.40	293.12
682.74	292.52
683.08	292.12
683.42	291.40
683.75	290.92
684.09	290.30
684.43	289.86
684.77	289.25
685.10	288.73
685.44	288.22
685.78	287.69
686.12	287.11
686.45	286.57
686.79	285.98
687.13	285.52
687.46	284.90
687.80	284.44
688.14	283.80
688.48	283.28
688.81	282.81
689.15	282.34
689.49	281.78
689.82	281.23
690.16	280.53
690.50	280.07
690.83	279.46
691.17	278.74
691.51	278.13
691.84	277.70
692.18	277.12
692.52	276.59
692.85	276.16
693.19	275.92
693.52	275.47
693.86	275.02
694.20	274.44
694.53	274.02
694.87	273.49
695.21	273.10
695.54	272.68
695.88	272.18
696.21	271.51
696.55	271.01
696.88	270.57
697.22	270.08
697.56	269.70
697.89	269.33
698.23	268.99
698.56	268.54
698.90	268.16
699.23	267.70
699.57	267.27
699.90	266.75
700.24	266.14
700.58	265.82
700.91	265.63
701.25	265.62
701.58	265.65
701.92	265.36
702.25	264.94
702.59	264.47
702.92	264.20
703.26	263.95
703.59	263.64
703.93	263.66
704.26	263.39
704.60	263.03
704.93	262.64
705.26	262.28
705.60	262.05
705.93	261.62
706.27	261.45
706.60	261.29
706.94	261.20
707.27	260.90
707.61	260.64
707.94	260.28
708.27	259.66
708.61	258.94
708.94	258.50
709.28	258.21
709.61	257.98
709.94	257.68
710.28	257.39
710.61	257.14
710.95	256.53
711.28	256.62
711.61	256.40
711.95	256.17
712.28	255.80
712.61	255.45
712.95	255.40
713.28	255.42
713.61	255.05
713.95	254.62
714.28	254.45
714.61	254.08
714.95	253.75
715.28	253.39
715.61	253.10
715.95	252.90
716.28	252.66
716.61	252.42
716.95	251.99
717.28	251.78
717.61	251.45
717.94	251.15
718.28	250.48
718.61	250.20
718.94	249.88
719.27	249.77
719.61	249.64
719.94	249.29
720.27	248.78
720.60	248.50
720.94	248.24
721.27	248.00
721.60	247.97
721.93	247.68
722.27	247.67
722.60	247.62
722.93	247.40
723.26	247.25
723.59	246.94
723.93	246.91
724.26	246.80
724.59	246.73
724.92	246.58
725.25	246.53
725.59	246.32
725.92	246.32
726.25	246.16
726.58	246.03
726.91	245.89
727.24	245.79
727.57	245.65
727.91	245.47
728.24	245.39
728.57	245.12
728.90	245.11
729.23	244.81
729.56	244.86
729.89	244.79
730.22	244.60
730.55	244.53
730.89	244.43
731.22	244.19
731.55	243.97
731.88	243.84
732.21	243.62
732.54	243.46
732.87	243.24
733.20	243.10
733.53	242.93
733.86	242.85
734.19	242.68
734.52	242.67
734.85	242.86
735.18	242.70
735.51	242.74
735.84	242.66
736.17	242.66
736.50	242.23
736.83	242.66
737.16	242.51
737.49	242.43
737.82	242.22
738.15	242.21
738.48	242.08
738.81	241.96
739.14	241.75
739.47	241.59
739.80	241.46
740.13	241.40
740.46	241.16
740.79	240.92
741.12	240.76
741.45	240.51
741.78	240.12
742.11	240.05
742.44	239.74
742.77	239.65
743.10	239.46
743.43	239.31
743.75	238.59
744.08	239.08
744.41	238.87
744.74	238.68
745.07	238.44
745.40	238.44
745.73	238.42
746.06	238.40
746.39	238.35
746.71	238.21
747.04	237.97
747.37	237.82
747.70	237.74
748.03	237.65
748.36	237.59
748.68	237.49
749.01	237.25
749.34	237.19
749.67	237.06
750.00	237.04
750.33	237.33
750.65	237.33
750.98	236.67
751.31	236.63
751.64	236.62
751.97	236.76
752.29	236.58
752.62	236.32
752.95	236.16
753.28	235.96
753.60	235.84
753.93	235.89
754.26	235.88
754.59	235.73
754.91	235.58
755.24	235.50
755.57	235.41
755.90	235.31
756.22	235.15
756.55	234.98
756.88	234.72
757.20	234.25
757.53	234.06
757.86	233.88
758.19	233.75
758.51	233.64
758.84	233.28
759.17	233.13
759.49	233.05
759.82	233.24
760.15	233.26
760.47	233.21
760.80	233.01
761.13	233.00
761.45	232.93
761.78	232.84
762.11	232.75
762.43	232.60
762.76	232.58
763.08	232.55
763.41	232.52
763.74	232.54
764.06	232.49
764.39	232.35
764.71	232.31
765.04	232.24
765.37	232.14
765.69	232.16
766.02	232.17
766.34	232.10
766.67	231.78
767.00	231.77
767.32	231.96
767.65	232.22
767.97	232.10
768.30	232.05
768.62	232.03
768.95	231.87
769.27	231.89
769.60	231.85
769.92	231.70
770.25	231.55
770.57	231.40
770.90	231.36
771.22	231.29
771.55	231.26
771.87	231.27
772.20	231.24
772.52	231.56
772.85	232.03
773.17	231.95
773.50	231.95
773.82	231.86
774.15	231.59
774.47	231.22
774.80	231.17
775.12	231.14
775.45	231.05
775.77	231.14
776.09	231.09
776.42	231.14
776.74	231.26
777.07	231.20
777.39	231.16
777.72	231.13
778.04	231.22
778.36	231.19
778.69	231.16
779.01	231.20
779.33	230.76
779.66	230.21
779.98	230.25
780.31	230.29
780.63	230.44
780.95	230.50
781.28	230.49
781.60	230.44
781.92	230.37
782.25	230.37
782.57	230.34
782.89	230.25
783.22	230.04
783.54	229.94
783.86	229.95
784.19	229.94
784.51	230.02
784.83	229.91
785.16	229.83
785.48	229.83
785.80	229.76
786.12	229.83
786.45	229.76
786.77	229.71
787.09	229.56
787.42	229.39
787.74	229.42
788.06	229.38
788.38	229.34
788.71	229.27
789.03	229.21
789.35	229.23
789.67	229.18
789.99	229.21
790.32	229.12
790.64	229.12
790.96	229.51
791.28	229.33
791.61	229.27
791.93	229.32
792.25	229.26
792.57	229.53
792.89	229.26
793.21	229.25
793.54	229.22
793.86	229.18
794.18	229.15
794.50	228.96
794.82	228.97
795.14	228.95
795.47	229.04
795.79	229.05
796.11	228.91
796.43	228.85
796.75	228.89
797.07	228.89
797.39	228.81
797.71	228.39
798.04	228.42
798.36	228.39
798.68	228.30
799.00	228.26
799.32	228.01
799.64	228.21
799.96	228.22
800.28	228.29
800.60	228.22
800.92	228.20
801.24	228.18
801.56	228.15
801.89	228.10
802.21	228.12
802.53	228.01
802.85	228.04
803.17	228.26
803.49	228.13
803.81	228.10
804.13	228.10
804.45	227.93
804.77	227.90
805.09	227.95
805.41	227.89
805.73	227.84
806.05	227.68
806.37	227.61
806.69	227.55
807.01	227.46
807.33	227.56
807.65	227.41
807.97	227.63
808.28	227.65
808.60	227.65
808.92	227.53
809.24	227.87
809.56	227.80
809.88	227.66
810.20	227.58
810.52	227.70
810.84	227.61
811.16	227.63
811.48	227.64
811.80	227.80
812.12	227.83
812.43	227.87
812.75	227.93
813.07	227.82
813.39	227.91
813.71	227.85
814.03	227.81
814.35	227.92
814.67	227.71
814.98	227.66
815.30	227.64
815.62	227.57
815.94	227.21
816.26	227.40
816.58	227.26
816.89	227.37
817.21	227.17
817.53	227.22
817.85	227.34
818.17	227.25
818.48	227.02
818.80	227.15
819.12	227.09
819.44	227.01
819.76	227.08
820.07	227.01
820.39	227.05
820.71	227.05
821.03	226.98
821.34	227.00
821.66	227.05
821.98	227.16
822.30	227.19
822.61	227.56
822.93	227.37
823.25	227.38
823.57	227.35
823.88	227.45
824.20	227.44
824.52	227.47
824.83	227.51
825.15	227.42
825.47	227.32
825.79	227.36
826.10	227.34
826.42	227.27
826.74	227.35
827.05	227.33
827.37	227.37
827.69	227.37
828.00	227.37
828.32	227.36
828.64	227.31
828.95	227.53
829.27	227.36
829.58	227.35
829.90	227.42
830.22	227.48
830.53	227.33
830.85	227.32
831.17	227.15
831.48	227.17
831.80	227.28
832.11	227.33
832.43	227.24
832.75	227.27
833.06	227.57
833.38	227.36
833.69	227.30
834.01	227.33
834.32	227.28
834.64	227.22
834.96	227.22
835.27	227.13
835.59	227.01
835.90	226.91
836.22	226.84
836.53	226.75
836.85	226.70
837.16	227.19
837.48	227.17
837.79	227.38
838.11	227.36
838.42	227.32
838.74	227.31
839.05	227.35
839.37	227.27
839.68	226.92
840.00	226.96
840.31	227.04
840.63	226.95
840.94	226.93
841.26	226.87
841.57	226.80
841.88	226.87
842.20	226.80
842.51	226.74
842.83	226.81
843.14	227.22
843.46	227.25
843.77	227.01
844.08	226.97
844.40	226.75
844.71	226.72
845.03	226.65
845.34	226.60
845.65	226.51
845.97	226.55
846.28	226.60
846.60	226.58
846.91	226.42
847.22	226.34
847.54	226.48
847.85	226.54
848.16	226.50
848.48	226.36
848.79	226.51
849.10	226.57
849.42	226.58
849.73	226.18
850.04	226.10
850.36	225.97
850.67	226.03
850.98	226.06
851.30	226.09
851.61	226.20
851.92	226.25
852.23	226.38
852.55	226.36
852.86	226.43
853.17	226.56
853.49	226.79
853.80	226.90
854.11	226.94
854.42	227.00
854.74	226.99
855.05	227.01
855.36	226.78
855.67	226.79
855.99	226.72
856.30	227.33
856.61	227.39
856.92	227.37
857.23	227.42
857.55	227.39
857.86	227.41
858.17	227.43
858.48	227.36
858.79	227.31
859.11	227.35
859.42	227.30
859.73	227.13
860.04	227.00
860.35	226.93
860.66	226.70
860.98	226.71
861.29	226.76
861.60	226.80
861.91	226.83
862.22	226.74
862.53	226.75
862.84	226.10
863.16	226.19
863.47	226.14
863.78	226.09
864.09	226.12
864.40	226.13
864.71	226.13
865.02	226.12
865.33	226.05
865.64	226.01
865.95	225.99
866.27	226.31
866.58	226.34
866.89	226.31
867.20	226.34
867.51	226.21
867.82	226.16
868.13	226.26
868.44	226.28
868.75	226.36
869.06	226.35
869.37	226.45
869.68	226.27
869.99	226.40
870.30	226.45
870.61	226.51
870.92	226.41
871.23	226.33
871.54	226.38
871.85	226.48
872.16	226.45
872.47	226.38
872.78	226.10
873.09	226.13
873.40	226.13
873.71	226.16
874.02	226.19
874.33	226.15
874.64	226.07
874.95	226.11
875.26	225.98
875.56	225.98
875.87	225.96
876.18	225.90
876.49	226.34
876.80	226.30
877.11	226.21
877.42	226.25
877.73	226.31
878.04	226.24
878.35	226.27
878.66	226.37
878.96	226.38
879.27	226.34
879.58	226.34
879.89	226.30
880.20	226.45
880.51	226.45
880.82	226.44
881.12	226.46
881.43	226.40
881.74	226.32
882.05	226.30
882.36	226.38
882.67	226.47
882.97	225.94
883.28	225.87
883.59	225.85
883.90	225.85
884.21	225.90
884.51	225.86
884.82	225.80
885.13	225.79
885.44	225.83
885.74	225.89
886.05	225.83
886.36	225.89
886.67	225.71
886.98	225.91
887.28	225.95
887.59	225.94
887.90	225.94
888.20	225.91
888.51	225.97
888.82	225.86
889.13	225.90
889.43	226.29
889.74	226.27
890.05	226.25
890.35	226.25
890.66	226.18
890.97	226.20
891.28	226.08
891.58	226.09
891.89	226.11
892.20	226.01
892.50	226.02
892.81	225.91
893.12	225.89
893.42	225.67
893.73	225.72
894.04	225.72
894.34	225.78
894.65	225.84
894.95	225.87
895.26	225.86
895.57	226.03
895.87	225.59
896.18	225.66
896.48	225.75
896.79	225.74
897.10	225.80
897.40	225.81
897.71	225.87
898.01	225.84
898.32	225.79
898.63	225.82
898.93	225.84
899.24	225.88
899.54	225.92
899.85	225.88
900.15	225.80
900.46	225.72
900.76	225.81
901.07	225.80
901.38	225.75
901.68	225.79
901.99	225.56
902.29	225.62
902.60	225.63
902.90	225.58
903.21	225.56
903.51	225.44
903.82	225.51
904.12	225.55
904.43	225.60
904.73	225.54
905.03	225.57
905.34	225.99
905.64	226.00
905.95	225.98
906.25	225.94
906.56	225.92
906.86	225.95
907.17	225.83
907.47	225.81
907.77	225.76
908.08	225.69
908.38	225.75
908.69	225.69
908.99	225.75
909.30	225.80
909.60	225.73
909.90	225.77
910.21	225.58
910.51	225.53
910.81	225.48
911.12	225.59
911.42	225.58
911.73	225.05
912.03	225.08
912.33	225.16
912.64	225.17
912.94	225.22
913.24	225.12
913.55	225.07
913.85	225.09
914.15	225.15
914.46	225.13
914.76	225.04
915.06	225.10
915.37	224.97
915.67	224.88
915.97	224.90
916.27	224.76
916.58	224.86
916.88	224.86
917.18	224.83
917.49	225.15
917.79	225.16
918.09	225.29
918.39	225.45
918.70	225.37
919.00	225.42
919.30	225.65
919.60	225.67
919.91	225.62
920.21	225.66
920.51	225.54
920.81	225.62
921.12	225.67
921.42	225.68
921.72	225.78
922.02	225.77
922.32	225.89
922.63	225.97
922.93	226.19
923.23	226.18
923.53	226.17
923.83	225.80
924.13	225.84
924.44	225.87
924.74	225.91
925.04	226.04
925.34	226.06
925.64	225.82
925.94	225.88
926.24	226.20
926.55	226.10
926.85	226.18
927.15	226.10
927.45	226.11
927.75	226.09
928.05	226.06
928.35	226.10
928.65	226.22
928.95	226.30
929.26	226.11
929.56	226.24
929.86	226.29
930.16	226.24
930.46	226.24
930.76	226.22
931.06	225.98
931.36	225.89
931.66	226.00
931.96	226.03
932.26	226.04
932.56	225.87
932.86	226.03
933.16	226.08
933.46	226.10
933.76	226.03
934.06	226.14
934.36	226.30
934.66	226.31
934.96	226.22
935.26	226.27
935.56	226.32
935.86	226.18
936.16	226.10
936.46	226.11
936.76	226.05
937.06	226.04
937.36	226.17
937.66	226.17
937.96	226.11
938.26	226.10
938.56	226.06
938.86	226.05
939.16	226.18
939.46	226.27
939.76	226.21
940.06	226.25
940.35	226.08
940.65	225.85
940.95	225.86
941.25	225.66
941.55	225.47
941.85	225.48
942.15	225.61
942.45	225.79
942.75	225.82
943.04	225.88
943.34	225.93
943.64	225.82
943.94	225.78
944.24	225.77
944.54	225.75
944.84	225.80
945.13	225.65
945.43	225.49
945.73	225.45
946.03	225.47
946.33	225.35
946.62	225.33
946.92	225.31
947.22	225.30
947.52	225.40
947.82	225.57
948.11	225.50
948.41	225.38
948.71	225.14
949.01	225.18
949.31	225.08
949.60	224.98
949.90	224.99
950.20	224.93
950.50	224.89
950.79	224.90
951.09	224.91
951.39	224.94
951.69	224.83
951.98	224.89
952.28	224.96
952.58	225.01
952.87	225.01
953.17	225.06
953.47	225.03
953.76	225.04
954.06	224.95
954.36	224.91
954.66	224.86
954.95	225.09
955.25	225.12
955.55	225.24
955.84	225.15
956.14	225.20
956.44	225.26
956.73	225.19
957.03	225.25
957.32	225.28
957.62	225.30
957.92	225.46
958.21	225.36
958.51	225.91
958.81	226.00
959.10	226.09
959.40	226.25
959.69	226.27
959.99	226.37
960.29	226.41
960.58	226.40
960.88	226.64
961.17	226.56
961.47	226.62
961.76	226.60
962.06	226.77
962.36	226.79
962.65	226.85
962.95	226.90
963.24	226.82
963.54	226.75
963.83	226.84
964.13	226.79
964.42	226.71
964.72	226.36
965.01	226.39
965.31	226.30
965.60	226.15
965.90	226.50
966.19	226.42
966.49	226.40
966.78	226.40
967.08	226.35
967.37	226.38
967.67	226.30
967.96	226.33
968.26	226.31
968.55	226.38
968.85	226.35
969.14	226.36
969.43	226.43
969.73	226.51
970.02	226.51
970.32	226.47
970.61	226.47
970.91	226.34
971.20	226.28
971.49	226.28
971.79	226.41
972.08	226.07
972.38	226.08
972.67	226.08
972.96	226.15
973.26	226.03
973.55	226.15
973.85	226.19
974.14	226.12
974.43	226.18
974.73	225.98
975.02	225.93
975.31	225.92
975.61	225.83
975.90	225.74
976.19	225.62
976.49	225.69
976.78	225.74
977.07	225.67
977.37	225.63
977.66	225.73
977.95	225.55
978.24	225.61
978.54	225.68
978.83	225.63
979.12	225.70
979.42	225.69
979.71	225.66
980.00	225.57
980.29	225.63
980.59	225.50
980.88	225.68
981.17	225.71
981.46	225.77
981.76	225.79
982.05	225.85
982.34	225.88
982.63	225.88
982.93	225.89
983.22	226.05
983.51	226.07
983.80	226.08
984.09	226.21
984.39	226.15
984.68	226.08
984.97	226.03
985.26	225.91
985.55	225.93
985.85	225.73
986.14	225.80
986.43	225.85
986.72	225.85
987.01	225.65
987.30	225.60
987.59	225.53
987.89	225.52
988.18	225.47
988.47	225.35
988.76	225.33
989.05	225.26
989.34	225.17
989.63	225.31
989.92	225.27
990.22	225.13
990.51	225.15
990.80	225.12
991.09	225.20
991.38	225.30
991.67	225.34
991.96	225.37
992.25	225.35
992.54	225.22
992.83	225.28
993.12	225.38
993.41	225.49
993.70	225.72
993.99	225.85
994.28	225.83
994.58	226.03
994.87	225.99
995.16	225.99
995.45	225.90
995.74	225.75
996.03	225.78
996.32	225.96
996.61	226.05
996.90	226.00
997.19	226.00
997.48	225.97
997.77	225.94
998.06	225.96
998.34	225.95
998.63	225.98
998.92	225.89
999.21	225.93
999.50	225.92
999.79	225.70
1000.08	225.69
1000.37	225.79
1000.66	225.72
1000.95	225.81
1001.24	225.92
1001.53	226.04
1001.82	226.08
1002.11	225.98
1002.40	225.93
1002.68	226.04
1002.97	226.40
1003.26	226.39
1003.55	226.33
1003.84	226.31
1004.13	226.50
1004.42	226.48
1004.71	226.54
1004.99	226.53
1005.28	226.69
1005.57	226.64
1005.86	226.67
1006.15	226.63
1006.44	226.52
1006.72	226.53
1007.01	226.43
1007.30	226.35
1007.59	226.31
1007.88	226.25
1008.17	226.30
1008.45	226.28
1008.74	226.07
1009.03	225.84
1009.32	225.87
1009.60	225.89
1009.89	225.88
1010.18	225.70
1010.47	225.67
1010.76	225.57
1011.04	225.62
1011.33	225.56
1011.62	225.60
1011.91	225.50
1012.19	225.47
1012.48	225.45
1012.77	225.43
1013.05	225.69
1013.34	225.69
1013.63	225.60
1013.92	225.70
1014.20	225.63
1014.49	225.59
1014.78	225.63
1015.06	225.48
1015.35	225.44
1015.64	225.52
1015.92	225.56
1016.21	225.51
1016.50	225.49
1016.78	225.60
1017.07	225.67
1017.36	225.55
1017.64	225.46
1017.93	225.58
1018.22	225.56
1018.50	225.64
1018.79	225.68
1019.08	225.41
1019.36	225.44
1019.65	225.37
1019.93	225.47
1020.22	225.59
1020.51	225.87
1020.79	225.80
1021.08	224.75
1021.36	225.80
1021.65	225.95
1021.94	224.90
1022.22	225.55
1022.51	223.35
1022.79	228.30
1023.08	226.05
1023.36	231.45
1023.65	224.70
>>>>>End Processed Spectral Data<<<<<
