SpectraSuite Data File
++++++++++++++++++++++++++++++++++++
Date: Wed Sep 04 17:53:27 EDT 2013
User: lab3
Dark Spectrum Present: Yes
Reference Spectrum Present: No
Number of Sampled Component Spectra: 1
Spectrometers: USB2E7196
Integration Time (usec): 170000 (USB2E7196)
Spectra Averaged: 20 (USB2E7196)
Boxcar Smoothing: 10 (USB2E7196)
Correct for Electrical Dark: No (USB2E7196)
Strobe/Lamp Enabled: No (USB2E7196)
Correct for Detector Non-linearity: No (USB2E7196)
Correct for Stray Light: No (USB2E7196)
Number of Pixels in Processed Spectrum: 2048
>>>>>Begin Processed Spectral Data<<<<<
339.09	0.00
339.48	212.85
339.86	214.65
340.24	215.85
340.63	216.80
341.01	225.65
341.39	220.50
341.78	221.85
342.16	224.40
342.54	223.30
342.93	212.15
343.31	222.83
343.69	223.35
344.07	223.81
344.46	224.34
344.84	224.76
345.22	224.78
345.60	225.05
345.99	225.25
346.37	225.30
346.75	225.43
347.13	225.54
347.52	225.58
347.90	225.83
348.28	225.88
348.66	226.00
349.05	225.87
349.43	225.97
349.81	226.02
350.19	226.13
350.57	226.22
350.96	226.35
351.34	226.45
351.72	226.57
352.10	226.69
352.48	226.72
352.87	226.79
353.25	226.82
353.63	226.85
354.01	226.84
354.39	226.87
354.77	226.92
355.15	227.14
355.54	227.20
355.92	227.05
356.30	227.12
356.68	227.50
357.06	227.62
357.44	227.62
357.82	227.64
358.20	228.08
358.58	228.09
358.97	228.16
359.35	228.33
359.73	228.53
360.11	228.53
360.49	228.59
360.87	228.61
361.25	228.72
361.63	228.92
362.01	229.05
362.39	229.10
362.77	229.18
363.15	229.15
363.53	229.18
363.91	229.28
364.29	229.29
364.67	228.83
365.05	228.85
365.43	228.92
365.81	229.02
366.19	228.88
366.57	229.17
366.95	229.17
367.33	229.03
367.71	228.96
368.09	229.06
368.47	229.06
368.85	229.09
369.23	229.17
369.61	229.02
369.99	229.15
370.37	229.21
370.75	229.41
371.13	229.27
371.51	229.27
371.89	229.30
372.27	229.32
372.65	229.35
373.03	229.27
373.41	229.24
373.78	229.11
374.16	228.80
374.54	228.60
374.92	228.47
375.30	228.52
375.68	228.38
376.06	228.42
376.44	228.25
376.82	228.26
377.19	228.20
377.57	228.16
377.95	227.95
378.33	227.81
378.71	227.54
379.09	227.51
379.47	227.38
379.84	227.27
380.22	227.09
380.60	226.93
380.98	226.82
381.36	226.70
381.73	226.61
382.11	226.62
382.49	226.53
382.87	226.39
383.25	226.29
383.62	226.76
384.00	226.52
384.38	226.56
384.76	226.60
385.13	226.74
385.51	226.60
385.89	226.50
386.27	226.51
386.64	226.49
387.02	226.46
387.40	226.43
387.78	226.38
388.15	226.40
388.53	226.35
388.91	226.28
389.29	226.28
389.66	226.34
390.04	226.37
390.42	226.38
390.79	226.45
391.17	226.40
391.55	225.88
391.92	225.91
392.30	225.97
392.68	225.85
393.05	225.72
393.43	225.80
393.81	225.94
394.18	225.90
394.56	225.93
394.94	226.10
395.31	226.13
395.69	226.31
396.06	226.39
396.44	226.49
396.82	226.57
397.19	226.84
397.57	226.81
397.95	226.87
398.32	226.84
398.70	226.97
399.07	227.18
399.45	227.25
399.82	227.29
400.20	227.30
400.58	227.29
400.95	227.19
401.33	227.34
401.70	227.74
402.08	227.89
402.45	227.96
402.83	228.15
403.20	228.34
403.58	228.46
403.95	228.68
404.33	228.98
404.71	229.19
405.08	229.66
405.46	229.94
405.83	230.20
406.21	230.44
406.58	230.71
406.96	230.99
407.33	231.38
407.70	231.73
408.08	232.52
408.45	233.10
408.83	233.66
409.20	234.08
409.58	234.21
409.95	234.79
410.33	235.33
410.70	235.70
411.08	236.34
411.45	236.94
411.82	237.55
412.20	238.36
412.57	239.42
412.95	239.80
413.32	240.69
413.69	241.43
414.07	242.44
414.44	243.40
414.82	244.41
415.19	245.62
415.56	246.88
415.94	247.82
416.31	249.20
416.68	250.62
417.06	252.25
417.43	253.87
417.81	255.57
418.18	257.42
418.55	259.39
418.93	261.40
419.30	263.54
419.67	265.78
420.04	267.95
420.42	270.25
420.79	273.35
421.16	276.08
421.54	279.16
421.91	282.10
422.28	285.17
422.66	288.40
423.03	291.82
423.40	295.19
423.77	298.67
424.15	302.23
424.52	306.02
424.89	310.25
425.26	314.17
425.64	318.05
426.01	322.20
426.38	326.54
426.75	331.05
427.13	335.68
427.50	340.45
427.87	345.36
428.24	350.22
428.61	354.56
428.99	359.98
429.36	365.53
429.73	371.00
430.10	376.56
430.47	382.21
430.85	387.83
431.22	394.01
431.59	400.89
431.96	407.10
432.33	413.93
432.70	420.39
433.08	428.25
433.45	435.64
433.82	442.96
434.19	451.17
434.56	459.34
434.93	466.85
435.30	474.45
435.68	482.94
436.05	491.31
436.42	499.62
436.79	507.15
437.16	515.53
437.53	524.20
437.90	532.82
438.27	541.32
438.64	550.25
439.01	558.42
439.38	565.47
439.75	572.52
440.13	580.54
440.50	588.06
440.87	594.19
441.24	600.60
441.61	607.65
441.98	612.70
442.35	618.41
442.72	624.49
443.09	630.46
443.46	633.90
443.83	636.19
444.20	638.11
444.57	640.76
444.94	641.65
445.31	642.85
445.68	644.27
446.05	644.49
446.42	643.07
446.79	641.63
447.16	639.99
447.53	638.89
447.90	635.17
448.27	631.62
448.64	626.79
449.01	622.99
449.37	616.82
449.74	610.77
450.11	603.95
450.48	596.17
450.85	588.12
451.22	581.34
451.59	574.72
451.96	568.56
452.33	560.42
452.70	553.08
453.07	544.48
453.43	535.24
453.80	527.02
454.17	519.01
454.54	511.43
454.91	503.29
455.28	495.26
455.65	487.89
456.02	481.00
456.38	474.54
456.75	466.86
457.12	460.35
457.49	454.10
457.86	447.68
458.23	442.58
458.59	436.97
458.96	431.23
459.33	426.22
459.70	421.13
460.07	417.23
460.43	412.58
460.80	408.20
461.17	404.53
461.54	400.41
461.91	396.57
462.27	392.63
462.64	389.38
463.01	385.84
463.38	382.50
463.74	378.49
464.11	375.51
464.48	372.75
464.85	369.84
465.21	367.69
465.58	365.41
465.95	362.52
466.32	360.17
466.68	357.88
467.05	355.69
467.42	353.48
467.78	351.00
468.15	348.96
468.52	347.44
468.88	345.19
469.25	343.29
469.62	341.91
469.98	340.29
470.35	338.78
470.72	337.23
471.08	335.50
471.45	334.23
471.82	332.97
472.18	331.57
472.55	330.57
472.92	329.26
473.28	328.19
473.65	327.02
474.02	325.87
474.38	324.96
474.75	324.12
475.11	323.26
475.48	322.71
475.85	322.02
476.21	321.25
476.58	320.91
476.94	320.50
477.31	319.98
477.67	319.55
478.04	319.20
478.41	319.05
478.77	319.40
479.14	319.17
479.50	319.00
479.87	319.02
480.23	318.95
480.60	318.89
480.96	318.76
481.33	319.27
481.69	319.57
482.06	319.81
482.42	320.12
482.79	320.45
483.15	320.87
483.52	321.47
483.88	321.95
484.25	322.51
484.61	323.10
484.98	323.79
485.34	324.84
485.71	325.85
486.07	326.82
486.44	327.45
486.80	328.54
487.17	329.75
487.53	331.17
487.90	332.61
488.26	334.21
488.62	336.12
488.99	337.59
489.35	339.46
489.72	341.38
490.08	343.25
490.44	345.38
490.81	347.63
491.17	349.87
491.54	352.44
491.90	354.89
492.26	357.72
492.63	360.49
492.99	363.37
493.36	366.41
493.72	369.78
494.08	373.17
494.45	376.93
494.81	380.87
495.17	384.72
495.54	388.97
495.90	393.15
496.26	397.55
496.63	402.14
496.99	406.80
497.35	411.92
497.72	417.34
498.08	422.69
498.44	428.33
498.80	434.35
499.17	440.47
499.53	446.80
499.89	453.34
500.26	460.12
500.62	467.10
500.98	474.56
501.34	482.02
501.71	489.70
502.07	497.39
502.43	505.45
502.79	513.80
503.16	522.49
503.52	531.61
503.88	540.82
504.24	550.43
504.60	560.57
504.97	570.83
505.33	581.19
505.69	592.23
506.05	603.28
506.41	614.47
506.78	625.99
507.14	638.06
507.50	650.46
507.86	663.11
508.22	675.90
508.59	688.80
508.95	702.39
509.31	716.48
509.67	730.92
510.03	745.08
510.39	759.81
510.75	774.79
511.12	789.87
511.48	805.38
511.84	821.05
512.20	836.89
512.56	852.99
512.92	869.66
513.28	886.49
513.64	903.57
514.00	921.10
514.37	938.86
514.73	956.97
515.09	975.30
515.45	993.66
515.81	1012.12
516.17	1030.81
516.53	1049.39
516.89	1068.06
517.25	1087.35
517.61	1107.37
517.97	1127.57
518.33	1147.53
518.69	1167.67
519.05	1188.07
519.41	1208.71
519.77	1229.75
520.13	1250.48
520.49	1271.11
520.85	1293.07
521.21	1314.31
521.57	1335.55
521.93	1356.35
522.29	1377.25
522.65	1397.54
523.01	1418.26
523.37	1439.06
523.73	1460.26
524.09	1480.60
524.45	1501.26
524.81	1521.82
525.17	1542.79
525.53	1563.24
525.89	1583.81
526.25	1604.60
526.61	1624.90
526.97	1645.78
527.33	1666.83
527.68	1688.54
528.04	1709.71
528.40	1729.68
528.76	1750.51
529.12	1770.75
529.48	1791.55
529.84	1811.55
530.20	1832.83
530.56	1853.75
530.91	1874.41
531.27	1894.63
531.63	1915.25
531.99	1935.78
532.35	1955.91
532.71	1975.71
533.07	1996.19
533.42	2016.35
533.78	2036.07
534.14	2056.21
534.50	2075.24
534.86	2094.41
535.21	2111.87
535.57	2130.24
535.93	2147.73
536.29	2165.38
536.65	2183.64
537.00	2201.02
537.36	2218.72
537.72	2234.93
538.08	2252.07
538.44	2268.72
538.79	2285.02
539.15	2301.52
539.51	2317.79
539.87	2332.91
540.22	2346.69
540.58	2361.25
540.94	2374.38
541.29	2387.14
541.65	2399.21
542.01	2411.85
542.37	2422.17
542.72	2433.23
543.08	2443.56
543.44	2455.09
543.79	2465.20
544.15	2474.93
544.51	2484.90
544.87	2494.70
545.22	2503.60
545.58	2511.09
545.94	2518.25
546.29	2524.80
546.65	2530.96
547.01	2536.24
547.36	2541.72
547.72	2547.48
548.07	2551.14
548.43	2556.08
548.79	2560.85
549.14	2564.93
549.50	2568.26
549.86	2572.15
550.21	2575.83
550.57	2579.33
550.92	2580.68
551.28	2582.13
551.64	2584.18
551.99	2586.14
552.35	2587.30
552.70	2589.19
553.06	2591.19
553.41	2592.35
553.77	2593.97
554.13	2595.49
554.48	2597.21
554.84	2598.68
555.19	2599.77
555.55	2601.41
555.90	2600.79
556.26	2599.63
556.61	2598.18
556.97	2596.38
557.32	2595.72
557.68	2594.50
558.03	2593.25
558.39	2591.84
558.74	2590.87
559.10	2587.62
559.45	2583.91
559.81	2579.56
560.16	2574.10
560.52	2568.79
560.87	2564.56
561.23	2558.86
561.58	2552.93
561.94	2545.92
562.29	2538.64
562.64	2531.58
563.00	2523.49
563.35	2517.41
563.71	2511.04
564.06	2504.69
564.42	2498.23
564.77	2491.46
565.12	2483.73
565.48	2475.84
565.83	2468.06
566.19	2460.15
566.54	2452.59
566.89	2444.73
567.25	2436.88
567.60	2429.79
567.96	2422.08
568.31	2413.77
568.66	2405.72
569.02	2396.75
569.37	2388.50
569.72	2380.88
570.08	2371.63
570.43	2362.30
570.78	2353.00
571.14	2343.46
571.49	2333.36
571.84	2323.67
572.20	2312.77
572.55	2302.66
572.90	2291.81
573.26	2281.67
573.61	2270.35
573.96	2259.03
574.31	2246.80
574.67	2235.15
575.02	2222.62
575.37	2210.27
575.72	2197.03
576.08	2184.78
576.43	2172.73
576.78	2159.57
577.13	2145.81
577.49	2133.20
577.84	2121.05
578.19	2108.82
578.54	2096.28
578.90	2084.37
579.25	2072.08
579.60	2059.56
579.95	2046.60
580.30	2033.65
580.66	2019.99
581.01	2006.69
581.36	1992.80
581.71	1980.16
582.06	1967.28
582.42	1954.91
582.77	1942.13
583.12	1930.42
583.47	1917.97
583.82	1905.58
584.17	1893.52
584.53	1881.72
584.88	1868.91
585.23	1855.90
585.58	1841.83
585.93	1828.58
586.28	1815.55
586.63	1801.88
586.98	1787.78
587.34	1774.89
587.69	1761.48
588.04	1749.07
588.39	1736.89
588.74	1724.93
589.09	1713.04
589.44	1700.40
589.79	1688.12
590.14	1676.18
590.49	1663.97
590.84	1652.22
591.19	1640.28
591.54	1628.33
591.89	1616.03
592.25	1605.96
592.60	1594.73
592.95	1583.52
593.30	1571.80
593.65	1559.80
594.00	1547.86
594.35	1538.27
594.70	1526.41
595.05	1515.20
595.40	1503.20
595.75	1491.29
596.10	1479.85
596.45	1468.33
596.80	1457.51
597.15	1446.21
597.50	1434.73
597.85	1423.57
598.19	1411.67
598.54	1400.08
598.89	1388.59
599.24	1378.17
599.59	1366.41
599.94	1355.29
600.29	1344.77
600.64	1334.55
600.99	1323.72
601.34	1314.15
601.69	1302.84
602.04	1293.15
602.39	1283.52
602.74	1274.37
603.08	1264.99
603.43	1255.85
603.78	1246.44
604.13	1236.71
604.48	1227.16
604.83	1217.40
605.18	1207.75
605.53	1198.50
605.87	1189.37
606.22	1181.04
606.57	1171.62
606.92	1162.25
607.27	1153.50
607.62	1144.89
607.96	1136.16
608.31	1128.39
608.66	1119.92
609.01	1111.28
609.36	1102.75
609.70	1094.17
610.05	1085.56
610.40	1077.14
610.75	1068.59
611.10	1060.13
611.44	1051.65
611.79	1043.52
612.14	1035.84
612.49	1027.70
612.83	1020.08
613.18	1012.45
613.53	1004.56
613.88	996.66
614.22	989.11
614.57	981.24
614.92	973.21
615.27	965.80
615.61	957.96
615.96	950.16
616.31	942.83
616.65	936.03
617.00	928.71
617.35	921.40
617.70	914.22
618.04	907.13
618.39	900.06
618.74	893.68
619.08	886.83
619.43	879.76
619.78	872.83
620.12	865.60
620.47	858.56
620.82	851.42
621.16	844.76
621.51	838.52
621.85	832.26
622.20	825.76
622.55	819.06
622.89	812.71
623.24	806.48
623.59	800.09
623.93	793.35
624.28	787.30
624.62	781.76
624.97	776.00
625.32	770.14
625.66	764.35
626.01	758.18
626.35	752.79
626.70	747.26
627.04	742.10
627.39	736.68
627.73	731.50
628.08	726.41
628.43	721.05
628.77	715.47
629.12	710.18
629.46	705.66
629.81	701.16
630.15	696.41
630.50	691.60
630.84	686.84
631.19	682.26
631.53	677.75
631.88	672.50
632.22	667.66
632.57	663.18
632.91	658.56
633.26	654.21
633.60	649.38
633.95	644.81
634.29	640.13
634.64	635.70
634.98	631.02
635.32	626.76
635.67	622.85
636.01	618.67
636.36	614.32
636.70	610.06
637.05	605.70
637.39	601.59
637.73	597.58
638.08	593.71
638.42	589.53
638.77	585.35
639.11	581.13
639.45	576.84
639.80	572.45
640.14	568.43
640.49	564.48
640.83	560.69
641.17	556.97
641.52	553.30
641.86	549.76
642.20	546.54
642.55	542.77
642.89	539.04
643.23	535.47
643.58	532.35
643.92	528.62
644.26	525.35
644.61	522.15
644.95	518.88
645.29	515.46
645.64	512.40
645.98	509.24
646.32	506.35
646.66	503.43
647.01	500.66
647.35	497.80
647.69	494.90
648.04	492.22
648.38	489.51
648.72	486.71
649.06	483.84
649.41	480.76
649.75	477.97
650.09	475.24
650.43	472.56
650.78	469.58
651.12	466.90
651.46	464.00
651.80	461.24
652.14	458.48
652.49	455.95
652.83	453.32
653.17	450.71
653.51	448.01
653.85	445.54
654.20	442.93
654.54	440.40
654.88	437.77
655.22	435.38
655.56	432.86
655.90	430.43
656.25	428.06
656.59	425.80
656.93	423.48
657.27	421.29
657.61	418.80
657.95	416.53
658.29	414.32
658.64	412.25
658.98	410.02
659.32	407.76
659.66	405.52
660.00	403.54
660.34	401.52
660.68	399.49
661.02	397.37
661.36	395.44
661.70	393.53
662.05	391.75
662.39	389.75
662.73	387.95
663.07	386.30
663.41	384.59
663.75	382.73
664.09	380.88
664.43	378.93
664.77	377.37
665.11	375.65
665.45	373.90
665.79	372.29
666.13	370.63
666.47	368.90
666.81	367.36
667.15	365.56
667.49	364.02
667.83	362.64
668.17	361.16
668.51	359.75
668.85	358.29
669.19	357.08
669.53	355.58
669.87	354.03
670.21	352.49
670.55	351.04
670.89	349.97
671.23	348.76
671.57	347.40
671.91	345.98
672.25	344.77
672.58	343.65
672.92	342.25
673.26	340.98
673.60	339.90
673.94	338.72
674.28	337.62
674.62	336.46
674.96	335.24
675.30	334.13
675.64	332.96
675.97	331.80
676.31	330.37
676.65	329.28
676.99	328.29
677.33	327.11
677.67	325.97
678.01	324.68
678.34	323.67
678.68	322.74
679.02	321.71
679.36	320.58
679.70	319.52
680.04	318.62
680.37	317.69
680.71	316.60
681.05	315.67
681.39	314.75
681.73	313.75
682.06	312.84
682.40	311.95
682.74	311.02
683.08	310.35
683.42	309.58
683.75	308.72
684.09	307.83
684.43	307.12
684.77	306.39
685.10	305.60
685.44	304.70
685.78	303.85
686.12	303.17
686.45	302.47
686.79	301.66
687.13	300.98
687.46	300.18
687.80	299.63
688.14	298.79
688.48	298.10
688.81	297.39
689.15	296.75
689.49	295.95
689.82	295.29
690.16	294.31
690.50	293.67
690.83	293.08
691.17	292.31
691.51	291.54
691.84	290.88
692.18	290.15
692.52	289.54
692.85	289.01
693.19	288.60
693.52	287.90
693.86	287.33
694.20	286.70
694.53	286.16
694.87	285.52
695.21	284.90
695.54	284.19
695.88	283.52
696.21	282.72
696.55	282.16
696.88	281.56
697.22	280.89
697.56	280.25
697.89	279.54
698.23	278.98
698.56	278.43
698.90	277.95
699.23	277.35
699.57	276.82
699.90	276.13
700.24	275.32
700.58	274.90
700.91	274.45
701.25	274.27
701.58	274.16
701.92	273.71
702.25	273.28
702.59	272.82
702.92	272.45
703.26	272.06
703.59	271.64
703.93	271.55
704.26	271.28
704.60	270.97
704.93	270.54
705.26	270.13
705.60	269.81
705.93	269.16
706.27	268.91
706.60	268.58
706.94	268.45
707.27	268.13
707.61	267.77
707.94	267.30
708.27	266.46
708.61	265.64
708.94	265.24
709.28	264.89
709.61	264.55
709.94	264.14
710.28	263.75
710.61	263.38
710.95	262.61
711.28	262.54
711.61	262.09
711.95	261.87
712.28	261.47
712.61	261.10
712.95	261.13
713.28	261.05
713.61	260.62
713.95	260.09
714.28	259.81
714.61	259.41
714.95	259.00
715.28	258.68
715.61	258.40
715.95	258.15
716.28	257.73
716.61	257.50
716.95	257.14
717.28	256.94
717.61	256.64
717.94	256.31
718.28	255.68
718.61	255.37
718.94	255.05
719.27	254.85
719.61	254.65
719.94	254.30
720.27	253.79
720.60	253.56
720.94	253.36
721.27	253.05
721.60	252.96
721.93	252.84
722.27	252.84
722.60	252.62
722.93	252.21
723.26	252.15
723.59	251.80
723.93	251.68
724.26	251.50
724.59	251.31
724.92	251.18
725.25	251.15
725.59	250.92
725.92	250.75
726.25	250.53
726.58	250.29
726.91	250.05
727.24	249.92
727.57	249.71
727.91	249.43
728.24	249.35
728.57	249.05
728.90	248.93
729.23	248.54
729.56	248.55
729.89	248.45
730.22	248.17
730.55	248.02
730.89	247.88
731.22	247.64
731.55	247.47
731.88	247.33
732.21	247.02
732.54	246.87
732.87	246.65
733.20	246.51
733.53	246.32
733.86	246.20
734.19	245.95
734.52	245.89
734.85	246.04
735.18	245.74
735.51	245.73
735.84	245.58
736.17	245.56
736.50	245.19
736.83	245.61
737.16	245.45
737.49	245.32
737.82	245.03
738.15	245.02
738.48	244.79
738.81	244.56
739.14	244.36
739.47	244.22
739.80	244.00
740.13	243.83
740.46	243.54
740.79	243.27
741.12	243.11
741.45	242.74
741.78	242.34
742.11	242.44
742.44	242.19
742.77	242.01
743.10	241.83
743.43	241.69
743.75	241.01
744.08	241.53
744.41	241.31
744.74	241.23
745.07	240.89
745.40	240.85
745.73	241.01
746.06	240.95
746.39	240.80
746.71	240.66
747.04	240.49
747.37	240.41
747.70	240.33
748.03	240.17
748.36	240.24
748.68	240.06
749.01	239.75
749.34	239.59
749.67	239.46
750.00	239.40
750.33	239.58
750.65	239.50
750.98	238.77
751.31	238.73
751.64	238.60
751.97	238.74
752.29	238.60
752.62	238.25
752.95	238.10
753.28	237.97
753.60	237.85
753.93	237.83
754.26	237.77
754.59	237.58
754.91	237.48
755.24	237.38
755.57	237.34
755.90	237.24
756.22	237.14
756.55	236.99
756.88	236.66
757.20	236.35
757.53	236.15
757.86	236.08
758.19	236.00
758.51	235.86
758.84	235.56
759.17	235.43
759.49	235.34
759.82	235.49
760.15	235.43
760.47	235.44
760.80	235.31
761.13	235.28
761.45	235.24
761.78	235.20
762.11	235.06
762.43	235.04
762.76	234.96
763.08	234.95
763.41	234.92
763.74	234.99
764.06	234.89
764.39	234.89
764.71	234.75
765.04	234.68
765.37	234.71
765.69	234.61
766.02	234.55
766.34	234.44
766.67	234.15
767.00	234.20
767.32	234.31
767.65	234.54
767.97	234.43
768.30	234.39
768.62	234.30
768.95	234.22
769.27	234.08
769.60	234.11
769.92	233.93
770.25	233.83
770.57	233.68
770.90	233.59
771.22	233.37
771.55	233.39
771.87	233.27
772.20	233.16
772.52	233.55
772.85	234.09
773.17	234.07
773.50	234.00
773.82	233.81
774.15	233.54
774.47	233.26
774.80	233.16
775.12	233.08
775.45	233.00
775.77	232.94
776.09	232.95
776.42	232.79
776.74	232.92
777.07	232.86
777.39	232.79
777.72	232.69
778.04	232.76
778.36	232.62
778.69	232.60
779.01	232.63
779.33	232.17
779.66	231.52
779.98	231.48
780.31	231.47
780.63	231.66
780.95	231.70
781.28	231.55
781.60	231.55
781.92	231.48
782.25	231.41
782.57	231.43
782.89	231.33
783.22	231.25
783.54	231.06
783.86	230.98
784.19	230.96
784.51	231.13
784.83	231.01
785.16	231.01
785.48	231.01
785.80	230.95
786.12	230.91
786.45	230.92
786.77	230.88
787.09	230.85
787.42	230.65
787.74	230.56
788.06	230.62
788.38	230.55
788.71	230.50
789.03	230.52
789.35	230.57
789.67	230.48
789.99	230.52
790.32	230.45
790.64	230.52
790.96	230.93
791.28	230.73
791.61	230.76
791.93	230.75
792.25	230.67
792.57	230.96
792.89	230.95
793.21	230.95
793.54	230.92
793.86	230.80
794.18	230.83
794.50	230.71
794.82	230.60
795.14	230.60
795.47	230.67
795.79	230.57
796.11	230.31
796.43	230.29
796.75	230.26
797.07	230.25
797.39	230.18
797.71	229.75
798.04	229.80
798.36	229.75
798.68	229.71
799.00	229.73
799.32	229.41
799.64	229.45
799.96	229.42
800.28	229.50
800.60	229.46
800.92	229.48
801.24	229.54
801.56	229.54
801.89	229.51
802.21	229.52
802.53	229.45
802.85	229.62
803.17	229.86
803.49	229.70
803.81	229.71
804.13	229.67
804.45	229.55
804.77	229.48
805.09	229.50
805.41	229.46
805.73	229.39
806.05	229.33
806.37	229.31
806.69	229.27
807.01	229.15
807.33	229.22
807.65	229.02
807.97	229.25
808.28	229.24
808.60	229.20
808.92	229.17
809.24	229.50
809.56	229.39
809.88	229.25
810.20	229.43
810.52	229.53
810.84	229.43
811.16	229.46
811.48	229.49
811.80	229.64
812.12	229.66
812.43	229.69
812.75	229.76
813.07	229.72
813.39	229.72
813.71	229.69
814.03	229.57
814.35	229.53
814.67	229.31
814.98	229.27
815.30	229.27
815.62	229.12
815.94	228.74
816.26	228.94
816.58	228.78
816.89	228.76
817.21	228.66
817.53	228.72
817.85	228.69
818.17	228.60
818.48	228.32
818.80	228.29
819.12	228.10
819.44	227.95
819.76	227.82
820.07	227.83
820.39	227.78
820.71	227.82
821.03	227.78
821.34	227.65
821.66	227.68
821.98	227.67
822.30	227.64
822.61	228.02
822.93	227.80
823.25	227.78
823.57	227.64
823.88	227.65
824.20	227.60
824.52	227.71
824.83	227.73
825.15	227.70
825.47	227.62
825.79	227.75
826.10	227.74
826.42	227.65
826.74	227.67
827.05	227.69
827.37	227.71
827.69	227.66
828.00	227.73
828.32	227.56
828.64	227.52
828.95	227.80
829.27	227.57
829.58	227.52
829.90	227.56
830.22	227.61
830.53	227.47
830.85	227.49
831.17	227.33
831.48	227.25
831.80	227.28
832.11	227.31
832.43	227.26
832.75	227.22
833.06	227.54
833.38	227.41
833.69	227.36
834.01	227.31
834.32	227.37
834.64	227.28
834.96	227.37
835.27	227.35
835.59	227.13
835.90	227.15
836.22	227.14
836.53	227.08
836.85	227.01
837.16	227.52
837.48	227.51
837.79	227.68
838.11	227.78
838.42	227.78
838.74	227.85
839.05	227.79
839.37	227.81
839.68	227.51
840.00	227.52
840.31	227.59
840.63	227.55
840.94	227.50
841.26	227.50
841.57	227.47
841.88	227.57
842.20	227.53
842.51	227.41
842.83	227.47
843.14	227.85
843.46	227.85
843.77	227.54
844.08	227.52
844.40	227.36
844.71	227.28
845.03	227.21
845.34	227.15
845.65	227.19
845.97	227.12
846.28	227.11
846.60	227.14
846.91	227.11
847.22	227.12
847.54	227.21
847.85	227.20
848.16	227.17
848.48	227.07
848.79	227.30
849.10	227.32
849.42	227.33
849.73	226.98
850.04	226.96
850.36	226.89
850.67	226.97
850.98	226.98
851.30	227.01
851.61	227.05
851.92	227.04
852.23	227.18
852.55	227.24
852.86	227.29
853.17	227.30
853.49	227.26
853.80	227.35
854.11	227.36
854.42	227.47
854.74	227.48
855.05	227.52
855.36	227.19
855.67	227.19
855.99	227.21
856.30	227.78
856.61	227.72
856.92	227.67
857.23	227.59
857.55	227.52
857.86	227.46
858.17	227.56
858.48	227.48
858.79	227.36
859.11	227.38
859.42	227.36
859.73	227.25
860.04	227.30
860.35	227.20
860.66	227.14
860.98	227.06
861.29	227.10
861.60	227.02
861.91	227.20
862.22	227.20
862.53	227.07
862.84	226.43
863.16	226.60
863.47	226.51
863.78	226.55
864.09	226.56
864.40	226.55
864.71	226.54
865.02	226.65
865.33	226.59
865.64	226.49
865.95	226.49
866.27	226.81
866.58	226.79
866.89	226.85
867.20	226.79
867.51	226.67
867.82	226.61
868.13	226.79
868.44	226.71
868.75	226.78
869.06	226.84
869.37	226.89
869.68	226.75
869.99	226.81
870.30	226.80
870.61	226.89
870.92	226.89
871.23	226.81
871.54	226.81
871.85	226.94
872.16	227.04
872.47	227.00
872.78	226.70
873.09	226.73
873.40	226.69
873.71	226.75
874.02	226.88
874.33	226.82
874.64	226.68
874.95	226.75
875.26	226.62
875.56	226.65
875.87	226.70
876.18	226.71
876.49	227.22
876.80	227.20
877.11	227.13
877.42	227.16
877.73	227.26
878.04	227.23
878.35	227.18
878.66	227.18
878.96	227.22
879.27	227.33
879.58	227.33
879.89	227.31
880.20	227.44
880.51	227.41
880.82	227.52
881.12	227.53
881.43	227.39
881.74	227.37
882.05	227.28
882.36	227.25
882.67	227.24
882.97	226.74
883.28	226.77
883.59	226.74
883.90	226.76
884.21	226.76
884.51	226.71
884.82	226.65
885.13	226.63
885.44	226.62
885.74	226.53
886.05	226.55
886.36	226.53
886.67	226.36
886.98	226.58
887.28	226.55
887.59	226.51
887.90	226.58
888.20	226.59
888.51	226.70
888.82	226.63
889.13	226.72
889.43	227.07
889.74	227.02
890.05	227.04
890.35	226.94
890.66	226.87
890.97	226.84
891.28	226.81
891.58	226.86
891.89	226.81
892.20	226.74
892.50	226.65
892.81	226.59
893.12	226.62
893.42	226.41
893.73	226.34
894.04	226.31
894.34	226.36
894.65	226.30
894.95	226.13
895.26	226.17
895.57	226.29
895.87	225.85
896.18	225.90
896.48	225.89
896.79	225.99
897.10	226.06
897.40	226.04
897.71	226.13
898.01	226.03
898.32	226.13
898.63	226.10
898.93	226.17
899.24	226.20
899.54	226.15
899.85	226.11
900.15	226.18
900.46	226.25
900.76	226.22
901.07	226.23
901.38	226.30
901.68	226.35
901.99	226.10
902.29	226.13
902.60	226.06
902.90	226.05
903.21	226.09
903.51	226.03
903.82	226.15
904.12	226.16
904.43	226.23
904.73	226.24
905.03	226.31
905.34	226.73
905.64	226.70
905.95	226.71
906.25	226.69
906.56	226.63
906.86	226.63
907.17	226.55
907.47	226.60
907.77	226.59
908.08	226.49
908.38	226.55
908.69	226.65
908.99	226.75
909.30	226.82
909.60	226.73
909.90	226.77
910.21	226.64
910.51	226.50
910.81	226.55
911.12	226.54
911.42	226.50
911.73	226.01
912.03	226.07
912.33	226.23
912.64	226.20
912.94	226.17
913.24	226.12
913.55	226.16
913.85	226.10
914.15	226.10
914.46	226.11
914.76	226.13
915.06	226.03
915.37	225.92
915.67	225.82
915.97	225.84
916.27	225.74
916.58	225.79
916.88	225.81
917.18	225.73
917.49	226.01
917.79	226.04
918.09	226.14
918.39	226.23
918.70	226.12
919.00	226.18
919.30	226.44
919.60	226.36
919.91	226.27
920.21	226.38
920.51	226.31
920.81	226.38
921.12	226.44
921.42	226.45
921.72	226.44
922.02	226.46
922.32	226.55
922.63	226.63
922.93	226.86
923.23	226.88
923.53	226.87
923.83	226.60
924.13	226.67
924.44	226.65
924.74	226.74
925.04	226.86
925.34	226.88
925.64	226.74
925.94	226.76
926.24	227.05
926.55	226.99
926.85	227.08
927.15	227.05
927.45	227.01
927.75	226.99
928.05	227.04
928.35	227.03
928.65	227.10
928.95	227.14
929.26	227.00
929.56	227.18
929.86	227.24
930.16	227.15
930.46	227.12
930.76	227.14
931.06	226.92
931.36	226.76
931.66	226.79
931.96	226.82
932.26	226.90
932.56	226.76
932.86	226.85
933.16	226.89
933.46	226.85
933.76	226.84
934.06	226.98
934.36	227.20
934.66	227.21
934.96	227.13
935.26	227.07
935.56	227.07
935.86	226.80
936.16	226.75
936.46	226.72
936.76	226.74
937.06	226.71
937.36	226.75
937.66	226.84
937.96	226.83
938.26	226.76
938.56	226.77
938.86	226.74
939.16	226.81
939.46	226.85
939.76	226.93
940.06	226.96
940.35	226.90
940.65	226.62
940.95	226.71
941.25	226.55
941.55	226.50
941.85	226.45
942.15	226.69
942.45	226.79
942.75	226.80
943.04	226.84
943.34	226.89
943.64	226.86
943.94	226.82
944.24	226.88
944.54	226.89
944.84	226.87
945.13	226.89
945.43	226.79
945.73	226.71
946.03	226.64
946.33	226.50
946.62	226.44
946.92	226.45
947.22	226.37
947.52	226.42
947.82	226.55
948.11	226.53
948.41	226.37
948.71	226.25
949.01	226.34
949.31	226.28
949.60	226.26
949.90	226.36
950.20	226.28
950.50	226.21
950.79	226.14
951.09	226.21
951.39	226.08
951.69	226.09
951.98	226.23
952.28	226.16
952.58	226.19
952.87	226.17
953.17	226.25
953.47	226.19
953.76	226.23
954.06	226.10
954.36	226.00
954.66	226.00
954.95	226.15
955.25	226.21
955.55	226.25
955.84	226.16
956.14	226.10
956.44	226.22
956.73	226.22
957.03	226.31
957.32	226.26
957.62	226.24
957.92	226.30
958.21	226.20
958.51	226.80
958.81	226.83
959.10	226.90
959.40	226.92
959.69	226.98
959.99	227.08
960.29	227.08
960.58	227.08
960.88	227.26
961.17	227.19
961.47	227.18
961.76	227.13
962.06	227.21
962.36	227.23
962.65	227.14
962.95	227.08
963.24	227.04
963.54	227.12
963.83	227.18
964.13	227.13
964.42	226.98
964.72	226.59
965.01	226.60
965.31	226.52
965.60	226.41
965.90	226.71
966.19	226.56
966.49	226.51
966.78	226.55
967.08	226.45
967.37	226.44
967.67	226.29
967.96	226.34
968.26	226.30
968.55	226.33
968.85	226.35
969.14	226.37
969.43	226.33
969.73	226.25
970.02	226.14
970.32	226.07
970.61	226.10
970.91	225.98
971.20	225.87
971.49	225.79
971.79	225.83
972.08	225.51
972.38	225.55
972.67	225.55
972.96	225.61
973.26	225.56
973.55	225.66
973.85	225.70
974.14	225.60
974.43	225.55
974.73	225.47
975.02	225.39
975.31	225.40
975.61	225.38
975.90	225.33
976.19	225.37
976.49	225.43
976.78	225.46
977.07	225.45
977.37	225.53
977.66	225.66
977.95	225.62
978.24	225.61
978.54	225.70
978.83	225.70
979.12	225.64
979.42	225.61
979.71	225.52
980.00	225.44
980.29	225.49
980.59	225.49
980.88	225.64
981.17	225.65
981.46	225.65
981.76	225.72
982.05	225.83
982.34	225.85
982.63	225.83
982.93	225.85
983.22	226.00
983.51	226.06
983.80	226.05
984.09	226.22
984.39	226.21
984.68	226.11
984.97	226.15
985.26	226.16
985.55	226.25
985.85	226.20
986.14	226.30
986.43	226.40
986.72	226.40
987.01	226.23
987.30	226.25
987.59	226.23
987.89	226.27
988.18	226.16
988.47	226.19
988.76	226.15
989.05	226.05
989.34	225.94
989.63	225.99
989.92	225.98
990.22	225.85
990.51	225.88
990.80	225.88
991.09	225.90
991.38	225.96
991.67	225.91
991.96	225.87
992.25	225.94
992.54	225.86
992.83	225.89
993.12	225.86
993.41	225.94
993.70	226.14
993.99	226.19
994.28	226.23
994.58	226.33
994.87	226.27
995.16	226.34
995.45	226.28
995.74	226.16
996.03	226.28
996.32	226.37
996.61	226.47
996.90	226.45
997.19	226.47
997.48	226.44
997.77	226.35
998.06	226.43
998.34	226.33
998.63	226.28
998.92	226.29
999.21	226.38
999.50	226.43
999.79	226.25
1000.08	226.18
1000.37	226.17
1000.66	226.06
1000.95	226.25
1001.24	226.30
1001.53	226.37
1001.82	226.39
1002.11	226.28
1002.40	226.35
1002.68	226.45
1002.97	226.79
1003.26	226.82
1003.55	226.80
1003.84	226.83
1004.13	226.96
1004.42	226.96
1004.71	226.91
1004.99	226.89
1005.28	227.01
1005.57	226.88
1005.86	226.83
1006.15	226.81
1006.44	226.73
1006.72	226.74
1007.01	226.61
1007.30	226.54
1007.59	226.48
1007.88	226.46
1008.17	226.35
1008.45	226.17
1008.74	225.91
1009.03	225.70
1009.32	225.59
1009.60	225.52
1009.89	225.53
1010.18	225.24
1010.47	225.21
1010.76	225.23
1011.04	225.20
1011.33	225.17
1011.62	225.23
1011.91	225.24
1012.19	225.26
1012.48	225.35
1012.77	225.34
1013.05	225.51
1013.34	225.56
1013.63	225.53
1013.92	225.51
1014.20	225.53
1014.49	225.48
1014.78	225.52
1015.06	225.35
1015.35	225.36
1015.64	225.50
1015.92	225.52
1016.21	225.62
1016.50	225.57
1016.78	225.66
1017.07	225.68
1017.36	225.63
1017.64	225.59
1017.93	225.63
1018.22	225.54
1018.50	225.54
1018.79	225.55
1019.08	225.35
1019.36	225.36
1019.65	225.31
1019.93	225.41
1020.22	225.52
1020.51	225.76
1020.79	225.74
1021.08	224.55
1021.36	225.60
1021.65	225.85
1021.94	224.65
1022.22	226.25
1022.51	223.90
1022.79	226.70
1023.08	226.35
1023.36	229.95
1023.65	224.70
>>>>>End Processed Spectral Data<<<<<
