SpectraSuite Data File
++++++++++++++++++++++++++++++++++++
Date: Wed Sep 04 18:02:12 EDT 2013
User: lab3
Dark Spectrum Present: Yes
Reference Spectrum Present: No
Number of Sampled Component Spectra: 1
Spectrometers: USB2E7196
Integration Time (usec): 170000 (USB2E7196)
Spectra Averaged: 20 (USB2E7196)
Boxcar Smoothing: 10 (USB2E7196)
Correct for Electrical Dark: No (USB2E7196)
Strobe/Lamp Enabled: No (USB2E7196)
Correct for Detector Non-linearity: No (USB2E7196)
Correct for Stray Light: No (USB2E7196)
Number of Pixels in Processed Spectrum: 2048
>>>>>Begin Processed Spectral Data<<<<<
339.09	0.00
339.48	212.75
339.86	213.45
340.24	216.70
340.63	217.55
341.01	226.65
341.39	220.05
341.78	223.00
342.16	224.40
342.54	224.50
342.93	212.65
343.31	223.37
343.69	223.90
344.07	224.43
344.46	224.90
344.84	225.33
345.22	225.35
345.60	225.62
345.99	225.87
346.37	225.95
346.75	226.02
347.13	226.03
347.52	225.99
347.90	226.23
348.28	226.24
348.66	226.36
349.05	226.19
349.43	226.33
349.81	226.42
350.19	226.46
350.57	226.54
350.96	226.62
351.34	226.72
351.72	226.84
352.10	226.96
352.48	226.98
352.87	227.04
353.25	227.10
353.63	227.15
354.01	227.07
354.39	227.17
354.77	227.29
355.15	227.50
355.54	227.54
355.92	227.41
356.30	227.49
356.68	227.84
357.06	227.97
357.44	228.01
357.82	228.05
358.20	228.54
358.58	228.58
358.97	228.65
359.35	228.83
359.73	228.98
360.11	229.04
360.49	229.13
360.87	229.13
361.25	229.24
361.63	229.50
362.01	229.60
362.39	229.61
362.77	229.60
363.15	229.63
363.53	229.65
363.91	229.79
364.29	229.80
364.67	229.33
365.05	229.41
365.43	229.46
365.81	229.57
366.19	229.47
366.57	229.69
366.95	229.69
367.33	229.52
367.71	229.56
368.09	229.63
368.47	229.64
368.85	229.65
369.23	229.75
369.61	229.48
369.99	229.63
370.37	229.66
370.75	229.92
371.13	229.85
371.51	229.81
371.89	229.79
372.27	229.79
372.65	229.87
373.03	229.82
373.41	229.77
373.78	229.67
374.16	229.36
374.54	229.21
374.92	229.14
375.30	229.08
375.68	228.95
376.06	228.89
376.44	228.81
376.82	228.77
377.19	228.65
377.57	228.69
377.95	228.48
378.33	228.42
378.71	228.07
379.09	228.04
379.47	228.03
379.84	227.93
380.22	227.76
380.60	227.63
380.98	227.51
381.36	227.41
381.73	227.28
382.11	227.34
382.49	227.32
382.87	227.20
383.25	227.19
383.62	227.71
384.00	227.55
384.38	227.50
384.76	227.54
385.13	227.65
385.51	227.54
385.89	227.43
386.27	227.37
386.64	227.31
387.02	227.27
387.40	227.14
387.78	227.06
388.15	227.13
388.53	227.09
388.91	227.08
389.29	227.04
389.66	227.02
390.04	226.84
390.42	226.78
390.79	226.76
391.17	226.76
391.55	226.17
391.92	226.18
392.30	226.20
392.68	226.13
393.05	226.00
393.43	226.03
393.81	226.10
394.18	226.05
394.56	226.16
394.94	226.20
395.31	226.18
395.69	226.40
396.06	226.40
396.44	226.42
396.82	226.37
397.19	226.67
397.57	226.75
397.95	226.88
398.32	226.79
398.70	226.97
399.07	227.04
399.45	227.06
399.82	227.21
400.20	227.24
400.58	227.26
400.95	227.20
401.33	227.42
401.70	227.80
402.08	227.90
402.45	227.94
402.83	228.18
403.20	228.45
403.58	228.50
403.95	228.81
404.33	229.03
404.71	229.30
405.08	229.71
405.46	229.92
405.83	230.18
406.21	230.50
406.58	230.72
406.96	231.04
407.33	231.44
407.70	231.74
408.08	232.51
408.45	233.00
408.83	233.50
409.20	233.77
409.58	233.98
409.95	234.56
410.33	235.16
410.70	235.60
411.08	236.25
411.45	236.90
411.82	237.43
412.20	238.28
412.57	239.28
412.95	239.68
413.32	240.63
413.69	241.51
414.07	242.49
414.44	243.46
414.82	244.52
415.19	245.71
415.56	246.96
415.94	248.00
416.31	249.40
416.68	250.87
417.06	252.61
417.43	254.32
417.81	256.15
418.18	258.05
418.55	259.98
418.93	261.98
419.30	264.10
419.67	266.37
420.04	268.58
420.42	270.89
420.79	273.92
421.16	276.66
421.54	279.68
421.91	282.63
422.28	285.86
422.66	289.17
423.03	292.69
423.40	295.94
423.77	299.48
424.15	303.12
424.52	306.91
424.89	311.07
425.26	314.99
425.64	318.84
426.01	322.90
426.38	327.37
426.75	331.95
427.13	336.55
427.50	341.48
427.87	346.55
428.24	351.55
428.61	356.13
428.99	361.38
429.36	366.89
429.73	372.38
430.10	377.85
430.47	383.56
430.85	389.15
431.22	395.47
431.59	402.32
431.96	408.70
432.33	415.73
432.70	422.46
433.08	430.45
433.45	437.98
433.82	445.43
434.19	453.52
434.56	461.68
434.93	469.49
435.30	477.26
435.68	485.75
436.05	494.11
436.42	502.56
436.79	510.40
437.16	518.69
437.53	527.70
437.90	536.52
438.27	545.13
438.64	554.05
439.01	562.46
439.38	569.64
439.75	576.76
440.13	584.91
440.50	592.51
440.87	598.46
441.24	604.75
441.61	611.80
441.98	617.06
442.35	622.72
442.72	628.55
443.09	634.49
443.46	637.99
443.83	640.41
444.20	642.33
444.57	645.14
444.94	646.42
445.31	647.42
445.68	648.82
446.05	649.10
446.42	647.86
446.79	646.29
447.16	644.62
447.53	643.23
447.90	639.50
448.27	635.75
448.64	630.91
449.01	627.17
449.37	621.00
449.74	614.95
450.11	608.13
450.48	600.44
450.85	592.17
451.22	585.31
451.59	578.67
451.96	572.32
452.33	563.96
452.70	556.53
453.07	547.79
453.43	538.62
453.80	530.06
454.17	522.00
454.54	514.41
454.91	506.25
455.28	498.26
455.65	490.68
456.02	483.77
456.38	477.49
456.75	469.75
457.12	463.10
457.49	456.71
457.86	450.32
458.23	445.22
458.59	439.60
458.96	433.70
459.33	428.45
459.70	423.26
460.07	419.28
460.43	414.45
460.80	410.19
461.17	406.35
461.54	402.36
461.91	398.43
462.27	394.42
462.64	391.19
463.01	387.66
463.38	384.35
463.74	380.34
464.11	377.22
464.48	374.54
464.85	371.76
465.21	369.57
465.58	367.34
465.95	364.53
466.32	362.14
466.68	359.84
467.05	357.70
467.42	355.53
467.78	353.18
468.15	351.15
468.52	349.62
468.88	347.34
469.25	345.39
469.62	343.98
469.98	342.38
470.35	340.83
470.72	339.42
471.08	337.63
471.45	336.37
471.82	335.08
472.18	333.55
472.55	332.53
472.92	331.25
473.28	330.04
473.65	328.78
474.02	327.71
474.38	326.90
474.75	326.11
475.11	325.20
475.48	324.47
475.85	323.76
476.21	322.95
476.58	322.52
476.94	322.14
477.31	321.65
477.67	321.21
478.04	320.81
478.41	320.52
478.77	320.82
479.14	320.54
479.50	320.40
479.87	320.50
480.23	320.48
480.60	320.44
480.96	320.45
481.33	320.87
481.69	321.09
482.06	321.36
482.42	321.62
482.79	321.95
483.15	322.46
483.52	323.12
483.88	323.62
484.25	324.22
484.61	324.91
484.98	325.60
485.34	326.52
485.71	327.42
486.07	328.41
486.44	329.03
486.80	330.09
487.17	331.22
487.53	332.51
487.90	334.00
488.26	335.64
488.62	337.46
488.99	338.99
489.35	340.82
489.72	342.70
490.08	344.61
490.44	346.71
490.81	348.98
491.17	351.23
491.54	353.74
491.90	356.29
492.26	358.88
492.63	361.74
492.99	364.71
493.36	367.88
493.72	371.20
494.08	374.73
494.45	378.40
494.81	382.25
495.17	386.19
495.54	390.25
495.90	394.39
496.26	398.84
496.63	403.36
496.99	408.08
497.35	413.08
497.72	418.60
498.08	424.11
498.44	429.75
498.80	435.83
499.17	441.92
499.53	448.08
499.89	454.85
500.26	461.65
500.62	468.65
500.98	476.02
501.34	483.45
501.71	491.18
502.07	499.04
502.43	507.36
502.79	515.71
503.16	524.30
503.52	533.49
503.88	542.70
504.24	552.67
504.60	562.82
504.97	573.23
505.33	583.56
505.69	594.75
506.05	605.75
506.41	616.92
506.78	628.82
507.14	641.10
507.50	653.36
507.86	665.89
508.22	678.71
508.59	691.72
508.95	705.42
509.31	719.62
509.67	733.97
510.03	748.24
510.39	763.08
510.75	778.44
511.12	793.42
511.48	809.08
511.84	824.78
512.20	840.82
512.56	857.13
512.92	874.16
513.28	890.83
513.64	908.17
514.00	925.85
514.37	943.70
514.73	962.02
515.09	980.31
515.45	998.73
515.81	1017.32
516.17	1036.27
516.53	1055.00
516.89	1073.54
517.25	1093.10
517.61	1113.35
517.97	1133.83
518.33	1154.03
518.69	1174.40
519.05	1195.05
519.41	1215.84
519.77	1237.30
520.13	1257.97
520.49	1278.49
520.85	1301.00
521.21	1322.17
521.57	1343.49
521.93	1364.23
522.29	1385.19
522.65	1405.64
523.01	1426.66
523.37	1447.29
523.73	1468.42
524.09	1489.08
524.45	1510.03
524.81	1530.99
525.17	1551.89
525.53	1572.38
525.89	1593.16
526.25	1614.36
526.61	1634.86
526.97	1655.86
527.33	1676.79
527.68	1698.79
528.04	1720.25
528.40	1739.86
528.76	1761.03
529.12	1781.37
529.48	1802.28
529.84	1822.37
530.20	1844.02
530.56	1864.97
530.91	1886.40
531.27	1906.92
531.63	1927.68
531.99	1948.80
532.35	1968.81
532.71	1988.83
533.07	2009.57
533.42	2029.54
533.78	2049.69
534.14	2069.60
534.50	2088.80
534.86	2108.09
535.21	2125.94
535.57	2144.64
535.93	2162.61
536.29	2180.27
536.65	2198.86
537.00	2216.66
537.36	2234.54
537.72	2251.09
538.08	2268.36
538.44	2284.89
538.79	2301.60
539.15	2318.28
539.51	2334.21
539.87	2349.36
540.22	2363.89
540.58	2378.11
540.94	2391.72
541.29	2404.44
541.65	2417.30
542.01	2429.92
542.37	2440.64
542.72	2451.77
543.08	2462.60
543.44	2474.37
543.79	2484.58
544.15	2494.15
544.51	2504.16
544.87	2513.96
545.22	2522.69
545.58	2530.24
545.94	2537.55
546.29	2544.00
546.65	2550.32
547.01	2555.82
547.36	2561.80
547.72	2567.26
548.07	2571.47
548.43	2576.74
548.79	2581.42
549.14	2585.21
549.50	2589.31
549.86	2593.30
550.21	2597.04
550.57	2600.20
550.92	2601.65
551.28	2603.36
551.64	2605.95
551.99	2608.07
552.35	2609.76
552.70	2612.22
553.06	2614.32
553.41	2615.83
553.77	2617.76
554.13	2619.40
554.48	2620.84
554.84	2622.37
555.19	2623.70
555.55	2625.50
555.90	2624.88
556.26	2624.14
556.61	2622.89
556.97	2620.95
557.32	2620.57
557.68	2619.65
558.03	2618.19
558.39	2617.00
558.74	2616.09
559.10	2612.90
559.45	2609.18
559.81	2604.84
560.16	2599.48
560.52	2594.55
560.87	2590.29
561.23	2584.84
561.58	2579.08
561.94	2572.18
562.29	2564.70
562.64	2557.61
563.00	2549.47
563.35	2543.00
563.71	2536.63
564.06	2530.57
564.42	2523.83
564.77	2516.90
565.12	2509.14
565.48	2501.58
565.83	2493.50
566.19	2485.78
566.54	2478.09
566.89	2470.07
567.25	2461.97
567.60	2454.73
567.96	2447.27
568.31	2438.94
568.66	2430.00
569.02	2420.92
569.37	2413.27
569.72	2405.88
570.08	2396.58
570.43	2386.86
570.78	2377.59
571.14	2368.13
571.49	2357.89
571.84	2348.40
572.20	2337.37
572.55	2326.92
572.90	2315.92
573.26	2305.71
573.61	2294.30
573.96	2283.22
574.31	2271.05
574.67	2259.62
575.02	2247.11
575.37	2234.31
575.72	2220.98
576.08	2209.20
576.43	2196.77
576.78	2183.17
577.13	2169.23
577.49	2156.48
577.84	2144.74
578.19	2132.53
578.54	2119.45
578.90	2107.33
579.25	2094.99
579.60	2082.65
579.95	2069.76
580.30	2056.72
580.66	2043.00
581.01	2029.40
581.36	2014.95
581.71	2002.42
582.06	1989.28
582.42	1976.52
582.77	1963.90
583.12	1951.95
583.47	1939.44
583.82	1927.24
584.17	1915.39
584.53	1903.59
584.88	1890.93
585.23	1877.81
585.58	1863.55
585.93	1850.41
586.28	1836.89
586.63	1822.59
586.98	1808.00
587.34	1794.76
587.69	1781.65
588.04	1769.17
588.39	1757.05
588.74	1745.21
589.09	1733.03
589.44	1720.31
589.79	1708.18
590.14	1695.90
590.49	1683.85
590.84	1671.66
591.19	1659.31
591.54	1646.77
591.89	1634.56
592.25	1623.83
592.60	1612.15
592.95	1600.79
593.30	1588.74
593.65	1576.91
594.00	1564.87
594.35	1555.03
594.70	1543.00
595.05	1531.45
595.40	1519.16
595.75	1507.10
596.10	1495.56
596.45	1484.03
596.80	1472.96
597.15	1461.45
597.50	1449.87
597.85	1438.30
598.19	1426.64
598.54	1415.14
598.89	1403.87
599.24	1392.93
599.59	1381.09
599.94	1369.98
600.29	1359.55
600.64	1349.08
600.99	1338.11
601.34	1328.58
601.69	1317.26
602.04	1307.36
602.39	1297.34
602.74	1288.26
603.08	1278.68
603.43	1269.40
603.78	1259.44
604.13	1249.80
604.48	1240.06
604.83	1230.39
605.18	1220.47
605.53	1210.71
605.87	1201.42
606.22	1192.55
606.57	1183.10
606.92	1173.84
607.27	1164.84
607.62	1155.90
607.96	1147.51
608.31	1139.55
608.66	1130.93
609.01	1122.36
609.36	1114.04
609.70	1105.31
610.05	1096.41
610.40	1088.06
610.75	1079.22
611.10	1070.86
611.44	1062.22
611.79	1054.00
612.14	1045.94
612.49	1038.11
612.83	1030.78
613.18	1022.89
613.53	1015.30
613.88	1007.25
614.22	999.45
614.57	991.62
614.92	983.79
615.27	975.99
615.61	968.30
615.96	960.76
616.31	953.21
616.65	946.00
617.00	938.75
617.35	931.51
617.70	924.18
618.04	916.95
618.39	909.97
618.74	903.54
619.08	896.53
619.43	889.54
619.78	882.54
620.12	875.22
620.47	868.28
620.82	861.19
621.16	854.52
621.51	848.17
621.85	841.95
622.20	835.21
622.55	828.57
622.89	822.04
623.24	815.46
623.59	809.20
623.93	802.92
624.28	796.70
624.62	791.07
624.97	785.17
625.32	779.40
625.66	773.37
626.01	767.05
626.35	761.53
626.70	755.84
627.04	750.51
627.39	745.01
627.73	739.76
628.08	734.43
628.43	728.91
628.77	723.41
629.12	717.93
629.46	713.09
629.81	708.13
630.15	703.19
630.50	698.20
630.84	693.26
631.19	688.37
631.53	683.80
631.88	678.48
632.22	673.60
632.57	669.07
632.91	664.27
633.26	659.81
633.60	655.10
633.95	650.43
634.29	645.51
634.64	640.89
634.98	635.97
635.32	631.66
635.67	627.68
636.01	623.47
636.36	619.25
636.70	615.05
637.05	610.97
637.39	606.81
637.73	602.74
638.08	598.63
638.42	594.33
638.77	589.86
639.11	585.60
639.45	581.22
639.80	576.75
640.14	572.76
640.49	568.81
640.83	564.96
641.17	561.09
641.52	557.44
641.86	553.96
642.20	550.86
642.55	547.01
642.89	543.48
643.23	539.83
643.58	536.60
643.92	532.94
644.26	529.44
644.61	526.21
644.95	522.88
645.29	519.47
645.64	516.25
645.98	513.30
646.32	510.29
646.66	507.25
647.01	504.22
647.35	501.44
647.69	498.25
648.04	495.29
648.38	492.45
648.72	489.51
649.06	486.35
649.41	483.16
649.75	480.21
650.09	477.21
650.43	474.36
650.78	471.36
651.12	468.62
651.46	465.76
651.80	462.95
652.14	460.30
652.49	457.82
652.83	455.27
653.17	452.61
653.51	449.87
653.85	447.45
654.20	444.99
654.54	442.49
654.88	440.06
655.22	437.87
655.56	435.53
655.90	433.18
656.25	430.91
656.59	428.75
656.93	426.61
657.27	424.47
657.61	422.04
657.95	419.74
658.29	417.53
658.64	415.60
658.98	413.34
659.32	411.06
659.66	408.78
660.00	406.56
660.34	404.43
660.68	402.48
661.02	400.33
661.36	398.42
661.70	396.15
662.05	394.26
662.39	392.31
662.73	390.52
663.07	388.75
663.41	386.92
663.75	384.95
664.09	383.05
664.43	381.12
664.77	379.43
665.11	377.67
665.45	375.90
665.79	374.13
666.13	372.43
666.47	370.68
666.81	369.07
667.15	367.31
667.49	365.82
667.83	364.41
668.17	362.95
668.51	361.43
668.85	360.16
669.19	358.94
669.53	357.29
669.87	355.63
670.21	354.16
670.55	352.82
670.89	351.70
671.23	350.30
671.57	348.90
671.91	347.59
672.25	346.25
672.58	345.13
672.92	343.58
673.26	342.28
673.60	340.99
673.94	339.80
674.28	338.80
674.62	337.70
674.96	336.42
675.30	335.30
675.64	334.11
675.97	332.94
676.31	331.53
676.65	330.35
676.99	329.39
677.33	328.19
677.67	327.03
678.01	325.58
678.34	324.53
678.68	323.55
679.02	322.40
679.36	321.37
679.70	320.23
680.04	319.35
680.37	318.34
680.71	317.40
681.05	316.43
681.39	315.45
681.73	314.31
682.06	313.35
682.40	312.42
682.74	311.58
683.08	310.78
683.42	309.86
683.75	309.10
684.09	308.11
684.43	307.30
684.77	306.44
685.10	305.72
685.44	304.96
685.78	304.12
686.12	303.42
686.45	302.66
686.79	301.76
687.13	301.10
687.46	300.38
687.80	299.70
688.14	298.86
688.48	298.21
688.81	297.60
689.15	296.90
689.49	296.19
689.82	295.50
690.16	294.58
690.50	293.98
690.83	293.19
691.17	292.51
691.51	291.87
691.84	291.33
692.18	290.56
692.52	289.85
692.85	289.23
693.19	288.70
693.52	288.05
693.86	287.49
694.20	286.86
694.53	286.34
694.87	285.66
695.21	285.11
695.54	284.45
695.88	283.81
696.21	283.08
696.55	282.43
696.88	281.79
697.22	281.26
697.56	280.69
697.89	280.08
698.23	279.63
698.56	279.07
698.90	278.50
699.23	278.13
699.57	277.59
699.90	277.04
700.24	276.50
700.58	276.02
700.91	275.54
701.25	275.38
701.58	275.23
701.92	274.97
702.25	274.50
702.59	273.94
702.92	273.40
703.26	273.05
703.59	272.64
703.93	272.61
704.26	272.26
704.60	271.90
704.93	271.55
705.26	270.99
705.60	270.68
705.93	270.20
706.27	269.88
706.60	269.66
706.94	269.48
707.27	269.00
707.61	268.67
707.94	268.37
708.27	267.63
708.61	266.84
708.94	266.32
709.28	265.93
709.61	265.53
709.94	265.28
710.28	264.90
710.61	264.60
710.95	263.82
711.28	263.70
711.61	263.27
711.95	263.03
712.28	262.73
712.61	262.28
712.95	262.16
713.28	261.95
713.61	261.42
713.95	260.93
714.28	260.64
714.61	260.22
714.95	259.84
715.28	259.48
715.61	259.16
715.95	258.90
716.28	258.51
716.61	258.38
716.95	258.04
717.28	257.74
717.61	257.40
717.94	257.14
718.28	256.50
718.61	256.22
718.94	255.76
719.27	255.42
719.61	255.26
719.94	254.91
720.27	254.42
720.60	254.14
720.94	253.86
721.27	253.70
721.60	253.56
721.93	253.24
722.27	253.18
722.60	253.03
722.93	252.70
723.26	252.58
723.59	252.22
723.93	251.98
724.26	251.74
724.59	251.51
724.92	251.35
725.25	251.31
725.59	251.11
725.92	250.96
726.25	250.86
726.58	250.63
726.91	250.39
727.24	250.29
727.57	250.18
727.91	249.92
728.24	249.77
728.57	249.50
728.90	249.38
729.23	249.05
729.56	249.08
729.89	248.89
730.22	248.65
730.55	248.47
730.89	248.32
731.22	248.16
731.55	247.95
731.88	247.72
732.21	247.44
732.54	247.25
732.87	247.15
733.20	246.95
733.53	246.75
733.86	246.59
734.19	246.35
734.52	246.30
734.85	246.47
735.18	246.14
735.51	246.09
735.84	245.92
736.17	245.83
736.50	245.39
736.83	245.82
737.16	245.65
737.49	245.54
737.82	245.31
738.15	245.26
738.48	245.13
738.81	244.97
739.14	244.85
739.47	244.63
739.80	244.42
740.13	244.28
740.46	244.07
740.79	243.82
741.12	243.59
741.45	243.23
741.78	242.78
742.11	242.79
742.44	242.58
742.77	242.57
743.10	242.30
743.43	242.13
743.75	241.44
744.08	241.97
744.41	241.76
744.74	241.64
745.07	241.30
745.40	241.27
745.73	241.37
746.06	241.26
746.39	241.26
746.71	241.09
747.04	240.97
747.37	240.81
747.70	240.77
748.03	240.70
748.36	240.71
748.68	240.60
749.01	240.33
749.34	240.18
749.67	239.99
750.00	239.93
750.33	240.18
750.65	240.19
750.98	239.40
751.31	239.36
751.64	239.31
751.97	239.41
752.29	239.25
752.62	238.88
752.95	238.68
753.28	238.55
753.60	238.44
753.93	238.35
754.26	238.35
754.59	238.15
754.91	238.01
755.24	237.91
755.57	237.82
755.90	237.71
756.22	237.58
756.55	237.43
756.88	237.29
757.20	236.93
757.53	236.64
757.86	236.55
758.19	236.50
758.51	236.39
758.84	236.25
759.17	236.09
759.49	236.05
759.82	236.19
760.15	236.13
760.47	236.02
760.80	235.86
761.13	235.76
761.45	235.67
761.78	235.63
762.11	235.51
762.43	235.38
762.76	235.34
763.08	235.29
763.41	235.21
763.74	235.16
764.06	235.06
764.39	235.04
764.71	234.90
765.04	234.73
765.37	234.59
765.69	234.44
766.02	234.33
766.34	234.27
766.67	234.01
767.00	233.95
767.32	234.21
767.65	234.43
767.97	234.35
768.30	234.27
768.62	234.17
768.95	234.00
769.27	233.96
769.60	233.97
769.92	233.85
770.25	233.79
770.57	233.70
770.90	233.54
771.22	233.46
771.55	233.43
771.87	233.39
772.20	233.28
772.52	233.58
772.85	234.15
773.17	234.03
773.50	233.88
773.82	233.77
774.15	233.43
774.47	233.11
774.80	233.01
775.12	233.00
775.45	232.94
775.77	232.93
776.09	232.94
776.42	232.86
776.74	233.02
777.07	232.90
777.39	232.84
777.72	232.83
778.04	232.80
778.36	232.76
778.69	232.73
779.01	232.77
779.33	232.35
779.66	231.72
779.98	231.65
780.31	231.72
780.63	231.83
780.95	231.84
781.28	231.76
781.60	231.67
781.92	231.67
782.25	231.64
782.57	231.59
782.89	231.52
783.22	231.38
783.54	231.21
783.86	231.29
784.19	231.19
784.51	231.30
784.83	231.20
785.16	231.19
785.48	231.18
785.80	231.22
786.12	231.23
786.45	231.27
786.77	231.30
787.09	231.26
787.42	231.08
787.74	231.13
788.06	231.12
788.38	231.14
788.71	231.08
789.03	231.14
789.35	231.18
789.67	231.05
789.99	231.13
790.32	231.08
790.64	231.05
790.96	231.51
791.28	231.25
791.61	231.21
791.93	231.24
792.25	231.13
792.57	231.38
792.89	231.25
793.21	231.16
793.54	231.12
793.86	231.06
794.18	231.06
794.50	230.90
794.82	230.86
795.14	230.92
795.47	230.93
795.79	230.83
796.11	230.75
796.43	230.72
796.75	230.70
797.07	230.70
797.39	230.65
797.71	230.28
798.04	230.33
798.36	230.38
798.68	230.36
799.00	230.39
799.32	230.13
799.64	230.20
799.96	230.23
800.28	230.24
800.60	230.18
800.92	230.16
801.24	230.11
801.56	230.20
801.89	230.02
802.21	230.05
802.53	229.96
802.85	230.05
803.17	230.25
803.49	230.09
803.81	230.00
804.13	229.93
804.45	229.82
804.77	229.90
805.09	229.84
805.41	229.74
805.73	229.71
806.05	229.53
806.37	229.45
806.69	229.40
807.01	229.32
807.33	229.29
807.65	229.19
807.97	229.36
808.28	229.25
808.60	229.25
808.92	229.16
809.24	229.39
809.56	229.23
809.88	229.04
810.20	229.04
810.52	229.12
810.84	229.07
811.16	228.97
811.48	228.85
811.80	228.95
812.12	228.93
812.43	228.97
812.75	229.04
813.07	229.01
813.39	229.04
813.71	228.91
814.03	228.90
814.35	228.86
814.67	228.66
814.98	228.60
815.30	228.58
815.62	228.41
815.94	228.15
816.26	228.37
816.58	228.28
816.89	228.30
817.21	228.19
817.53	228.15
817.85	228.23
818.17	228.19
818.48	228.00
818.80	228.08
819.12	227.98
819.44	227.88
819.76	227.87
820.07	227.75
820.39	227.80
820.71	227.82
821.03	227.82
821.34	227.79
821.66	227.85
821.98	227.90
822.30	227.94
822.61	228.12
822.93	227.92
823.25	227.85
823.57	227.85
823.88	227.97
824.20	228.06
824.52	228.09
824.83	228.13
825.15	228.12
825.47	228.09
825.79	228.14
826.10	228.11
826.42	228.02
826.74	228.09
827.05	228.08
827.37	228.12
827.69	228.10
828.00	228.16
828.32	228.14
828.64	228.11
828.95	228.39
829.27	228.34
829.58	228.29
829.90	228.40
830.22	228.44
830.53	228.32
830.85	228.16
831.17	228.04
831.48	228.04
831.80	228.10
832.11	228.04
832.43	227.93
832.75	227.92
833.06	228.20
833.38	228.07
833.69	228.11
834.01	228.06
834.32	228.01
834.64	227.93
834.96	227.95
835.27	227.90
835.59	227.71
835.90	227.69
836.22	227.74
836.53	227.65
836.85	227.61
837.16	228.07
837.48	228.15
837.79	228.30
838.11	228.36
838.42	228.34
838.74	228.43
839.05	228.45
839.37	228.43
839.68	228.21
840.00	228.20
840.31	228.15
840.63	228.11
840.94	228.08
841.26	228.05
841.57	228.00
841.88	228.11
842.20	228.05
842.51	227.89
842.83	227.85
843.14	228.31
843.46	228.30
843.77	228.01
844.08	227.93
844.40	227.81
844.71	227.65
845.03	227.63
845.34	227.50
845.65	227.43
845.97	227.44
846.28	227.42
846.60	227.47
846.91	227.46
847.22	227.43
847.54	227.51
847.85	227.54
848.16	227.56
848.48	227.45
848.79	227.61
849.10	227.65
849.42	227.66
849.73	227.14
850.04	227.11
850.36	226.97
850.67	227.07
850.98	227.03
851.30	227.09
851.61	227.00
851.92	227.10
852.23	227.27
852.55	227.30
852.86	227.30
853.17	227.36
853.49	227.43
853.80	227.51
854.11	227.64
854.42	227.68
854.74	227.57
855.05	227.51
855.36	227.27
855.67	227.29
855.99	227.30
856.30	227.86
856.61	227.80
856.92	227.76
857.23	227.74
857.55	227.72
857.86	227.70
858.17	227.82
858.48	227.70
858.79	227.60
859.11	227.60
859.42	227.58
859.73	227.55
860.04	227.53
860.35	227.43
860.66	227.23
860.98	227.26
861.29	227.32
861.60	227.44
861.91	227.60
862.22	227.60
862.53	227.53
862.84	227.04
863.16	227.22
863.47	227.12
863.78	227.13
864.09	227.17
864.40	227.24
864.71	227.24
865.02	227.29
865.33	227.22
865.64	227.18
865.95	227.18
866.27	227.47
866.58	227.46
866.89	227.57
867.20	227.56
867.51	227.50
867.82	227.52
868.13	227.60
868.44	227.52
868.75	227.62
869.06	227.66
869.37	227.68
869.68	227.56
869.99	227.74
870.30	227.77
870.61	227.82
870.92	227.75
871.23	227.73
871.54	227.85
871.85	228.00
872.16	228.06
872.47	228.10
872.78	227.87
873.09	227.94
873.40	227.86
873.71	227.94
874.02	227.95
874.33	227.93
874.64	227.84
874.95	227.92
875.26	227.80
875.56	227.80
875.87	227.79
876.18	227.76
876.49	228.25
876.80	228.13
877.11	228.02
877.42	228.05
877.73	228.11
878.04	227.96
878.35	227.97
878.66	227.97
878.96	227.95
879.27	227.85
879.58	227.80
879.89	227.79
880.20	227.89
880.51	227.81
880.82	227.77
881.12	227.73
881.43	227.62
881.74	227.51
882.05	227.51
882.36	227.55
882.67	227.60
882.97	227.07
883.28	227.02
883.59	227.10
883.90	227.09
884.21	227.15
884.51	227.10
884.82	227.02
885.13	227.02
885.44	226.99
885.74	227.01
886.05	226.97
886.36	226.92
886.67	226.73
886.98	226.98
887.28	227.04
887.59	227.05
887.90	227.04
888.20	227.10
888.51	227.15
888.82	227.05
889.13	227.06
889.43	227.35
889.74	227.30
890.05	227.26
890.35	227.24
890.66	227.07
890.97	227.03
891.28	226.94
891.58	226.88
891.89	226.84
892.20	226.76
892.50	226.80
892.81	226.76
893.12	226.75
893.42	226.51
893.73	226.45
894.04	226.43
894.34	226.47
894.65	226.40
894.95	226.32
895.26	226.33
895.57	226.47
895.87	226.04
896.18	226.20
896.48	226.14
896.79	226.03
897.10	226.13
897.40	226.16
897.71	226.24
898.01	226.16
898.32	226.27
898.63	226.34
898.93	226.27
899.24	226.25
899.54	226.27
899.85	226.22
900.15	226.20
900.46	226.20
900.76	226.13
901.07	226.12
901.38	226.06
901.68	226.15
901.99	225.95
902.29	226.03
902.60	226.03
902.90	226.02
903.21	226.09
903.51	226.03
903.82	226.17
904.12	226.13
904.43	226.26
904.73	226.20
905.03	226.18
905.34	226.64
905.64	226.65
905.95	226.64
906.25	226.75
906.56	226.79
906.86	226.79
907.17	226.85
907.47	226.93
907.77	226.90
908.08	226.80
908.38	226.82
908.69	226.86
908.99	226.90
909.30	226.96
909.60	226.93
909.90	226.97
910.21	226.87
910.51	226.85
910.81	226.82
911.12	226.85
911.42	226.82
911.73	226.34
912.03	226.45
912.33	226.62
912.64	226.57
912.94	226.47
913.24	226.43
913.55	226.38
913.85	226.39
914.15	226.60
914.46	226.65
914.76	226.67
915.06	226.70
915.37	226.64
915.67	226.61
915.97	226.65
916.27	226.55
916.58	226.55
916.88	226.57
917.18	226.55
917.49	226.88
917.79	226.92
918.09	226.98
918.39	227.08
918.70	226.96
919.00	226.97
919.30	227.28
919.60	227.29
919.91	227.28
920.21	227.28
920.51	227.13
920.81	227.07
921.12	227.09
921.42	227.01
921.72	227.05
922.02	227.12
922.32	227.20
922.63	227.26
922.93	227.50
923.23	227.49
923.53	227.44
923.83	227.10
924.13	227.15
924.44	227.19
924.74	227.18
925.04	227.32
925.34	227.29
925.64	227.09
925.94	227.02
926.24	227.33
926.55	227.34
926.85	227.42
927.15	227.51
927.45	227.50
927.75	227.54
928.05	227.46
928.35	227.37
928.65	227.43
928.95	227.47
929.26	227.21
929.56	227.31
929.86	227.43
930.16	227.35
930.46	227.27
930.76	227.24
931.06	227.05
931.36	226.90
931.66	226.93
931.96	226.96
932.26	227.03
932.56	226.78
932.86	226.72
933.16	226.71
933.46	226.54
933.76	226.46
934.06	226.57
934.36	226.75
934.66	226.79
934.96	226.74
935.26	226.74
935.56	226.84
935.86	226.67
936.16	226.55
936.46	226.57
936.76	226.51
937.06	226.48
937.36	226.52
937.66	226.55
937.96	226.47
938.26	226.34
938.56	226.27
938.86	226.31
939.16	226.33
939.46	226.39
939.76	226.44
940.06	226.44
940.35	226.29
940.65	226.04
940.95	226.01
941.25	225.87
941.55	225.83
941.85	225.83
942.15	225.95
942.45	226.12
942.75	226.08
943.04	226.10
943.34	226.19
943.64	226.14
943.94	226.05
944.24	226.12
944.54	226.22
944.84	226.19
945.13	226.10
945.43	226.07
945.73	226.02
946.03	226.03
946.33	225.95
946.62	225.90
946.92	225.93
947.22	226.01
947.52	226.07
947.82	226.14
948.11	226.07
948.41	225.97
948.71	225.81
949.01	225.93
949.31	225.91
949.60	225.83
949.90	225.97
950.20	225.90
950.50	225.91
950.79	225.92
951.09	226.06
951.39	226.12
951.69	226.10
951.98	226.12
952.28	226.17
952.58	226.28
952.87	226.33
953.17	226.39
953.47	226.28
953.76	226.33
954.06	226.20
954.36	226.13
954.66	226.15
954.95	226.32
955.25	226.26
955.55	226.34
955.84	226.26
956.14	226.28
956.44	226.42
956.73	226.26
957.03	226.22
957.32	226.17
957.62	226.09
957.92	226.24
958.21	226.21
958.51	226.73
958.81	226.71
959.10	226.74
959.40	226.88
959.69	226.98
959.99	227.04
960.29	227.06
960.58	227.04
960.88	227.18
961.17	227.11
961.47	227.16
961.76	227.16
962.06	227.28
962.36	227.17
962.65	227.20
962.95	227.38
963.24	227.34
963.54	227.37
963.83	227.41
964.13	227.31
964.42	227.22
964.72	226.83
965.01	226.87
965.31	226.79
965.60	226.60
965.90	226.86
966.19	226.70
966.49	226.74
966.78	226.78
967.08	226.75
967.37	226.79
967.67	226.76
967.96	226.79
968.26	226.76
968.55	226.85
968.85	226.78
969.14	226.71
969.43	226.76
969.73	226.70
970.02	226.69
970.32	226.69
970.61	226.68
970.91	226.50
971.20	226.47
971.49	226.43
971.79	226.45
972.08	226.09
972.38	226.13
972.67	226.04
972.96	226.06
973.26	226.02
973.55	226.14
973.85	226.03
974.14	226.01
974.43	226.05
974.73	225.99
975.02	225.92
975.31	225.90
975.61	225.86
975.90	225.89
976.19	225.81
976.49	225.87
976.78	225.94
977.07	225.97
977.37	225.99
977.66	226.09
977.95	226.05
978.24	226.14
978.54	226.22
978.83	226.22
979.12	226.19
979.42	226.14
979.71	226.05
980.00	226.09
980.29	226.10
980.59	225.97
980.88	226.08
981.17	226.12
981.46	226.17
981.76	226.19
982.05	226.30
982.34	226.34
982.63	226.32
982.93	226.31
983.22	226.46
983.51	226.50
983.80	226.56
984.09	226.63
984.39	226.57
984.68	226.55
984.97	226.64
985.26	226.66
985.55	226.70
985.85	226.56
986.14	226.67
986.43	226.73
986.72	226.74
987.01	226.63
987.30	226.66
987.59	226.65
987.89	226.71
988.18	226.55
988.47	226.60
988.76	226.53
989.05	226.47
989.34	226.29
989.63	226.37
989.92	226.29
990.22	226.25
990.51	226.27
990.80	226.22
991.09	226.17
991.38	226.15
991.67	226.11
991.96	226.12
992.25	226.10
992.54	225.98
992.83	226.00
993.12	226.00
993.41	226.11
993.70	226.33
993.99	226.36
994.28	226.43
994.58	226.51
994.87	226.51
995.16	226.53
995.45	226.55
995.74	226.39
996.03	226.49
996.32	226.58
996.61	226.71
996.90	226.73
997.19	226.74
997.48	226.80
997.77	226.79
998.06	226.85
998.34	226.83
998.63	226.89
998.92	226.88
999.21	226.94
999.50	226.90
999.79	226.70
1000.08	226.66
1000.37	226.70
1000.66	226.63
1000.95	226.71
1001.24	226.76
1001.53	226.90
1001.82	226.87
1002.11	226.72
1002.40	226.67
1002.68	226.77
1002.97	227.14
1003.26	227.17
1003.55	227.05
1003.84	227.08
1004.13	227.18
1004.42	227.20
1004.71	227.20
1004.99	227.15
1005.28	227.29
1005.57	227.18
1005.86	227.09
1006.15	227.07
1006.44	226.99
1006.72	226.99
1007.01	226.93
1007.30	226.90
1007.59	226.83
1007.88	226.88
1008.17	226.97
1008.45	226.96
1008.74	226.74
1009.03	226.51
1009.32	226.43
1009.60	226.50
1009.89	226.44
1010.18	226.30
1010.47	226.22
1010.76	226.15
1011.04	226.15
1011.33	226.15
1011.62	226.30
1011.91	226.40
1012.19	226.43
1012.48	226.41
1012.77	226.42
1013.05	226.55
1013.34	226.57
1013.63	226.45
1013.92	226.44
1014.20	226.39
1014.49	226.43
1014.78	226.50
1015.06	226.32
1015.35	226.36
1015.64	226.38
1015.92	226.43
1016.21	226.37
1016.50	226.37
1016.78	226.55
1017.07	226.57
1017.36	226.45
1017.64	226.33
1017.93	226.39
1018.22	226.30
1018.50	226.27
1018.79	226.22
1019.08	226.04
1019.36	226.13
1019.65	226.17
1019.93	226.29
1020.22	226.36
1020.51	226.60
1020.79	226.52
1021.08	224.90
1021.36	224.40
1021.65	225.80
1021.94	225.20
1022.22	227.65
1022.51	225.65
1022.79	228.30
1023.08	227.25
1023.36	232.80
1023.65	225.55
>>>>>End Processed Spectral Data<<<<<
