SpectraSuite Data File
++++++++++++++++++++++++++++++++++++
Date: Wed Sep 04 17:59:25 EDT 2013
User: lab3
Dark Spectrum Present: Yes
Reference Spectrum Present: No
Number of Sampled Component Spectra: 1
Spectrometers: USB2E7196
Integration Time (usec): 170000 (USB2E7196)
Spectra Averaged: 20 (USB2E7196)
Boxcar Smoothing: 10 (USB2E7196)
Correct for Electrical Dark: No (USB2E7196)
Strobe/Lamp Enabled: No (USB2E7196)
Correct for Detector Non-linearity: No (USB2E7196)
Correct for Stray Light: No (USB2E7196)
Number of Pixels in Processed Spectrum: 2048
>>>>>Begin Processed Spectral Data<<<<<
339.09	0.00
339.48	213.60
339.86	214.40
340.24	215.60
340.63	218.45
341.01	225.20
341.39	219.65
341.78	223.55
342.16	224.05
342.54	222.40
342.93	212.47
343.31	223.18
343.69	223.73
344.07	224.25
344.46	224.72
344.84	225.05
345.22	225.06
345.60	225.42
345.99	225.53
346.37	225.63
346.75	225.77
347.13	225.77
347.52	225.79
347.90	225.95
348.28	225.92
348.66	225.97
349.05	225.85
349.43	225.99
349.81	226.05
350.19	226.13
350.57	226.21
350.96	226.32
351.34	226.44
351.72	226.49
352.10	226.60
352.48	226.66
352.87	226.71
353.25	226.78
353.63	226.77
354.01	226.80
354.39	226.88
354.77	227.01
355.15	227.20
355.54	227.25
355.92	227.22
356.30	227.33
356.68	227.75
357.06	227.76
357.44	227.76
357.82	227.79
358.20	228.29
358.58	228.40
358.97	228.48
359.35	228.66
359.73	228.79
360.11	228.82
360.49	228.89
360.87	229.04
361.25	229.16
361.63	229.34
362.01	229.46
362.39	229.46
362.77	229.49
363.15	229.54
363.53	229.58
363.91	229.70
364.29	229.75
364.67	229.36
365.05	229.44
365.43	229.51
365.81	229.63
366.19	229.49
366.57	229.66
366.95	229.72
367.33	229.55
367.71	229.61
368.09	229.69
368.47	229.73
368.85	229.61
369.23	229.73
369.61	229.63
369.99	229.77
370.37	229.84
370.75	230.15
371.13	229.98
371.51	229.93
371.89	229.93
372.27	229.91
372.65	229.89
373.03	229.93
373.41	229.87
373.78	229.81
374.16	229.52
374.54	229.25
374.92	229.13
375.30	229.20
375.68	229.10
376.06	229.09
376.44	229.02
376.82	229.10
377.19	228.94
377.57	228.93
377.95	228.74
378.33	228.66
378.71	228.24
379.09	228.29
379.47	228.29
379.84	228.19
380.22	228.09
380.60	227.95
380.98	227.75
381.36	227.73
381.73	227.56
382.11	227.59
382.49	227.58
382.87	227.47
383.25	227.40
383.62	227.81
384.00	227.59
384.38	227.52
384.76	227.50
385.13	227.66
385.51	227.53
385.89	227.35
386.27	227.27
386.64	227.30
387.02	227.20
387.40	227.08
387.78	227.01
388.15	226.88
388.53	226.87
388.91	226.92
389.29	226.84
389.66	227.01
390.04	226.89
390.42	226.97
390.79	226.89
391.17	226.81
391.55	226.28
391.92	226.29
392.30	226.35
392.68	226.26
393.05	226.21
393.43	226.25
393.81	226.32
394.18	226.30
394.56	226.36
394.94	226.45
395.31	226.48
395.69	226.65
396.06	226.79
396.44	226.85
396.82	226.84
397.19	227.09
397.57	227.05
397.95	227.24
398.32	227.16
398.70	227.25
399.07	227.45
399.45	227.54
399.82	227.67
400.20	227.64
400.58	227.70
400.95	227.62
401.33	227.84
401.70	228.37
402.08	228.45
402.45	228.54
402.83	228.75
403.20	228.94
403.58	228.98
403.95	229.22
404.33	229.46
404.71	229.72
405.08	230.20
405.46	230.36
405.83	230.58
406.21	230.90
406.58	231.21
406.96	231.45
407.33	231.76
407.70	232.11
408.08	232.92
408.45	233.33
408.83	233.80
409.20	234.15
409.58	234.27
409.95	234.88
410.33	235.36
410.70	235.71
411.08	236.31
411.45	237.00
411.82	237.58
412.20	238.36
412.57	239.27
412.95	239.55
413.32	240.50
413.69	241.32
414.07	242.20
414.44	243.22
414.82	244.24
415.19	245.57
415.56	246.74
415.94	247.70
416.31	249.15
416.68	250.57
417.06	252.16
417.43	253.76
417.81	255.54
418.18	257.37
418.55	259.44
418.93	261.40
419.30	263.49
419.67	265.75
420.04	267.98
420.42	270.26
420.79	273.27
421.16	276.15
421.54	279.18
421.91	282.11
422.28	285.24
422.66	288.52
423.03	291.95
423.40	295.34
423.77	298.93
424.15	302.50
424.52	306.37
424.89	310.58
425.26	314.51
425.64	318.27
426.01	322.43
426.38	326.79
426.75	331.45
427.13	336.02
427.50	340.87
427.87	345.89
428.24	350.95
428.61	355.60
428.99	360.89
429.36	366.43
429.73	372.09
430.10	377.69
430.47	383.40
430.85	389.04
431.22	395.24
431.59	402.13
431.96	408.39
432.33	415.33
432.70	422.08
433.08	430.11
433.45	437.66
433.82	445.25
434.19	453.54
434.56	461.51
434.93	469.19
435.30	477.00
435.68	485.61
436.05	494.08
436.42	502.47
436.79	510.18
437.16	518.63
437.53	527.54
437.90	536.28
438.27	544.96
438.64	553.97
439.01	562.27
439.38	569.59
439.75	576.98
440.13	585.10
440.50	592.60
440.87	598.69
441.24	605.06
441.61	612.02
441.98	617.00
442.35	623.10
442.72	629.21
443.09	634.96
443.46	638.34
443.83	640.67
444.20	642.61
444.57	645.31
444.94	646.39
445.31	647.41
445.68	648.76
446.05	648.95
446.42	647.43
446.79	646.11
447.16	644.21
447.53	642.82
447.90	638.95
448.27	635.35
448.64	630.49
449.01	626.80
449.37	620.63
449.74	614.61
450.11	607.60
450.48	599.80
450.85	591.71
451.22	584.76
451.59	578.17
451.96	571.85
452.33	563.68
452.70	556.25
453.07	547.44
453.43	538.36
453.80	529.89
454.17	521.90
454.54	513.97
454.91	505.90
455.28	497.79
455.65	490.35
456.02	483.31
456.38	476.84
456.75	469.00
457.12	462.35
457.49	455.97
457.86	449.62
458.23	444.59
458.59	438.86
458.96	433.10
459.33	427.79
459.70	422.67
460.07	418.51
460.43	413.75
460.80	409.54
461.17	405.69
461.54	401.58
461.91	397.73
462.27	393.97
462.64	390.64
463.01	387.11
463.38	383.79
463.74	379.81
464.11	376.86
464.48	374.25
464.85	371.44
465.21	369.31
465.58	366.83
465.95	363.80
466.32	361.64
466.68	359.40
467.05	357.29
467.42	355.00
467.78	352.69
468.15	350.49
468.52	348.83
468.88	346.56
469.25	344.67
469.62	343.25
469.98	341.62
470.35	340.10
470.72	338.70
471.08	336.97
471.45	335.70
471.82	334.41
472.18	332.98
472.55	331.92
472.92	330.68
473.28	329.71
473.65	328.62
474.02	327.52
474.38	326.65
474.75	325.83
475.11	324.95
475.48	324.26
475.85	323.66
476.21	323.04
476.58	322.65
476.94	322.30
477.31	321.79
477.67	321.41
478.04	321.05
478.41	320.82
478.77	321.18
479.14	321.01
479.50	320.91
479.87	320.91
480.23	320.90
480.60	320.75
480.96	320.69
481.33	321.06
481.69	321.29
482.06	321.46
482.42	321.77
482.79	322.17
483.15	322.65
483.52	323.32
483.88	323.86
484.25	324.37
484.61	325.02
484.98	325.73
485.34	326.69
485.71	327.63
486.07	328.59
486.44	329.17
486.80	330.22
487.17	331.33
487.53	332.74
487.90	334.23
488.26	336.00
488.62	337.72
488.99	339.27
489.35	341.05
489.72	343.02
490.08	345.02
490.44	347.05
490.81	349.32
491.17	351.41
491.54	353.82
491.90	356.39
492.26	359.06
492.63	361.84
492.99	364.60
493.36	367.68
493.72	371.05
494.08	374.40
494.45	378.14
494.81	382.03
495.17	385.80
495.54	390.07
495.90	394.30
496.26	398.66
496.63	403.36
496.99	408.10
497.35	413.16
497.72	418.48
498.08	424.00
498.44	429.66
498.80	435.74
499.17	441.80
499.53	448.07
499.89	454.76
500.26	461.57
500.62	468.70
500.98	476.20
501.34	483.70
501.71	491.51
502.07	499.33
502.43	507.48
502.79	515.98
503.16	524.51
503.52	533.45
503.88	542.75
504.24	552.44
504.60	562.49
504.97	572.73
505.33	583.21
505.69	594.40
506.05	605.60
506.41	616.90
506.78	628.57
507.14	640.64
507.50	652.81
507.86	665.51
508.22	678.47
508.59	691.42
508.95	704.95
509.31	719.21
509.67	733.59
510.03	747.84
510.39	762.66
510.75	777.80
511.12	793.02
511.48	808.69
511.84	824.64
512.20	840.87
512.56	857.12
512.92	873.74
513.28	890.62
513.64	907.92
514.00	925.44
514.37	943.34
514.73	961.57
515.09	980.03
515.45	998.50
515.81	1016.83
516.17	1035.67
516.53	1054.49
516.89	1073.14
517.25	1092.53
517.61	1112.82
517.97	1133.21
518.33	1153.43
518.69	1174.14
519.05	1194.66
519.41	1215.26
519.77	1236.21
520.13	1257.17
520.49	1277.82
520.85	1300.19
521.21	1321.06
521.57	1342.47
521.93	1363.32
522.29	1384.41
522.65	1405.06
523.01	1426.28
523.37	1447.31
523.73	1468.53
524.09	1489.29
524.45	1510.15
524.81	1531.04
525.17	1551.80
525.53	1572.39
525.89	1593.13
526.25	1613.93
526.61	1634.51
526.97	1655.49
527.33	1676.72
527.68	1698.44
528.04	1720.12
528.40	1739.83
528.76	1761.39
529.12	1781.77
529.48	1802.63
529.84	1822.93
530.20	1844.39
530.56	1865.03
530.91	1885.87
531.27	1906.41
531.63	1927.00
531.99	1947.60
532.35	1967.92
532.71	1988.33
533.07	2008.91
533.42	2029.07
533.78	2049.20
534.14	2069.02
534.50	2088.11
534.86	2107.41
535.21	2125.30
535.57	2144.13
535.93	2161.88
536.29	2179.67
536.65	2198.19
537.00	2215.79
537.36	2233.91
537.72	2250.47
538.08	2267.91
538.44	2284.78
538.79	2301.36
539.15	2318.25
539.51	2334.47
539.87	2349.43
540.22	2363.66
540.58	2378.03
540.94	2391.48
541.29	2404.20
541.65	2417.26
542.01	2430.47
542.37	2441.08
542.72	2452.27
543.08	2462.58
543.44	2474.12
543.79	2483.90
544.15	2493.90
544.51	2504.26
544.87	2513.56
545.22	2522.34
545.58	2530.09
545.94	2537.04
546.29	2543.73
546.65	2549.92
547.01	2555.59
547.36	2561.60
547.72	2567.22
548.07	2571.42
548.43	2576.98
548.79	2581.73
549.14	2585.39
549.50	2589.01
549.86	2593.38
550.21	2597.26
550.57	2600.76
550.92	2602.60
551.28	2604.46
551.64	2606.99
551.99	2608.81
552.35	2610.65
552.70	2612.90
553.06	2614.52
553.41	2616.27
553.77	2617.95
554.13	2619.37
554.48	2620.84
554.84	2622.23
555.19	2623.33
555.55	2625.11
555.90	2624.05
556.26	2623.23
556.61	2621.83
556.97	2619.82
557.32	2618.90
557.68	2617.32
558.03	2615.97
558.39	2614.29
558.74	2613.46
559.10	2609.98
559.45	2606.43
559.81	2602.10
560.16	2596.66
560.52	2591.37
560.87	2587.04
561.23	2581.57
561.58	2575.95
561.94	2569.09
562.29	2561.38
562.64	2554.53
563.00	2546.16
563.35	2539.95
563.71	2533.15
564.06	2527.18
564.42	2520.75
564.77	2514.00
565.12	2507.06
565.48	2499.48
565.83	2491.95
566.19	2483.90
566.54	2475.97
566.89	2467.70
567.25	2459.85
567.60	2453.05
567.96	2446.15
568.31	2438.05
568.66	2429.15
569.02	2419.91
569.37	2411.69
569.72	2404.30
570.08	2394.79
570.43	2385.48
570.78	2376.33
571.14	2366.97
571.49	2356.84
571.84	2346.90
572.20	2335.86
572.55	2325.41
572.90	2314.38
573.26	2303.75
573.61	2292.45
573.96	2281.34
574.31	2269.53
574.67	2257.50
575.02	2244.67
575.37	2231.75
575.72	2218.50
576.08	2206.65
576.43	2194.02
576.78	2180.89
577.13	2167.03
577.49	2154.38
577.84	2142.58
578.19	2130.18
578.54	2117.47
578.90	2105.40
579.25	2092.88
579.60	2080.35
579.95	2067.40
580.30	2054.19
580.66	2040.94
581.01	2027.43
581.36	2013.51
581.71	2000.81
582.06	1987.63
582.42	1974.92
582.77	1962.14
583.12	1950.20
583.47	1937.63
583.82	1925.89
584.17	1913.97
584.53	1902.32
584.88	1889.30
585.23	1875.79
585.58	1861.37
585.93	1847.93
586.28	1834.64
586.63	1820.89
586.98	1806.70
587.34	1793.20
587.69	1779.68
588.04	1766.80
588.39	1754.60
588.74	1742.33
589.09	1730.25
589.44	1717.82
589.79	1705.82
590.14	1693.78
590.49	1681.59
590.84	1669.26
591.19	1656.91
591.54	1644.38
591.89	1632.22
592.25	1622.02
592.60	1610.59
592.95	1599.15
593.30	1587.42
593.65	1575.15
594.00	1562.84
594.35	1552.91
594.70	1541.31
595.05	1530.06
595.40	1518.07
595.75	1505.91
596.10	1494.77
596.45	1483.24
596.80	1472.39
597.15	1460.69
597.50	1448.76
597.85	1437.02
598.19	1425.49
598.54	1413.66
598.89	1402.47
599.24	1391.60
599.59	1379.68
599.94	1368.64
600.29	1358.36
600.64	1347.70
600.99	1337.20
601.34	1328.08
601.69	1316.74
602.04	1306.56
602.39	1296.74
602.74	1287.46
603.08	1278.14
603.43	1268.36
603.78	1258.33
604.13	1248.67
604.48	1238.79
604.83	1229.00
605.18	1219.36
605.53	1209.98
605.87	1200.95
606.22	1192.33
606.57	1183.04
606.92	1173.62
607.27	1164.64
607.62	1155.87
607.96	1147.46
608.31	1139.18
608.66	1130.42
609.01	1121.86
609.36	1113.19
609.70	1104.59
610.05	1095.80
610.40	1087.45
610.75	1078.82
611.10	1070.51
611.44	1061.60
611.79	1053.24
612.14	1045.53
612.49	1037.63
612.83	1030.05
613.18	1022.26
613.53	1014.41
613.88	1006.18
614.22	998.50
614.57	990.48
614.92	982.47
615.27	974.62
615.61	966.88
615.96	959.25
616.31	951.67
616.65	944.82
617.00	937.51
617.35	930.14
617.70	922.89
618.04	915.89
618.39	909.10
618.74	902.86
619.08	895.98
619.43	888.85
619.78	881.60
620.12	874.35
620.47	867.30
620.82	860.05
621.16	853.25
621.51	846.87
621.85	840.55
622.20	833.94
622.55	827.50
622.89	820.96
623.24	814.28
623.59	807.84
623.93	801.34
624.28	795.19
624.62	789.60
624.97	783.56
625.32	777.58
625.66	771.30
626.01	764.91
626.35	759.49
626.70	753.87
627.04	748.84
627.39	743.20
627.73	737.93
628.08	732.77
628.43	727.48
628.77	721.90
629.12	716.58
629.46	711.51
629.81	706.77
630.15	701.98
630.50	697.22
630.84	692.39
631.19	687.63
631.53	682.92
631.88	677.55
632.22	672.75
632.57	668.32
632.91	663.73
633.26	659.34
633.60	654.61
633.95	649.92
634.29	644.96
634.64	640.47
634.98	635.64
635.32	631.36
635.67	627.33
636.01	623.17
636.36	618.94
636.70	614.96
637.05	610.53
637.39	606.33
637.73	602.22
638.08	598.14
638.42	593.76
638.77	589.32
639.11	585.01
639.45	580.55
639.80	576.09
640.14	571.97
640.49	567.93
640.83	564.08
641.17	560.50
641.52	556.84
641.86	553.25
642.20	550.19
642.55	546.41
642.89	542.62
643.23	538.98
643.58	535.74
643.92	532.13
644.26	528.69
644.61	525.56
644.95	522.11
645.29	518.76
645.64	515.68
645.98	512.55
646.32	509.74
646.66	506.70
647.01	503.60
647.35	500.88
647.69	497.94
648.04	495.10
648.38	492.08
648.72	489.10
649.06	486.13
649.41	482.92
649.75	479.89
650.09	477.10
650.43	474.20
650.78	471.21
651.12	468.33
651.46	465.60
651.80	462.75
652.14	460.10
652.49	457.60
652.83	455.00
653.17	452.50
653.51	449.71
653.85	447.34
654.20	445.03
654.54	442.33
654.88	439.72
655.22	437.50
655.56	435.25
655.90	432.91
656.25	430.62
656.59	428.34
656.93	426.18
657.27	424.03
657.61	421.64
657.95	419.42
658.29	417.21
658.64	415.15
658.98	412.82
659.32	410.53
659.66	408.29
660.00	406.13
660.34	404.04
660.68	402.09
661.02	400.01
661.36	397.94
661.70	396.01
662.05	394.29
662.39	392.23
662.73	390.24
663.07	388.55
663.41	386.74
663.75	384.84
664.09	383.07
664.43	381.08
664.77	379.33
665.11	377.52
665.45	375.91
665.79	374.13
666.13	372.45
666.47	370.80
666.81	369.13
667.15	367.48
667.49	365.98
667.83	364.62
668.17	363.02
668.51	361.55
668.85	360.25
669.19	358.81
669.53	357.24
669.87	355.75
670.21	354.25
670.55	352.81
670.89	351.68
671.23	350.27
671.57	348.91
671.91	347.64
672.25	346.40
672.58	345.12
672.92	343.70
673.26	342.51
673.60	341.31
673.94	340.15
674.28	339.03
674.62	337.88
674.96	336.46
675.30	335.35
675.64	334.19
675.97	332.82
676.31	331.56
676.65	330.34
676.99	329.40
677.33	328.20
677.67	327.20
678.01	325.82
678.34	324.74
678.68	323.69
679.02	322.57
679.36	321.50
679.70	320.35
680.04	319.44
680.37	318.40
680.71	317.42
681.05	316.52
681.39	315.57
681.73	314.57
682.06	313.69
682.40	312.74
682.74	311.87
683.08	311.18
683.42	310.22
683.75	309.50
684.09	308.46
684.43	307.69
684.77	306.75
685.10	306.05
685.44	305.21
685.78	304.44
686.12	303.79
686.45	302.97
686.79	302.23
687.13	301.56
687.46	300.81
687.80	300.15
688.14	299.25
688.48	298.43
688.81	297.66
689.15	297.01
689.49	296.37
689.82	295.67
690.16	294.77
690.50	294.01
690.83	293.26
691.17	292.51
691.51	291.84
691.84	291.24
692.18	290.55
692.52	289.78
692.85	289.13
693.19	288.61
693.52	288.04
693.86	287.31
694.20	286.58
694.53	285.99
694.87	285.30
695.21	284.68
695.54	284.11
695.88	283.48
696.21	282.70
696.55	281.97
696.88	281.36
697.22	280.74
697.56	280.27
697.89	279.62
698.23	279.17
698.56	278.52
698.90	278.01
699.23	277.46
699.57	277.05
699.90	276.51
700.24	275.81
700.58	275.40
700.91	274.97
701.25	274.88
701.58	274.75
701.92	274.44
702.25	274.01
702.59	273.52
702.92	273.09
703.26	272.77
703.59	272.41
703.93	272.26
704.26	271.86
704.60	271.51
704.93	271.10
705.26	270.60
705.60	270.29
705.93	269.72
706.27	269.43
706.60	269.13
706.94	268.93
707.27	268.60
707.61	268.09
707.94	267.80
708.27	267.06
708.61	266.29
708.94	265.81
709.28	265.43
709.61	265.00
709.94	264.59
710.28	264.18
710.61	263.89
710.95	263.15
711.28	263.11
711.61	262.67
711.95	262.47
712.28	262.09
712.61	261.71
712.95	261.59
713.28	261.38
713.61	260.89
713.95	260.38
714.28	260.04
714.61	259.63
714.95	259.22
715.28	258.75
715.61	258.45
715.95	258.11
716.28	257.81
716.61	257.61
716.95	257.25
717.28	256.99
717.61	256.57
717.94	256.22
718.28	255.58
718.61	255.32
718.94	254.91
719.27	254.64
719.61	254.40
719.94	254.02
720.27	253.53
720.60	253.31
720.94	253.04
721.27	252.82
721.60	252.70
721.93	252.36
722.27	252.35
722.60	252.15
722.93	251.85
723.26	251.61
723.59	251.25
723.93	251.19
724.26	250.97
724.59	250.69
724.92	250.59
725.25	250.57
725.59	250.34
725.92	250.13
726.25	250.01
726.58	249.84
726.91	249.66
727.24	249.52
727.57	249.29
727.91	249.07
728.24	248.96
728.57	248.73
728.90	248.64
729.23	248.39
729.56	248.47
729.89	248.31
730.22	248.13
730.55	248.00
730.89	247.79
731.22	247.61
731.55	247.53
731.88	247.33
732.21	247.05
732.54	246.83
732.87	246.74
733.20	246.52
733.53	246.30
733.86	246.13
734.19	245.90
734.52	245.78
734.85	246.00
735.18	245.73
735.51	245.71
735.84	245.55
736.17	245.51
736.50	245.05
736.83	245.51
737.16	245.35
737.49	245.33
737.82	245.14
738.15	245.10
738.48	244.93
738.81	244.78
739.14	244.61
739.47	244.46
739.80	244.34
740.13	244.25
740.46	244.09
740.79	243.90
741.12	243.79
741.45	243.62
741.78	243.16
742.11	243.20
742.44	242.94
742.77	242.96
743.10	242.71
743.43	242.62
743.75	241.94
744.08	242.54
744.41	242.24
744.74	242.05
745.07	241.76
745.40	241.75
745.73	241.83
746.06	241.72
746.39	241.67
746.71	241.41
747.04	241.19
747.37	241.01
747.70	240.91
748.03	240.83
748.36	240.78
748.68	240.67
749.01	240.39
749.34	240.32
749.67	240.14
750.00	240.10
750.33	240.31
750.65	240.28
750.98	239.48
751.31	239.39
751.64	239.40
751.97	239.55
752.29	239.40
752.62	239.11
752.95	239.02
753.28	238.88
753.60	238.80
753.93	238.87
754.26	238.78
754.59	238.57
754.91	238.33
755.24	238.16
755.57	238.01
755.90	237.88
756.22	237.73
756.55	237.58
756.88	237.40
757.20	236.96
757.53	236.73
757.86	236.57
758.19	236.54
758.51	236.42
758.84	236.09
759.17	235.85
759.49	235.75
759.82	235.83
760.15	235.78
760.47	235.66
760.80	235.46
761.13	235.46
761.45	235.36
761.78	235.37
762.11	235.29
762.43	235.15
762.76	235.01
763.08	234.98
763.41	234.94
763.74	234.82
764.06	234.71
764.39	234.59
764.71	234.53
765.04	234.41
765.37	234.25
765.69	234.17
766.02	234.21
766.34	234.13
766.67	233.89
767.00	233.83
767.32	234.01
767.65	234.23
767.97	234.14
768.30	234.16
768.62	234.02
768.95	233.95
769.27	233.98
769.60	234.07
769.92	233.92
770.25	233.72
770.57	233.56
770.90	233.57
771.22	233.55
771.55	233.52
771.87	233.44
772.20	233.32
772.52	233.61
772.85	234.09
773.17	234.02
773.50	233.93
773.82	233.80
774.15	233.58
774.47	233.17
774.80	233.04
775.12	232.95
775.45	232.91
775.77	232.86
776.09	232.81
776.42	232.65
776.74	232.80
777.07	232.80
777.39	232.84
777.72	232.70
778.04	232.72
778.36	232.63
778.69	232.61
779.01	232.69
779.33	232.29
779.66	231.65
779.98	231.58
780.31	231.55
780.63	231.78
780.95	231.79
781.28	231.78
781.60	231.73
781.92	231.75
782.25	231.72
782.57	231.63
782.89	231.55
783.22	231.56
783.54	231.30
783.86	231.27
784.19	231.24
784.51	231.35
784.83	231.14
785.16	231.12
785.48	231.12
785.80	231.05
786.12	231.05
786.45	231.01
786.77	231.00
787.09	231.02
787.42	230.82
787.74	230.74
788.06	230.70
788.38	230.60
788.71	230.48
789.03	230.50
789.35	230.55
789.67	230.47
789.99	230.46
790.32	230.48
790.64	230.50
790.96	230.80
791.28	230.63
791.61	230.72
791.93	230.74
792.25	230.68
792.57	230.97
792.89	230.89
793.21	230.95
793.54	230.89
793.86	230.75
794.18	230.70
794.50	230.56
794.82	230.53
795.14	230.62
795.47	230.68
795.79	230.67
796.11	230.53
796.43	230.50
796.75	230.47
797.07	230.50
797.39	230.43
797.71	230.09
798.04	230.06
798.36	229.96
798.68	229.95
799.00	230.00
799.32	229.73
799.64	229.75
799.96	229.69
800.28	229.75
800.60	229.70
800.92	229.77
801.24	229.79
801.56	229.84
801.89	229.77
802.21	229.81
802.53	229.69
802.85	229.76
803.17	230.00
803.49	229.85
803.81	229.76
804.13	229.69
804.45	229.60
804.77	229.68
805.09	229.68
805.41	229.59
805.73	229.41
806.05	229.28
806.37	229.21
806.69	229.12
807.01	229.02
807.33	229.10
807.65	228.83
807.97	229.05
808.28	228.94
808.60	228.90
808.92	228.75
809.24	229.01
809.56	228.91
809.88	228.69
810.20	228.75
810.52	228.77
810.84	228.69
811.16	228.69
811.48	228.54
811.80	228.70
812.12	228.63
812.43	228.74
812.75	228.84
813.07	228.86
813.39	228.90
813.71	228.80
814.03	228.71
814.35	228.75
814.67	228.51
814.98	228.46
815.30	228.50
815.62	228.43
815.94	228.11
816.26	228.39
816.58	228.22
816.89	228.25
817.21	228.11
817.53	228.19
817.85	228.16
818.17	228.13
818.48	227.87
818.80	228.02
819.12	227.92
819.44	227.79
819.76	227.66
820.07	227.70
820.39	227.72
820.71	227.71
821.03	227.70
821.34	227.71
821.66	227.82
821.98	227.85
822.30	227.84
822.61	228.15
822.93	227.89
823.25	227.96
823.57	227.95
823.88	228.06
824.20	228.13
824.52	228.20
824.83	228.31
825.15	228.29
825.47	228.23
825.79	228.33
826.10	228.33
826.42	228.30
826.74	228.34
827.05	228.34
827.37	228.33
827.69	228.34
828.00	228.40
828.32	228.39
828.64	228.28
828.95	228.57
829.27	228.45
829.58	228.46
829.90	228.57
830.22	228.58
830.53	228.49
830.85	228.43
831.17	228.30
831.48	228.26
831.80	228.36
832.11	228.28
832.43	228.21
832.75	228.18
833.06	228.55
833.38	228.30
833.69	228.25
834.01	228.34
834.32	228.35
834.64	228.26
834.96	228.26
835.27	228.35
835.59	228.21
835.90	228.13
836.22	228.06
836.53	227.93
836.85	227.87
837.16	228.34
837.48	228.28
837.79	228.45
838.11	228.42
838.42	228.41
838.74	228.48
839.05	228.45
839.37	228.40
839.68	228.07
840.00	228.12
840.31	228.23
840.63	228.19
840.94	228.12
841.26	228.07
841.57	228.01
841.88	227.96
842.20	227.83
842.51	227.77
842.83	227.83
843.14	228.25
843.46	228.27
843.77	228.00
844.08	227.98
844.40	227.79
844.71	227.76
845.03	227.65
845.34	227.64
845.65	227.58
845.97	227.64
846.28	227.65
846.60	227.63
846.91	227.52
847.22	227.50
847.54	227.55
847.85	227.55
848.16	227.56
848.48	227.50
848.79	227.68
849.10	227.66
849.42	227.66
849.73	227.19
850.04	227.19
850.36	226.98
850.67	227.08
850.98	227.09
851.30	227.12
851.61	227.14
851.92	227.10
852.23	227.29
852.55	227.34
852.86	227.32
853.17	227.32
853.49	227.46
853.80	227.54
854.11	227.60
854.42	227.64
854.74	227.60
855.05	227.62
855.36	227.38
855.67	227.44
855.99	227.37
856.30	227.95
856.61	227.91
856.92	227.94
857.23	227.91
857.55	227.92
857.86	227.89
858.17	228.02
858.48	227.94
858.79	227.75
859.11	227.75
859.42	227.70
859.73	227.72
860.04	227.64
860.35	227.49
860.66	227.37
860.98	227.34
861.29	227.35
861.60	227.31
861.91	227.46
862.22	227.31
862.53	227.27
862.84	226.70
863.16	226.82
863.47	226.75
863.78	226.66
864.09	226.62
864.40	226.66
864.71	226.63
865.02	226.73
865.33	226.65
865.64	226.63
865.95	226.72
866.27	226.98
866.58	226.91
866.89	227.01
867.20	227.02
867.51	226.89
867.82	226.89
868.13	227.05
868.44	226.90
868.75	227.04
869.06	227.09
869.37	227.12
869.68	226.95
869.99	227.03
870.30	227.09
870.61	227.13
870.92	226.98
871.23	226.90
871.54	226.96
871.85	227.15
872.16	227.15
872.47	227.15
872.78	226.86
873.09	226.96
873.40	226.85
873.71	226.88
874.02	226.97
874.33	226.94
874.64	226.75
874.95	226.91
875.26	226.77
875.56	226.73
875.87	226.72
876.18	226.72
876.49	227.20
876.80	227.15
877.11	227.14
877.42	227.28
877.73	227.24
878.04	227.08
878.35	227.06
878.66	227.04
878.96	227.02
879.27	227.09
879.58	227.03
879.89	227.06
880.20	227.15
880.51	227.20
880.82	227.26
881.12	227.36
881.43	227.29
881.74	227.28
882.05	227.27
882.36	227.44
882.67	227.46
882.97	226.95
883.28	226.98
883.59	226.86
883.90	226.87
884.21	226.99
884.51	227.08
884.82	227.02
885.13	227.00
885.44	226.98
885.74	226.95
886.05	226.92
886.36	226.91
886.67	226.72
886.98	226.86
887.28	226.90
887.59	226.90
887.90	226.88
888.20	226.83
888.51	226.93
888.82	226.77
889.13	226.81
889.43	227.18
889.74	227.16
890.05	227.23
890.35	227.19
890.66	227.09
890.97	226.93
891.28	226.91
891.58	226.93
891.89	226.86
892.20	226.81
892.50	226.77
892.81	226.76
893.12	226.82
893.42	226.63
893.73	226.60
894.04	226.55
894.34	226.54
894.65	226.55
894.95	226.44
895.26	226.45
895.57	226.67
895.87	226.22
896.18	226.26
896.48	226.31
896.79	226.27
897.10	226.36
897.40	226.43
897.71	226.46
898.01	226.45
898.32	226.56
898.63	226.50
898.93	226.65
899.24	226.58
899.54	226.53
899.85	226.50
900.15	226.39
900.46	226.44
900.76	226.47
901.07	226.46
901.38	226.42
901.68	226.46
901.99	226.19
902.29	226.22
902.60	226.20
902.90	226.13
903.21	226.08
903.51	226.04
903.82	226.17
904.12	226.10
904.43	226.16
904.73	226.14
905.03	226.19
905.34	226.54
905.64	226.59
905.95	226.61
906.25	226.61
906.56	226.62
906.86	226.51
907.17	226.53
907.47	226.59
907.77	226.57
908.08	226.50
908.38	226.56
908.69	226.64
908.99	226.69
909.30	226.73
909.60	226.79
909.90	226.82
910.21	226.70
910.51	226.67
910.81	226.66
911.12	226.73
911.42	226.75
911.73	226.33
912.03	226.38
912.33	226.43
912.64	226.48
912.94	226.52
913.24	226.52
913.55	226.53
913.85	226.47
914.15	226.66
914.46	226.76
914.76	226.75
915.06	226.71
915.37	226.68
915.67	226.69
915.97	226.73
916.27	226.67
916.58	226.79
916.88	226.80
917.18	226.80
917.49	227.04
917.79	227.08
918.09	227.18
918.39	227.31
918.70	227.36
919.00	227.33
919.30	227.52
919.60	227.52
919.91	227.49
920.21	227.61
920.51	227.50
920.81	227.46
921.12	227.52
921.42	227.47
921.72	227.50
922.02	227.54
922.32	227.61
922.63	227.61
922.93	227.68
923.23	227.77
923.53	227.73
923.83	227.46
924.13	227.50
924.44	227.46
924.74	227.54
925.04	227.62
925.34	227.61
925.64	227.43
925.94	227.49
926.24	227.69
926.55	227.60
926.85	227.60
927.15	227.56
927.45	227.58
927.75	227.63
928.05	227.62
928.35	227.53
928.65	227.55
928.95	227.63
929.26	227.48
929.56	227.51
929.86	227.57
930.16	227.55
930.46	227.48
930.76	227.42
931.06	227.20
931.36	227.10
931.66	227.18
931.96	227.19
932.26	227.24
932.56	227.07
932.86	227.12
933.16	227.05
933.46	227.02
933.76	226.89
934.06	226.98
934.36	227.06
934.66	227.11
934.96	227.04
935.26	226.97
935.56	227.04
935.86	226.88
936.16	226.71
936.46	226.69
936.76	226.68
937.06	226.62
937.36	226.60
937.66	226.60
937.96	226.51
938.26	226.46
938.56	226.36
938.86	226.40
939.16	226.43
939.46	226.56
939.76	226.53
940.06	226.52
940.35	226.34
940.65	226.15
940.95	226.17
941.25	226.08
941.55	225.98
941.85	225.99
942.15	226.14
942.45	226.30
942.75	226.20
943.04	226.21
943.34	226.27
943.64	226.27
943.94	226.18
944.24	226.16
944.54	226.13
944.84	226.08
945.13	225.96
945.43	225.94
945.73	225.88
946.03	225.84
946.33	225.81
946.62	225.81
946.92	225.81
947.22	225.75
947.52	225.76
947.82	225.84
948.11	225.76
948.41	225.60
948.71	225.49
949.01	225.56
949.31	225.51
949.60	225.55
949.90	225.60
950.20	225.57
950.50	225.57
950.79	225.55
951.09	225.64
951.39	225.70
951.69	225.63
951.98	225.74
952.28	225.73
952.58	225.73
952.87	225.76
953.17	225.84
953.47	225.86
953.76	225.90
954.06	225.78
954.36	225.72
954.66	225.70
954.95	225.82
955.25	225.87
955.55	225.94
955.84	225.79
956.14	225.82
956.44	225.80
956.73	225.82
957.03	225.93
957.32	225.90
957.62	225.86
957.92	226.00
958.21	225.90
958.51	226.52
958.81	226.65
959.10	226.71
959.40	226.78
959.69	226.80
959.99	226.85
960.29	226.95
960.58	227.05
960.88	227.31
961.17	227.23
961.47	227.30
961.76	227.30
962.06	227.39
962.36	227.42
962.65	227.49
962.95	227.52
963.24	227.47
963.54	227.44
963.83	227.49
964.13	227.36
964.42	227.30
964.72	226.84
965.01	226.83
965.31	226.75
965.60	226.67
965.90	226.94
966.19	226.83
966.49	226.82
966.78	226.69
967.08	226.63
967.37	226.63
967.67	226.52
967.96	226.52
968.26	226.59
968.55	226.56
968.85	226.56
969.14	226.58
969.43	226.60
969.73	226.65
970.02	226.61
970.32	226.64
970.61	226.61
970.91	226.55
971.20	226.43
971.49	226.37
971.79	226.42
972.08	226.09
972.38	226.19
972.67	226.14
972.96	226.24
973.26	226.09
973.55	226.23
973.85	226.23
974.14	226.17
974.43	226.12
974.73	226.02
975.02	225.98
975.31	225.90
975.61	225.87
975.90	225.82
976.19	225.69
976.49	225.67
976.78	225.74
977.07	225.71
977.37	225.74
977.66	225.86
977.95	225.81
978.24	225.81
978.54	225.78
978.83	225.84
979.12	225.82
979.42	225.86
979.71	225.83
980.00	225.73
980.29	225.75
980.59	225.66
980.88	225.77
981.17	225.71
981.46	225.72
981.76	225.66
982.05	225.84
982.34	225.96
982.63	226.04
982.93	225.97
983.22	226.12
983.51	226.17
983.80	226.21
984.09	226.21
984.39	226.15
984.68	226.11
984.97	226.09
985.26	226.02
985.55	226.05
985.85	225.91
986.14	226.05
986.43	226.16
986.72	226.13
987.01	225.98
987.30	226.05
987.59	226.02
987.89	226.09
988.18	225.93
988.47	225.91
988.76	225.79
989.05	225.77
989.34	225.63
989.63	225.74
989.92	225.65
990.22	225.64
990.51	225.68
990.80	225.65
991.09	225.72
991.38	225.78
991.67	225.74
991.96	225.64
992.25	225.59
992.54	225.44
992.83	225.48
993.12	225.54
993.41	225.60
993.70	225.85
993.99	225.98
994.28	226.06
994.58	226.11
994.87	226.15
995.16	226.21
995.45	226.29
995.74	226.12
996.03	226.29
996.32	226.36
996.61	226.46
996.90	226.47
997.19	226.45
997.48	226.43
997.77	226.40
998.06	226.52
998.34	226.55
998.63	226.59
998.92	226.61
999.21	226.58
999.50	226.58
999.79	226.36
1000.08	226.28
1000.37	226.27
1000.66	226.20
1000.95	226.30
1001.24	226.30
1001.53	226.25
1001.82	226.21
1002.11	226.05
1002.40	226.09
1002.68	226.27
1002.97	226.59
1003.26	226.55
1003.55	226.49
1003.84	226.49
1004.13	226.66
1004.42	226.63
1004.71	226.63
1004.99	226.63
1005.28	226.84
1005.57	226.77
1005.86	226.77
1006.15	226.70
1006.44	226.59
1006.72	226.65
1007.01	226.52
1007.30	226.57
1007.59	226.55
1007.88	226.57
1008.17	226.55
1008.45	226.44
1008.74	226.24
1009.03	226.11
1009.32	226.09
1009.60	226.14
1009.89	226.14
1010.18	225.91
1010.47	225.83
1010.76	225.85
1011.04	225.82
1011.33	225.79
1011.62	225.92
1011.91	225.90
1012.19	225.95
1012.48	225.97
1012.77	225.95
1013.05	226.22
1013.34	226.17
1013.63	226.16
1013.92	226.20
1014.20	226.25
1014.49	226.18
1014.78	226.17
1015.06	225.97
1015.35	225.95
1015.64	225.97
1015.92	226.03
1016.21	226.07
1016.50	226.14
1016.78	226.10
1017.07	226.12
1017.36	225.98
1017.64	225.75
1017.93	225.89
1018.22	225.82
1018.50	225.83
1018.79	225.81
1019.08	225.53
1019.36	225.57
1019.65	225.55
1019.93	225.69
1020.22	225.71
1020.51	226.03
1020.79	226.01
1021.08	225.30
1021.36	225.65
1021.65	225.45
1021.94	225.05
1022.22	226.35
1022.51	225.20
1022.79	228.85
1023.08	226.20
1023.36	231.70
1023.65	225.55
>>>>>End Processed Spectral Data<<<<<
