SpectraSuite Data File
++++++++++++++++++++++++++++++++++++
Date: Tue Apr 02 18:36:08 EDT 2013
User: group
Dark Spectrum Present: No
Reference Spectrum Present: No
Number of Sampled Component Spectra: 1
Spectrometers: USB2E7196
Integration Time (usec): 580000 (USB2E7196)
Spectra Averaged: 2 (USB2E7196)
Boxcar Smoothing: 10 (USB2E7196)
Correct for Electrical Dark: No (USB2E7196)
Strobe/Lamp Enabled: No (USB2E7196)
Correct for Detector Non-linearity: No (USB2E7196)
Correct for Stray Light: No (USB2E7196)
Number of Pixels in Processed Spectrum: 2048
>>>>>Begin Processed Spectral Data<<<<<
339.09	0.00
339.48	191.50
339.86	192.00
340.24	195.50
340.63	201.50
341.01	226.00
341.39	204.50
341.78	207.00
342.16	211.00
342.54	204.00
342.93	197.55
343.31	207.29
343.69	208.07
344.07	208.79
344.46	209.38
344.84	209.69
345.22	208.79
345.60	209.07
345.99	209.33
346.37	209.12
346.75	209.24
347.13	209.33
347.52	209.29
347.90	209.88
348.28	209.93
348.66	210.21
349.05	209.86
349.43	210.36
349.81	210.43
350.19	210.55
350.57	210.62
350.96	210.69
351.34	210.95
351.72	210.79
352.10	210.95
352.48	210.95
352.87	211.02
353.25	211.19
353.63	211.14
354.01	211.14
354.39	211.52
354.77	211.48
355.15	212.02
355.54	211.95
355.92	211.31
356.30	211.05
356.68	212.38
357.06	212.38
357.44	211.69
357.82	211.55
358.20	212.29
358.58	212.19
358.97	212.19
359.35	212.52
359.73	213.19
360.11	213.05
360.49	213.33
360.87	213.36
361.25	213.45
361.63	214.07
362.01	214.05
362.39	213.74
362.77	213.86
363.15	213.83
363.53	213.74
363.91	213.98
364.29	214.10
364.67	212.07
365.05	212.14
365.43	212.60
365.81	212.83
366.19	212.95
366.57	213.60
366.95	213.69
367.33	213.26
367.71	213.07
368.09	213.38
368.47	213.07
368.85	212.79
369.23	213.21
369.61	212.36
369.99	213.00
370.37	213.24
370.75	214.36
371.13	213.69
371.51	213.60
371.89	213.57
372.27	213.90
372.65	214.12
373.03	214.26
373.41	214.02
373.78	214.12
374.16	213.00
374.54	212.40
374.92	212.21
375.30	212.17
375.68	211.95
376.06	212.17
376.44	212.02
376.82	212.12
377.19	211.93
377.57	211.90
377.95	211.17
378.33	210.95
378.71	209.88
379.09	210.07
379.47	210.43
379.84	210.38
380.22	210.07
380.60	209.67
380.98	209.67
381.36	209.81
381.73	209.26
382.11	209.76
382.49	209.79
382.87	209.60
383.25	209.62
383.62	211.83
384.00	211.38
384.38	211.52
384.76	212.12
385.13	213.00
385.51	213.17
385.89	213.00
386.27	213.12
386.64	213.19
387.02	213.12
387.40	212.76
387.78	212.76
388.15	212.95
388.53	213.05
388.91	213.02
389.29	212.79
389.66	213.17
390.04	212.86
390.42	213.38
390.79	213.64
391.17	213.74
391.55	211.45
391.92	211.40
392.30	211.69
392.68	211.21
393.05	210.86
393.43	210.95
393.81	211.02
394.18	210.90
394.56	211.12
394.94	211.55
395.31	211.38
395.69	212.19
396.06	212.24
396.44	212.40
396.82	212.05
397.19	213.17
397.57	213.10
397.95	213.40
398.32	212.52
398.70	212.52
399.07	212.93
399.45	212.95
399.82	212.86
400.20	212.48
400.58	212.40
400.95	211.24
401.33	211.57
401.70	212.98
402.08	213.10
402.45	212.64
402.83	212.93
403.20	212.88
403.58	212.05
403.95	212.21
404.33	212.21
404.71	212.29
405.08	212.90
405.46	212.67
405.83	212.71
406.21	212.76
406.58	212.67
406.96	212.29
407.33	212.26
407.70	212.29
408.08	213.81
408.45	213.90
408.83	214.48
409.20	213.95
409.58	212.48
409.95	212.45
410.33	212.83
410.70	211.86
411.08	212.12
411.45	212.21
411.82	211.90
412.20	212.31
412.57	213.14
412.95	211.33
413.32	211.57
413.69	211.00
414.07	210.90
414.44	210.67
414.82	210.57
415.19	210.67
415.56	210.64
415.94	209.17
416.31	209.36
416.68	209.31
417.06	209.50
417.43	210.33
417.81	210.12
418.18	209.90
418.55	210.17
418.93	210.07
419.30	210.05
419.67	210.24
420.04	209.88
420.42	209.50
420.79	211.57
421.16	211.57
421.54	213.40
421.91	213.81
422.28	213.88
422.66	213.81
423.03	215.40
423.40	215.50
423.77	215.57
424.15	215.26
424.52	215.24
424.89	215.50
425.26	214.88
425.64	214.86
426.01	214.90
426.38	214.71
426.75	215.31
427.13	215.29
427.50	215.05
427.87	214.83
428.24	214.38
428.61	212.55
428.99	213.52
429.36	211.83
429.73	211.69
430.10	212.10
430.47	212.50
430.85	210.88
431.22	211.02
431.59	213.05
431.96	213.14
432.33	213.24
432.70	213.12
433.08	213.02
433.45	213.21
433.82	213.45
434.19	213.93
434.56	214.14
434.93	213.86
435.30	213.93
435.68	214.07
436.05	214.07
436.42	214.17
436.79	214.00
437.16	214.33
437.53	214.00
437.90	213.79
438.27	214.12
438.64	213.86
439.01	213.88
439.38	212.02
439.75	212.10
440.13	211.95
440.50	211.95
440.87	211.98
441.24	211.81
441.61	211.36
441.98	211.02
442.35	210.05
442.72	210.36
443.09	211.38
443.46	211.31
443.83	211.57
444.20	211.43
444.57	210.50
444.94	210.40
445.31	210.74
445.68	213.81
446.05	213.31
446.42	213.40
446.79	214.02
447.16	213.81
447.53	214.05
447.90	214.02
448.27	213.83
448.64	214.17
449.01	214.62
449.37	215.21
449.74	215.33
450.11	218.05
450.48	217.57
450.85	216.33
451.22	216.31
451.59	216.36
451.96	216.31
452.33	216.64
452.70	216.48
453.07	216.07
453.43	213.02
453.80	213.26
454.17	213.26
454.54	212.38
454.91	212.45
455.28	212.05
455.65	211.81
456.02	215.55
456.38	215.12
456.75	215.12
457.12	214.40
457.49	214.33
457.86	211.93
458.23	213.02
458.59	213.17
458.96	213.50
459.33	213.05
459.70	213.19
460.07	213.17
460.43	213.26
460.80	213.93
461.17	214.81
461.54	214.76
461.91	214.71
462.27	214.86
462.64	214.79
463.01	215.10
463.38	216.05
463.74	212.21
464.11	211.88
464.48	211.88
464.85	211.98
465.21	212.81
465.58	213.40
465.95	212.74
466.32	213.21
466.68	212.67
467.05	213.05
467.42	213.17
467.78	213.14
468.15	213.21
468.52	213.50
468.88	212.43
469.25	212.19
469.62	212.69
469.98	212.60
470.35	212.52
470.72	212.36
471.08	211.21
471.45	211.64
471.82	212.40
472.18	212.38
472.55	212.60
472.92	211.71
473.28	210.95
473.65	210.83
474.02	210.52
474.38	210.90
474.75	211.00
475.11	210.79
475.48	210.88
475.85	210.64
476.21	209.93
476.58	210.38
476.94	210.33
477.31	210.10
477.67	210.05
478.04	210.24
478.41	210.38
478.77	212.64
479.14	212.29
479.50	212.33
479.87	212.19
480.23	211.98
480.60	212.10
480.96	212.29
481.33	213.24
481.69	212.90
482.06	213.10
482.42	213.50
482.79	213.81
483.15	213.43
483.52	213.88
483.88	213.83
484.25	213.71
484.61	213.71
484.98	213.38
485.34	214.24
485.71	214.38
486.07	214.00
486.44	211.98
486.80	211.95
487.17	211.48
487.53	211.81
487.90	212.00
488.26	212.74
488.62	213.24
488.99	212.29
489.35	212.71
489.72	212.31
490.08	211.71
490.44	211.26
490.81	211.48
491.17	211.02
491.54	211.14
491.90	211.29
492.26	211.24
492.63	211.21
492.99	210.38
493.36	210.38
493.72	210.76
494.08	210.64
494.45	210.62
494.81	211.07
495.17	210.52
495.54	210.71
495.90	209.98
496.26	209.90
496.63	210.10
496.99	209.83
497.35	209.86
497.72	209.79
498.08	209.79
498.44	210.14
498.80	210.43
499.17	210.31
499.53	210.12
499.89	210.38
500.26	210.90
500.62	211.17
500.98	211.38
501.34	211.12
501.71	211.81
502.07	212.10
502.43	211.88
502.79	211.69
503.16	211.31
503.52	211.31
503.88	210.55
504.24	210.60
504.60	210.79
504.97	211.12
505.33	211.10
505.69	211.95
506.05	211.57
506.41	211.38
506.78	211.43
507.14	211.07
507.50	210.95
507.86	210.64
508.22	210.74
508.59	210.14
508.95	210.33
509.31	211.02
509.67	210.76
510.03	210.52
510.39	210.81
510.75	210.90
511.12	210.95
511.48	211.29
511.84	211.12
512.20	211.02
512.56	210.62
512.92	210.95
513.28	210.57
513.64	210.40
514.00	210.48
514.37	210.74
514.73	211.07
515.09	211.45
515.45	211.40
515.81	211.36
516.17	211.74
516.53	211.57
516.89	210.45
517.25	210.55
517.61	211.31
517.97	211.05
518.33	211.19
518.69	211.48
519.05	211.93
519.41	212.24
519.77	213.19
520.13	213.38
520.49	212.98
520.85	212.79
521.21	213.88
521.57	214.02
521.93	213.71
522.29	213.67
522.65	213.21
523.01	213.21
523.37	212.88
523.73	212.93
524.09	213.12
524.45	213.21
524.81	213.24
525.17	213.05
525.53	213.62
525.89	213.67
526.25	213.55
526.61	212.93
526.97	212.43
527.33	211.90
527.68	213.50
528.04	213.88
528.40	213.95
528.76	213.21
529.12	212.95
529.48	213.21
529.84	213.14
530.20	213.29
530.56	213.67
530.91	214.45
531.27	214.19
531.63	214.12
531.99	213.98
532.35	213.88
532.71	213.36
533.07	213.17
533.42	215.52
533.78	215.12
534.14	215.50
534.50	215.79
534.86	216.26
535.21	215.02
535.57	215.24
535.93	214.81
536.29	216.48
536.65	216.90
537.00	216.57
537.36	216.93
537.72	216.98
538.08	217.29
538.44	216.33
538.79	216.79
539.15	216.76
539.51	217.02
539.87	217.00
540.22	217.36
540.58	217.24
540.94	215.29
541.29	215.67
541.65	215.29
542.01	215.79
542.37	215.57
542.72	215.00
543.08	214.62
543.44	214.86
543.79	212.86
544.15	213.05
544.51	213.69
544.87	213.19
545.22	213.21
545.58	212.71
545.94	213.02
546.29	212.74
546.65	212.86
547.01	212.31
547.36	212.64
547.72	212.52
548.07	212.88
548.43	212.19
548.79	211.86
549.14	211.90
549.50	211.90
549.86	211.24
550.21	211.86
550.57	212.14
550.92	212.19
551.28	213.24
551.64	213.00
551.99	212.86
552.35	212.95
552.70	212.64
553.06	212.79
553.41	212.67
553.77	213.71
554.13	213.90
554.48	214.55
554.84	214.60
555.19	214.50
555.55	215.74
555.90	216.00
556.26	216.24
556.61	216.33
556.97	215.71
557.32	215.67
557.68	215.45
558.03	215.29
558.39	215.17
558.74	214.45
559.10	214.12
559.45	213.93
559.81	213.90
560.16	213.90
560.52	213.79
560.87	214.05
561.23	213.31
561.58	214.48
561.94	214.07
562.29	213.95
562.64	214.24
563.00	212.55
563.35	212.62
563.71	212.38
564.06	212.10
564.42	212.21
564.77	212.14
565.12	212.17
565.48	213.71
565.83	214.05
566.19	213.86
566.54	213.93
566.89	214.02
567.25	214.74
567.60	215.79
567.96	217.60
568.31	218.57
568.66	219.36
569.02	217.69
569.37	217.86
569.72	218.02
570.08	217.67
570.43	217.79
570.78	217.60
571.14	217.71
571.49	218.07
571.84	218.00
572.20	218.05
572.55	217.86
572.90	216.26
573.26	215.95
573.61	215.74
573.96	215.74
574.31	215.81
574.67	215.33
575.02	214.40
575.37	212.40
575.72	211.40
576.08	210.62
576.43	210.83
576.78	210.64
577.13	210.43
577.49	210.45
577.84	210.43
578.19	210.40
578.54	210.36
578.90	210.10
579.25	210.19
579.60	210.48
579.95	210.33
580.30	210.55
580.66	210.52
581.01	210.95
581.36	210.93
581.71	210.71
582.06	211.67
582.42	211.62
582.77	211.71
583.12	211.83
583.47	211.43
583.82	211.40
584.17	211.60
584.53	212.12
584.88	212.10
585.23	213.05
585.58	213.07
585.93	213.10
586.28	213.52
586.63	213.81
586.98	213.90
587.34	214.43
587.69	214.48
588.04	214.71
588.39	214.43
588.74	214.26
589.09	214.88
589.44	213.64
589.79	213.79
590.14	213.88
590.49	213.69
590.84	213.50
591.19	213.29
591.54	213.36
591.89	212.76
592.25	214.67
592.60	213.62
592.95	213.95
593.30	214.29
593.65	213.98
594.00	213.45
594.35	218.93
594.70	218.17
595.05	218.05
595.40	218.05
595.75	218.17
596.10	218.29
596.45	217.88
596.80	218.17
597.15	218.12
597.50	217.95
597.85	218.81
598.19	219.05
598.54	219.31
598.89	218.79
599.24	219.10
599.59	217.33
599.94	217.60
600.29	217.36
600.64	217.00
600.99	217.86
601.34	218.36
601.69	212.81
602.04	212.95
602.39	212.67
602.74	213.10
603.08	213.14
603.43	214.05
603.78	213.88
604.13	213.81
604.48	213.74
604.83	214.14
605.18	213.57
605.53	213.64
605.87	213.62
606.22	213.83
606.57	213.62
606.92	213.29
607.27	213.12
607.62	212.98
607.96	213.24
608.31	212.45
608.66	212.19
609.01	212.07
609.36	212.43
609.70	212.74
610.05	212.21
610.40	212.29
610.75	211.60
611.10	211.79
611.44	211.69
611.79	211.86
612.14	211.88
612.49	211.60
612.83	211.81
613.18	211.90
613.53	212.02
613.88	212.14
614.22	212.17
614.57	212.31
614.92	212.40
615.27	212.67
615.61	212.79
615.96	212.60
616.31	212.33
616.65	212.50
617.00	212.12
617.35	211.90
617.70	211.69
618.04	211.43
618.39	211.14
618.74	211.36
619.08	211.12
619.43	210.76
619.78	210.55
620.12	210.24
620.47	210.10
620.82	210.14
621.16	209.81
621.51	211.00
621.85	210.79
622.20	211.07
622.55	210.60
622.89	210.67
623.24	211.14
623.59	211.21
623.93	211.48
624.28	212.00
624.62	214.40
624.97	215.64
625.32	215.79
625.66	215.90
626.01	215.69
626.35	216.02
626.70	215.90
627.04	216.95
627.39	217.07
627.73	217.76
628.08	217.69
628.43	217.67
628.77	216.81
629.12	216.76
629.46	216.67
629.81	216.83
630.15	216.79
630.50	216.38
630.84	216.57
631.19	216.36
631.53	215.93
631.88	213.64
632.22	212.36
632.57	212.60
632.91	212.60
633.26	212.98
633.60	212.71
633.95	212.81
634.29	212.05
634.64	212.21
634.98	211.67
635.32	212.05
635.67	212.17
636.01	212.24
636.36	212.12
636.70	212.24
637.05	212.00
637.39	211.52
637.73	211.69
638.08	211.76
638.42	211.29
638.77	211.55
639.11	211.36
639.45	211.33
639.80	211.21
640.14	211.21
640.49	210.76
640.83	210.71
641.17	210.83
641.52	210.76
641.86	210.62
642.20	211.26
642.55	210.64
642.89	210.57
643.23	210.64
643.58	211.57
643.92	211.05
644.26	211.21
644.61	211.88
644.95	212.00
645.29	211.88
645.64	212.55
645.98	212.19
646.32	212.79
646.66	212.71
647.01	212.43
647.35	212.50
647.69	213.05
648.04	213.26
648.38	213.45
648.72	213.31
649.06	213.19
649.41	212.17
649.75	212.36
650.09	212.86
650.43	212.52
650.78	211.90
651.12	211.93
651.46	212.00
651.80	211.76
652.14	211.24
652.49	211.74
652.83	211.10
653.17	211.40
653.51	210.86
653.85	211.29
654.20	211.50
654.54	211.26
654.88	210.64
655.22	211.19
655.56	210.67
655.90	210.76
656.25	210.81
656.59	211.21
656.93	211.38
657.27	211.64
657.61	211.48
657.95	211.52
658.29	211.69
658.64	212.12
658.98	211.76
659.32	212.07
659.66	211.79
660.00	212.48
660.34	212.31
660.68	212.69
661.02	212.52
661.36	212.50
661.70	212.55
662.05	212.48
662.39	212.55
662.73	213.33
663.07	214.50
663.41	214.55
663.75	214.43
664.09	214.40
664.43	213.57
664.77	213.67
665.11	213.40
665.45	213.48
665.79	213.69
666.13	213.76
666.47	213.76
666.81	213.88
667.15	213.29
667.49	213.55
667.83	214.02
668.17	213.81
668.51	213.67
668.85	214.10
669.19	215.38
669.53	214.43
669.87	214.12
670.21	213.02
670.55	212.98
670.89	213.83
671.23	213.79
671.57	214.10
671.91	214.57
672.25	214.69
672.58	215.52
672.92	214.62
673.26	214.81
673.60	214.64
673.94	214.45
674.28	214.74
674.62	214.71
674.96	214.17
675.30	214.67
675.64	214.60
675.97	214.21
676.31	213.36
676.65	213.43
676.99	214.19
677.33	213.88
677.67	214.07
678.01	212.95
678.34	212.88
678.68	213.19
679.02	212.57
679.36	212.36
679.70	211.40
680.04	211.62
680.37	211.60
680.71	211.62
681.05	211.74
681.39	211.79
681.73	211.40
682.06	211.17
682.40	210.64
682.74	211.02
683.08	211.86
683.42	211.67
683.75	212.29
684.09	211.50
684.43	211.90
684.77	211.57
685.10	211.79
685.44	211.74
685.78	211.33
686.12	211.38
686.45	211.50
686.79	211.40
687.13	211.55
687.46	211.26
687.80	211.74
688.14	211.45
688.48	211.05
688.81	211.38
689.15	212.33
689.49	212.21
689.82	211.93
690.16	210.93
690.50	211.02
690.83	210.43
691.17	209.90
691.51	209.69
691.84	209.86
692.18	209.79
692.52	210.05
692.85	210.29
693.19	211.26
693.52	211.24
693.86	211.33
694.20	211.02
694.53	211.31
694.87	210.90
695.21	210.74
695.54	210.83
695.88	210.52
696.21	209.55
696.55	209.81
696.88	209.88
697.22	209.64
697.56	209.90
697.89	209.79
698.23	210.33
698.56	210.31
698.90	210.52
699.23	210.38
699.57	210.17
699.90	210.07
700.24	209.33
700.58	209.57
700.91	209.90
701.25	211.74
701.58	212.12
701.92	212.88
702.25	213.14
702.59	213.12
702.92	213.21
703.26	213.57
703.59	213.55
703.93	215.21
704.26	215.60
704.60	215.76
704.93	215.81
705.26	215.64
705.60	216.05
705.93	215.40
706.27	215.98
706.60	216.64
706.94	217.26
707.27	217.07
707.61	217.19
707.94	216.79
708.27	215.12
708.61	214.76
708.94	214.21
709.28	214.12
709.61	213.90
709.94	214.07
710.28	214.02
710.61	213.86
710.95	212.12
711.28	213.60
711.61	213.07
711.95	213.57
712.28	213.48
712.61	213.10
712.95	214.36
713.28	215.14
713.61	214.40
713.95	213.74
714.28	213.69
714.61	213.43
714.95	213.36
715.28	213.14
715.61	212.81
715.95	213.00
716.28	212.67
716.61	213.24
716.95	212.90
717.28	212.88
717.61	213.00
717.94	213.00
718.28	211.48
718.61	211.40
718.94	211.07
719.27	210.88
719.61	211.12
719.94	210.38
720.27	209.31
720.60	209.21
720.94	209.40
721.27	209.57
721.60	209.83
721.93	209.93
722.27	210.67
722.60	211.07
722.93	210.79
723.26	211.02
723.59	210.60
723.93	211.00
724.26	210.95
724.59	210.79
724.92	210.98
725.25	211.50
725.59	211.60
725.92	211.60
726.25	211.60
726.58	211.45
726.91	211.40
727.24	211.69
727.57	211.55
727.91	211.05
728.24	211.17
728.57	210.95
728.90	211.26
729.23	210.57
729.56	211.45
729.89	211.52
730.22	211.38
730.55	211.26
730.89	211.10
731.22	211.07
731.55	211.10
731.88	210.90
732.21	210.48
732.54	210.40
732.87	210.36
733.20	210.76
733.53	210.95
733.86	211.05
734.19	210.74
734.52	211.21
734.85	212.67
735.18	212.57
735.51	213.07
735.84	213.26
736.17	214.02
736.50	212.95
736.83	215.12
737.16	215.19
737.49	215.43
737.82	215.50
738.15	215.83
738.48	215.93
738.81	216.07
739.14	215.98
739.47	215.76
739.80	215.71
740.13	215.93
740.46	215.55
740.79	215.38
741.12	215.36
741.45	214.83
741.78	213.71
742.11	214.14
742.44	213.57
742.77	213.74
743.10	213.21
743.43	213.14
743.75	211.07
744.08	213.76
744.41	213.24
744.74	212.95
745.07	212.33
745.40	212.38
745.73	212.88
746.06	212.95
746.39	213.24
746.71	213.05
747.04	212.57
747.37	212.71
747.70	213.05
748.03	213.10
748.36	213.57
748.68	213.43
749.01	212.93
749.34	212.95
749.67	212.81
750.00	213.00
750.33	214.43
750.65	214.67
750.98	212.12
751.31	212.50
751.64	212.79
751.97	213.95
752.29	213.98
752.62	213.31
752.95	213.17
753.28	213.07
753.60	213.02
753.93	213.52
754.26	213.69
754.59	213.07
754.91	212.95
755.24	212.93
755.57	212.95
755.90	213.05
756.22	213.19
756.55	212.81
756.88	212.43
757.20	211.10
757.53	210.69
757.86	210.74
758.19	210.88
758.51	210.79
758.84	209.79
759.17	209.55
759.49	209.67
759.82	210.79
760.15	211.05
760.47	211.29
760.80	210.60
761.13	210.81
761.45	210.74
761.78	210.86
762.11	210.88
762.43	210.76
762.76	210.67
763.08	210.69
763.41	210.95
763.74	211.29
764.06	211.17
764.39	211.14
764.71	210.83
765.04	210.64
765.37	210.40
765.69	210.52
766.02	210.60
766.34	210.40
766.67	209.55
767.00	209.71
767.32	210.55
767.65	211.93
767.97	211.76
768.30	212.05
768.62	212.10
768.95	211.88
769.27	211.86
769.60	211.95
769.92	211.62
770.25	211.33
770.57	210.74
770.90	211.12
771.22	211.00
771.55	211.26
771.87	211.38
772.20	211.40
772.52	213.19
772.85	215.69
773.17	215.83
773.50	215.83
773.82	215.36
774.15	214.64
774.47	213.31
774.80	213.21
775.12	213.07
775.45	212.93
775.77	212.98
776.09	213.19
776.42	213.55
776.74	214.14
777.07	214.07
777.39	214.43
777.72	214.10
778.04	214.29
778.36	214.05
778.69	214.31
779.01	214.50
779.33	212.62
779.66	210.43
779.98	210.24
780.31	210.29
780.63	211.38
780.95	211.64
781.28	211.83
781.60	211.50
781.92	211.74
782.25	211.67
782.57	211.90
782.89	211.86
783.22	211.57
783.54	211.36
783.86	211.38
784.19	211.14
784.51	211.83
784.83	211.57
785.16	211.74
785.48	211.60
785.80	211.69
786.12	212.05
786.45	212.31
786.77	212.64
787.09	212.52
787.42	211.81
787.74	212.00
788.06	212.12
788.38	212.24
788.71	212.00
789.03	212.07
789.35	212.12
789.67	211.79
789.99	212.10
790.32	211.83
790.64	212.19
790.96	214.33
791.28	213.55
791.61	213.55
791.93	213.64
792.25	213.55
792.57	215.10
792.89	214.64
793.21	214.36
793.54	214.14
793.86	213.93
794.18	213.93
794.50	213.50
794.82	213.45
795.14	213.93
795.47	214.38
795.79	214.38
796.11	213.98
796.43	214.10
796.75	213.93
797.07	214.05
797.39	213.98
797.71	212.29
798.04	212.52
798.36	212.48
798.68	212.55
799.00	212.74
799.32	211.45
799.64	211.74
799.96	211.93
800.28	212.29
800.60	212.33
800.92	212.45
801.24	212.45
801.56	212.50
801.89	212.21
802.21	212.36
802.53	212.26
802.85	212.79
803.17	213.64
803.49	213.24
803.81	213.07
804.13	212.98
804.45	212.79
804.77	213.05
805.09	213.33
805.41	213.10
805.73	212.76
806.05	212.55
806.37	212.69
806.69	212.45
807.01	212.50
807.33	212.67
807.65	212.02
807.97	212.90
808.28	212.67
808.60	212.74
808.92	212.43
809.24	213.83
809.56	213.45
809.88	212.79
810.20	213.07
810.52	213.64
810.84	213.48
811.16	213.45
811.48	213.38
811.80	214.07
812.12	214.14
812.43	214.69
812.75	214.79
813.07	214.38
813.39	214.55
813.71	213.98
814.03	213.95
814.35	214.19
814.67	213.60
814.98	213.64
815.30	213.40
815.62	213.02
815.94	211.69
816.26	211.93
816.58	211.60
816.89	211.71
817.21	211.07
817.53	211.17
817.85	211.12
818.17	210.93
818.48	210.02
818.80	210.40
819.12	210.14
819.44	209.67
819.76	209.60
820.07	209.67
820.39	209.79
820.71	209.71
821.03	209.81
821.34	209.69
821.66	209.95
821.98	210.43
822.30	210.71
822.61	212.19
822.93	212.02
823.25	212.29
823.57	212.19
823.88	212.64
824.20	212.64
824.52	213.00
824.83	213.02
825.15	212.95
825.47	212.83
825.79	212.93
826.10	213.05
826.42	213.10
826.74	213.38
827.05	213.50
827.37	213.71
827.69	213.64
828.00	213.45
828.32	213.62
828.64	213.29
828.95	214.55
829.27	213.62
829.58	213.67
829.90	214.07
830.22	214.29
830.53	213.81
830.85	213.67
831.17	213.07
831.48	213.38
831.80	213.50
832.11	213.31
832.43	213.05
832.75	213.00
833.06	214.40
833.38	213.50
833.69	213.29
834.01	213.24
834.32	213.38
834.64	213.43
834.96	213.12
835.27	212.93
835.59	211.95
835.90	211.71
836.22	211.64
836.53	211.10
836.85	210.60
837.16	212.79
837.48	212.74
837.79	213.67
838.11	213.60
838.42	213.60
838.74	213.81
839.05	213.67
839.37	213.71
839.68	212.38
840.00	212.48
840.31	212.71
840.63	212.64
840.94	212.12
841.26	211.79
841.57	211.98
841.88	212.43
842.20	212.14
842.51	212.17
842.83	212.07
843.14	214.10
843.46	214.52
843.77	213.55
844.08	213.57
844.40	213.10
844.71	212.67
845.03	212.48
845.34	212.43
845.65	212.50
845.97	212.62
846.28	212.67
846.60	212.88
846.91	212.76
847.22	212.81
847.54	213.55
847.85	213.69
848.16	213.67
848.48	213.31
848.79	214.14
849.10	214.19
849.42	214.50
849.73	212.45
850.04	212.24
850.36	211.45
850.67	211.74
850.98	211.62
851.30	211.95
851.61	212.07
851.92	211.95
852.23	212.50
852.55	212.64
852.86	212.74
853.17	213.17
853.49	213.60
853.80	214.12
854.11	214.21
854.42	214.64
854.74	214.12
855.05	214.17
855.36	213.02
855.67	213.05
855.99	212.88
856.30	215.31
856.61	215.17
856.92	215.17
857.23	215.14
857.55	214.98
857.86	214.93
858.17	215.21
858.48	215.05
858.79	214.64
859.11	214.71
859.42	214.52
859.73	213.93
860.04	213.74
860.35	213.00
860.66	212.43
860.98	212.14
861.29	212.90
861.60	212.74
861.91	213.48
862.22	213.17
862.53	213.05
862.84	210.64
863.16	211.29
863.47	211.07
863.78	211.17
864.09	211.21
864.40	211.21
864.71	211.14
865.02	211.19
865.33	210.81
865.64	210.36
865.95	210.52
866.27	212.12
866.58	212.00
866.89	212.26
867.20	212.24
867.51	212.10
867.82	211.50
868.13	212.19
868.44	211.52
868.75	211.88
869.06	212.07
869.37	212.36
869.68	211.52
869.99	211.79
870.30	211.64
870.61	212.10
870.92	211.81
871.23	211.60
871.54	212.07
871.85	212.67
872.16	213.05
872.47	212.74
872.78	211.12
873.09	211.29
873.40	211.12
873.71	211.21
874.02	211.36
874.33	211.38
874.64	210.74
874.95	211.36
875.26	211.17
875.56	210.83
875.87	210.71
876.18	210.74
876.49	212.62
876.80	212.67
877.11	212.17
877.42	212.29
877.73	212.45
878.04	212.17
878.35	212.38
878.66	212.43
878.96	212.43
879.27	212.62
879.58	212.64
879.89	212.57
880.20	213.19
880.51	213.00
880.82	213.14
881.12	213.45
881.43	213.05
881.74	212.79
882.05	212.71
882.36	212.86
882.67	212.95
882.97	210.79
883.28	210.52
883.59	210.38
883.90	210.57
884.21	210.95
884.51	210.76
884.82	210.36
885.13	210.19
885.44	210.40
885.74	210.36
886.05	210.14
886.36	210.07
886.67	209.33
886.98	210.62
887.28	210.88
887.59	211.07
887.90	211.07
888.20	211.05
888.51	211.52
888.82	211.36
889.13	211.60
889.43	213.40
889.74	213.29
890.05	213.26
890.35	213.05
890.66	212.55
890.97	212.50
891.28	212.33
891.58	212.62
891.89	212.43
892.20	212.29
892.50	212.12
892.81	212.12
893.12	212.14
893.42	210.98
893.73	210.76
894.04	210.60
894.34	210.52
894.65	210.55
894.95	210.38
895.26	210.57
895.57	211.52
895.87	209.67
896.18	210.07
896.48	210.36
896.79	210.52
897.10	210.81
897.40	210.88
897.71	211.07
898.01	210.71
898.32	210.98
898.63	210.93
898.93	211.12
899.24	211.21
899.54	211.29
899.85	211.02
900.15	211.02
900.46	210.90
900.76	211.19
901.07	211.21
901.38	211.31
901.68	211.29
901.99	210.36
902.29	210.69
902.60	210.50
902.90	210.33
903.21	210.14
903.51	210.24
903.82	210.67
904.12	210.67
904.43	210.86
904.73	210.71
905.03	210.74
905.34	212.64
905.64	212.50
905.95	212.36
906.25	212.57
906.56	212.69
906.86	212.67
907.17	212.57
907.47	212.48
907.77	212.10
908.08	211.86
908.38	211.98
908.69	211.76
908.99	212.21
909.30	212.26
909.60	212.52
909.90	212.50
910.21	212.05
910.51	211.98
910.81	212.17
911.12	212.45
911.42	212.64
911.73	210.74
912.03	210.98
912.33	211.40
912.64	211.36
912.94	211.17
913.24	211.07
913.55	210.86
913.85	210.79
914.15	211.40
914.46	211.36
914.76	210.95
915.06	210.95
915.37	210.55
915.67	210.36
915.97	210.21
916.27	209.83
916.58	210.00
916.88	209.88
917.18	209.62
917.49	210.88
917.79	210.79
918.09	210.88
918.39	211.33
918.70	211.19
919.00	211.31
919.30	212.26
919.60	212.38
919.91	212.43
920.21	212.67
920.51	212.10
920.81	212.24
921.12	212.71
921.42	212.71
921.72	212.88
922.02	213.19
922.32	213.60
922.63	213.74
922.93	214.55
923.23	214.69
923.53	214.40
923.83	213.00
924.13	213.24
924.44	213.43
924.74	213.52
925.04	213.93
925.34	213.93
925.64	213.00
925.94	212.90
926.24	213.88
926.55	213.81
926.85	214.19
927.15	214.12
927.45	214.14
927.75	214.17
928.05	214.33
928.35	214.21
928.65	214.33
928.95	214.36
929.26	213.81
929.56	214.00
929.86	214.43
930.16	214.33
930.46	214.12
930.76	214.07
931.06	213.31
931.36	212.90
931.66	213.38
931.96	213.55
932.26	213.45
932.56	212.50
932.86	212.60
933.16	212.55
933.46	212.55
933.76	212.02
934.06	212.45
934.36	212.90
934.66	212.81
934.96	212.83
935.26	212.83
935.56	212.95
935.86	212.55
936.16	212.36
936.46	212.31
936.76	212.29
937.06	211.90
937.36	212.26
937.66	212.19
937.96	211.93
938.26	211.60
938.56	211.57
938.86	211.93
939.16	212.17
939.46	212.48
939.76	212.50
940.06	212.57
940.35	212.19
940.65	211.19
940.95	211.48
941.25	210.67
941.55	210.60
941.85	210.36
942.15	210.83
942.45	211.21
942.75	211.10
943.04	211.24
943.34	211.60
943.64	211.31
943.94	211.14
944.24	211.05
944.54	211.36
944.84	211.33
945.13	210.79
945.43	210.52
945.73	210.33
946.03	210.33
946.33	210.29
946.62	210.02
946.92	210.02
947.22	210.02
947.52	210.36
947.82	210.45
948.11	210.17
948.41	209.55
948.71	209.14
949.01	209.38
949.31	209.33
949.60	209.05
949.90	209.33
950.20	209.31
950.50	209.31
950.79	209.19
951.09	209.50
951.39	209.55
951.69	209.36
951.98	209.71
952.28	209.60
952.58	209.43
952.87	209.52
953.17	209.95
953.47	209.76
953.76	209.79
954.06	209.45
954.36	209.36
954.66	209.67
954.95	210.17
955.25	210.19
955.55	210.17
955.84	209.95
956.14	210.19
956.44	210.31
956.73	209.88
957.03	210.00
957.32	209.86
957.62	209.88
957.92	210.29
958.21	210.14
958.51	212.62
958.81	213.21
959.10	213.19
959.40	213.74
959.69	213.93
959.99	214.29
960.29	214.45
960.58	214.50
960.88	214.88
961.17	214.60
961.47	214.81
961.76	214.64
962.06	215.29
962.36	214.90
962.65	215.05
962.95	215.43
963.24	215.14
963.54	215.24
963.83	215.33
964.13	215.17
964.42	214.43
964.72	212.60
965.01	212.67
965.31	212.71
965.60	211.90
965.90	212.83
966.19	212.26
966.49	212.33
966.78	212.00
967.08	212.00
967.37	211.98
967.67	211.62
967.96	211.93
968.26	211.81
968.55	212.17
968.85	212.00
969.14	211.86
969.43	211.86
969.73	211.79
970.02	211.81
970.32	211.69
970.61	211.88
970.91	211.21
971.20	210.83
971.49	210.74
971.79	210.95
972.08	209.76
972.38	209.81
972.67	210.05
972.96	210.50
973.26	210.14
973.55	210.86
973.85	210.98
974.14	210.74
974.43	210.88
974.73	210.31
975.02	210.07
975.31	210.05
975.61	210.00
975.90	209.62
976.19	209.40
976.49	209.69
976.78	209.74
977.07	209.90
977.37	210.05
977.66	210.21
977.95	210.05
978.24	210.17
978.54	210.71
978.83	210.24
979.12	210.19
979.42	210.26
979.71	209.95
980.00	210.07
980.29	210.24
980.59	209.79
980.88	210.62
981.17	210.79
981.46	210.76
981.76	210.93
982.05	211.90
982.34	212.02
982.63	212.10
982.93	212.07
983.22	212.60
983.51	212.36
983.80	212.64
984.09	212.76
984.39	212.71
984.68	212.33
984.97	212.55
985.26	212.48
985.55	212.55
985.85	211.98
986.14	212.21
986.43	212.36
986.72	212.21
987.01	211.45
987.30	211.60
987.59	211.57
987.89	211.67
988.18	210.86
988.47	210.55
988.76	210.29
989.05	210.10
989.34	209.81
989.63	210.50
989.92	210.19
990.22	209.90
990.51	209.69
990.80	209.64
991.09	209.69
991.38	209.83
991.67	209.52
991.96	209.52
992.25	209.33
992.54	209.05
992.83	209.29
993.12	209.26
993.41	209.38
993.70	210.19
993.99	210.43
994.28	210.71
994.58	211.26
994.87	211.10
995.16	211.24
995.45	211.02
995.74	210.17
996.03	210.60
996.32	210.90
996.61	211.48
996.90	211.36
997.19	211.40
997.48	211.31
997.77	211.19
998.06	211.12
998.34	210.86
998.63	211.02
998.92	210.81
999.21	211.29
999.50	211.50
999.79	210.88
1000.08	210.93
1000.37	210.88
1000.66	210.67
1000.95	211.24
1001.24	211.24
1001.53	211.69
1001.82	211.86
1002.11	211.29
1002.40	211.64
1002.68	211.98
1002.97	213.71
1003.26	213.43
1003.55	213.24
1003.84	213.43
1004.13	214.31
1004.42	214.17
1004.71	214.26
1004.99	214.45
1005.28	214.60
1005.57	214.29
1005.86	213.93
1006.15	213.57
1006.44	213.10
1006.72	213.19
1007.01	212.71
1007.30	212.88
1007.59	212.55
1007.88	212.60
1008.17	212.71
1008.45	212.31
1008.74	211.43
1009.03	210.38
1009.32	210.50
1009.60	210.60
1009.89	210.50
1010.18	209.52
1010.47	209.55
1010.76	209.38
1011.04	209.24
1011.33	209.48
1011.62	209.50
1011.91	209.93
1012.19	209.95
1012.48	210.10
1012.77	210.31
1013.05	211.12
1013.34	210.90
1013.63	210.69
1013.92	210.86
1014.20	210.67
1014.49	210.64
1014.78	210.95
1015.06	210.07
1015.35	210.10
1015.64	210.31
1015.92	210.57
1016.21	210.86
1016.50	210.95
1016.78	211.26
1017.07	211.43
1017.36	210.88
1017.64	210.74
1017.93	210.71
1018.22	210.60
1018.50	210.74
1018.79	210.62
1019.08	209.88
1019.36	210.10
1019.65	209.95
1019.93	210.21
1020.22	210.67
1020.51	211.93
1020.79	211.71
1021.08	207.50
1021.36	207.00
1021.65	212.50
1021.94	210.50
1022.22	211.50
1022.51	205.50
1022.79	217.00
1023.08	214.50
1023.36	238.00
1023.65	206.50
>>>>>End Processed Spectral Data<<<<<
