SpectraSuite Data File
++++++++++++++++++++++++++++++++++++
Date: Wed Sep 04 17:28:45 EDT 2013
User: lab3
Dark Spectrum Present: Yes
Reference Spectrum Present: No
Number of Sampled Component Spectra: 1
Spectrometers: USB2E7196
Integration Time (usec): 337000 (USB2E7196)
Spectra Averaged: 10 (USB2E7196)
Boxcar Smoothing: 10 (USB2E7196)
Correct for Electrical Dark: No (USB2E7196)
Strobe/Lamp Enabled: No (USB2E7196)
Correct for Detector Non-linearity: No (USB2E7196)
Correct for Stray Light: No (USB2E7196)
Number of Pixels in Processed Spectrum: 2048
>>>>>Begin Processed Spectral Data<<<<<
339.09	0.00
339.48	213.70
339.86	215.60
340.24	215.10
340.63	216.80
341.01	234.90
341.39	219.70
341.78	223.10
342.16	226.30
342.54	223.30
342.93	213.36
343.31	224.11
343.69	224.59
344.07	225.00
344.46	225.68
344.84	226.17
345.22	225.66
345.60	225.96
345.99	226.08
346.37	226.04
346.75	226.18
347.13	226.24
347.52	226.42
347.90	226.81
348.28	226.89
348.66	227.12
349.05	226.84
349.43	226.96
349.81	227.17
350.19	227.26
350.57	227.29
350.96	227.43
351.34	227.60
351.72	227.69
352.10	227.75
352.48	227.68
352.87	227.68
353.25	227.89
353.63	227.88
354.01	227.95
354.39	228.10
354.77	228.09
355.15	228.36
355.54	228.32
355.92	228.07
356.30	228.20
356.68	228.78
357.06	228.89
357.44	228.84
357.82	228.86
358.20	229.62
358.58	229.66
358.97	229.76
359.35	229.95
359.73	230.25
360.11	230.30
360.49	230.41
360.87	230.44
361.25	230.46
361.63	230.95
362.01	231.03
362.39	231.02
362.77	231.26
363.15	231.20
363.53	231.25
363.91	231.26
364.29	231.26
364.67	230.44
365.05	230.59
365.43	230.70
365.81	230.76
366.19	230.49
366.57	230.91
366.95	230.89
367.33	230.71
367.71	230.64
368.09	231.00
368.47	230.98
368.85	231.05
369.23	231.23
369.61	230.73
369.99	231.06
370.37	231.16
370.75	231.54
371.13	231.40
371.51	231.20
371.89	231.29
372.27	231.35
372.65	231.35
373.03	231.29
373.41	231.17
373.78	231.09
374.16	230.53
374.54	230.14
374.92	229.92
375.30	229.81
375.68	229.65
376.06	229.44
376.44	229.19
376.82	229.23
377.19	229.20
377.57	229.29
377.95	228.90
378.33	228.77
378.71	228.20
379.09	228.29
379.47	228.41
379.84	228.29
380.22	228.04
380.60	227.90
380.98	227.77
381.36	227.70
381.73	227.51
382.11	227.72
382.49	227.77
382.87	227.67
383.25	227.58
383.62	228.62
384.00	228.44
384.38	228.56
384.76	228.66
385.13	228.88
385.51	228.78
385.89	228.70
386.27	228.70
386.64	228.70
387.02	228.55
387.40	228.45
387.78	228.46
388.15	228.55
388.53	228.54
388.91	228.62
389.29	228.61
389.66	228.86
390.04	228.63
390.42	228.79
390.79	228.89
391.17	228.95
391.55	227.90
391.92	227.98
392.30	228.08
392.68	227.90
393.05	227.89
393.43	228.00
393.81	228.14
394.18	228.10
394.56	228.19
394.94	228.37
395.31	228.34
395.69	228.70
396.06	228.87
396.44	229.05
396.82	228.94
397.19	229.49
397.57	229.37
397.95	229.66
398.32	229.50
398.70	229.76
399.07	230.07
399.45	230.18
399.82	230.31
400.20	230.37
400.58	230.51
400.95	230.23
401.33	230.52
401.70	231.32
402.08	231.56
402.45	231.85
402.83	232.27
403.20	232.70
403.58	232.88
403.95	233.30
404.33	233.72
404.71	234.16
405.08	234.99
405.46	235.51
405.83	236.01
406.21	236.49
406.58	236.98
406.96	237.46
407.33	238.08
407.70	238.82
408.08	240.26
408.45	241.09
408.83	242.05
409.20	242.79
409.58	243.07
409.95	244.29
410.33	245.24
410.70	246.10
411.08	247.24
411.45	248.41
411.82	249.65
412.20	251.15
412.57	253.20
412.95	253.91
413.32	255.66
413.69	257.35
414.07	259.26
414.44	261.30
414.82	263.33
415.19	265.96
415.56	268.31
415.94	270.43
416.31	273.50
416.68	276.59
417.06	279.97
417.43	283.38
417.81	286.98
418.18	290.88
418.55	295.01
418.93	299.24
419.30	303.82
419.67	308.65
420.04	313.47
420.42	318.29
420.79	325.02
421.16	331.14
421.54	337.71
421.91	344.24
422.28	351.04
422.66	358.38
423.03	365.74
423.40	373.20
423.77	381.08
424.15	389.01
424.52	397.29
424.89	406.66
425.26	415.56
425.64	424.01
426.01	433.31
426.38	443.30
426.75	453.71
427.13	463.90
427.50	474.66
427.87	485.82
428.24	497.08
428.61	507.40
428.99	519.50
429.36	532.19
429.73	544.94
430.10	557.65
430.47	570.71
430.85	583.81
431.22	598.40
431.59	614.30
431.96	629.03
432.33	645.49
432.70	661.12
433.08	679.60
433.45	697.08
433.82	714.67
434.19	734.03
434.56	753.28
434.93	771.83
435.30	790.12
435.68	810.79
436.05	831.41
436.42	851.58
436.79	870.20
437.16	890.58
437.53	912.10
437.90	933.70
438.27	954.96
438.64	977.03
439.01	997.48
439.38	1015.70
439.75	1033.48
440.13	1053.74
440.50	1073.04
440.87	1088.92
441.24	1105.77
441.61	1124.14
441.98	1137.73
442.35	1153.12
442.72	1168.88
443.09	1184.58
443.46	1194.64
443.83	1201.53
444.20	1207.87
444.57	1216.16
444.94	1220.53
445.31	1225.12
445.68	1229.92
446.05	1232.36
446.42	1231.16
446.79	1229.61
447.16	1227.66
447.53	1226.70
447.90	1219.90
448.27	1212.96
448.64	1202.89
449.01	1195.21
449.37	1181.58
449.74	1168.51
450.11	1152.99
450.48	1135.78
450.85	1117.97
451.22	1102.98
451.59	1088.11
451.96	1074.22
452.33	1055.55
452.70	1038.77
453.07	1018.38
453.43	997.38
453.80	977.56
454.17	958.77
454.54	940.80
454.91	921.15
455.28	902.09
455.65	883.91
456.02	866.91
456.38	851.76
456.75	833.43
457.12	817.96
457.49	802.86
457.86	788.05
458.23	775.76
458.59	761.86
458.96	747.50
459.33	735.45
459.70	722.91
460.07	713.24
460.43	702.04
460.80	691.75
461.17	682.65
461.54	673.03
461.91	663.87
462.27	654.63
462.64	646.80
463.01	638.17
463.38	630.43
463.74	621.40
464.11	614.28
464.48	607.90
464.85	600.88
465.21	595.74
465.58	590.11
465.95	583.12
466.32	577.98
466.68	572.64
467.05	567.24
467.42	561.98
467.78	556.34
468.15	551.08
468.52	547.33
468.88	541.90
469.25	537.15
469.62	533.48
469.98	529.32
470.35	525.57
470.72	522.04
471.08	517.85
471.45	514.70
471.82	511.50
472.18	508.00
472.55	505.74
472.92	502.60
473.28	500.04
473.65	497.39
474.02	494.72
474.38	492.47
474.75	490.70
475.11	488.64
475.48	486.96
475.85	485.34
476.21	483.71
476.58	482.59
476.94	481.77
477.31	480.51
477.67	479.57
478.04	478.79
478.41	478.35
478.77	479.03
479.14	478.26
479.50	478.01
479.87	478.09
480.23	478.07
480.60	477.88
480.96	477.58
481.33	478.53
481.69	478.82
482.06	479.32
482.42	479.67
482.79	480.26
483.15	481.22
483.52	482.54
483.88	483.53
484.25	484.56
484.61	485.89
484.98	487.46
485.34	489.46
485.71	491.42
486.07	493.30
486.44	494.35
486.80	496.60
487.17	498.85
487.53	501.41
487.90	504.02
488.26	507.45
488.62	510.96
488.99	513.84
489.35	517.30
489.72	520.82
490.08	524.58
490.44	528.41
490.81	532.44
491.17	536.33
491.54	540.83
491.90	545.26
492.26	549.93
492.63	554.80
492.99	559.59
493.36	564.96
493.72	570.71
494.08	576.40
494.45	582.53
494.81	588.83
495.17	595.02
495.54	601.81
495.90	608.37
496.26	615.12
496.63	622.04
496.99	629.07
497.35	636.57
497.72	644.06
498.08	652.02
498.44	659.96
498.80	668.66
499.17	676.83
499.53	685.33
499.89	693.92
500.26	702.49
500.62	711.24
500.98	720.45
501.34	729.20
501.71	738.41
502.07	747.51
502.43	756.62
502.79	766.16
503.16	775.64
503.52	785.19
503.88	794.75
504.24	804.89
504.60	815.10
504.97	825.66
505.33	835.93
505.69	846.63
506.05	857.09
506.41	866.93
506.78	877.33
507.14	887.95
507.50	898.68
507.86	909.35
508.22	919.97
508.59	930.26
508.95	941.21
509.31	952.11
509.67	962.78
510.03	973.48
510.39	984.10
510.75	994.37
511.12	1004.85
511.48	1015.40
511.84	1025.37
512.20	1035.44
512.56	1044.88
512.92	1055.31
513.28	1064.95
513.64	1074.74
514.00	1084.60
514.37	1094.36
514.73	1103.87
515.09	1113.44
515.45	1122.66
515.81	1131.74
516.17	1140.57
516.53	1149.14
516.89	1157.15
517.25	1165.84
517.61	1174.87
517.97	1183.30
518.33	1191.99
518.69	1200.34
519.05	1208.82
519.41	1217.02
519.77	1225.67
520.13	1233.55
520.49	1240.53
520.85	1248.13
521.21	1255.50
521.57	1262.66
521.93	1269.05
522.29	1276.04
522.65	1282.00
523.01	1288.31
523.37	1294.03
523.73	1300.08
524.09	1305.85
524.45	1311.40
524.81	1316.62
525.17	1321.33
525.53	1326.33
525.89	1331.03
526.25	1335.56
526.61	1339.31
526.97	1343.93
527.33	1348.54
527.68	1354.16
528.04	1358.96
528.40	1363.22
528.76	1367.84
529.12	1371.66
529.48	1376.09
529.84	1379.50
530.20	1384.14
530.56	1388.31
530.91	1392.74
531.27	1396.91
531.63	1400.59
531.99	1404.58
532.35	1408.75
532.71	1412.65
533.07	1416.88
533.42	1421.33
533.78	1425.62
534.14	1429.87
534.50	1433.33
534.86	1436.89
535.21	1438.94
535.57	1442.40
535.93	1445.01
536.29	1448.27
536.65	1452.12
537.00	1455.33
537.36	1458.53
537.72	1460.54
538.08	1463.44
538.44	1466.30
538.79	1468.98
539.15	1471.98
539.51	1475.44
539.87	1477.83
540.22	1479.85
540.58	1482.12
540.94	1483.49
541.29	1484.89
541.65	1486.54
542.01	1488.59
542.37	1489.15
542.72	1490.25
543.08	1490.57
543.44	1491.65
543.79	1491.19
544.15	1491.53
544.51	1492.32
544.87	1492.84
545.22	1493.64
545.58	1493.37
545.94	1492.62
546.29	1492.16
546.65	1491.44
547.01	1490.10
547.36	1489.27
547.72	1488.86
548.07	1487.31
548.43	1486.33
548.79	1485.30
549.14	1484.19
549.50	1483.31
549.86	1482.40
550.21	1481.40
550.57	1480.71
550.92	1479.60
551.28	1478.96
551.64	1478.17
551.99	1477.19
552.35	1476.75
552.70	1475.74
553.06	1475.51
553.41	1474.74
553.77	1474.67
554.13	1474.24
554.48	1473.95
554.84	1473.49
555.19	1472.92
555.55	1473.57
555.90	1472.39
556.26	1471.31
556.61	1470.04
556.97	1467.83
557.32	1466.89
557.68	1466.10
558.03	1465.39
558.39	1464.67
558.74	1464.23
559.10	1462.78
559.45	1461.14
559.81	1459.19
560.16	1457.35
560.52	1455.14
560.87	1454.30
561.23	1451.96
561.58	1450.81
561.94	1448.54
562.29	1446.43
562.64	1444.70
563.00	1441.55
563.35	1440.37
563.71	1438.94
564.06	1437.80
564.42	1436.46
564.77	1434.86
565.12	1433.36
565.48	1432.87
565.83	1431.40
566.19	1429.98
566.54	1428.37
566.89	1426.92
567.25	1425.67
567.60	1425.16
567.96	1424.94
568.31	1423.64
568.66	1422.29
569.02	1419.70
569.37	1418.35
569.72	1416.90
570.08	1414.53
570.43	1412.36
570.78	1410.03
571.14	1407.57
571.49	1404.62
571.84	1402.73
572.20	1400.32
572.55	1398.04
572.90	1394.05
573.26	1391.14
573.61	1387.82
573.96	1384.74
574.31	1381.27
574.67	1377.45
575.02	1373.23
575.37	1368.50
575.72	1364.21
576.08	1360.30
576.43	1356.67
576.78	1352.44
577.13	1348.09
577.49	1344.35
577.84	1341.19
578.19	1337.86
578.54	1334.63
578.90	1331.52
579.25	1328.34
579.60	1324.82
579.95	1320.73
580.30	1316.75
580.66	1312.44
581.01	1308.13
581.36	1303.80
581.71	1300.10
582.06	1296.98
582.42	1293.32
582.77	1289.60
583.12	1286.30
583.47	1282.72
583.82	1279.45
584.17	1276.06
584.53	1272.97
584.88	1268.93
585.23	1264.80
585.58	1259.83
585.93	1255.18
586.28	1250.73
586.63	1245.52
586.98	1240.30
587.34	1235.96
587.69	1231.50
588.04	1227.58
588.39	1223.54
588.74	1219.53
589.09	1215.60
589.44	1210.43
589.79	1206.18
590.14	1202.03
590.49	1197.71
590.84	1193.22
591.19	1188.82
591.54	1184.48
591.89	1179.62
592.25	1176.95
592.60	1172.75
592.95	1169.11
593.30	1164.81
593.65	1160.48
594.00	1155.87
594.35	1154.60
594.70	1149.90
595.05	1145.51
595.40	1140.88
595.75	1136.00
596.10	1131.57
596.45	1126.97
596.80	1122.62
597.15	1118.09
597.50	1113.49
597.85	1109.33
598.19	1104.82
598.54	1099.77
598.89	1094.92
599.24	1090.63
599.59	1084.71
599.94	1080.07
600.29	1075.50
600.64	1070.96
600.99	1066.32
601.34	1062.54
601.69	1055.42
602.04	1051.03
602.39	1047.02
602.74	1043.16
603.08	1039.24
603.43	1035.31
603.78	1030.56
604.13	1026.41
604.48	1021.70
604.83	1016.96
605.18	1011.78
605.53	1007.29
605.87	1003.37
606.22	999.40
606.57	994.99
606.92	990.75
607.27	986.68
607.62	982.45
607.96	978.93
608.31	975.23
608.66	970.99
609.01	966.96
609.36	963.09
609.70	958.80
610.05	954.30
610.40	950.14
610.75	945.49
611.10	941.37
611.44	936.94
611.79	932.67
612.14	928.81
612.49	924.46
612.83	920.63
613.18	916.30
613.53	911.99
613.88	907.80
614.22	903.43
614.57	898.78
614.92	894.08
615.27	889.36
615.61	884.46
615.96	879.99
616.31	875.49
616.65	871.09
617.00	866.71
617.35	862.33
617.70	857.90
618.04	853.61
618.39	849.55
618.74	845.64
619.08	841.53
619.43	837.16
619.78	832.82
620.12	828.15
620.47	823.46
620.82	818.90
621.16	814.11
621.51	810.37
621.85	806.29
622.20	802.23
622.55	797.75
622.89	793.75
623.24	789.72
623.59	785.69
623.93	781.56
624.28	777.37
624.62	774.41
624.97	770.78
625.32	766.69
625.66	762.32
626.01	757.94
626.35	754.19
626.70	750.27
627.04	747.20
627.39	743.17
627.73	739.96
628.08	736.44
628.43	732.58
628.77	728.36
629.12	724.48
629.46	720.91
629.81	717.79
630.15	714.03
630.50	710.27
630.84	706.51
631.19	702.92
631.53	699.58
631.88	694.71
632.22	690.69
632.57	687.59
632.91	684.26
633.26	681.15
633.60	677.26
633.95	673.61
634.29	669.32
634.64	665.82
634.98	661.73
635.32	658.48
635.67	655.46
636.01	652.20
636.36	648.71
636.70	645.70
637.05	642.09
637.39	638.98
637.73	635.83
638.08	632.69
638.42	628.99
638.77	625.22
639.11	621.60
639.45	617.94
639.80	613.88
640.14	610.45
640.49	606.79
640.83	603.65
641.17	600.67
641.52	597.57
641.86	594.46
642.20	591.98
642.55	588.52
642.89	585.52
643.23	582.44
643.58	579.61
643.92	575.96
644.26	572.83
644.61	570.06
644.95	566.89
645.29	563.50
645.64	561.14
645.98	558.36
646.32	555.91
646.66	553.08
647.01	550.39
647.35	547.53
647.69	545.06
648.04	542.59
648.38	539.80
648.72	536.96
649.06	534.06
649.41	530.90
649.75	528.02
650.09	525.28
650.43	522.42
650.78	519.41
651.12	516.66
651.46	513.89
651.80	511.05
652.14	508.23
652.49	506.15
652.83	503.46
653.17	501.06
653.51	498.41
653.85	496.22
654.20	493.79
654.54	491.42
654.88	488.60
655.22	486.30
655.56	483.89
655.90	481.48
656.25	479.37
656.59	477.10
656.93	474.90
657.27	472.77
657.61	470.12
657.95	468.04
658.29	465.95
658.64	464.00
658.98	461.68
659.32	459.55
659.66	457.25
660.00	455.00
660.34	452.75
660.68	450.63
661.02	448.37
661.36	446.40
661.70	444.28
662.05	442.37
662.39	440.22
662.73	438.26
663.07	436.97
663.41	435.01
663.75	432.90
664.09	430.95
664.43	428.66
664.77	427.09
665.11	425.17
665.45	423.36
665.79	421.49
666.13	419.51
666.47	417.61
666.81	415.46
667.15	413.45
667.49	411.77
667.83	410.31
668.17	408.47
668.51	406.77
668.85	405.18
669.19	404.07
669.53	402.30
669.87	400.48
670.21	398.36
670.55	396.74
670.89	395.73
671.23	394.17
671.57	392.67
671.91	391.15
672.25	389.67
672.58	388.35
672.92	386.52
673.26	385.11
673.60	383.87
673.94	382.67
674.28	381.58
674.62	380.19
674.96	378.49
675.30	377.16
675.64	375.74
675.97	374.32
676.31	372.47
676.65	370.94
676.99	369.98
677.33	368.50
677.67	367.35
678.01	365.59
678.34	364.30
678.68	363.20
679.02	361.83
679.36	360.37
679.70	358.82
680.04	357.63
680.37	356.42
680.71	355.09
681.05	353.91
681.39	352.53
681.73	351.26
682.06	350.04
682.40	348.90
682.74	347.75
683.08	346.90
683.42	345.73
683.75	344.76
684.09	343.28
684.43	342.25
684.77	340.85
685.10	339.65
685.44	338.58
685.78	337.45
686.12	336.30
686.45	335.30
686.79	334.28
687.13	333.51
687.46	332.49
687.80	331.57
688.14	330.39
688.48	329.39
688.81	328.51
689.15	327.87
689.49	326.84
689.82	325.86
690.16	324.40
690.50	323.56
690.83	322.39
691.17	321.23
691.51	320.36
691.84	319.55
692.18	318.60
692.52	317.62
692.85	316.81
693.19	316.28
693.52	315.33
693.86	314.42
694.20	313.37
694.53	312.51
694.87	311.42
695.21	310.52
695.54	309.67
695.88	308.54
696.21	307.30
696.55	306.42
696.88	305.54
697.22	304.80
697.56	303.93
697.89	303.07
698.23	302.49
698.56	301.47
698.90	300.87
699.23	299.98
699.57	299.20
699.90	298.13
700.24	296.98
700.58	296.40
700.91	295.66
701.25	295.62
701.58	295.63
701.92	295.20
702.25	294.57
702.59	293.76
702.92	293.19
703.26	292.59
703.59	291.91
703.93	292.04
704.26	291.52
704.60	290.96
704.93	290.41
705.26	289.70
705.60	289.32
705.93	288.37
706.27	288.10
706.60	287.79
706.94	287.66
707.27	287.18
707.61	286.69
707.94	286.21
708.27	284.93
708.61	283.58
708.94	282.90
709.28	282.28
709.61	281.68
709.94	281.18
710.28	280.59
710.61	280.18
710.95	278.72
711.28	278.77
711.61	278.06
711.95	277.78
712.28	277.19
712.61	276.69
712.95	276.69
713.28	276.47
713.61	275.77
713.95	275.02
714.28	274.62
714.61	274.06
714.95	273.49
715.28	272.79
715.61	272.30
715.95	271.97
716.28	271.48
716.61	271.27
716.95	270.82
717.28	270.40
717.61	269.78
717.94	269.42
718.28	268.30
718.61	267.90
718.94	267.29
719.27	266.93
719.61	266.53
719.94	265.92
720.27	265.09
720.60	264.59
720.94	264.20
721.27	263.78
721.60	263.54
721.93	263.25
722.27	263.34
722.60	263.10
722.93	262.63
723.26	262.40
723.59	261.83
723.93	261.50
724.26	261.39
724.59	261.14
724.92	260.92
725.25	260.88
725.59	260.54
725.92	260.41
726.25	260.09
726.58	259.85
726.91	259.48
727.24	259.35
727.57	259.14
727.91	258.84
728.24	258.73
728.57	258.23
728.90	257.96
729.23	257.35
729.56	257.47
729.89	257.14
730.22	256.78
730.55	256.53
730.89	256.28
731.22	255.72
731.55	255.50
731.88	255.30
732.21	254.82
732.54	254.52
732.87	254.29
733.20	254.09
733.53	253.74
733.86	253.57
734.19	253.20
734.52	253.08
734.85	253.37
735.18	252.91
735.51	253.01
735.84	252.82
736.17	252.78
736.50	252.05
736.83	252.94
737.16	252.72
737.49	252.55
737.82	252.23
738.15	252.18
738.48	251.85
738.81	251.57
739.14	251.32
739.47	251.06
739.80	250.77
740.13	250.65
740.46	250.43
740.79	250.08
741.12	249.76
741.45	249.30
741.78	248.53
742.11	248.56
742.44	248.04
742.77	248.01
743.10	247.76
743.43	247.52
743.75	246.36
744.08	247.42
744.41	247.17
744.74	246.98
745.07	246.59
745.40	246.61
745.73	246.76
746.06	246.68
746.39	246.64
746.71	246.41
747.04	246.06
747.37	245.84
747.70	245.90
748.03	245.84
748.36	245.92
748.68	245.82
749.01	245.46
749.34	245.38
749.67	245.10
750.00	245.08
750.33	245.71
750.65	245.68
750.98	244.36
751.31	244.25
751.64	244.11
751.97	244.65
752.29	244.47
752.62	243.90
752.95	243.58
753.28	243.23
753.60	243.02
753.93	243.10
754.26	243.08
754.59	242.64
754.91	242.50
755.24	242.24
755.57	242.14
755.90	241.94
756.22	241.77
756.55	241.62
756.88	241.23
757.20	240.47
757.53	240.02
757.86	239.81
758.19	239.70
758.51	239.69
758.84	239.09
759.17	238.90
759.49	238.92
759.82	239.42
760.15	239.64
760.47	239.50
760.80	239.20
761.13	239.11
761.45	238.94
761.78	238.80
762.11	238.75
762.43	238.42
762.76	238.29
763.08	238.30
763.41	238.23
763.74	238.18
764.06	238.01
764.39	238.15
764.71	238.06
765.04	237.96
765.37	237.67
765.69	237.51
766.02	237.38
766.34	237.20
766.67	236.66
767.00	236.69
767.32	237.18
767.65	237.70
767.97	237.64
768.30	237.62
768.62	237.53
768.95	237.32
769.27	237.32
769.60	237.44
769.92	237.19
770.25	236.90
770.57	236.72
770.90	236.71
771.22	236.38
771.55	236.34
771.87	236.37
772.20	236.39
772.52	237.08
772.85	238.10
773.17	238.00
773.50	237.93
773.82	237.59
774.15	236.95
774.47	236.18
774.80	235.96
775.12	235.96
775.45	235.98
775.77	236.01
776.09	236.07
776.42	235.99
776.74	236.21
777.07	236.17
777.39	236.13
777.72	235.95
778.04	236.00
778.36	235.79
778.69	235.67
779.01	235.59
779.33	234.77
779.66	233.71
779.98	233.56
780.31	233.45
780.63	233.81
780.95	233.98
781.28	234.00
781.60	233.83
781.92	233.74
782.25	233.59
782.57	233.47
782.89	233.24
783.22	233.10
783.54	232.91
783.86	232.86
784.19	232.82
784.51	233.09
784.83	232.88
785.16	233.00
785.48	232.90
785.80	232.98
786.12	232.96
786.45	232.81
786.77	232.96
787.09	232.91
787.42	232.50
787.74	232.33
788.06	232.30
788.38	232.30
788.71	232.11
789.03	232.07
789.35	232.07
789.67	232.02
789.99	232.09
790.32	231.87
790.64	231.98
790.96	232.72
791.28	232.42
791.61	232.45
791.93	232.39
792.25	232.38
792.57	233.01
792.89	232.82
793.21	232.82
793.54	232.66
793.86	232.61
794.18	232.68
794.50	232.62
794.82	232.64
795.14	232.77
795.47	233.11
795.79	233.17
796.11	233.08
796.43	232.98
796.75	232.92
797.07	233.00
797.39	232.93
797.71	232.13
798.04	232.20
798.36	232.24
798.68	232.20
799.00	232.29
799.32	231.69
799.64	231.90
799.96	232.11
800.28	232.28
800.60	232.14
800.92	232.20
801.24	232.23
801.56	232.33
801.89	232.19
802.21	232.03
802.53	231.91
802.85	232.12
803.17	232.60
803.49	232.37
803.81	232.31
804.13	232.27
804.45	232.27
804.77	232.32
805.09	232.20
805.41	232.10
805.73	231.90
806.05	231.63
806.37	231.48
806.69	231.21
807.01	231.19
807.33	231.33
807.65	231.01
807.97	231.41
808.28	231.26
808.60	231.29
808.92	231.27
809.24	231.75
809.56	231.56
809.88	231.17
810.20	231.28
810.52	231.42
810.84	231.30
811.16	231.18
811.48	231.05
811.80	231.46
812.12	231.40
812.43	231.59
812.75	231.67
813.07	231.68
813.39	231.86
813.71	231.74
814.03	231.58
814.35	231.54
814.67	231.08
814.98	230.97
815.30	230.86
815.62	230.66
815.94	229.99
816.26	230.43
816.58	230.21
816.89	230.28
817.21	229.98
817.53	230.06
817.85	230.15
818.17	230.05
818.48	229.80
818.80	230.02
819.12	229.80
819.44	229.58
819.76	229.40
820.07	229.26
820.39	229.14
820.71	229.18
821.03	229.20
821.34	229.10
821.66	229.26
821.98	229.36
822.30	229.33
822.61	230.00
822.93	229.39
823.25	229.48
823.57	229.27
823.88	229.58
824.20	229.55
824.52	229.70
824.83	229.65
825.15	229.36
825.47	229.30
825.79	229.41
826.10	229.47
826.42	229.32
826.74	229.38
827.05	229.36
827.37	229.45
827.69	229.45
828.00	229.54
828.32	229.50
828.64	229.37
828.95	229.81
829.27	229.55
829.58	229.60
829.90	229.71
830.22	229.81
830.53	229.55
830.85	229.37
831.17	229.08
831.48	229.13
831.80	229.19
832.11	229.16
832.43	228.96
832.75	228.92
833.06	229.57
833.38	229.35
833.69	229.33
834.01	229.33
834.32	229.31
834.64	229.12
834.96	229.06
835.27	229.13
835.59	228.87
835.90	228.76
836.22	228.76
836.53	228.55
836.85	228.53
837.16	229.47
837.48	229.50
837.79	229.89
838.11	229.90
838.42	229.95
838.74	230.07
839.05	230.10
839.37	230.06
839.68	229.50
840.00	229.60
840.31	229.74
840.63	229.66
840.94	229.53
841.26	229.53
841.57	229.54
841.88	229.70
842.20	229.51
842.51	229.29
842.83	229.34
843.14	230.25
843.46	230.24
843.77	229.70
844.08	229.68
844.40	229.35
844.71	229.32
845.03	229.22
845.34	229.09
845.65	229.09
845.97	229.24
846.28	229.38
846.60	229.31
846.91	229.17
847.22	229.16
847.54	229.38
847.85	229.50
848.16	229.41
848.48	229.26
848.79	229.66
849.10	229.74
849.42	229.78
849.73	228.98
850.04	228.92
850.36	228.61
850.67	228.76
850.98	228.87
851.30	228.98
851.61	228.98
851.92	228.96
852.23	229.30
852.55	229.27
852.86	229.14
853.17	229.26
853.49	229.49
853.80	229.61
854.11	229.69
854.42	229.80
854.74	229.72
855.05	229.70
855.36	229.20
855.67	229.29
855.99	229.28
856.30	230.35
856.61	230.36
856.92	230.38
857.23	230.42
857.55	230.27
857.86	230.20
858.17	230.40
858.48	230.26
858.79	229.98
859.11	230.01
859.42	230.07
859.73	229.89
860.04	229.89
860.35	229.65
860.66	229.35
860.98	229.18
861.29	229.30
861.60	229.15
861.91	229.32
862.22	229.12
862.53	228.96
862.84	227.80
863.16	227.95
863.47	227.74
863.78	227.57
864.09	227.56
864.40	227.54
864.71	227.43
865.02	227.66
865.33	227.49
865.64	227.32
865.95	227.27
866.27	227.81
866.58	227.62
866.89	227.72
867.20	227.63
867.51	227.59
867.82	227.50
868.13	227.90
868.44	227.75
868.75	227.90
869.06	228.00
869.37	228.07
869.68	227.85
869.99	228.07
870.30	228.19
870.61	228.34
870.92	228.19
871.23	228.10
871.54	228.10
871.85	228.43
872.16	228.52
872.47	228.44
872.78	227.98
873.09	228.08
873.40	228.00
873.71	228.13
874.02	228.10
874.33	228.10
874.64	227.86
874.95	228.12
875.26	227.97
875.56	227.80
875.87	227.79
876.18	227.77
876.49	228.67
876.80	228.48
877.11	228.29
877.42	228.42
877.73	228.50
878.04	228.39
878.35	228.27
878.66	228.38
878.96	228.41
879.27	228.42
879.58	228.33
879.89	228.38
880.20	228.70
880.51	228.73
880.82	228.61
881.12	228.60
881.43	228.30
881.74	228.26
882.05	228.29
882.36	228.25
882.67	228.38
882.97	227.32
883.28	227.40
883.59	227.40
883.90	227.53
884.21	227.63
884.51	227.53
884.82	227.45
885.13	227.32
885.44	227.39
885.74	227.37
886.05	227.32
886.36	227.32
886.67	227.00
886.98	227.42
887.28	227.56
887.59	227.54
887.90	227.67
888.20	227.64
888.51	227.85
888.82	227.71
889.13	227.78
889.43	228.60
889.74	228.51
890.05	228.51
890.35	228.31
890.66	228.18
890.97	228.14
891.28	228.09
891.58	228.18
891.89	228.14
892.20	228.03
892.50	228.09
892.81	227.90
893.12	227.80
893.42	227.39
893.73	227.48
894.04	227.51
894.34	227.59
894.65	227.58
894.95	227.50
895.26	227.57
895.57	228.00
895.87	227.05
896.18	227.19
896.48	227.26
896.79	227.28
897.10	227.42
897.40	227.48
897.71	227.57
898.01	227.43
898.32	227.51
898.63	227.47
898.93	227.46
899.24	227.59
899.54	227.71
899.85	227.71
900.15	227.60
900.46	227.60
900.76	227.63
901.07	227.60
901.38	227.62
901.68	227.78
901.99	227.20
902.29	227.36
902.60	227.30
902.90	227.19
903.21	227.19
903.51	227.08
903.82	227.21
904.12	227.25
904.43	227.36
904.73	227.29
905.03	227.47
905.34	228.31
905.64	228.25
905.95	228.13
906.25	228.07
906.56	228.13
906.86	228.19
907.17	228.08
907.47	228.15
907.77	227.94
908.08	227.78
908.38	227.84
908.69	227.89
908.99	228.08
909.30	228.11
909.60	228.08
909.90	228.16
910.21	227.89
910.51	227.70
910.81	227.69
911.12	227.76
911.42	227.68
911.73	226.80
912.03	226.87
912.33	227.11
912.64	227.10
912.94	226.90
913.24	226.60
913.55	226.51
913.85	226.54
914.15	226.78
914.46	226.93
914.76	226.86
915.06	226.80
915.37	226.59
915.67	226.55
915.97	226.60
916.27	226.41
916.58	226.49
916.88	226.44
917.18	226.39
917.49	226.97
917.79	226.94
918.09	227.00
918.39	227.22
918.70	227.19
919.00	227.24
919.30	227.79
919.60	227.79
919.91	227.79
920.21	227.75
920.51	227.52
920.81	227.33
921.12	227.47
921.42	227.43
921.72	227.48
922.02	227.55
922.32	227.70
922.63	227.70
922.93	228.20
923.23	228.27
923.53	228.19
923.83	227.62
924.13	227.68
924.44	227.71
924.74	227.94
925.04	228.06
925.34	228.04
925.64	227.67
925.94	227.71
926.24	228.20
926.55	228.10
926.85	228.36
927.15	228.46
927.45	228.51
927.75	228.50
928.05	228.49
928.35	228.38
928.65	228.59
928.95	228.70
929.26	228.26
929.56	228.49
929.86	228.63
930.16	228.58
930.46	228.52
930.76	228.49
931.06	228.03
931.36	227.76
931.66	227.87
931.96	227.88
932.26	228.05
932.56	227.65
932.86	227.78
933.16	227.66
933.46	227.67
933.76	227.43
934.06	227.75
934.36	228.19
934.66	228.31
934.96	228.06
935.26	228.10
935.56	228.42
935.86	228.28
936.16	228.14
936.46	228.06
936.76	228.02
937.06	227.92
937.36	227.96
937.66	228.05
937.96	228.10
938.26	227.87
938.56	227.70
938.86	227.75
939.16	228.02
939.46	228.17
939.76	228.20
940.06	228.34
940.35	227.99
940.65	227.52
940.95	227.54
941.25	227.29
941.55	227.00
941.85	226.78
942.15	226.93
942.45	227.17
942.75	227.13
943.04	227.19
943.34	227.30
943.64	227.22
943.94	227.08
944.24	227.06
944.54	227.20
944.84	227.17
945.13	227.12
945.43	226.91
945.73	226.78
946.03	226.64
946.33	226.48
946.62	226.46
946.92	226.38
947.22	226.32
947.52	226.49
947.82	226.70
948.11	226.57
948.41	226.33
948.71	226.09
949.01	226.20
949.31	226.11
949.60	226.09
949.90	226.14
950.20	226.13
950.50	226.02
950.79	226.00
951.09	226.20
951.39	226.08
951.69	225.84
951.98	226.00
952.28	225.98
952.58	225.96
952.87	226.01
953.17	226.14
953.47	226.12
953.76	226.06
954.06	226.00
954.36	225.91
954.66	225.90
954.95	226.09
955.25	226.05
955.55	226.17
955.84	226.02
956.14	226.17
956.44	226.26
956.73	226.15
957.03	226.25
957.32	226.26
957.62	226.38
957.92	226.72
958.21	226.69
958.51	227.91
958.81	228.05
959.10	228.22
959.40	228.47
959.69	228.61
959.99	228.77
960.29	228.76
960.58	228.76
960.88	229.17
961.17	229.06
961.47	229.33
961.76	229.30
962.06	229.55
962.36	229.42
962.65	229.45
962.95	229.60
963.24	229.46
963.54	229.45
963.83	229.45
964.13	229.34
964.42	229.08
964.72	228.21
965.01	228.26
965.31	228.14
965.60	227.84
965.90	228.34
966.19	228.12
966.49	228.20
966.78	228.28
967.08	228.14
967.37	228.12
967.67	227.78
967.96	227.91
968.26	227.80
968.55	227.98
968.85	227.89
969.14	227.87
969.43	227.76
969.73	227.63
970.02	227.64
970.32	227.49
970.61	227.48
970.91	227.24
971.20	227.03
971.49	226.86
971.79	227.04
972.08	226.42
972.38	226.52
972.67	226.46
972.96	226.51
973.26	226.39
973.55	226.72
973.85	226.80
974.14	226.70
974.43	226.75
974.73	226.52
975.02	226.57
975.31	226.57
975.61	226.72
975.90	226.72
976.19	226.60
976.49	226.74
976.78	226.86
977.07	226.90
977.37	227.02
977.66	227.16
977.95	227.01
978.24	227.04
978.54	227.15
978.83	227.07
979.12	227.03
979.42	227.04
979.71	226.84
980.00	226.76
980.29	226.85
980.59	226.68
980.88	226.82
981.17	226.75
981.46	226.67
981.76	226.62
982.05	226.98
982.34	226.99
982.63	227.01
982.93	226.95
983.22	227.18
983.51	227.16
983.80	227.29
984.09	227.36
984.39	227.29
984.68	227.17
984.97	227.21
985.26	227.08
985.55	227.10
985.85	226.90
986.14	227.14
986.43	227.19
986.72	227.16
987.01	226.90
987.30	226.88
987.59	226.85
987.89	226.90
988.18	226.54
988.47	226.46
988.76	226.41
989.05	226.50
989.34	226.33
989.63	226.65
989.92	226.56
990.22	226.48
990.51	226.45
990.80	226.49
991.09	226.67
991.38	226.85
991.67	226.71
991.96	226.74
992.25	226.69
992.54	226.55
992.83	226.66
993.12	226.69
993.41	226.91
993.70	227.31
993.99	227.47
994.28	227.61
994.58	227.83
994.87	227.71
995.16	227.59
995.45	227.48
995.74	227.10
996.03	227.33
996.32	227.44
996.61	227.73
996.90	227.65
997.19	227.59
997.48	227.58
997.77	227.54
998.06	227.59
998.34	227.61
998.63	227.60
998.92	227.62
999.21	227.87
999.50	227.80
999.79	227.57
1000.08	227.48
1000.37	227.42
1000.66	227.35
1000.95	227.66
1001.24	227.75
1001.53	227.95
1001.82	228.03
1002.11	227.60
1002.40	227.69
1002.68	227.91
1002.97	228.61
1003.26	228.50
1003.55	228.43
1003.84	228.55
1004.13	228.89
1004.42	228.83
1004.71	228.78
1004.99	228.66
1005.28	228.87
1005.57	228.80
1005.86	228.68
1006.15	228.66
1006.44	228.61
1006.72	228.74
1007.01	228.44
1007.30	228.44
1007.59	228.33
1007.88	228.27
1008.17	228.34
1008.45	228.10
1008.74	227.66
1009.03	227.26
1009.32	227.30
1009.60	227.34
1009.89	227.20
1010.18	226.73
1010.47	226.70
1010.76	226.80
1011.04	226.90
1011.33	226.80
1011.62	226.90
1011.91	226.96
1012.19	227.02
1012.48	226.96
1012.77	226.83
1013.05	227.41
1013.34	227.32
1013.63	227.31
1013.92	227.44
1014.20	227.49
1014.49	227.58
1014.78	227.67
1015.06	227.38
1015.35	227.29
1015.64	227.44
1015.92	227.57
1016.21	227.69
1016.50	227.68
1016.78	227.73
1017.07	227.72
1017.36	227.56
1017.64	227.36
1017.93	227.44
1018.22	227.34
1018.50	227.32
1018.79	227.35
1019.08	226.92
1019.36	227.06
1019.65	226.87
1019.93	226.98
1020.22	227.08
1020.51	227.57
1020.79	227.48
1021.08	226.30
1021.36	224.10
1021.65	227.20
1021.94	228.00
1022.22	227.90
1022.51	224.10
1022.79	230.30
1023.08	227.80
1023.36	238.70
1023.65	225.50
>>>>>End Processed Spectral Data<<<<<
