SpectraSuite Data File
++++++++++++++++++++++++++++++++++++
Date: Wed Sep 04 17:29:09 EDT 2013
User: lab3
Dark Spectrum Present: Yes
Reference Spectrum Present: No
Number of Sampled Component Spectra: 1
Spectrometers: USB2E7196
Integration Time (usec): 337000 (USB2E7196)
Spectra Averaged: 10 (USB2E7196)
Boxcar Smoothing: 10 (USB2E7196)
Correct for Electrical Dark: No (USB2E7196)
Strobe/Lamp Enabled: No (USB2E7196)
Correct for Detector Non-linearity: No (USB2E7196)
Correct for Stray Light: No (USB2E7196)
Number of Pixels in Processed Spectrum: 2048
>>>>>Begin Processed Spectral Data<<<<<
339.09	0.00
339.48	214.20
339.86	213.40
340.24	214.70
340.63	217.80
341.01	233.20
341.39	221.60
341.78	223.40
342.16	225.50
342.54	222.70
342.93	213.10
343.31	223.95
343.69	224.36
344.07	224.86
344.46	225.48
344.84	225.92
345.22	225.60
345.60	225.74
345.99	225.94
346.37	226.00
346.75	226.15
347.13	226.17
347.52	226.32
347.90	226.68
348.28	226.67
348.66	226.85
349.05	226.67
349.43	226.84
349.81	226.97
350.19	226.93
350.57	227.00
350.96	227.11
351.34	227.08
351.72	227.25
352.10	227.35
352.48	227.31
352.87	227.38
353.25	227.40
353.63	227.53
354.01	227.55
354.39	227.62
354.77	227.66
355.15	228.05
355.54	227.99
355.92	227.80
356.30	227.86
356.68	228.54
357.06	228.62
357.44	228.50
357.82	228.63
358.20	229.58
358.58	229.72
358.97	229.80
359.35	230.08
359.73	230.34
360.11	230.48
360.49	230.67
360.87	230.70
361.25	230.92
361.63	231.20
362.01	231.30
362.39	231.33
362.77	231.46
363.15	231.37
363.53	231.47
363.91	231.56
364.29	231.64
364.67	230.83
365.05	230.92
365.43	231.04
365.81	231.08
366.19	230.70
366.57	231.08
366.95	231.00
367.33	230.77
367.71	230.70
368.09	230.81
368.47	230.71
368.85	230.74
369.23	230.85
369.61	230.57
369.99	230.86
370.37	230.96
370.75	231.37
371.13	231.18
371.51	231.05
371.89	231.14
372.27	230.99
372.65	231.08
373.03	230.89
373.41	230.85
373.78	230.79
374.16	230.31
374.54	229.92
374.92	229.79
375.30	229.80
375.68	229.64
376.06	229.60
376.44	229.50
376.82	229.38
377.19	229.24
377.57	229.28
377.95	228.87
378.33	228.68
378.71	228.12
379.09	228.17
379.47	228.23
379.84	227.96
380.22	227.90
380.60	227.61
380.98	227.62
381.36	227.56
381.73	227.43
382.11	227.55
382.49	227.48
382.87	227.40
383.25	227.36
383.62	228.43
384.00	228.23
384.38	228.21
384.76	228.45
385.13	228.77
385.51	228.64
385.89	228.45
386.27	228.47
386.64	228.59
387.02	228.45
387.40	228.28
387.78	228.41
388.15	228.42
388.53	228.41
388.91	228.43
389.29	228.36
389.66	228.53
390.04	228.33
390.42	228.55
390.79	228.52
391.17	228.47
391.55	227.35
391.92	227.38
392.30	227.50
392.68	227.27
393.05	227.16
393.43	227.20
393.81	227.39
394.18	227.36
394.56	227.47
394.94	227.79
395.31	227.89
395.69	228.20
396.06	228.49
396.44	228.73
396.82	228.75
397.19	229.30
397.57	229.12
397.95	229.56
398.32	229.39
398.70	229.61
399.07	229.92
399.45	230.14
399.82	230.32
400.20	230.40
400.58	230.60
400.95	230.50
401.33	230.93
401.70	231.81
402.08	232.10
402.45	232.23
402.83	232.65
403.20	232.92
403.58	232.98
403.95	233.40
404.33	233.77
404.71	234.19
405.08	235.14
405.46	235.68
405.83	236.10
406.21	236.56
406.58	237.07
406.96	237.61
407.33	238.07
407.70	238.75
408.08	240.10
408.45	240.96
408.83	241.98
409.20	242.62
409.58	242.81
409.95	243.85
410.33	244.90
410.70	245.62
411.08	246.83
411.45	248.03
411.82	249.07
412.20	250.58
412.57	252.54
412.95	253.17
413.32	254.98
413.69	256.68
414.07	258.55
414.44	260.60
414.82	262.73
415.19	265.21
415.56	267.74
415.94	270.00
416.31	272.96
416.68	275.92
417.06	279.40
417.43	282.93
417.81	286.69
418.18	290.57
418.55	294.85
418.93	299.15
419.30	303.77
419.67	308.70
420.04	313.59
420.42	318.51
420.79	325.23
421.16	331.38
421.54	337.91
421.91	344.55
422.28	351.40
422.66	358.70
423.03	366.33
423.40	373.61
423.77	381.40
424.15	389.45
424.52	397.86
424.89	407.30
425.26	416.06
425.64	424.49
426.01	433.86
426.38	443.70
426.75	454.10
427.13	464.46
427.50	475.08
427.87	486.17
428.24	497.53
428.61	507.87
428.99	519.78
429.36	532.45
429.73	545.12
430.10	557.80
430.47	570.78
430.85	584.03
431.22	598.52
431.59	614.28
431.96	629.08
432.33	645.15
432.70	660.87
433.08	679.50
433.45	697.12
433.82	714.71
434.19	734.03
434.56	753.26
434.93	771.60
435.30	790.41
435.68	810.85
436.05	831.34
436.42	851.40
436.79	870.43
437.16	890.78
437.53	912.21
437.90	933.70
438.27	954.87
438.64	977.27
439.01	997.80
439.38	1016.02
439.75	1033.94
440.13	1054.30
440.50	1073.28
440.87	1089.31
441.24	1105.67
441.61	1123.43
441.98	1137.30
442.35	1153.05
442.72	1169.41
443.09	1184.85
443.46	1195.09
443.83	1202.10
444.20	1208.70
444.57	1216.94
444.94	1221.24
445.31	1225.93
445.68	1230.70
446.05	1232.80
446.42	1230.82
446.79	1229.31
447.16	1227.15
447.53	1226.04
447.90	1219.17
448.27	1212.22
448.64	1202.09
449.01	1195.21
449.37	1182.11
449.74	1168.80
450.11	1152.89
450.48	1135.16
450.85	1117.30
451.22	1102.00
451.59	1087.14
451.96	1073.03
452.33	1054.16
452.70	1037.40
453.07	1017.10
453.43	996.07
453.80	976.71
454.17	958.18
454.54	940.21
454.91	920.85
455.28	901.93
455.65	884.11
456.02	867.44
456.38	852.25
456.75	833.47
457.12	817.90
457.49	802.93
457.86	788.18
458.23	776.03
458.59	762.33
458.96	748.27
459.33	736.06
459.70	723.86
460.07	714.08
460.43	702.94
460.80	692.82
461.17	683.72
461.54	674.06
461.91	665.01
462.27	655.71
462.64	648.16
463.01	639.24
463.38	631.29
463.74	621.90
464.11	614.56
464.48	608.10
464.85	601.23
465.21	596.12
465.58	590.29
465.95	583.27
466.32	578.00
466.68	572.61
467.05	567.20
467.42	561.57
467.78	555.86
468.15	550.50
468.52	546.38
468.88	541.04
469.25	536.20
469.62	532.55
469.98	528.44
470.35	524.65
470.72	521.10
471.08	516.98
471.45	513.76
471.82	510.52
472.18	507.07
472.55	504.62
472.92	501.53
473.28	499.03
473.65	496.36
474.02	493.49
474.38	491.52
474.75	489.81
475.11	487.89
475.48	486.31
475.85	484.94
476.21	483.50
476.58	482.42
476.94	481.62
477.31	480.36
477.67	479.25
478.04	478.30
478.41	477.94
478.77	478.35
479.14	477.72
479.50	477.55
479.87	477.63
480.23	477.58
480.60	477.20
480.96	477.16
481.33	478.03
481.69	478.34
482.06	478.67
482.42	478.88
482.79	479.47
483.15	480.55
483.52	481.78
483.88	482.60
484.25	483.80
484.61	485.10
484.98	486.46
485.34	488.66
485.71	490.62
486.07	492.63
486.44	493.72
486.80	496.06
487.17	498.40
487.53	501.02
487.90	503.81
488.26	507.02
488.62	510.42
488.99	513.22
489.35	516.86
489.72	520.49
490.08	524.46
490.44	528.11
490.81	532.04
491.17	535.94
491.54	540.58
491.90	545.02
492.26	549.76
492.63	554.80
492.99	559.52
493.36	564.80
493.72	570.28
494.08	576.13
494.45	582.22
494.81	588.62
495.17	594.80
495.54	601.52
495.90	608.23
496.26	614.68
496.63	621.71
496.99	628.75
497.35	636.32
497.72	643.97
498.08	651.81
498.44	659.92
498.80	668.54
499.17	676.89
499.53	685.19
499.89	694.10
500.26	702.82
500.62	711.79
500.98	720.96
501.34	730.04
501.71	739.19
502.07	748.18
502.43	757.30
502.79	766.91
503.16	776.47
503.52	786.19
503.88	795.90
504.24	806.10
504.60	816.48
504.97	826.87
505.33	836.83
505.69	848.12
506.05	858.52
506.41	868.69
506.78	878.94
507.14	889.52
507.50	900.05
507.86	910.86
508.22	921.42
508.59	931.63
508.95	942.44
509.31	953.78
509.67	964.86
510.03	975.42
510.39	985.76
510.75	995.81
511.12	1005.98
511.48	1016.77
511.84	1026.84
512.20	1036.91
512.56	1046.90
512.92	1057.08
513.28	1066.44
513.64	1076.04
514.00	1085.98
514.37	1095.62
514.73	1105.19
515.09	1114.64
515.45	1123.63
515.81	1132.68
516.17	1141.96
516.53	1150.07
516.89	1158.06
517.25	1166.65
517.61	1175.99
517.97	1184.79
518.33	1193.70
518.69	1202.50
519.05	1210.60
519.41	1218.55
519.77	1226.91
520.13	1234.28
520.49	1241.60
520.85	1248.99
521.21	1256.72
521.57	1263.98
521.93	1270.55
522.29	1277.60
522.65	1283.49
523.01	1289.60
523.37	1295.14
523.73	1300.50
524.09	1306.32
524.45	1311.90
524.81	1316.66
525.17	1321.30
525.53	1326.33
525.89	1331.16
526.25	1335.60
526.61	1339.93
526.97	1344.64
527.33	1349.07
527.68	1354.97
528.04	1359.78
528.40	1364.22
528.76	1368.71
529.12	1372.69
529.48	1377.17
529.84	1380.90
530.20	1385.74
530.56	1389.97
530.91	1394.52
531.27	1398.71
531.63	1403.16
531.99	1407.06
532.35	1411.19
532.71	1415.12
533.07	1419.52
533.42	1422.92
533.78	1426.44
534.14	1430.30
534.50	1433.85
534.86	1437.62
535.21	1439.46
535.57	1442.57
535.93	1445.30
536.29	1448.23
536.65	1451.49
537.00	1454.35
537.36	1457.47
537.72	1459.96
538.08	1463.20
538.44	1465.96
538.79	1469.14
539.15	1471.89
539.51	1474.68
539.87	1477.35
540.22	1478.99
540.58	1481.17
540.94	1483.06
541.29	1485.15
541.65	1486.46
542.01	1488.45
542.37	1488.76
542.72	1489.92
543.08	1491.10
543.44	1492.23
543.79	1492.11
544.15	1492.46
544.51	1493.51
544.87	1493.78
545.22	1493.73
545.58	1493.19
545.94	1492.91
546.29	1492.18
546.65	1491.00
547.01	1490.49
547.36	1489.48
547.72	1489.06
548.07	1487.51
548.43	1486.83
548.79	1485.79
549.14	1485.17
549.50	1483.83
549.86	1482.91
550.21	1482.15
550.57	1481.46
550.92	1480.38
551.28	1479.55
551.64	1478.86
551.99	1477.67
552.35	1476.81
552.70	1476.18
553.06	1475.73
553.41	1475.10
553.77	1475.15
554.13	1475.00
554.48	1474.76
554.84	1474.19
555.19	1474.01
555.55	1474.40
555.90	1473.39
556.26	1472.27
556.61	1471.06
556.97	1469.18
557.32	1468.70
557.68	1467.73
558.03	1466.58
558.39	1465.92
558.74	1465.35
559.10	1463.58
559.45	1462.05
559.81	1460.42
560.16	1458.69
560.52	1456.93
560.87	1455.50
561.23	1453.37
561.58	1452.30
561.94	1449.74
562.29	1447.77
562.64	1445.44
563.00	1442.18
563.35	1440.76
563.71	1439.17
564.06	1437.63
564.42	1436.79
564.77	1435.26
565.12	1433.32
565.48	1432.17
565.83	1430.27
566.19	1428.80
566.54	1427.44
566.89	1426.16
567.25	1424.93
567.60	1423.99
567.96	1423.52
568.31	1422.23
568.66	1420.78
569.02	1417.92
569.37	1416.17
569.72	1415.20
570.08	1413.16
570.43	1411.09
570.78	1409.25
571.14	1406.95
571.49	1404.54
571.84	1402.30
572.20	1399.57
572.55	1397.45
572.90	1394.38
573.26	1391.54
573.61	1388.32
573.96	1385.27
574.31	1381.71
574.67	1377.96
575.02	1373.90
575.37	1369.39
575.72	1365.23
576.08	1361.66
576.43	1358.24
576.78	1354.46
577.13	1350.12
577.49	1346.64
577.84	1343.36
578.19	1339.72
578.54	1336.46
578.90	1332.93
579.25	1329.58
579.60	1326.01
579.95	1322.13
580.30	1317.83
580.66	1313.69
581.01	1309.22
581.36	1304.79
581.71	1300.91
582.06	1297.52
582.42	1293.80
582.77	1289.80
583.12	1286.33
583.47	1282.36
583.82	1279.15
584.17	1275.69
584.53	1272.31
584.88	1267.80
585.23	1263.79
585.58	1258.53
585.93	1253.93
586.28	1249.61
586.63	1244.44
586.98	1239.56
587.34	1235.35
587.69	1230.85
588.04	1226.56
588.39	1222.69
588.74	1218.53
589.09	1214.52
589.44	1209.59
589.79	1205.51
590.14	1201.53
590.49	1196.87
590.84	1192.60
591.19	1188.19
591.54	1183.55
591.89	1178.34
592.25	1175.74
592.60	1171.24
592.95	1167.60
593.30	1163.47
593.65	1159.08
594.00	1154.30
594.35	1152.56
594.70	1147.49
595.05	1143.10
595.40	1138.57
595.75	1133.74
596.10	1129.29
596.45	1124.96
596.80	1120.96
597.15	1116.28
597.50	1111.66
597.85	1107.75
598.19	1102.66
598.54	1097.52
598.89	1093.04
599.24	1088.97
599.59	1083.46
599.94	1079.04
600.29	1074.71
600.64	1070.15
600.99	1065.63
601.34	1061.99
601.69	1055.14
602.04	1050.99
602.39	1046.83
602.74	1043.00
603.08	1039.31
603.43	1035.62
603.78	1030.92
604.13	1026.47
604.48	1021.95
604.83	1017.22
605.18	1012.36
605.53	1008.18
605.87	1004.01
606.22	1000.04
606.57	995.81
606.92	991.28
607.27	987.35
607.62	983.21
607.96	979.42
608.31	975.79
608.66	971.81
609.01	967.92
609.36	963.99
609.70	960.06
610.05	955.66
610.40	951.53
610.75	946.90
611.10	942.72
611.44	938.37
611.79	934.22
612.14	930.25
612.49	925.88
612.83	921.84
613.18	917.56
613.53	913.35
613.88	908.91
614.22	904.19
614.57	899.20
614.92	894.23
615.27	889.70
615.61	884.75
615.96	879.83
616.31	875.03
616.65	870.66
617.00	865.81
617.35	861.39
617.70	856.58
618.04	852.17
618.39	847.95
618.74	843.88
619.08	839.52
619.43	834.92
619.78	830.49
620.12	826.13
620.47	821.82
620.82	816.82
621.16	812.29
621.51	808.89
621.85	804.63
622.20	800.64
622.55	796.16
622.89	792.02
623.24	788.15
623.59	784.03
623.93	780.07
624.28	775.93
624.62	772.76
624.97	769.50
625.32	765.55
625.66	761.45
626.01	756.87
626.35	753.03
626.70	749.21
627.04	745.83
627.39	741.64
627.73	738.09
628.08	734.72
628.43	730.90
628.77	726.75
629.12	723.07
629.46	719.67
629.81	716.39
630.15	712.70
630.50	708.92
630.84	705.03
631.19	701.41
631.53	698.22
631.88	693.57
632.22	689.18
632.57	685.89
632.91	682.18
633.26	679.20
633.60	675.63
633.95	672.01
634.29	667.74
634.64	664.52
634.98	660.39
635.32	656.91
635.67	653.88
636.01	650.58
636.36	647.10
636.70	643.94
637.05	640.41
637.39	637.30
637.73	634.09
638.08	631.19
638.42	627.68
638.77	624.04
639.11	620.41
639.45	616.69
639.80	612.87
640.14	609.58
640.49	606.03
640.83	602.70
641.17	599.70
641.52	596.80
641.86	593.81
642.20	591.49
642.55	588.37
642.89	585.21
643.23	582.20
643.58	579.62
643.92	576.01
644.26	572.94
644.61	570.14
644.95	567.21
645.29	564.08
645.64	561.24
645.98	558.46
646.32	556.07
646.66	553.36
647.01	550.54
647.35	548.03
647.69	545.50
648.04	543.02
648.38	540.25
648.72	537.69
649.06	534.70
649.41	531.53
649.75	528.45
650.09	525.46
650.43	522.55
650.78	519.62
651.12	516.95
651.46	514.40
651.80	511.39
652.14	508.71
652.49	506.32
652.83	503.63
653.17	501.10
653.51	498.30
653.85	496.27
654.20	494.07
654.54	491.55
654.88	489.10
655.22	486.80
655.56	484.33
655.90	481.96
656.25	479.74
656.59	477.56
656.93	475.50
657.27	473.70
657.61	471.12
657.95	468.76
658.29	466.57
658.64	464.36
658.98	462.25
659.32	459.79
659.66	457.46
660.00	455.46
660.34	453.28
660.68	451.15
661.02	448.85
661.36	446.79
661.70	444.38
662.05	442.13
662.39	440.11
662.73	438.40
663.07	436.87
663.41	434.87
663.75	432.78
664.09	430.82
664.43	428.41
664.77	426.88
665.11	425.10
665.45	423.41
665.79	421.60
666.13	419.77
666.47	417.90
666.81	416.11
667.15	413.99
667.49	412.26
667.83	411.01
668.17	409.31
668.51	407.50
668.85	406.23
669.19	405.12
669.53	403.02
669.87	401.19
670.21	399.19
670.55	397.58
670.89	396.45
671.23	394.82
671.57	393.42
671.91	391.68
672.25	390.09
672.58	388.76
672.92	386.97
673.26	385.32
673.60	384.00
673.94	382.66
674.28	381.42
674.62	380.12
674.96	378.40
675.30	376.88
675.64	375.44
675.97	373.94
676.31	371.99
676.65	370.73
676.99	369.60
677.33	368.00
677.67	366.63
678.01	364.78
678.34	363.50
678.68	362.33
679.02	361.01
679.36	359.72
679.70	358.40
680.04	357.18
680.37	356.04
680.71	354.85
681.05	353.66
681.39	352.50
681.73	351.13
682.06	349.96
682.40	348.90
682.74	347.89
683.08	347.05
683.42	345.92
683.75	344.92
684.09	343.60
684.43	342.61
684.77	341.40
685.10	340.31
685.44	339.16
685.78	338.07
686.12	336.96
686.45	335.91
686.79	334.65
687.13	333.84
687.46	332.70
687.80	331.77
688.14	330.62
688.48	329.50
688.81	328.42
689.15	327.67
689.49	326.50
689.82	325.46
690.16	323.97
690.50	323.16
690.83	322.09
691.17	320.92
691.51	319.96
691.84	319.15
692.18	318.20
692.52	317.17
692.85	316.14
693.19	315.80
693.52	314.95
693.86	313.98
694.20	312.89
694.53	312.06
694.87	311.13
695.21	310.12
695.54	309.38
695.88	308.41
696.21	307.07
696.55	306.34
696.88	305.42
697.22	304.45
697.56	303.67
697.89	302.74
698.23	302.00
698.56	301.24
698.90	300.43
699.23	299.61
699.57	298.99
699.90	298.13
700.24	296.83
700.58	296.07
700.91	295.53
701.25	295.61
701.58	295.67
701.92	295.10
702.25	294.50
702.59	293.78
702.92	293.26
703.26	292.78
703.59	292.31
703.93	292.49
704.26	292.15
704.60	291.39
704.93	290.74
705.26	290.07
705.60	289.50
705.93	288.83
706.27	288.52
706.60	288.13
706.94	287.99
707.27	287.47
707.61	287.03
707.94	286.47
708.27	285.21
708.61	283.91
708.94	283.29
709.28	282.80
709.61	282.22
709.94	281.80
710.28	281.37
710.61	280.71
710.95	279.25
711.28	279.21
711.61	278.80
711.95	278.49
712.28	277.95
712.61	277.40
712.95	277.32
713.28	277.25
713.61	276.60
713.95	275.81
714.28	275.38
714.61	274.77
714.95	274.18
715.28	273.51
715.61	273.10
715.95	272.61
716.28	272.08
716.61	271.59
716.95	271.02
717.28	270.35
717.61	269.81
717.94	269.46
718.28	268.35
718.61	267.81
718.94	267.26
719.27	266.87
719.61	266.51
719.94	265.80
720.27	264.83
720.60	264.39
720.94	264.01
721.27	263.59
721.60	263.23
721.93	262.90
722.27	262.90
722.60	262.57
722.93	262.17
723.26	261.90
723.59	261.48
723.93	261.12
724.26	260.99
724.59	260.63
724.92	260.37
725.25	260.37
725.59	260.10
725.92	259.82
726.25	259.52
726.58	259.18
726.91	258.87
727.24	258.69
727.57	258.44
727.91	257.96
728.24	257.84
728.57	257.46
728.90	257.25
729.23	256.65
729.56	256.76
729.89	256.52
730.22	256.20
730.55	255.89
730.89	255.63
731.22	255.23
731.55	254.98
731.88	254.77
732.21	254.35
732.54	254.06
732.87	253.89
733.20	253.66
733.53	253.52
733.86	253.27
734.19	252.97
734.52	252.75
734.85	253.25
735.18	252.82
735.51	252.96
735.84	252.74
736.17	252.81
736.50	252.11
736.83	252.96
737.16	252.68
737.49	252.55
737.82	252.29
738.15	252.12
738.48	252.00
738.81	251.76
739.14	251.34
739.47	251.06
739.80	250.82
740.13	250.73
740.46	250.37
740.79	250.09
741.12	249.82
741.45	249.46
741.78	248.80
742.11	248.90
742.44	248.49
742.77	248.37
743.10	248.00
743.43	247.81
743.75	246.69
744.08	247.78
744.41	247.60
744.74	247.43
745.07	247.12
745.40	246.99
745.73	247.17
746.06	247.10
746.39	247.06
746.71	246.80
747.04	246.54
747.37	246.34
747.70	246.42
748.03	246.34
748.36	246.41
748.68	246.10
749.01	245.66
749.34	245.46
749.67	245.18
750.00	245.17
750.33	245.66
750.65	245.51
750.98	244.11
751.31	243.92
751.64	243.94
751.97	244.38
752.29	244.18
752.62	243.60
752.95	243.51
753.28	243.26
753.60	243.04
753.93	243.10
754.26	243.07
754.59	242.62
754.91	242.45
755.24	242.23
755.57	242.16
755.90	241.98
756.22	241.76
756.55	241.56
756.88	241.20
757.20	240.50
757.53	240.01
757.86	239.90
758.19	239.81
758.51	239.69
758.84	238.98
759.17	238.73
759.49	238.64
759.82	238.94
760.15	238.98
760.47	238.83
760.80	238.38
761.13	238.36
761.45	238.30
761.78	238.12
762.11	238.04
762.43	237.93
762.76	237.73
763.08	237.84
763.41	237.88
763.74	237.83
764.06	237.69
764.39	237.73
764.71	237.58
765.04	237.52
765.37	237.21
765.69	237.13
766.02	237.07
766.34	236.94
766.67	236.40
767.00	236.39
767.32	236.97
767.65	237.54
767.97	237.34
768.30	237.20
768.62	237.13
768.95	236.96
769.27	236.80
769.60	236.90
769.92	236.61
770.25	236.23
770.57	236.00
770.90	235.95
771.22	235.70
771.55	235.70
771.87	235.63
772.20	235.57
772.52	236.34
772.85	237.49
773.17	237.44
773.50	237.40
773.82	237.17
774.15	236.58
774.47	235.95
774.80	235.81
775.12	235.80
775.45	235.71
775.77	235.62
776.09	235.66
776.42	235.61
776.74	235.86
777.07	235.83
777.39	235.83
777.72	235.70
778.04	235.88
778.36	235.74
778.69	235.63
779.01	235.70
779.33	234.87
779.66	233.68
779.98	233.61
780.31	233.54
780.63	233.90
780.95	234.01
781.28	233.88
781.60	233.72
781.92	233.71
782.25	233.60
782.57	233.60
782.89	233.50
783.22	233.40
783.54	233.14
783.86	233.17
784.19	233.17
784.51	233.54
784.83	233.30
785.16	233.28
785.48	233.21
785.80	233.16
786.12	233.17
786.45	233.13
786.77	233.12
787.09	233.13
787.42	232.74
787.74	232.72
788.06	232.77
788.38	232.79
788.71	232.62
789.03	232.72
789.35	232.77
789.67	232.60
789.99	232.75
790.32	232.73
790.64	232.88
790.96	233.61
791.28	233.09
791.61	233.10
791.93	233.13
792.25	233.13
792.57	233.77
792.89	233.52
793.21	233.53
793.54	233.47
793.86	233.30
794.18	233.37
794.50	233.16
794.82	233.16
795.14	233.27
795.47	233.48
795.79	233.46
796.11	233.25
796.43	233.33
796.75	233.18
797.07	233.09
797.39	233.03
797.71	232.29
798.04	232.41
798.36	232.41
798.68	232.30
799.00	232.26
799.32	231.65
799.64	231.89
799.96	231.85
800.28	232.03
800.60	231.98
800.92	231.92
801.24	231.90
801.56	231.93
801.89	231.69
802.21	231.74
802.53	231.55
802.85	231.71
803.17	232.04
803.49	231.95
803.81	231.88
804.13	231.81
804.45	231.74
804.77	231.68
805.09	231.75
805.41	231.63
805.73	231.50
806.05	231.38
806.37	231.22
806.69	231.11
807.01	230.94
807.33	231.05
807.65	230.72
807.97	231.14
808.28	230.99
808.60	231.16
808.92	230.93
809.24	231.60
809.56	231.45
809.88	231.07
810.20	231.08
810.52	231.18
810.84	230.96
811.16	230.77
811.48	230.76
811.80	230.95
812.12	230.94
812.43	231.20
812.75	231.21
813.07	231.10
813.39	231.15
813.71	230.91
814.03	230.76
814.35	230.89
814.67	230.47
814.98	230.37
815.30	230.30
815.62	230.03
815.94	229.28
816.26	229.70
816.58	229.67
816.89	229.64
817.21	229.55
817.53	229.67
817.85	229.89
818.17	229.85
818.48	229.55
818.80	229.70
819.12	229.43
819.44	229.24
819.76	229.25
820.07	229.27
820.39	229.44
820.71	229.48
821.03	229.43
821.34	229.33
821.66	229.47
821.98	229.55
822.30	229.67
822.61	230.36
822.93	229.82
823.25	229.65
823.57	229.63
823.88	229.74
824.20	229.72
824.52	229.70
824.83	229.70
825.15	229.60
825.47	229.64
825.79	229.79
826.10	229.87
826.42	229.84
826.74	229.80
827.05	229.60
827.37	229.69
827.69	229.61
828.00	229.73
828.32	229.82
828.64	229.64
828.95	230.16
829.27	229.74
829.58	229.79
829.90	230.00
830.22	230.02
830.53	229.76
830.85	229.70
831.17	229.40
831.48	229.39
831.80	229.44
832.11	229.33
832.43	229.09
832.75	229.00
833.06	229.53
833.38	229.33
833.69	229.34
834.01	229.42
834.32	229.42
834.64	229.30
834.96	229.23
835.27	229.30
835.59	228.95
835.90	228.80
836.22	228.83
836.53	228.50
836.85	228.41
837.16	229.41
837.48	229.43
837.79	229.83
838.11	229.81
838.42	229.80
838.74	229.92
839.05	229.88
839.37	229.89
839.68	229.32
840.00	229.31
840.31	229.50
840.63	229.41
840.94	229.26
841.26	229.18
841.57	229.11
841.88	229.24
842.20	229.13
842.51	229.15
842.83	229.19
843.14	230.22
843.46	230.23
843.77	229.75
844.08	229.68
844.40	229.37
844.71	229.40
845.03	229.25
845.34	229.13
845.65	229.20
845.97	229.13
846.28	229.20
846.60	229.15
846.91	229.02
847.22	228.90
847.54	229.18
847.85	229.23
848.16	229.22
848.48	228.90
848.79	229.29
849.10	229.32
849.42	229.32
849.73	228.29
850.04	228.27
850.36	227.88
850.67	228.00
850.98	228.06
851.30	228.02
851.61	228.12
851.92	228.20
852.23	228.44
852.55	228.52
852.86	228.52
853.17	228.66
853.49	228.77
853.80	228.91
854.11	228.87
854.42	228.97
854.74	228.83
855.05	228.91
855.36	228.30
855.67	228.29
855.99	228.22
856.30	229.37
856.61	229.30
856.92	229.34
857.23	229.32
857.55	229.16
857.86	229.18
858.17	229.25
858.48	228.97
858.79	228.73
859.11	228.86
859.42	228.67
859.73	228.58
860.04	228.59
860.35	228.40
860.66	228.20
860.98	228.04
861.29	228.21
861.60	228.17
861.91	228.43
862.22	228.30
862.53	228.14
862.84	227.05
863.16	227.33
863.47	227.13
863.78	226.98
864.09	227.13
864.40	227.17
864.71	227.16
865.02	227.29
865.33	227.19
865.64	226.91
865.95	227.12
866.27	227.78
866.58	227.70
866.89	227.86
867.20	227.87
867.51	227.87
867.82	227.69
868.13	227.95
868.44	227.70
868.75	227.80
869.06	227.86
869.37	228.09
869.68	227.81
869.99	227.90
870.30	228.10
870.61	228.20
870.92	228.09
871.23	227.99
871.54	228.17
871.85	228.50
872.16	228.61
872.47	228.47
872.78	227.91
873.09	228.03
873.40	227.85
873.71	227.96
874.02	227.99
874.33	228.00
874.64	227.84
874.95	228.11
875.26	227.99
875.56	228.07
875.87	227.95
876.18	227.90
876.49	228.92
876.80	228.84
877.11	228.63
877.42	228.64
877.73	228.70
878.04	228.52
878.35	228.50
878.66	228.49
878.96	228.51
879.27	228.47
879.58	228.32
879.89	228.36
880.20	228.63
880.51	228.59
880.82	228.62
881.12	228.62
881.43	228.36
881.74	228.24
882.05	228.07
882.36	228.19
882.67	228.26
882.97	227.20
883.28	227.08
883.59	227.06
883.90	227.10
884.21	227.20
884.51	227.15
884.82	226.99
885.13	227.12
885.44	227.13
885.74	227.10
886.05	227.19
886.36	227.22
886.67	226.92
886.98	227.43
887.28	227.49
887.59	227.53
887.90	227.63
888.20	227.65
888.51	227.97
888.82	227.74
889.13	227.80
889.43	228.65
889.74	228.70
890.05	228.63
890.35	228.63
890.66	228.48
890.97	228.45
891.28	228.28
891.58	228.25
891.89	228.25
892.20	228.27
892.50	228.10
892.81	228.09
893.12	228.01
893.42	227.64
893.73	227.63
894.04	227.61
894.34	227.73
894.65	227.66
894.95	227.48
895.26	227.58
895.57	227.98
895.87	227.07
896.18	227.16
896.48	227.30
896.79	227.25
897.10	227.35
897.40	227.40
897.71	227.60
898.01	227.47
898.32	227.50
898.63	227.34
898.93	227.46
899.24	227.39
899.54	227.39
899.85	227.24
900.15	227.25
900.46	227.31
900.76	227.29
901.07	227.32
901.38	227.33
901.68	227.42
901.99	226.90
902.29	226.95
902.60	226.78
902.90	226.68
903.21	226.65
903.51	226.66
903.82	226.83
904.12	226.75
904.43	226.90
904.73	226.79
905.03	227.00
905.34	227.90
905.64	227.87
905.95	227.83
906.25	227.88
906.56	227.95
906.86	227.87
907.17	227.88
907.47	227.95
907.77	227.87
908.08	227.67
908.38	227.79
908.69	227.94
908.99	228.15
909.30	228.17
909.60	228.23
909.90	228.20
910.21	228.02
910.51	227.94
910.81	227.84
911.12	228.00
911.42	227.88
911.73	226.89
912.03	227.03
912.33	227.27
912.64	227.31
912.94	227.14
913.24	227.00
913.55	226.94
913.85	226.96
914.15	227.14
914.46	227.39
914.76	227.30
915.06	227.22
915.37	227.06
915.67	227.15
915.97	227.15
916.27	226.85
916.58	226.87
916.88	226.91
917.18	226.88
917.49	227.44
917.79	227.47
918.09	227.62
918.39	227.79
918.70	227.59
919.00	227.63
919.30	228.18
919.60	228.22
919.91	228.09
920.21	228.10
920.51	227.87
920.81	227.72
921.12	227.90
921.42	227.91
921.72	227.97
922.02	227.90
922.32	228.02
922.63	228.23
922.93	228.64
923.23	228.57
923.53	228.54
923.83	227.99
924.13	227.97
924.44	227.93
924.74	228.09
925.04	228.32
925.34	228.19
925.64	227.65
925.94	227.59
926.24	228.19
926.55	228.12
926.85	228.37
927.15	228.39
927.45	228.33
927.75	228.24
928.05	228.30
928.35	228.30
928.65	228.45
928.95	228.43
929.26	228.10
929.56	228.42
929.86	228.47
930.16	228.40
930.46	228.40
930.76	228.35
931.06	227.89
931.36	227.70
931.66	227.95
931.96	228.15
932.26	228.18
932.56	227.71
932.86	227.76
933.16	227.75
933.46	227.65
933.76	227.52
934.06	227.81
934.36	228.11
934.66	228.02
934.96	227.86
935.26	228.00
935.56	228.14
935.86	227.86
936.16	227.76
936.46	227.70
936.76	227.77
937.06	227.75
937.36	227.80
937.66	227.92
937.96	227.86
938.26	227.56
938.56	227.55
938.86	227.54
939.16	227.71
939.46	227.74
939.76	227.82
940.06	227.84
940.35	227.62
940.65	227.09
940.95	227.21
941.25	226.97
941.55	226.90
941.85	226.74
942.15	226.96
942.45	227.23
942.75	227.14
943.04	227.20
943.34	227.33
943.64	227.32
943.94	227.09
944.24	227.02
944.54	227.07
944.84	227.01
945.13	226.96
945.43	226.78
945.73	226.67
946.03	226.65
946.33	226.50
946.62	226.42
946.92	226.52
947.22	226.66
947.52	226.76
947.82	226.85
948.11	226.82
948.41	226.56
948.71	226.42
949.01	226.53
949.31	226.35
949.60	226.23
949.90	226.33
950.20	226.36
950.50	226.37
950.79	226.40
951.09	226.62
951.39	226.56
951.69	226.56
951.98	226.78
952.28	226.73
952.58	226.61
952.87	226.65
953.17	226.71
953.47	226.57
953.76	226.58
954.06	226.53
954.36	226.30
954.66	226.35
954.95	226.52
955.25	226.60
955.55	226.77
955.84	226.67
956.14	226.78
956.44	226.84
956.73	226.67
957.03	226.77
957.32	226.72
957.62	226.75
957.92	226.90
958.21	226.88
958.51	227.99
958.81	228.32
959.10	228.42
959.40	228.71
959.69	228.74
959.99	228.91
960.29	228.84
960.58	228.89
960.88	229.30
961.17	229.20
961.47	229.29
961.76	229.14
962.06	229.35
962.36	229.19
962.65	229.20
962.95	229.20
963.24	229.11
963.54	229.15
963.83	229.21
964.13	229.09
964.42	228.83
964.72	228.03
965.01	228.00
965.31	227.93
965.60	227.73
965.90	228.32
966.19	228.07
966.49	228.01
966.78	228.12
967.08	228.05
967.37	228.09
967.67	227.85
967.96	227.97
968.26	227.92
968.55	227.95
968.85	227.90
969.14	227.95
969.43	227.90
969.73	227.82
970.02	227.74
970.32	227.65
970.61	227.64
970.91	227.40
971.20	227.25
971.49	227.06
971.79	227.09
972.08	226.44
972.38	226.53
972.67	226.53
972.96	226.57
973.26	226.33
973.55	226.49
973.85	226.50
974.14	226.54
974.43	226.59
974.73	226.51
975.02	226.47
975.31	226.50
975.61	226.51
975.90	226.40
976.19	226.38
976.49	226.52
976.78	226.70
977.07	226.72
977.37	226.85
977.66	226.98
977.95	226.81
978.24	226.87
978.54	227.10
978.83	227.07
979.12	226.93
979.42	227.00
979.71	226.82
980.00	226.73
980.29	226.66
980.59	226.45
980.88	226.69
981.17	226.59
981.46	226.57
981.76	226.57
982.05	226.90
982.34	226.99
982.63	226.95
982.93	226.81
983.22	226.96
983.51	227.00
983.80	227.17
984.09	227.36
984.39	227.30
984.68	227.08
984.97	227.15
985.26	227.16
985.55	227.10
985.85	226.97
986.14	227.27
986.43	227.40
986.72	227.40
987.01	227.13
987.30	227.24
987.59	227.21
987.89	227.16
988.18	226.84
988.47	226.67
988.76	226.66
989.05	226.62
989.34	226.57
989.63	226.86
989.92	226.71
990.22	226.59
990.51	226.63
990.80	226.65
991.09	226.70
991.38	226.90
991.67	226.80
991.96	226.82
992.25	226.79
992.54	226.63
992.83	226.68
993.12	226.59
993.41	226.73
993.70	227.16
993.99	227.45
994.28	227.68
994.58	227.82
994.87	227.72
995.16	227.69
995.45	227.66
995.74	227.28
996.03	227.40
996.32	227.52
996.61	227.73
996.90	227.68
997.19	227.62
997.48	227.59
997.77	227.54
998.06	227.54
998.34	227.34
998.63	227.33
998.92	227.36
999.21	227.64
999.50	227.68
999.79	227.31
1000.08	227.27
1000.37	227.24
1000.66	227.23
1000.95	227.52
1001.24	227.60
1001.53	227.60
1001.82	227.62
1002.11	227.42
1002.40	227.59
1002.68	227.68
1002.97	228.42
1003.26	228.33
1003.55	228.26
1003.84	228.38
1004.13	228.69
1004.42	228.71
1004.71	228.79
1004.99	228.79
1005.28	229.00
1005.57	228.82
1005.86	228.71
1006.15	228.64
1006.44	228.51
1006.72	228.61
1007.01	228.46
1007.30	228.47
1007.59	228.43
1007.88	228.30
1008.17	228.40
1008.45	228.07
1008.74	227.70
1009.03	227.19
1009.32	227.21
1009.60	227.23
1009.89	227.17
1010.18	226.75
1010.47	226.74
1010.76	226.70
1011.04	226.65
1011.33	226.70
1011.62	226.89
1011.91	226.99
1012.19	227.01
1012.48	226.96
1012.77	227.05
1013.05	227.46
1013.34	227.53
1013.63	227.46
1013.92	227.55
1014.20	227.42
1014.49	227.42
1014.78	227.61
1015.06	227.38
1015.35	227.39
1015.64	227.40
1015.92	227.57
1016.21	227.64
1016.50	227.58
1016.78	227.63
1017.07	227.70
1017.36	227.31
1017.64	227.17
1017.93	227.24
1018.22	227.19
1018.50	227.15
1018.79	226.95
1019.08	226.48
1019.36	226.40
1019.65	226.24
1019.93	226.39
1020.22	226.56
1020.51	227.11
1020.79	226.85
1021.08	226.60
1021.36	224.70
1021.65	225.80
1021.94	226.10
1022.22	226.50
1022.51	222.60
1022.79	229.10
1023.08	227.90
1023.36	237.60
1023.65	223.50
>>>>>End Processed Spectral Data<<<<<
