SpectraSuite Data File
++++++++++++++++++++++++++++++++++++
Date: Wed Sep 04 17:29:44 EDT 2013
User: lab3
Dark Spectrum Present: Yes
Reference Spectrum Present: No
Number of Sampled Component Spectra: 1
Spectrometers: USB2E7196
Integration Time (usec): 337000 (USB2E7196)
Spectra Averaged: 10 (USB2E7196)
Boxcar Smoothing: 10 (USB2E7196)
Correct for Electrical Dark: No (USB2E7196)
Strobe/Lamp Enabled: No (USB2E7196)
Correct for Detector Non-linearity: No (USB2E7196)
Correct for Stray Light: No (USB2E7196)
Number of Pixels in Processed Spectrum: 2048
>>>>>Begin Processed Spectral Data<<<<<
339.09	0.00
339.48	211.60
339.86	214.90
340.24	215.20
340.63	216.50
341.01	234.20
341.39	218.80
341.78	222.70
342.16	226.30
342.54	223.50
342.93	212.92
343.31	223.53
343.69	224.10
344.07	224.58
344.46	225.16
344.84	225.62
345.22	225.20
345.60	225.63
345.99	225.85
346.37	225.94
346.75	226.11
347.13	226.24
347.52	226.40
347.90	226.83
348.28	226.91
348.66	227.09
349.05	226.88
349.43	227.06
349.81	227.17
350.19	227.26
350.57	227.47
350.96	227.66
351.34	227.90
351.72	227.95
352.10	227.97
352.48	227.99
352.87	228.06
353.25	228.22
353.63	228.19
354.01	228.09
354.39	228.15
354.77	228.09
355.15	228.30
355.54	228.17
355.92	227.92
356.30	227.94
356.68	228.74
357.06	228.85
357.44	228.72
357.82	228.85
358.20	229.66
358.58	229.61
358.97	229.69
359.35	229.85
359.73	230.09
360.11	230.23
360.49	230.12
360.87	230.16
361.25	230.25
361.63	230.56
362.01	230.77
362.39	230.75
362.77	230.95
363.15	231.00
363.53	231.06
363.91	231.14
364.29	231.10
364.67	230.20
365.05	230.18
365.43	230.44
365.81	230.61
366.19	230.24
366.57	230.69
366.95	230.54
367.33	230.40
367.71	230.47
368.09	230.61
368.47	230.82
368.85	230.80
369.23	230.95
369.61	230.66
369.99	231.00
370.37	231.07
370.75	231.50
371.13	231.37
371.51	231.31
371.89	231.26
372.27	231.33
372.65	231.48
373.03	231.54
373.41	231.37
373.78	231.27
374.16	230.83
374.54	230.48
374.92	230.51
375.30	230.52
375.68	230.27
376.06	230.30
376.44	230.17
376.82	230.22
377.19	230.14
377.57	230.13
377.95	229.72
378.33	229.50
378.71	228.90
379.09	228.93
379.47	229.01
379.84	228.90
380.22	228.71
380.60	228.38
380.98	228.21
381.36	228.23
381.73	227.97
382.11	228.07
382.49	228.05
382.87	227.77
383.25	227.72
383.62	228.81
384.00	228.50
384.38	228.40
384.76	228.53
385.13	228.78
385.51	228.75
385.89	228.62
386.27	228.65
386.64	228.65
387.02	228.54
387.40	228.33
387.78	228.37
388.15	228.41
388.53	228.41
388.91	228.38
389.29	228.25
389.66	228.40
390.04	228.25
390.42	228.41
390.79	228.55
391.17	228.44
391.55	227.38
391.92	227.43
392.30	227.61
392.68	227.29
393.05	227.20
393.43	227.24
393.81	227.27
394.18	227.21
394.56	227.20
394.94	227.35
395.31	227.36
395.69	227.73
396.06	227.78
396.44	227.85
396.82	227.91
397.19	228.42
397.57	228.40
397.95	228.68
398.32	228.48
398.70	228.59
399.07	228.91
399.45	229.02
399.82	229.15
400.20	229.18
400.58	229.37
400.95	229.25
401.33	229.49
401.70	230.32
402.08	230.52
402.45	230.78
402.83	231.36
403.20	231.66
403.58	231.64
403.95	232.16
404.33	232.56
404.71	233.04
405.08	233.82
405.46	234.26
405.83	234.63
406.21	235.01
406.58	235.59
406.96	236.17
407.33	236.80
407.70	237.51
408.08	239.02
408.45	239.92
408.83	240.81
409.20	241.46
409.58	241.71
409.95	242.87
410.33	243.94
410.70	244.57
411.08	245.76
411.45	246.99
411.82	248.05
412.20	249.64
412.57	251.45
412.95	252.02
413.32	253.83
413.69	255.53
414.07	257.44
414.44	259.41
414.82	261.34
415.19	263.87
415.56	266.29
415.94	268.31
416.31	271.28
416.68	274.06
417.06	277.50
417.43	281.00
417.81	284.60
418.18	288.50
418.55	292.70
418.93	296.98
419.30	301.36
419.67	306.21
420.04	311.03
420.42	315.87
420.79	322.35
421.16	328.25
421.54	334.77
421.91	341.20
422.28	347.81
422.66	354.91
423.03	362.20
423.40	369.52
423.77	377.22
424.15	384.86
424.52	393.20
424.89	402.22
425.26	410.78
425.64	418.96
426.01	427.80
426.38	437.21
426.75	447.09
427.13	457.18
427.50	467.61
427.87	478.36
428.24	489.35
428.61	499.57
428.99	511.41
429.36	523.61
429.73	535.80
430.10	548.29
430.47	561.00
430.85	573.63
431.22	587.45
431.59	602.43
431.96	616.55
432.33	632.11
432.70	647.34
433.08	665.22
433.45	682.23
433.82	699.37
434.19	718.25
434.56	736.83
434.93	754.57
435.30	772.58
435.68	792.78
436.05	812.53
436.42	831.93
436.79	849.88
437.16	869.84
437.53	890.72
437.90	911.24
438.27	931.54
438.64	953.04
439.01	973.25
439.38	991.24
439.75	1008.74
440.13	1028.61
440.50	1047.11
440.87	1062.38
441.24	1078.30
441.61	1095.84
441.98	1108.92
442.35	1124.12
442.72	1139.77
443.09	1154.64
443.46	1163.77
443.83	1170.63
444.20	1176.75
444.57	1184.70
444.94	1188.45
445.31	1192.93
445.68	1197.72
446.05	1200.27
446.42	1198.80
446.79	1197.10
447.16	1194.96
447.53	1193.63
447.90	1186.39
448.27	1179.52
448.64	1169.92
449.01	1163.02
449.37	1149.89
449.74	1137.18
450.11	1122.19
450.48	1105.00
450.85	1087.83
451.22	1073.14
451.59	1058.77
451.96	1045.01
452.33	1026.93
452.70	1010.77
453.07	991.01
453.43	970.26
453.80	950.96
454.17	932.69
454.54	915.03
454.91	896.07
455.28	877.82
455.65	861.25
456.02	845.28
456.38	830.31
456.75	812.44
457.12	797.67
457.49	783.17
457.86	768.61
458.23	756.67
458.59	743.30
458.96	729.95
459.33	718.04
459.70	706.37
460.07	697.03
460.43	686.08
460.80	676.14
461.17	667.74
461.54	658.48
461.91	649.59
462.27	640.57
462.64	633.06
463.01	624.71
463.38	616.59
463.74	607.45
464.11	600.67
464.48	594.49
464.85	587.70
465.21	582.70
465.58	577.35
465.95	570.94
466.32	565.49
466.68	560.15
467.05	555.10
467.42	549.83
467.78	544.35
468.15	539.31
468.52	535.66
468.88	530.36
469.25	525.70
469.62	522.35
469.98	518.42
470.35	514.83
470.72	511.53
471.08	507.63
471.45	504.65
471.82	501.58
472.18	497.89
472.55	495.50
472.92	492.36
473.28	489.63
473.65	487.07
474.02	484.60
474.38	482.61
474.75	480.72
475.11	478.60
475.48	476.99
475.85	475.54
476.21	473.96
476.58	473.00
476.94	472.24
477.31	470.98
477.67	470.10
478.04	469.44
478.41	468.81
478.77	469.34
479.14	468.59
479.50	468.31
479.87	468.57
480.23	468.56
480.60	468.31
480.96	468.20
481.33	469.00
481.69	469.35
482.06	469.62
482.42	469.87
482.79	470.49
483.15	471.08
483.52	472.23
483.88	473.05
484.25	473.97
484.61	475.34
484.98	476.64
485.34	478.32
485.71	479.83
486.07	481.60
486.44	482.62
486.80	484.40
487.17	486.44
487.53	488.91
487.90	491.46
488.26	494.62
488.62	497.84
488.99	500.34
489.35	503.48
489.72	506.94
490.08	510.51
490.44	514.15
490.81	518.11
491.17	521.85
491.54	526.07
491.90	530.40
492.26	534.60
492.63	539.32
492.99	543.97
493.36	549.05
493.72	554.50
494.08	559.85
494.45	565.92
494.81	571.99
495.17	577.67
495.54	583.96
495.90	590.09
496.26	596.46
496.63	603.20
496.99	610.24
497.35	616.91
497.72	624.17
498.08	631.73
498.44	639.44
498.80	647.26
499.17	654.85
499.53	662.57
499.89	670.69
500.26	678.88
500.62	687.38
500.98	696.16
501.34	704.25
501.71	713.13
502.07	721.60
502.43	730.27
502.79	739.14
503.16	748.15
503.52	757.29
503.88	766.17
504.24	775.54
504.60	784.87
504.97	794.75
505.33	804.07
505.69	814.10
506.05	823.72
506.41	833.52
506.78	843.53
507.14	853.67
507.50	863.70
507.86	873.78
508.22	883.64
508.59	893.24
508.95	903.62
509.31	913.97
509.67	923.97
510.03	933.61
510.39	943.58
510.75	953.06
511.12	962.33
511.48	972.42
511.84	981.66
512.20	990.76
512.56	999.80
512.92	1009.56
513.28	1018.43
513.64	1027.53
514.00	1036.22
514.37	1045.14
514.73	1053.92
515.09	1062.65
515.45	1070.66
515.81	1078.96
516.17	1086.86
516.53	1094.45
516.89	1101.48
517.25	1109.04
517.61	1117.52
517.97	1125.60
518.33	1133.30
518.69	1141.39
519.05	1148.63
519.41	1156.17
519.77	1164.36
520.13	1171.38
520.49	1177.70
520.85	1184.32
521.21	1191.17
521.57	1197.87
521.93	1203.50
522.29	1209.48
522.65	1214.80
523.01	1220.72
523.37	1225.58
523.73	1231.15
524.09	1236.10
524.45	1240.90
524.81	1245.76
525.17	1250.11
525.53	1254.08
525.89	1258.67
526.25	1262.50
526.61	1266.05
526.97	1270.30
527.33	1274.12
527.68	1279.38
528.04	1283.69
528.40	1287.78
528.76	1291.49
529.12	1295.40
529.48	1299.54
529.84	1302.85
530.20	1306.93
530.56	1310.79
530.91	1315.01
531.27	1318.77
531.63	1323.11
531.99	1327.09
532.35	1331.04
532.71	1334.84
533.07	1338.94
533.42	1343.16
533.78	1346.99
534.14	1350.92
534.50	1354.09
534.86	1357.88
535.21	1359.96
535.57	1363.20
535.93	1365.62
536.29	1368.68
536.65	1371.74
537.00	1374.88
537.36	1377.90
537.72	1380.28
538.08	1383.08
538.44	1385.58
538.79	1388.26
539.15	1390.63
539.51	1393.71
539.87	1395.61
540.22	1396.95
540.58	1398.86
540.94	1399.59
541.29	1401.01
541.65	1402.54
542.01	1404.39
542.37	1404.39
542.72	1405.20
543.08	1405.87
543.44	1407.33
543.79	1407.31
544.15	1407.70
544.51	1408.50
544.87	1409.05
545.22	1409.66
545.58	1409.68
545.94	1409.67
546.29	1409.36
546.65	1409.10
547.01	1408.03
547.36	1408.12
547.72	1408.61
548.07	1407.98
548.43	1407.91
548.79	1407.48
549.14	1406.87
549.50	1406.46
549.86	1406.34
550.21	1406.37
550.57	1406.34
550.92	1405.38
551.28	1405.21
551.64	1405.06
551.99	1404.50
552.35	1404.11
552.70	1403.80
553.06	1403.63
553.41	1403.57
553.77	1404.08
554.13	1404.11
554.48	1404.79
554.84	1404.94
555.19	1404.65
555.55	1405.54
555.90	1404.89
556.26	1404.41
556.61	1403.57
556.97	1402.26
557.32	1401.96
557.68	1401.71
558.03	1401.45
558.39	1401.07
558.74	1400.70
559.10	1399.63
559.45	1398.60
559.81	1397.52
560.16	1396.29
560.52	1395.10
560.87	1394.16
561.23	1392.45
561.58	1391.56
561.94	1389.41
562.29	1387.40
562.64	1386.20
563.00	1383.45
563.35	1382.51
563.71	1381.83
564.06	1381.21
564.42	1380.11
564.77	1379.05
565.12	1377.91
565.48	1377.25
565.83	1376.24
566.19	1375.21
566.54	1374.08
566.89	1372.64
567.25	1372.06
567.60	1371.60
567.96	1371.42
568.31	1370.88
568.66	1369.71
569.02	1367.45
569.37	1366.21
569.72	1365.19
570.08	1363.13
570.43	1361.39
570.78	1359.41
571.14	1357.50
571.49	1355.25
571.84	1353.80
572.20	1351.60
572.55	1349.33
572.90	1345.92
573.26	1343.57
573.61	1340.70
573.96	1338.26
574.31	1335.75
574.67	1332.30
575.02	1328.67
575.37	1324.52
575.72	1320.11
576.08	1316.92
576.43	1313.76
576.78	1310.27
577.13	1306.56
577.49	1303.05
577.84	1300.27
578.19	1297.15
578.54	1293.53
578.90	1290.80
579.25	1287.61
579.60	1284.25
579.95	1280.53
580.30	1277.07
580.66	1273.00
581.01	1269.45
581.36	1265.47
581.71	1261.78
582.06	1258.80
582.42	1255.27
582.77	1251.58
583.12	1248.79
583.47	1245.06
583.82	1242.01
584.17	1238.69
584.53	1235.66
584.88	1232.24
585.23	1228.27
585.58	1224.15
585.93	1219.89
586.28	1215.49
586.63	1210.75
586.98	1206.17
587.34	1202.24
587.69	1197.93
588.04	1194.43
588.39	1190.69
588.74	1186.51
589.09	1182.85
589.44	1177.97
589.79	1174.16
590.14	1170.66
590.49	1166.62
590.84	1162.55
591.19	1158.59
591.54	1154.51
591.89	1149.98
592.25	1147.12
592.60	1143.21
592.95	1139.23
593.30	1135.40
593.65	1131.35
594.00	1127.01
594.35	1125.78
594.70	1120.97
595.05	1116.95
595.40	1112.70
595.75	1108.06
596.10	1104.13
596.45	1099.90
596.80	1096.05
597.15	1091.65
597.50	1086.96
597.85	1082.72
598.19	1078.71
598.54	1074.10
598.89	1069.39
599.24	1065.60
599.59	1060.30
599.94	1055.80
600.29	1051.58
600.64	1046.91
600.99	1042.44
601.34	1038.96
601.69	1032.19
602.04	1028.01
602.39	1023.89
602.74	1020.15
603.08	1016.08
603.43	1012.47
603.78	1007.99
604.13	1004.00
604.48	999.49
604.83	995.14
605.18	990.73
605.53	986.33
605.87	982.21
606.22	978.70
606.57	974.22
606.92	969.80
607.27	965.92
607.62	961.90
607.96	958.37
608.31	954.61
608.66	950.65
609.01	946.49
609.36	942.97
609.70	938.83
610.05	934.29
610.40	930.61
610.75	925.98
611.10	922.10
611.44	917.61
611.79	913.69
612.14	909.77
612.49	905.62
612.83	901.59
613.18	897.27
613.53	893.07
613.88	888.79
614.22	884.40
614.57	879.87
614.92	875.34
615.27	871.02
615.61	866.67
615.96	862.03
616.31	857.58
616.65	853.47
617.00	849.34
617.35	845.15
617.70	840.62
618.04	836.29
618.39	831.99
618.74	828.22
619.08	824.00
619.43	819.57
619.78	814.91
620.12	810.38
620.47	806.36
620.82	801.88
621.16	797.68
621.51	794.13
621.85	790.30
622.20	786.64
622.55	782.38
622.89	778.31
623.24	774.49
623.59	770.74
623.93	766.75
624.28	762.73
624.62	759.81
624.97	756.43
625.32	752.72
625.66	748.80
626.01	744.91
626.35	741.23
626.70	737.72
627.04	734.83
627.39	731.33
627.73	727.97
628.08	724.51
628.43	720.60
628.77	716.66
629.12	712.86
629.46	709.34
629.81	706.43
630.15	702.91
630.50	699.13
630.84	695.60
631.19	692.10
631.53	688.93
631.88	684.37
632.22	680.29
632.57	677.13
632.91	673.58
633.26	670.28
633.60	666.90
633.95	663.51
634.29	659.41
634.64	655.97
634.98	651.85
635.32	648.71
635.67	646.10
636.01	642.93
636.36	639.44
636.70	636.29
637.05	632.84
637.39	629.92
637.73	626.97
638.08	624.08
638.42	620.53
638.77	617.04
639.11	613.58
639.45	610.09
639.80	606.36
640.14	603.23
640.49	599.72
640.83	596.57
641.17	593.72
641.52	590.61
641.86	587.53
642.20	585.21
642.55	581.87
642.89	578.78
643.23	575.76
643.58	573.65
643.92	570.08
644.26	567.06
644.61	564.10
644.95	561.04
645.29	557.85
645.64	555.29
645.98	552.61
646.32	550.25
646.66	547.67
647.01	544.94
647.35	542.49
647.69	539.89
648.04	537.41
648.38	534.65
648.72	532.10
649.06	529.34
649.41	526.49
649.75	523.77
650.09	521.00
650.43	518.55
650.78	515.25
651.12	513.02
651.46	510.45
651.80	507.82
652.14	505.33
652.49	503.06
652.83	500.53
653.17	497.91
653.51	495.02
653.85	492.71
654.20	490.48
654.54	487.80
654.88	485.36
655.22	483.21
655.56	480.80
655.90	478.57
656.25	476.35
656.59	474.09
656.93	472.11
657.27	470.07
657.61	467.43
657.95	465.45
658.29	462.95
658.64	460.89
658.98	458.45
659.32	456.10
659.66	453.76
660.00	451.60
660.34	449.51
660.68	447.49
661.02	445.34
661.36	443.15
661.70	440.91
662.05	438.82
662.39	436.78
662.73	435.00
663.07	433.56
663.41	431.59
663.75	429.53
664.09	427.40
664.43	425.16
664.77	423.52
665.11	421.39
665.45	419.80
665.79	417.90
666.13	416.16
666.47	414.28
666.81	412.34
667.15	410.32
667.49	408.69
667.83	407.41
668.17	405.82
668.51	404.37
668.85	403.00
669.19	401.94
669.53	400.06
669.87	398.17
670.21	396.10
670.55	394.52
670.89	393.33
671.23	391.75
671.57	390.11
671.91	388.45
672.25	386.99
672.58	385.65
672.92	383.87
673.26	382.43
673.60	381.08
673.94	379.71
674.28	378.47
674.62	377.06
674.96	375.24
675.30	373.85
675.64	372.33
675.97	370.90
676.31	368.95
676.65	367.32
676.99	366.25
677.33	364.78
677.67	363.52
678.01	361.77
678.34	360.48
678.68	359.56
679.02	358.20
679.36	357.09
679.70	355.67
680.04	354.54
680.37	353.40
680.71	352.11
681.05	351.02
681.39	349.81
681.73	348.50
682.06	347.61
682.40	346.39
682.74	345.36
683.08	344.65
683.42	343.60
683.75	342.79
684.09	341.40
684.43	340.42
684.77	339.19
685.10	338.13
685.44	337.07
685.78	335.92
686.12	334.96
686.45	333.66
686.79	332.58
687.13	331.83
687.46	330.80
687.80	330.19
688.14	329.13
688.48	328.18
688.81	327.17
689.15	326.31
689.49	325.17
689.82	324.25
690.16	322.72
690.50	321.70
690.83	320.69
691.17	319.59
691.51	318.65
691.84	317.95
692.18	317.04
692.52	316.05
692.85	315.17
693.19	314.65
693.52	313.92
693.86	313.02
694.20	312.10
694.53	311.19
694.87	310.11
695.21	309.03
695.54	308.10
695.88	307.23
696.21	306.02
696.55	305.26
696.88	304.40
697.22	303.56
697.56	302.93
697.89	302.09
698.23	301.39
698.56	300.55
698.90	299.76
699.23	299.01
699.57	298.40
699.90	297.45
700.24	296.38
700.58	295.71
700.91	295.07
701.25	294.92
701.58	294.93
701.92	294.51
702.25	294.10
702.59	293.34
702.92	292.80
703.26	292.26
703.59	291.70
703.93	291.77
704.26	291.50
704.60	290.87
704.93	290.16
705.26	289.50
705.60	289.02
705.93	288.24
706.27	287.86
706.60	287.57
706.94	287.39
707.27	286.68
707.61	286.10
707.94	285.69
708.27	284.50
708.61	283.22
708.94	282.55
709.28	281.97
709.61	281.47
709.94	280.89
710.28	280.40
710.61	279.85
710.95	278.40
711.28	278.29
711.61	277.62
711.95	277.29
712.28	276.64
712.61	275.95
712.95	275.98
713.28	275.86
713.61	274.97
713.95	274.16
714.28	273.86
714.61	273.37
714.95	272.70
715.28	272.03
715.61	271.59
715.95	271.00
716.28	270.39
716.61	269.99
716.95	269.44
717.28	268.96
717.61	268.54
717.94	268.22
718.28	267.10
718.61	266.80
718.94	266.24
719.27	265.86
719.61	265.68
719.94	264.94
720.27	264.13
720.60	263.80
720.94	263.55
721.27	263.13
721.60	262.87
721.93	262.38
722.27	262.49
722.60	262.37
722.93	261.98
723.26	261.69
723.59	261.25
723.93	261.16
724.26	260.90
724.59	260.57
724.92	260.25
725.25	260.20
725.59	259.73
725.92	259.47
726.25	259.16
726.58	258.81
726.91	258.44
727.24	258.25
727.57	258.02
727.91	257.54
728.24	257.40
728.57	256.98
728.90	256.97
729.23	256.31
729.56	256.32
729.89	256.17
730.22	255.88
730.55	255.65
730.89	255.36
731.22	255.09
731.55	254.71
731.88	254.49
732.21	254.04
732.54	253.80
732.87	253.68
733.20	253.62
733.53	253.45
733.86	253.36
734.19	252.91
734.52	252.85
734.85	253.30
735.18	252.83
735.51	252.92
735.84	252.62
736.17	252.62
736.50	251.83
736.83	252.57
737.16	252.36
737.49	252.28
737.82	251.92
738.15	252.03
738.48	251.81
738.81	251.68
739.14	251.50
739.47	251.33
739.80	251.05
740.13	250.98
740.46	250.56
740.79	250.33
741.12	250.05
741.45	249.72
741.78	249.03
742.11	249.23
742.44	248.71
742.77	248.75
743.10	248.51
743.43	248.38
743.75	247.27
744.08	248.41
744.41	248.02
744.74	247.69
745.07	247.08
745.40	247.12
745.73	247.26
746.06	247.08
746.39	246.99
746.71	246.79
747.04	246.38
747.37	246.23
747.70	246.17
748.03	246.11
748.36	246.02
748.68	245.75
749.01	245.30
749.34	245.26
749.67	245.05
750.00	245.01
750.33	245.53
750.65	245.43
750.98	244.07
751.31	244.02
751.64	244.07
751.97	244.40
752.29	244.27
752.62	243.77
752.95	243.50
753.28	243.31
753.60	243.20
753.93	243.29
754.26	243.22
754.59	242.81
754.91	242.54
755.24	242.31
755.57	242.23
755.90	242.08
756.22	241.84
756.55	241.51
756.88	241.09
757.20	240.32
757.53	239.90
757.86	239.75
758.19	239.67
758.51	239.52
758.84	238.90
759.17	238.64
759.49	238.50
759.82	238.84
760.15	238.84
760.47	238.61
760.80	238.31
761.13	238.31
761.45	238.18
761.78	238.06
762.11	237.91
762.43	237.75
762.76	237.58
763.08	237.60
763.41	237.60
763.74	237.57
764.06	237.40
764.39	237.43
764.71	237.28
765.04	237.04
765.37	236.81
765.69	236.82
766.02	236.71
766.34	236.49
766.67	236.03
767.00	236.06
767.32	236.50
767.65	236.92
767.97	236.80
768.30	236.80
768.62	236.69
768.95	236.52
769.27	236.36
769.60	236.35
769.92	236.14
770.25	235.87
770.57	235.70
770.90	235.68
771.22	235.39
771.55	235.30
771.87	235.34
772.20	235.27
772.52	236.01
772.85	237.05
773.17	237.06
773.50	237.02
773.82	236.82
774.15	236.29
774.47	235.59
774.80	235.35
775.12	235.31
775.45	235.39
775.77	235.39
776.09	235.42
776.42	235.46
776.74	235.67
777.07	235.54
777.39	235.47
777.72	235.31
778.04	235.52
778.36	235.41
778.69	235.42
779.01	235.40
779.33	234.49
779.66	233.40
779.98	233.31
780.31	233.25
780.63	233.58
780.95	233.72
781.28	233.66
781.60	233.68
781.92	233.48
782.25	233.40
782.57	233.39
782.89	233.30
783.22	233.22
783.54	233.00
783.86	233.16
784.19	233.10
784.51	233.38
784.83	233.15
785.16	233.13
785.48	233.04
785.80	233.09
786.12	233.10
786.45	233.09
786.77	233.10
787.09	233.09
787.42	232.72
787.74	232.77
788.06	232.91
788.38	232.85
788.71	232.84
789.03	232.83
789.35	232.90
789.67	232.71
789.99	232.66
790.32	232.54
790.64	232.57
790.96	233.33
791.28	232.90
791.61	232.85
791.93	232.85
792.25	232.84
792.57	233.50
792.89	233.34
793.21	233.32
793.54	233.09
793.86	232.94
794.18	232.87
794.50	232.58
794.82	232.48
795.14	232.52
795.47	232.70
795.79	232.75
796.11	232.40
796.43	232.44
796.75	232.43
797.07	232.45
797.39	232.34
797.71	231.62
798.04	231.77
798.36	231.76
798.68	231.82
799.00	231.82
799.32	231.24
799.64	231.38
799.96	231.38
800.28	231.66
800.60	231.70
800.92	231.79
801.24	231.70
801.56	231.72
801.89	231.58
802.21	231.49
802.53	231.19
802.85	231.50
803.17	231.90
803.49	231.68
803.81	231.52
804.13	231.43
804.45	231.36
804.77	231.34
805.09	231.39
805.41	231.18
805.73	231.01
806.05	230.91
806.37	230.80
806.69	230.61
807.01	230.51
807.33	230.44
807.65	230.04
807.97	230.47
808.28	230.38
808.60	230.31
808.92	230.22
809.24	230.97
809.56	230.78
809.88	230.47
810.20	230.56
810.52	230.70
810.84	230.55
811.16	230.44
811.48	230.39
811.80	230.66
812.12	230.68
812.43	230.75
812.75	230.59
813.07	230.57
813.39	230.63
813.71	230.48
814.03	230.45
814.35	230.59
814.67	230.10
814.98	230.02
815.30	230.09
815.62	229.85
815.94	229.09
816.26	229.57
816.58	229.31
816.89	229.34
817.21	229.09
817.53	229.20
817.85	229.29
818.17	229.30
818.48	229.01
818.80	229.20
819.12	229.05
819.44	229.05
819.76	228.90
820.07	228.90
820.39	228.88
820.71	228.95
821.03	228.84
821.34	228.90
821.66	229.04
821.98	229.08
822.30	229.17
822.61	229.70
822.93	229.20
823.25	229.25
823.57	229.14
823.88	229.40
824.20	229.36
824.52	229.44
824.83	229.44
825.15	229.29
825.47	229.16
825.79	229.25
826.10	229.19
826.42	229.22
826.74	229.24
827.05	229.18
827.37	229.19
827.69	229.10
828.00	229.21
828.32	229.21
828.64	229.12
828.95	229.58
829.27	229.28
829.58	229.22
829.90	229.35
830.22	229.51
830.53	229.30
830.85	229.14
831.17	228.92
831.48	228.89
831.80	228.89
832.11	228.83
832.43	228.75
832.75	228.70
833.06	229.20
833.38	229.00
833.69	229.04
834.01	229.06
834.32	229.10
834.64	228.94
834.96	228.87
835.27	228.93
835.59	228.63
835.90	228.66
836.22	228.69
836.53	228.51
836.85	228.43
837.16	229.32
837.48	229.40
837.79	229.73
838.11	229.73
838.42	229.78
838.74	229.84
839.05	229.76
839.37	229.74
839.68	229.19
840.00	229.23
840.31	229.37
840.63	229.33
840.94	229.21
841.26	229.20
841.57	229.18
841.88	229.29
842.20	229.19
842.51	229.00
842.83	228.94
843.14	229.83
843.46	229.81
843.77	229.31
844.08	229.27
844.40	229.00
844.71	228.84
845.03	228.79
845.34	228.74
845.65	228.74
845.97	228.80
846.28	228.82
846.60	228.83
846.91	228.63
847.22	228.58
847.54	228.88
847.85	228.82
848.16	228.72
848.48	228.42
848.79	228.73
849.10	228.79
849.42	228.84
849.73	227.92
850.04	227.83
850.36	227.43
850.67	227.54
850.98	227.61
851.30	227.69
851.61	227.70
851.92	227.66
852.23	228.03
852.55	228.01
852.86	228.08
853.17	228.21
853.49	228.38
853.80	228.47
854.11	228.51
854.42	228.67
854.74	228.61
855.05	228.66
855.36	228.24
855.67	228.25
855.99	228.25
856.30	229.34
856.61	229.35
856.92	229.54
857.23	229.69
857.55	229.47
857.86	229.49
858.17	229.66
858.48	229.48
858.79	229.31
859.11	229.42
859.42	229.42
859.73	229.24
860.04	229.20
860.35	228.95
860.66	228.71
860.98	228.62
861.29	228.86
861.60	228.80
861.91	229.06
862.22	228.93
862.53	228.80
862.84	227.75
863.16	228.01
863.47	227.80
863.78	227.61
864.09	227.81
864.40	227.81
864.71	227.70
865.02	227.95
865.33	227.69
865.64	227.64
865.95	227.61
866.27	228.17
866.58	228.13
866.89	228.38
867.20	228.47
867.51	228.39
867.82	228.37
868.13	228.73
868.44	228.52
868.75	228.79
869.06	228.85
869.37	228.96
869.68	228.65
869.99	228.67
870.30	228.78
870.61	228.78
870.92	228.66
871.23	228.65
871.54	228.81
871.85	229.16
872.16	229.16
872.47	229.10
872.78	228.59
873.09	228.69
873.40	228.56
873.71	228.51
874.02	228.55
874.33	228.39
874.64	228.21
874.95	228.43
875.26	228.24
875.56	228.29
875.87	228.21
876.18	228.28
876.49	229.27
876.80	229.22
877.11	229.10
877.42	229.10
877.73	229.17
878.04	228.87
878.35	228.79
878.66	228.79
878.96	228.84
879.27	228.86
879.58	228.79
879.89	228.71
880.20	229.00
880.51	228.92
880.82	228.94
881.12	228.96
881.43	228.65
881.74	228.58
882.05	228.45
882.36	228.48
882.67	228.53
882.97	227.59
883.28	227.43
883.59	227.42
883.90	227.62
884.21	227.74
884.51	227.83
884.82	227.66
885.13	227.70
885.44	227.60
885.74	227.55
886.05	227.49
886.36	227.46
886.67	227.18
886.98	227.66
887.28	227.70
887.59	227.65
887.90	227.80
888.20	227.72
888.51	227.89
888.82	227.69
889.13	227.72
889.43	228.43
889.74	228.40
890.05	228.34
890.35	228.06
890.66	227.73
890.97	227.58
891.28	227.58
891.58	227.55
891.89	227.59
892.20	227.51
892.50	227.46
892.81	227.36
893.12	227.25
893.42	226.85
893.73	226.95
894.04	226.97
894.34	226.94
894.65	226.95
894.95	226.90
895.26	226.99
895.57	227.36
895.87	226.50
896.18	226.66
896.48	226.71
896.79	226.84
897.10	227.07
897.40	227.10
897.71	227.15
898.01	226.97
898.32	227.07
898.63	227.04
898.93	227.08
899.24	227.17
899.54	227.11
899.85	227.09
900.15	226.95
900.46	226.97
900.76	227.02
901.07	226.96
901.38	226.92
901.68	227.07
901.99	226.62
902.29	226.72
902.60	226.71
902.90	226.65
903.21	226.66
903.51	226.58
903.82	226.80
904.12	226.75
904.43	226.93
904.73	226.82
905.03	226.89
905.34	227.90
905.64	227.90
905.95	227.92
906.25	227.87
906.56	227.90
906.86	227.87
907.17	227.80
907.47	227.87
907.77	227.87
908.08	227.63
908.38	227.72
908.69	227.74
908.99	227.81
909.30	228.02
909.60	228.08
909.90	228.18
910.21	227.93
910.51	227.87
910.81	227.81
911.12	227.93
911.42	227.97
911.73	226.88
912.03	227.07
912.33	227.29
912.64	227.30
912.94	227.20
913.24	227.06
913.55	227.00
913.85	226.99
914.15	227.12
914.46	227.28
914.76	227.22
915.06	227.21
915.37	227.09
915.67	226.93
915.97	226.81
916.27	226.63
916.58	226.70
916.88	226.63
917.18	226.67
917.49	227.34
917.79	227.31
918.09	227.47
918.39	227.58
918.70	227.59
919.00	227.58
919.30	228.07
919.60	228.10
919.91	228.00
920.21	228.03
920.51	227.78
920.81	227.78
921.12	227.86
921.42	227.85
921.72	228.03
922.02	228.10
922.32	228.38
922.63	228.36
922.93	228.87
923.23	228.99
923.53	228.76
923.83	228.14
924.13	228.19
924.44	228.15
924.74	228.24
925.04	228.30
925.34	228.34
925.64	227.85
925.94	227.74
926.24	228.33
926.55	228.19
926.85	228.40
927.15	228.40
927.45	228.30
927.75	228.25
928.05	228.16
928.35	228.02
928.65	227.98
928.95	228.12
929.26	227.68
929.56	227.81
929.86	228.06
930.16	227.87
930.46	227.80
930.76	227.70
931.06	227.26
931.36	227.11
931.66	227.26
931.96	227.32
932.26	227.45
932.56	226.93
932.86	227.02
933.16	226.92
933.46	226.72
933.76	226.72
934.06	226.91
934.36	227.12
934.66	227.10
934.96	227.06
935.26	227.02
935.56	227.07
935.86	226.75
936.16	226.55
936.46	226.53
936.76	226.55
937.06	226.59
937.36	226.61
937.66	226.68
937.96	226.58
938.26	226.36
938.56	226.22
938.86	226.30
939.16	226.45
939.46	226.62
939.76	226.68
940.06	226.56
940.35	226.33
940.65	225.92
940.95	225.93
941.25	225.66
941.55	225.60
941.85	225.64
942.15	225.95
942.45	226.13
942.75	226.07
943.04	226.10
943.34	226.30
943.64	226.23
943.94	226.10
944.24	226.18
944.54	226.39
944.84	226.49
945.13	226.47
945.43	226.45
945.73	226.33
946.03	226.41
946.33	226.43
946.62	226.50
946.92	226.53
947.22	226.70
947.52	226.97
947.82	227.05
948.11	226.91
948.41	226.71
948.71	226.54
949.01	226.70
949.31	226.65
949.60	226.51
949.90	226.81
950.20	226.80
950.50	226.83
950.79	226.84
951.09	226.95
951.39	226.90
951.69	226.80
951.98	227.06
952.28	227.05
952.58	227.11
952.87	227.17
953.17	227.35
953.47	227.24
953.76	227.15
954.06	227.00
954.36	226.87
954.66	226.98
954.95	227.34
955.25	227.45
955.55	227.52
955.84	227.45
956.14	227.41
956.44	227.37
956.73	227.20
957.03	227.26
957.32	227.18
957.62	227.12
957.92	227.24
958.21	227.10
958.51	228.15
958.81	228.24
959.10	228.26
959.40	228.38
959.69	228.41
959.99	228.53
960.29	228.64
960.58	228.65
960.88	228.98
961.17	228.77
961.47	228.81
961.76	228.63
962.06	228.72
962.36	228.70
962.65	228.90
962.95	228.95
963.24	228.79
963.54	228.87
963.83	228.99
964.13	229.01
964.42	228.76
964.72	228.02
965.01	227.99
965.31	227.94
965.60	227.75
965.90	228.32
966.19	228.01
966.49	227.96
966.78	228.01
967.08	227.84
967.37	227.90
967.67	227.71
967.96	228.03
968.26	227.98
968.55	228.00
968.85	227.81
969.14	227.85
969.43	227.80
969.73	227.70
970.02	227.62
970.32	227.61
970.61	227.60
970.91	227.29
971.20	227.22
971.49	227.08
971.79	227.20
972.08	226.57
972.38	226.73
972.67	226.81
972.96	226.80
973.26	226.68
973.55	226.92
973.85	226.87
974.14	226.68
974.43	226.79
974.73	226.65
975.02	226.55
975.31	226.43
975.61	226.51
975.90	226.42
976.19	226.40
976.49	226.39
976.78	226.50
977.07	226.47
977.37	226.50
977.66	226.68
977.95	226.50
978.24	226.69
978.54	226.86
978.83	226.67
979.12	226.60
979.42	226.55
979.71	226.30
980.00	226.30
980.29	226.34
980.59	226.18
980.88	226.49
981.17	226.61
981.46	226.61
981.76	226.58
982.05	226.93
982.34	227.03
982.63	227.06
982.93	227.05
983.22	227.32
983.51	227.33
983.80	227.47
984.09	227.53
984.39	227.36
984.68	227.29
984.97	227.43
985.26	227.47
985.55	227.54
985.85	227.40
986.14	227.58
986.43	227.70
986.72	227.73
987.01	227.50
987.30	227.48
987.59	227.59
987.89	227.63
988.18	227.30
988.47	227.13
988.76	227.10
989.05	227.11
989.34	226.85
989.63	227.05
989.92	226.90
990.22	226.91
990.51	226.92
990.80	226.92
991.09	227.01
991.38	227.17
991.67	227.16
991.96	227.11
992.25	227.12
992.54	226.98
992.83	226.90
993.12	226.83
993.41	226.92
993.70	227.38
993.99	227.53
994.28	227.82
994.58	228.04
994.87	228.03
995.16	227.93
995.45	228.03
995.74	227.78
996.03	227.90
996.32	228.01
996.61	228.21
996.90	228.03
997.19	227.96
997.48	227.91
997.77	227.81
998.06	228.00
998.34	227.96
998.63	227.99
998.92	228.05
999.21	228.15
999.50	228.22
999.79	227.74
1000.08	227.72
1000.37	227.68
1000.66	227.54
1000.95	227.69
1001.24	227.70
1001.53	227.87
1001.82	227.86
1002.11	227.61
1002.40	227.62
1002.68	227.85
1002.97	228.60
1003.26	228.48
1003.55	228.44
1003.84	228.50
1004.13	228.73
1004.42	228.68
1004.71	228.64
1004.99	228.64
1005.28	228.83
1005.57	228.75
1005.86	228.72
1006.15	228.60
1006.44	228.36
1006.72	228.45
1007.01	228.28
1007.30	228.39
1007.59	228.20
1007.88	228.19
1008.17	228.29
1008.45	228.12
1008.74	227.61
1009.03	227.14
1009.32	227.16
1009.60	227.05
1009.89	226.95
1010.18	226.53
1010.47	226.37
1010.76	226.40
1011.04	226.27
1011.33	226.15
1011.62	226.14
1011.91	226.15
1012.19	226.33
1012.48	226.43
1012.77	226.45
1013.05	226.86
1013.34	226.95
1013.63	226.91
1013.92	226.95
1014.20	226.84
1014.49	226.86
1014.78	227.00
1015.06	226.68
1015.35	226.60
1015.64	226.79
1015.92	226.95
1016.21	226.98
1016.50	227.10
1016.78	227.14
1017.07	227.30
1017.36	227.32
1017.64	227.30
1017.93	227.30
1018.22	227.07
1018.50	226.98
1018.79	226.91
1019.08	226.34
1019.36	226.29
1019.65	226.23
1019.93	226.43
1020.22	226.60
1020.51	227.13
1020.79	227.01
1021.08	224.90
1021.36	225.30
1021.65	226.20
1021.94	223.70
1022.22	228.20
1022.51	225.30
1022.79	230.50
1023.08	228.60
1023.36	237.90
1023.65	224.20
>>>>>End Processed Spectral Data<<<<<
