SpectraSuite Data File
++++++++++++++++++++++++++++++++++++
Date: Wed Sep 04 17:30:04 EDT 2013
User: lab3
Dark Spectrum Present: Yes
Reference Spectrum Present: No
Number of Sampled Component Spectra: 1
Spectrometers: USB2E7196
Integration Time (usec): 337000 (USB2E7196)
Spectra Averaged: 10 (USB2E7196)
Boxcar Smoothing: 10 (USB2E7196)
Correct for Electrical Dark: No (USB2E7196)
Strobe/Lamp Enabled: No (USB2E7196)
Correct for Detector Non-linearity: No (USB2E7196)
Correct for Stray Light: No (USB2E7196)
Number of Pixels in Processed Spectrum: 2048
>>>>>Begin Processed Spectral Data<<<<<
339.09	0.00
339.48	212.30
339.86	214.30
340.24	214.70
340.63	217.70
341.01	231.90
341.39	219.10
341.78	223.80
342.16	225.50
342.54	222.60
342.93	212.82
343.31	223.51
343.69	224.08
344.07	224.47
344.46	225.09
344.84	225.51
345.22	225.21
345.60	225.57
345.99	225.71
346.37	225.80
346.75	225.87
347.13	225.95
347.52	226.03
347.90	226.44
348.28	226.44
348.66	226.69
349.05	226.30
349.43	226.54
349.81	226.68
350.19	226.72
350.57	226.86
350.96	226.98
351.34	227.09
351.72	227.16
352.10	227.30
352.48	227.26
352.87	227.28
353.25	227.30
353.63	227.34
354.01	227.34
354.39	227.40
354.77	227.50
355.15	227.77
355.54	227.64
355.92	227.34
356.30	227.40
356.68	228.03
357.06	228.20
357.44	227.99
357.82	228.03
358.20	228.92
358.58	228.85
358.97	228.96
359.35	229.20
359.73	229.50
360.11	229.56
360.49	229.64
360.87	229.73
361.25	229.84
361.63	230.20
362.01	230.32
362.39	230.35
362.77	230.50
363.15	230.52
363.53	230.69
363.91	230.83
364.29	230.83
364.67	230.01
365.05	230.10
365.43	230.32
365.81	230.49
366.19	230.19
366.57	230.73
366.95	230.68
367.33	230.53
367.71	230.37
368.09	230.67
368.47	230.70
368.85	230.59
369.23	230.85
369.61	230.51
369.99	230.87
370.37	230.96
370.75	231.35
371.13	231.10
371.51	230.89
371.89	230.92
372.27	230.93
372.65	231.02
373.03	230.99
373.41	230.88
373.78	230.88
374.16	230.36
374.54	229.92
374.92	229.80
375.30	229.80
375.68	229.66
376.06	229.62
376.44	229.44
376.82	229.52
377.19	229.42
377.57	229.33
377.95	228.87
378.33	228.71
378.71	228.18
379.09	228.31
379.47	228.43
379.84	228.22
380.22	228.10
380.60	227.77
380.98	227.65
381.36	227.53
381.73	227.23
382.11	227.30
382.49	227.34
382.87	227.20
383.25	227.08
383.62	228.17
384.00	227.87
384.38	227.90
384.76	228.05
385.13	228.34
385.51	228.30
385.89	228.10
386.27	228.07
386.64	228.14
387.02	228.01
387.40	227.86
387.78	227.99
388.15	228.03
388.53	227.95
388.91	227.84
389.29	227.81
389.66	227.97
390.04	227.80
390.42	227.98
390.79	228.07
391.17	228.15
391.55	227.00
391.92	227.04
392.30	227.13
392.68	226.90
393.05	226.85
393.43	226.91
393.81	227.06
394.18	226.99
394.56	227.00
394.94	227.24
395.31	227.20
395.69	227.51
396.06	227.64
396.44	227.83
396.82	227.90
397.19	228.43
397.57	228.44
397.95	228.71
398.32	228.35
398.70	228.47
399.07	228.67
399.45	228.83
399.82	228.89
400.20	228.89
400.58	229.04
400.95	228.74
401.33	229.01
401.70	229.90
402.08	230.10
402.45	230.30
402.83	230.60
403.20	230.92
403.58	231.01
403.95	231.41
404.33	231.72
404.71	232.11
405.08	233.03
405.46	233.40
405.83	233.78
406.21	234.39
406.58	234.94
406.96	235.36
407.33	235.99
407.70	236.70
408.08	238.10
408.45	238.85
408.83	239.72
409.20	240.36
409.58	240.44
409.95	241.48
410.33	242.42
410.70	243.12
411.08	244.37
411.45	245.55
411.82	246.50
412.20	248.05
412.57	249.91
412.95	250.34
413.32	251.89
413.69	253.39
414.07	254.93
414.44	256.66
414.82	258.65
415.19	260.80
415.56	262.96
415.94	264.71
416.31	267.49
416.68	270.15
417.06	273.23
417.43	276.49
417.81	279.80
418.18	283.30
418.55	287.07
418.93	290.89
419.30	294.90
419.67	299.22
420.04	303.54
420.42	307.92
420.79	313.90
421.16	319.21
421.54	325.18
421.91	331.16
422.28	337.15
422.66	343.43
423.03	350.18
423.40	356.68
423.77	363.80
424.15	370.62
424.52	378.01
424.89	386.24
425.26	393.87
425.64	401.28
426.01	409.55
426.38	418.02
426.75	427.12
427.13	436.21
427.50	445.78
427.87	455.47
428.24	465.38
428.61	474.55
428.99	485.38
429.36	496.58
429.73	507.69
430.10	518.79
430.47	530.40
430.85	541.83
431.22	554.45
431.59	568.31
431.96	581.27
432.33	595.43
432.70	609.07
433.08	625.39
433.45	640.76
433.82	655.94
434.19	673.28
434.56	689.88
434.93	705.81
435.30	722.18
435.68	740.19
436.05	757.80
436.42	775.21
436.79	791.28
437.16	809.26
437.53	828.10
437.90	847.00
438.27	865.42
438.64	884.78
439.01	903.06
439.38	918.72
439.75	934.57
440.13	952.55
440.50	969.35
440.87	983.04
441.24	997.60
441.61	1013.82
441.98	1025.80
442.35	1039.15
442.72	1053.14
443.09	1066.61
443.46	1075.22
443.83	1081.43
444.20	1087.09
444.57	1094.36
444.94	1097.94
445.31	1101.73
445.68	1105.80
446.05	1107.64
446.42	1106.37
446.79	1104.68
447.16	1102.86
447.53	1101.44
447.90	1094.59
448.27	1088.45
448.64	1079.56
449.01	1072.80
449.37	1060.53
449.74	1048.65
450.11	1035.59
450.48	1020.16
450.85	1004.15
451.22	990.51
451.59	977.51
451.96	965.03
452.33	948.52
452.70	933.70
453.07	915.87
453.43	897.42
453.80	880.12
454.17	863.56
454.54	847.67
454.91	830.70
455.28	814.21
455.65	799.05
456.02	784.61
456.38	771.56
456.75	755.60
457.12	741.91
457.49	728.72
457.86	715.46
458.23	704.92
458.59	693.20
458.96	681.22
459.33	670.63
459.70	659.99
460.07	651.68
460.43	641.70
460.80	632.80
461.17	625.05
461.54	616.70
461.91	608.68
462.27	600.40
462.64	593.40
463.01	585.90
463.38	579.03
463.74	570.40
464.11	564.02
464.48	558.31
464.85	552.50
465.21	548.01
465.58	542.99
465.95	536.84
466.32	532.01
466.68	527.14
467.05	522.47
467.42	517.74
467.78	512.71
468.15	508.01
468.52	504.51
468.88	499.66
469.25	495.59
469.62	492.56
469.98	489.19
470.35	486.06
470.72	482.91
471.08	479.23
471.45	476.71
471.82	473.86
472.18	470.77
472.55	468.62
472.92	465.98
473.28	463.77
473.65	461.49
474.02	459.26
474.38	457.51
474.75	455.88
475.11	453.94
475.48	452.48
475.85	451.10
476.21	449.59
476.58	448.45
476.94	447.57
477.31	446.32
477.67	445.32
478.04	444.51
478.41	444.05
478.77	444.59
479.14	443.76
479.50	443.47
479.87	443.28
480.23	443.09
480.60	442.67
480.96	442.32
481.33	442.91
481.69	443.04
482.06	443.15
482.42	443.30
482.79	443.63
483.15	444.15
483.52	445.14
483.88	445.95
484.25	446.85
484.61	447.70
484.98	448.89
485.34	450.46
485.71	452.00
486.07	453.33
486.44	453.82
486.80	455.58
487.17	457.18
487.53	459.54
487.90	461.59
488.26	464.26
488.62	466.87
488.99	469.01
489.35	471.55
489.72	474.57
490.08	477.21
490.44	480.39
490.81	483.84
491.17	487.04
491.54	490.59
491.90	494.21
492.26	498.00
492.63	501.91
492.99	505.75
493.36	509.72
493.72	514.15
494.08	518.79
494.45	523.55
494.81	528.81
495.17	533.52
495.54	538.74
495.90	543.82
496.26	549.07
496.63	554.66
496.99	560.33
497.35	565.97
497.72	572.38
498.08	578.28
498.44	584.39
498.80	591.12
499.17	597.50
499.53	603.84
499.89	610.69
500.26	617.30
500.62	623.95
500.98	631.09
501.34	637.95
501.71	645.14
502.07	652.01
502.43	658.78
502.79	665.83
503.16	673.07
503.52	680.09
503.88	687.29
504.24	694.77
504.60	702.30
504.97	710.14
505.33	717.48
505.69	725.80
506.05	733.34
506.41	740.42
506.78	747.78
507.14	755.29
507.50	762.96
507.86	770.48
508.22	778.05
508.59	785.29
508.95	793.16
509.31	801.09
509.67	808.66
510.03	816.00
510.39	823.43
510.75	830.54
511.12	837.84
511.48	845.12
511.84	851.74
512.20	858.67
512.56	865.30
512.92	872.16
513.28	878.65
513.64	885.15
514.00	891.88
514.37	898.63
514.73	905.15
515.09	911.00
515.45	917.22
515.81	922.90
516.17	928.91
516.53	934.30
516.89	939.18
517.25	945.08
517.61	951.25
517.97	957.00
518.33	962.56
518.69	968.08
519.05	973.51
519.41	978.94
519.77	984.49
520.13	989.56
520.49	994.00
520.85	998.62
521.21	1003.78
521.57	1008.65
521.93	1012.44
522.29	1016.91
522.65	1021.04
523.01	1024.87
523.37	1028.90
523.73	1032.87
524.09	1036.53
524.45	1040.16
524.81	1043.43
525.17	1046.61
525.53	1049.80
525.89	1053.26
526.25	1056.56
526.61	1058.97
526.97	1062.09
527.33	1065.12
527.68	1069.17
528.04	1072.69
528.40	1075.68
528.76	1078.33
529.12	1081.05
529.48	1084.80
529.84	1087.45
530.20	1090.84
530.56	1094.06
530.91	1097.44
531.27	1100.31
531.63	1103.74
531.99	1107.09
532.35	1110.40
532.71	1113.51
533.07	1116.84
533.42	1120.88
533.78	1123.86
534.14	1127.66
534.50	1130.84
534.86	1134.17
535.21	1136.37
535.57	1139.28
535.93	1141.76
536.29	1145.07
536.65	1148.45
537.00	1150.89
537.36	1154.00
537.72	1156.37
538.08	1159.41
538.44	1162.14
538.79	1165.10
539.15	1167.73
539.51	1170.68
539.87	1172.91
540.22	1174.97
540.58	1177.37
540.94	1178.74
541.29	1180.87
541.65	1182.45
542.01	1184.60
542.37	1185.89
542.72	1187.18
543.08	1188.58
543.44	1190.81
543.79	1191.85
544.15	1193.08
544.51	1194.92
544.87	1196.42
545.22	1198.12
545.58	1199.19
545.94	1200.02
546.29	1200.61
546.65	1201.29
547.01	1201.70
547.36	1202.67
547.72	1203.80
548.07	1204.32
548.43	1205.02
548.79	1205.94
549.14	1207.00
549.50	1207.87
549.86	1208.40
550.21	1209.18
550.57	1210.41
550.92	1210.65
551.28	1211.71
551.64	1212.59
551.99	1213.47
552.35	1214.62
552.70	1215.47
553.06	1216.28
553.41	1217.62
553.77	1219.44
554.13	1220.90
554.48	1222.21
554.84	1223.49
555.19	1224.54
555.55	1226.66
555.90	1227.42
556.26	1227.93
556.61	1228.28
556.97	1227.91
557.32	1228.72
557.68	1229.59
558.03	1230.12
558.39	1230.96
558.74	1231.42
559.10	1231.53
559.45	1231.72
559.81	1231.30
560.16	1231.08
560.52	1231.29
560.87	1231.48
561.23	1230.73
561.58	1230.94
561.94	1230.45
562.29	1229.71
562.64	1229.66
563.00	1228.22
563.35	1228.17
563.71	1227.91
564.06	1228.16
564.42	1228.71
564.77	1228.75
565.12	1228.95
565.48	1229.61
565.83	1229.70
566.19	1229.78
566.54	1229.61
566.89	1229.40
567.25	1229.64
567.60	1230.21
567.96	1230.88
568.31	1231.24
568.66	1231.55
569.02	1230.49
569.37	1230.24
569.72	1230.19
570.08	1229.16
570.43	1228.27
570.78	1227.21
571.14	1226.39
571.49	1225.20
571.84	1224.14
572.20	1222.84
572.55	1221.39
572.90	1219.02
573.26	1217.50
573.61	1215.26
573.96	1213.75
574.31	1211.95
574.67	1209.59
575.02	1206.83
575.37	1203.54
575.72	1200.24
576.08	1197.33
576.43	1194.98
576.78	1192.33
577.13	1189.84
577.49	1187.27
577.84	1185.20
578.19	1183.26
578.54	1181.25
578.90	1179.16
579.25	1176.85
579.60	1174.45
579.95	1171.81
580.30	1169.32
580.66	1166.54
581.01	1164.01
581.36	1160.62
581.71	1157.56
582.06	1155.07
582.42	1152.61
582.77	1149.93
583.12	1147.36
583.47	1144.82
583.82	1142.36
584.17	1139.85
584.53	1137.47
584.88	1134.59
585.23	1131.81
585.58	1128.37
585.93	1124.83
586.28	1121.79
586.63	1118.28
586.98	1114.77
587.34	1111.52
587.69	1108.06
588.04	1104.86
588.39	1102.06
588.74	1098.97
589.09	1096.45
589.44	1092.82
589.79	1089.44
590.14	1086.46
590.49	1083.34
590.84	1080.19
591.19	1077.00
591.54	1073.47
591.89	1069.60
592.25	1067.78
592.60	1064.54
592.95	1061.25
593.30	1058.01
593.65	1053.89
594.00	1050.26
594.35	1049.57
594.70	1045.93
595.05	1042.33
595.40	1038.59
595.75	1034.50
596.10	1031.00
596.45	1026.99
596.80	1023.59
597.15	1020.01
597.50	1016.25
597.85	1012.97
598.19	1009.10
598.54	1004.88
598.89	1001.00
599.24	997.71
599.59	992.99
599.94	988.90
600.29	985.01
600.64	981.40
600.99	977.90
601.34	974.77
601.69	968.39
602.04	964.76
602.39	961.32
602.74	958.10
603.08	954.83
603.43	951.74
603.78	948.01
604.13	944.39
604.48	940.64
604.83	936.75
605.18	932.58
605.53	928.90
605.87	925.32
606.22	922.17
606.57	918.27
606.92	914.41
607.27	910.72
607.62	907.11
607.96	903.56
608.31	900.30
608.66	896.52
609.01	893.16
609.36	889.75
609.70	885.92
610.05	881.90
610.40	878.12
610.75	874.00
611.10	870.34
611.44	866.48
611.79	862.62
612.14	859.12
612.49	855.40
612.83	851.98
613.18	848.36
613.53	844.67
613.88	840.75
614.22	836.85
614.57	833.10
614.92	829.09
615.27	825.40
615.61	821.30
615.96	817.44
616.31	813.51
616.65	809.65
617.00	806.23
617.35	802.58
617.70	798.72
618.04	795.04
618.39	791.45
618.74	788.27
619.08	784.81
619.43	781.01
619.78	777.21
620.12	773.25
620.47	769.39
620.82	765.20
621.16	761.52
621.51	758.21
621.85	754.50
622.20	751.11
622.55	747.14
622.89	743.55
623.24	740.05
623.59	736.40
623.93	732.97
624.28	729.21
624.62	726.72
624.97	723.81
625.32	720.19
625.66	716.58
626.01	712.62
626.35	709.04
626.70	705.57
627.04	702.30
627.39	698.60
627.73	695.68
628.08	692.57
628.43	689.20
628.77	685.38
629.12	681.84
629.46	678.75
629.81	676.03
630.15	672.89
630.50	669.57
630.84	666.40
631.19	663.16
631.53	660.25
631.88	655.93
632.22	651.99
632.57	649.38
632.91	646.23
633.26	643.40
633.60	640.27
633.95	636.98
634.29	633.69
634.64	630.79
634.98	627.26
635.32	624.34
635.67	621.62
636.01	618.87
636.36	616.09
636.70	613.45
637.05	610.30
637.39	607.39
637.73	604.46
638.08	601.80
638.42	598.63
638.77	595.45
639.11	592.15
639.45	589.05
639.80	585.58
640.14	582.62
640.49	579.45
640.83	576.45
641.17	573.71
641.52	570.94
641.86	568.28
642.20	566.03
642.55	563.09
642.89	560.10
643.23	557.36
643.58	554.91
643.92	551.49
644.26	548.44
644.61	546.08
644.95	543.38
645.29	540.25
645.64	537.86
645.98	535.14
646.32	533.00
646.66	530.56
647.01	528.03
647.35	525.62
647.69	523.25
648.04	520.81
648.38	518.46
648.72	516.06
649.06	513.40
649.41	510.41
649.75	507.75
650.09	505.30
650.43	502.71
650.78	499.98
651.12	497.64
651.46	495.32
651.80	492.46
652.14	490.13
652.49	488.23
652.83	485.83
653.17	483.56
653.51	481.06
653.85	478.93
654.20	476.78
654.54	474.23
654.88	471.79
655.22	469.96
655.56	467.73
655.90	465.38
656.25	463.27
656.59	461.30
656.93	459.36
657.27	457.54
657.61	455.15
657.95	453.09
658.29	451.04
658.64	449.19
658.98	447.17
659.32	444.83
659.66	442.53
660.00	440.44
660.34	438.35
660.68	436.34
661.02	434.10
661.36	432.13
661.70	430.22
662.05	428.46
662.39	426.59
662.73	424.87
663.07	423.46
663.41	421.68
663.75	419.59
664.09	417.88
664.43	415.60
664.77	414.01
665.11	412.20
665.45	410.63
665.79	408.78
666.13	407.02
666.47	405.36
666.81	403.66
667.15	401.83
667.49	400.48
667.83	399.13
668.17	397.66
668.51	396.04
668.85	394.70
669.19	393.70
669.53	391.85
669.87	390.14
670.21	388.39
670.55	386.87
670.89	386.00
671.23	384.37
671.57	383.04
671.91	381.70
672.25	380.36
672.58	379.16
672.92	377.62
673.26	376.33
673.60	375.15
673.94	373.88
674.28	372.60
674.62	371.31
674.96	369.91
675.30	368.75
675.64	367.49
675.97	366.00
676.31	364.26
676.65	362.99
676.99	362.00
677.33	360.59
677.67	359.41
678.01	357.81
678.34	356.65
678.68	355.70
679.02	354.39
679.36	353.13
679.70	351.66
680.04	350.58
680.37	349.39
680.71	348.19
681.05	347.20
681.39	346.15
681.73	344.93
682.06	343.75
682.40	342.63
682.74	341.61
683.08	340.99
683.42	339.77
683.75	338.91
684.09	337.67
684.43	336.75
684.77	335.57
685.10	334.59
685.44	333.53
685.78	332.54
686.12	331.49
686.45	330.52
686.79	329.45
687.13	328.59
687.46	327.63
687.80	326.83
688.14	325.62
688.48	324.69
688.81	323.64
689.15	322.81
689.49	321.98
689.82	321.10
690.16	319.65
690.50	318.83
690.83	317.80
691.17	316.64
691.51	315.76
691.84	315.02
692.18	314.09
692.52	313.14
692.85	312.18
693.19	311.78
693.52	310.92
693.86	310.06
694.20	309.11
694.53	308.28
694.87	307.29
695.21	306.41
695.54	305.49
695.88	304.61
696.21	303.51
696.55	302.57
696.88	301.61
697.22	300.92
697.56	300.25
697.89	299.33
698.23	298.78
698.56	297.90
698.90	297.18
699.23	296.28
699.57	295.60
699.90	294.70
700.24	293.66
700.58	293.09
700.91	292.54
701.25	292.55
701.58	292.52
701.92	292.15
702.25	291.64
702.59	291.02
702.92	290.53
703.26	290.08
703.59	289.52
703.93	289.75
704.26	289.22
704.60	288.68
704.93	288.14
705.26	287.52
705.60	287.13
705.93	286.39
706.27	286.08
706.60	285.72
706.94	285.60
707.27	285.08
707.61	284.43
707.94	283.93
708.27	282.74
708.61	281.55
708.94	280.81
709.28	280.29
709.61	279.70
709.94	279.17
710.28	278.65
710.61	278.05
710.95	276.73
711.28	276.73
711.61	276.05
711.95	275.68
712.28	275.07
712.61	274.58
712.95	274.65
713.28	274.57
713.61	274.00
713.95	273.21
714.28	272.73
714.61	272.15
714.95	271.54
715.28	270.98
715.61	270.45
715.95	270.10
716.28	269.50
716.61	269.20
716.95	268.75
717.28	268.31
717.61	267.96
717.94	267.47
718.28	266.47
718.61	266.08
718.94	265.54
719.27	265.05
719.61	264.56
719.94	263.84
720.27	262.86
720.60	262.50
720.94	262.09
721.27	261.81
721.60	261.76
721.93	261.44
722.27	261.37
722.60	261.19
722.93	260.67
723.26	260.48
723.59	259.98
723.93	259.69
724.26	259.44
724.59	259.08
724.92	258.94
725.25	258.89
725.59	258.62
725.92	258.54
726.25	258.27
726.58	258.03
726.91	257.66
727.24	257.62
727.57	257.23
727.91	256.90
728.24	256.62
728.57	256.10
728.90	255.88
729.23	255.41
729.56	255.75
729.89	255.59
730.22	255.20
730.55	254.97
730.89	254.79
731.22	254.36
731.55	253.93
731.88	253.61
732.21	253.18
732.54	252.78
732.87	252.41
733.20	252.36
733.53	252.11
733.86	251.98
734.19	251.58
734.52	251.46
734.85	251.78
735.18	251.39
735.51	251.53
735.84	251.40
736.17	251.44
736.50	250.50
736.83	251.35
737.16	251.20
737.49	251.07
737.82	250.63
738.15	250.64
738.48	250.58
738.81	250.20
739.14	249.95
739.47	249.81
739.80	249.55
740.13	249.34
740.46	249.03
740.79	248.68
741.12	248.56
741.45	248.17
741.78	247.51
742.11	247.67
742.44	247.29
742.77	247.22
743.10	246.86
743.43	246.61
743.75	245.48
744.08	246.68
744.41	246.48
744.74	246.32
745.07	246.03
745.40	246.01
745.73	246.39
746.06	246.27
746.39	246.19
746.71	246.08
747.04	245.69
747.37	245.45
747.70	245.46
748.03	245.32
748.36	245.48
748.68	245.34
749.01	244.87
749.34	244.60
749.67	244.41
750.00	244.43
750.33	245.10
750.65	244.97
750.98	243.58
751.31	243.50
751.64	243.40
751.97	243.69
752.29	243.53
752.62	242.90
752.95	242.72
753.28	242.46
753.60	242.22
753.93	242.51
754.26	242.58
754.59	242.14
754.91	241.89
755.24	241.67
755.57	241.62
755.90	241.45
756.22	241.33
756.55	241.12
756.88	240.70
757.20	239.92
757.53	239.57
757.86	239.36
758.19	239.33
758.51	239.23
758.84	238.82
759.17	238.47
759.49	238.40
759.82	238.77
760.15	238.75
760.47	238.63
760.80	238.26
761.13	238.19
761.45	238.11
761.78	238.06
762.11	238.00
762.43	237.67
762.76	237.57
763.08	237.59
763.41	237.49
763.74	237.50
764.06	237.49
764.39	237.51
764.71	237.34
765.04	237.00
765.37	236.93
765.69	236.78
766.02	236.75
766.34	236.57
766.67	236.06
767.00	236.18
767.32	236.68
767.65	237.10
767.97	236.94
768.30	236.90
768.62	236.81
768.95	236.63
769.27	236.62
769.60	236.71
769.92	236.48
770.25	236.28
770.57	236.01
770.90	235.88
771.22	235.68
771.55	235.72
771.87	235.72
772.20	235.51
772.52	236.17
772.85	237.33
773.17	237.38
773.50	237.25
773.82	237.09
774.15	236.59
774.47	236.01
774.80	235.98
775.12	235.90
775.45	235.81
775.77	235.73
776.09	235.69
776.42	235.61
776.74	235.73
777.07	235.62
777.39	235.64
777.72	235.40
778.04	235.44
778.36	235.20
778.69	235.22
779.01	235.22
779.33	234.30
779.66	233.21
779.98	233.18
780.31	233.27
780.63	233.49
780.95	233.50
781.28	233.40
781.60	233.16
781.92	233.18
782.25	233.10
782.57	233.00
782.89	232.84
783.22	232.74
783.54	232.54
783.86	232.63
784.19	232.55
784.51	232.90
784.83	232.71
785.16	232.65
785.48	232.58
785.80	232.63
786.12	232.70
786.45	232.53
786.77	232.43
787.09	232.26
787.42	231.92
787.74	231.94
788.06	231.99
788.38	232.07
788.71	231.91
789.03	231.92
789.35	231.95
789.67	231.85
789.99	231.81
790.32	231.75
790.64	231.82
790.96	232.54
791.28	232.15
791.61	232.10
791.93	232.18
792.25	232.12
792.57	232.70
792.89	232.43
793.21	232.56
793.54	232.52
793.86	232.42
794.18	232.48
794.50	232.26
794.82	232.20
795.14	232.24
795.47	232.41
795.79	232.39
796.11	232.24
796.43	232.25
796.75	232.21
797.07	232.26
797.39	232.10
797.71	231.44
798.04	231.48
798.36	231.57
798.68	231.61
799.00	231.65
799.32	231.13
799.64	231.42
799.96	231.33
800.28	231.48
800.60	231.44
800.92	231.50
801.24	231.51
801.56	231.59
801.89	231.46
802.21	231.42
802.53	231.31
802.85	231.51
803.17	231.83
803.49	231.65
803.81	231.55
804.13	231.47
804.45	231.32
804.77	231.49
805.09	231.42
805.41	231.24
805.73	231.12
806.05	230.93
806.37	230.83
806.69	230.79
807.01	230.69
807.33	230.73
807.65	230.38
807.97	230.80
808.28	230.68
808.60	230.61
808.92	230.45
809.24	230.90
809.56	230.78
809.88	230.57
810.20	230.68
810.52	230.82
810.84	230.78
811.16	230.64
811.48	230.49
811.80	230.90
812.12	230.84
812.43	230.94
812.75	230.95
813.07	230.80
813.39	230.78
813.71	230.61
814.03	230.49
814.35	230.46
814.67	230.03
814.98	230.05
815.30	230.08
815.62	229.98
815.94	229.50
816.26	229.81
816.58	229.57
816.89	229.60
817.21	229.42
817.53	229.43
817.85	229.58
818.17	229.51
818.48	229.07
818.80	229.42
819.12	229.24
819.44	229.12
819.76	229.01
820.07	229.05
820.39	229.07
820.71	229.19
821.03	229.29
821.34	229.24
821.66	229.29
821.98	229.27
822.30	229.24
822.61	229.79
822.93	229.38
823.25	229.41
823.57	229.42
823.88	229.50
824.20	229.55
824.52	229.63
824.83	229.64
825.15	229.63
825.47	229.43
825.79	229.50
826.10	229.46
826.42	229.40
826.74	229.40
827.05	229.34
827.37	229.36
827.69	229.20
828.00	229.23
828.32	229.19
828.64	229.20
828.95	229.82
829.27	229.44
829.58	229.40
829.90	229.59
830.22	229.56
830.53	229.35
830.85	229.30
831.17	229.11
831.48	229.18
831.80	229.21
832.11	229.09
832.43	229.07
832.75	229.12
833.06	229.75
833.38	229.51
833.69	229.50
834.01	229.55
834.32	229.50
834.64	229.37
834.96	229.40
835.27	229.40
835.59	229.03
835.90	228.92
836.22	228.90
836.53	228.70
836.85	228.60
837.16	229.61
837.48	229.55
837.79	229.80
838.11	229.88
838.42	229.80
838.74	229.89
839.05	229.73
839.37	229.66
839.68	229.07
840.00	229.07
840.31	229.26
840.63	229.12
840.94	229.12
841.26	229.10
841.57	229.02
841.88	229.08
842.20	228.91
842.51	228.82
842.83	228.85
843.14	229.69
843.46	229.74
843.77	229.13
844.08	229.11
844.40	228.82
844.71	228.66
845.03	228.68
845.34	228.60
845.65	228.58
845.97	228.48
846.28	228.53
846.60	228.59
846.91	228.45
847.22	228.43
847.54	228.67
847.85	228.66
848.16	228.57
848.48	228.42
848.79	228.74
849.10	228.80
849.42	228.79
849.73	228.01
850.04	227.95
850.36	227.64
850.67	227.69
850.98	227.76
851.30	227.75
851.61	227.68
851.92	227.84
852.23	228.19
852.55	228.34
852.86	228.33
853.17	228.43
853.49	228.54
853.80	228.77
854.11	228.86
854.42	228.97
854.74	228.88
855.05	228.88
855.36	228.40
855.67	228.50
855.99	228.48
856.30	229.59
856.61	229.55
856.92	229.54
857.23	229.57
857.55	229.43
857.86	229.34
858.17	229.46
858.48	229.18
858.79	228.94
859.11	228.98
859.42	228.90
859.73	228.75
860.04	228.75
860.35	228.46
860.66	228.17
860.98	228.17
861.29	228.45
861.60	228.37
861.91	228.61
862.22	228.47
862.53	228.36
862.84	227.22
863.16	227.53
863.47	227.37
863.78	227.30
864.09	227.41
864.40	227.45
864.71	227.40
865.02	227.60
865.33	227.47
865.64	227.27
865.95	227.36
866.27	228.03
866.58	227.90
866.89	228.01
867.20	227.92
867.51	227.66
867.82	227.54
868.13	227.89
868.44	227.66
868.75	227.80
869.06	227.91
869.37	228.00
869.68	227.68
869.99	227.89
870.30	227.97
870.61	228.10
870.92	227.97
871.23	227.93
871.54	228.10
871.85	228.35
872.16	228.55
872.47	228.49
872.78	227.89
873.09	228.04
873.40	227.89
873.71	228.02
874.02	228.15
874.33	228.00
874.64	227.68
874.95	227.92
875.26	227.73
875.56	227.71
875.87	227.68
876.18	227.65
876.49	228.66
876.80	228.67
877.11	228.49
877.42	228.64
877.73	228.65
878.04	228.41
878.35	228.50
878.66	228.45
878.96	228.45
879.27	228.44
879.58	228.32
879.89	228.27
880.20	228.48
880.51	228.47
880.82	228.52
881.12	228.68
881.43	228.55
881.74	228.45
882.05	228.40
882.36	228.41
882.67	228.50
882.97	227.33
883.28	227.14
883.59	227.16
883.90	227.25
884.21	227.41
884.51	227.37
884.82	227.15
885.13	227.12
885.44	227.12
885.74	227.09
886.05	227.10
886.36	227.17
886.67	226.84
886.98	227.29
887.28	227.35
887.59	227.36
887.90	227.35
888.20	227.34
888.51	227.53
888.82	227.46
889.13	227.47
889.43	228.40
889.74	228.33
890.05	228.24
890.35	228.12
890.66	227.91
890.97	227.86
891.28	227.80
891.58	227.93
891.89	227.87
892.20	227.80
892.50	227.71
892.81	227.78
893.12	227.79
893.42	227.36
893.73	227.36
894.04	227.30
894.34	227.43
894.65	227.47
894.95	227.31
895.26	227.28
895.57	227.72
895.87	226.89
896.18	227.07
896.48	227.22
896.79	227.19
897.10	227.41
897.40	227.56
897.71	227.71
898.01	227.59
898.32	227.86
898.63	227.86
898.93	227.94
899.24	227.92
899.54	227.89
899.85	227.94
900.15	227.90
900.46	228.06
900.76	228.10
901.07	228.10
901.38	228.06
901.68	228.24
901.99	227.78
902.29	227.82
902.60	227.80
902.90	227.69
903.21	227.80
903.51	227.73
903.82	227.86
904.12	227.82
904.43	227.88
904.73	227.80
905.03	227.91
905.34	228.82
905.64	228.84
905.95	228.85
906.25	228.75
906.56	228.65
906.86	228.54
907.17	228.40
907.47	228.47
907.77	228.60
908.08	228.44
908.38	228.44
908.69	228.54
908.99	228.71
909.30	228.76
909.60	228.71
909.90	228.70
910.21	228.44
910.51	228.31
910.81	228.21
911.12	228.17
911.42	228.16
911.73	227.10
912.03	227.08
912.33	227.31
912.64	227.40
912.94	227.36
913.24	227.14
913.55	227.14
913.85	227.06
914.15	227.21
914.46	227.32
914.76	227.31
915.06	227.20
915.37	226.98
915.67	226.80
915.97	226.81
916.27	226.65
916.58	226.70
916.88	226.82
917.18	226.87
917.49	227.55
917.79	227.51
918.09	227.60
918.39	227.91
918.70	227.82
919.00	227.86
919.30	228.39
919.60	228.35
919.91	228.30
920.21	228.32
920.51	228.10
920.81	228.01
921.12	228.16
921.42	228.13
921.72	228.25
922.02	228.36
922.32	228.49
922.63	228.44
922.93	228.83
923.23	228.78
923.53	228.65
923.83	227.97
924.13	228.16
924.44	228.25
924.74	228.29
925.04	228.54
925.34	228.48
925.64	228.04
925.94	228.17
926.24	228.59
926.55	228.60
926.85	228.76
927.15	228.73
927.45	228.72
927.75	228.70
928.05	228.68
928.35	228.65
928.65	228.78
928.95	229.00
929.26	228.65
929.56	228.83
929.86	228.92
930.16	228.86
930.46	228.67
930.76	228.68
931.06	228.31
931.36	228.03
931.66	228.22
931.96	228.37
932.26	228.33
932.56	228.02
932.86	228.09
933.16	227.97
933.46	227.91
933.76	227.66
934.06	227.89
934.36	228.12
934.66	228.16
934.96	227.98
935.26	228.08
935.56	228.27
935.86	228.00
936.16	227.87
936.46	227.83
936.76	227.79
937.06	227.63
937.36	227.67
937.66	227.70
937.96	227.54
938.26	227.30
938.56	227.32
938.86	227.34
939.16	227.49
939.46	227.59
939.76	227.61
940.06	227.59
940.35	227.34
940.65	226.91
940.95	226.88
941.25	226.65
941.55	226.38
941.85	226.30
942.15	226.61
942.45	226.94
942.75	226.87
943.04	226.96
943.34	227.14
943.64	227.08
943.94	226.97
944.24	227.07
944.54	227.17
944.84	227.12
945.13	226.97
945.43	226.72
945.73	226.63
946.03	226.61
946.33	226.66
946.62	226.65
946.92	226.70
947.22	226.81
947.52	227.05
947.82	227.16
948.11	226.98
948.41	226.66
948.71	226.45
949.01	226.57
949.31	226.50
949.60	226.37
949.90	226.41
950.20	226.27
950.50	226.10
950.79	226.00
951.09	226.18
951.39	226.18
951.69	226.15
951.98	226.32
952.28	226.23
952.58	226.26
952.87	226.13
953.17	226.24
953.47	226.03
953.76	225.88
954.06	225.70
954.36	225.59
954.66	225.56
954.95	225.85
955.25	225.91
955.55	226.00
955.84	225.96
956.14	226.14
956.44	226.37
956.73	226.31
957.03	226.40
957.32	226.35
957.62	226.34
957.92	226.50
958.21	226.42
958.51	227.64
958.81	227.70
959.10	227.95
959.40	228.14
959.69	228.30
959.99	228.50
960.29	228.60
960.58	228.66
960.88	229.11
961.17	228.95
961.47	229.03
961.76	228.93
962.06	229.14
962.36	228.99
962.65	228.94
962.95	228.94
963.24	228.87
963.54	228.87
963.83	228.96
964.13	228.90
964.42	228.69
964.72	227.83
965.01	227.88
965.31	227.78
965.60	227.53
965.90	228.04
966.19	227.77
966.49	227.89
966.78	227.79
967.08	227.69
967.37	227.73
967.67	227.55
967.96	227.68
968.26	227.57
968.55	227.68
968.85	227.69
969.14	227.83
969.43	227.96
969.73	228.01
970.02	227.94
970.32	227.93
970.61	227.91
970.91	227.72
971.20	227.51
971.49	227.43
971.79	227.55
972.08	226.99
972.38	227.09
972.67	227.05
972.96	227.35
973.26	227.15
973.55	227.47
973.85	227.43
974.14	227.40
974.43	227.45
974.73	227.30
975.02	227.20
975.31	227.10
975.61	226.97
975.90	226.83
976.19	226.84
976.49	226.93
976.78	227.04
977.07	227.06
977.37	227.18
977.66	227.30
977.95	227.23
978.24	227.34
978.54	227.60
978.83	227.54
979.12	227.37
979.42	227.35
979.71	227.07
980.00	227.03
980.29	227.18
980.59	226.99
980.88	227.25
981.17	227.25
981.46	227.24
981.76	227.27
982.05	227.52
982.34	227.63
982.63	227.60
982.93	227.62
983.22	227.87
983.51	227.82
983.80	228.03
984.09	228.15
984.39	228.03
984.68	227.79
984.97	227.75
985.26	227.70
985.55	227.74
985.85	227.51
986.14	227.70
986.43	227.73
986.72	227.70
987.01	227.38
987.30	227.35
987.59	227.35
987.89	227.38
988.18	227.10
988.47	226.87
988.76	226.88
989.05	226.73
989.34	226.57
989.63	226.90
989.92	226.64
990.22	226.50
990.51	226.48
990.80	226.48
991.09	226.47
991.38	226.58
991.67	226.42
991.96	226.39
992.25	226.35
992.54	226.06
992.83	226.17
993.12	226.24
993.41	226.43
993.70	226.80
993.99	227.02
994.28	227.17
994.58	227.37
994.87	227.24
995.16	227.23
995.45	227.13
995.74	226.77
996.03	226.93
996.32	227.13
996.61	227.41
996.90	227.43
997.19	227.44
997.48	227.50
997.77	227.53
998.06	227.59
998.34	227.51
998.63	227.60
998.92	227.59
999.21	227.67
999.50	227.76
999.79	227.39
1000.08	227.18
1000.37	227.21
1000.66	227.06
1000.95	227.28
1001.24	227.39
1001.53	227.48
1001.82	227.49
1002.11	227.21
1002.40	227.27
1002.68	227.40
1002.97	228.11
1003.26	228.08
1003.55	227.94
1003.84	227.99
1004.13	228.30
1004.42	228.33
1004.71	228.36
1004.99	228.29
1005.28	228.59
1005.57	228.43
1005.86	228.44
1006.15	228.44
1006.44	228.23
1006.72	228.39
1007.01	228.29
1007.30	228.34
1007.59	228.34
1007.88	228.32
1008.17	228.42
1008.45	228.11
1008.74	227.72
1009.03	227.23
1009.32	227.18
1009.60	227.10
1009.89	227.09
1010.18	226.75
1010.47	226.67
1010.76	226.54
1011.04	226.52
1011.33	226.50
1011.62	226.60
1011.91	226.66
1012.19	226.74
1012.48	226.93
1012.77	226.89
1013.05	227.25
1013.34	227.18
1013.63	227.10
1013.92	227.18
1014.20	227.10
1014.49	227.18
1014.78	227.22
1015.06	226.96
1015.35	226.92
1015.64	227.00
1015.92	227.08
1016.21	227.02
1016.50	227.10
1016.78	227.14
1017.07	227.28
1017.36	226.97
1017.64	226.77
1017.93	226.86
1018.22	226.72
1018.50	226.60
1018.79	226.53
1019.08	226.07
1019.36	226.10
1019.65	225.97
1019.93	226.17
1020.22	226.30
1020.51	226.76
1020.79	226.63
1021.08	224.60
1021.36	226.40
1021.65	225.90
1021.94	225.70
1022.22	227.00
1022.51	224.50
1022.79	230.40
1023.08	227.00
1023.36	237.10
1023.65	223.10
>>>>>End Processed Spectral Data<<<<<
