SpectraSuite Data File
++++++++++++++++++++++++++++++++++++
Date: Wed Sep 04 17:31:24 EDT 2013
User: lab3
Dark Spectrum Present: Yes
Reference Spectrum Present: No
Number of Sampled Component Spectra: 1
Spectrometers: USB2E7196
Integration Time (usec): 337000 (USB2E7196)
Spectra Averaged: 10 (USB2E7196)
Boxcar Smoothing: 10 (USB2E7196)
Correct for Electrical Dark: No (USB2E7196)
Strobe/Lamp Enabled: No (USB2E7196)
Correct for Detector Non-linearity: No (USB2E7196)
Correct for Stray Light: No (USB2E7196)
Number of Pixels in Processed Spectrum: 2048
>>>>>Begin Processed Spectral Data<<<<<
339.09	0.00
339.48	213.00
339.86	212.90
340.24	218.60
340.63	216.80
341.01	233.00
341.39	221.10
341.78	222.60
342.16	225.70
342.54	224.10
342.93	213.43
343.31	224.13
343.69	224.70
344.07	225.24
344.46	225.70
344.84	226.21
345.22	225.79
345.60	226.00
345.99	226.27
346.37	226.31
346.75	226.37
347.13	226.47
347.52	226.58
347.90	226.86
348.28	226.90
348.66	227.13
349.05	226.81
349.43	226.88
349.81	226.97
350.19	227.03
350.57	227.07
350.96	227.13
351.34	227.30
351.72	227.31
352.10	227.32
352.48	227.24
352.87	227.28
353.25	227.43
353.63	227.44
354.01	227.35
354.39	227.44
354.77	227.56
355.15	227.79
355.54	227.75
355.92	227.51
356.30	227.65
356.68	228.26
357.06	228.48
357.44	228.41
357.82	228.41
358.20	229.38
358.58	229.40
358.97	229.52
359.35	229.60
359.73	229.85
360.11	229.89
360.49	230.00
360.87	230.00
361.25	230.05
361.63	230.47
362.01	230.60
362.39	230.63
362.77	230.70
363.15	230.64
363.53	230.72
363.91	230.80
364.29	230.78
364.67	229.91
365.05	229.97
365.43	230.03
365.81	230.26
366.19	229.84
366.57	230.17
366.95	230.20
367.33	230.05
367.71	230.09
368.09	230.29
368.47	230.32
368.85	230.24
369.23	230.51
369.61	230.21
369.99	230.49
370.37	230.56
370.75	230.94
371.13	230.85
371.51	230.65
371.89	230.68
372.27	230.72
372.65	230.75
373.03	230.65
373.41	230.56
373.78	230.42
374.16	229.96
374.54	229.73
374.92	229.56
375.30	229.61
375.68	229.39
376.06	229.40
376.44	229.23
376.82	229.32
377.19	229.20
377.57	229.04
377.95	228.80
378.33	228.65
378.71	228.12
379.09	228.16
379.47	228.29
379.84	228.13
380.22	227.99
380.60	227.85
380.98	227.86
381.36	227.84
381.73	227.70
382.11	227.93
382.49	227.87
382.87	227.76
383.25	227.77
383.62	228.90
384.00	228.71
384.38	228.80
384.76	228.89
385.13	229.19
385.51	229.22
385.89	229.04
386.27	229.08
386.64	229.24
387.02	229.15
387.40	229.03
387.78	229.09
388.15	229.10
388.53	229.09
388.91	229.07
389.29	228.96
389.66	229.09
390.04	228.84
390.42	228.93
390.79	228.97
391.17	228.91
391.55	227.83
391.92	227.83
392.30	227.83
392.68	227.62
393.05	227.59
393.43	227.62
393.81	227.71
394.18	227.51
394.56	227.43
394.94	227.69
395.31	227.69
395.69	228.02
396.06	228.16
396.44	228.23
396.82	228.20
397.19	228.77
397.57	228.74
397.95	228.93
398.32	228.72
398.70	228.94
399.07	229.20
399.45	229.31
399.82	229.41
400.20	229.40
400.58	229.47
400.95	229.11
401.33	229.44
401.70	230.19
402.08	230.48
402.45	230.69
402.83	230.99
403.20	231.33
403.58	231.28
403.95	231.58
404.33	231.86
404.71	232.10
405.08	232.91
405.46	233.21
405.83	233.50
406.21	233.89
406.58	234.17
406.96	234.37
407.33	234.73
407.70	235.28
408.08	236.52
408.45	237.19
408.83	237.99
409.20	238.45
409.58	238.48
409.95	239.14
410.33	239.90
410.70	240.33
411.08	241.06
411.45	241.92
411.82	242.53
412.20	243.63
412.57	245.07
412.95	245.09
413.32	246.27
413.69	247.42
414.07	248.61
414.44	250.00
414.82	251.44
415.19	253.27
415.56	254.91
415.94	256.09
416.31	258.19
416.68	260.12
417.06	262.37
417.43	264.78
417.81	267.24
418.18	269.82
418.55	272.55
418.93	275.47
419.30	278.47
419.67	281.80
420.04	284.92
420.42	288.22
420.79	293.02
421.16	297.00
421.54	301.63
421.91	306.03
422.28	310.58
422.66	315.45
423.03	320.56
423.40	325.47
423.77	330.62
424.15	335.84
424.52	341.45
424.89	347.63
425.26	353.29
425.64	358.78
426.01	364.82
426.38	371.26
426.75	378.00
427.13	384.83
427.50	391.84
427.87	399.13
428.24	406.35
428.61	412.96
428.99	420.87
429.36	428.66
429.73	437.06
430.10	445.13
430.47	453.72
430.85	461.99
431.22	471.24
431.59	481.64
431.96	490.90
432.33	501.16
432.70	511.13
433.08	523.03
433.45	534.44
433.82	545.67
434.19	558.02
434.56	570.19
434.93	581.72
435.30	593.83
435.68	607.19
436.05	620.19
436.42	632.93
436.79	644.96
437.16	658.13
437.53	671.45
437.90	684.81
438.27	698.11
438.64	711.94
439.01	725.03
439.38	736.52
439.75	747.93
440.13	760.90
440.50	772.89
440.87	782.80
441.24	793.14
441.61	804.40
441.98	813.02
442.35	822.50
442.72	832.47
443.09	842.04
443.46	848.05
443.83	852.21
444.20	855.73
444.57	860.35
444.94	862.64
445.31	865.08
445.68	868.78
446.05	869.80
446.42	868.56
446.79	867.18
447.16	865.17
447.53	863.96
447.90	858.78
448.27	853.97
448.64	847.34
449.01	842.19
449.37	833.51
449.74	824.73
450.11	815.30
450.48	804.07
450.85	792.07
451.22	781.82
451.59	772.36
451.96	763.09
452.33	751.20
452.70	740.33
453.07	727.53
453.43	713.25
453.80	700.56
454.17	688.56
454.54	676.89
454.91	664.52
455.28	652.50
455.65	641.36
456.02	631.33
456.38	621.48
456.75	609.90
457.12	599.73
457.49	590.08
457.86	580.01
458.23	572.21
458.59	563.56
458.96	554.80
459.33	546.84
459.70	539.17
460.07	533.00
460.43	525.92
460.80	519.34
461.17	513.80
461.54	507.86
461.91	501.97
462.27	495.89
462.64	490.71
463.01	485.10
463.38	480.10
463.74	473.47
464.11	468.87
464.48	464.72
464.85	460.42
465.21	457.25
465.58	453.61
465.95	449.09
466.32	445.66
466.68	442.00
467.05	438.59
467.42	435.15
467.78	431.39
468.15	427.88
468.52	425.40
468.88	421.80
469.25	418.50
469.62	416.22
469.98	413.71
470.35	411.57
470.72	409.28
471.08	406.43
471.45	404.61
471.82	402.65
472.18	400.30
472.55	398.70
472.92	396.46
473.28	394.69
473.65	392.83
474.02	390.95
474.38	389.63
474.75	388.33
475.11	386.87
475.48	385.80
475.85	384.70
476.21	383.42
476.58	382.45
476.94	381.76
477.31	380.76
477.67	380.02
478.04	379.21
478.41	378.73
478.77	379.11
479.14	378.19
479.50	377.73
479.87	377.45
480.23	377.02
480.60	376.70
480.96	376.44
481.33	376.81
481.69	377.04
482.06	376.93
482.42	376.86
482.79	377.07
483.15	377.21
483.52	377.79
483.88	378.20
484.25	378.54
484.61	378.99
484.98	379.20
485.34	380.12
485.71	381.00
486.07	381.72
486.44	381.84
486.80	382.87
487.17	383.63
487.53	384.95
487.90	386.27
488.26	388.05
488.62	389.50
488.99	390.55
489.35	391.98
489.72	393.60
490.08	395.13
490.44	396.63
490.81	398.56
491.17	400.27
491.54	402.28
491.90	404.43
492.26	406.51
492.63	408.89
492.99	410.83
493.36	413.10
493.72	415.65
494.08	418.17
494.45	421.03
494.81	424.11
495.17	426.79
495.54	429.80
495.90	432.33
496.26	435.38
496.63	438.69
496.99	441.60
497.35	444.78
497.72	448.28
498.08	451.75
498.44	455.29
498.80	458.93
499.17	462.42
499.53	465.90
499.89	469.63
500.26	473.32
500.62	477.12
500.98	481.02
501.34	484.77
501.71	488.48
502.07	491.97
502.43	495.42
502.79	498.95
503.16	502.73
503.52	506.48
503.88	510.04
504.24	513.78
504.60	517.99
504.97	522.08
505.33	525.96
505.69	530.33
506.05	534.16
506.41	537.88
506.78	541.92
507.14	545.76
507.50	549.80
507.86	553.68
508.22	557.55
508.59	561.09
508.95	564.85
509.31	569.17
509.67	573.05
510.03	576.62
510.39	580.47
510.75	584.21
511.12	587.91
511.48	591.57
511.84	595.01
512.20	598.29
512.56	601.55
512.92	605.04
513.28	608.20
513.64	611.34
514.00	614.80
514.37	617.96
514.73	621.40
515.09	624.66
515.45	627.99
515.81	631.10
516.17	634.58
516.53	637.66
516.89	640.41
517.25	643.66
517.61	647.50
517.97	650.55
518.33	653.71
518.69	657.04
519.05	660.60
519.41	663.92
519.77	667.67
520.13	671.05
520.49	674.17
520.85	680.14
521.21	683.86
521.57	687.03
521.93	689.73
522.29	692.74
522.65	695.58
523.01	698.59
523.37	701.30
523.73	704.22
524.09	707.30
524.45	710.19
524.81	713.08
525.17	715.59
525.53	718.94
525.89	721.99
526.25	725.29
526.61	727.98
526.97	731.19
527.33	734.23
527.68	738.35
528.04	741.82
528.40	742.52
528.76	745.91
529.12	749.44
529.48	753.56
529.84	757.33
530.20	761.36
530.56	765.55
530.91	769.69
531.27	773.80
531.63	778.18
531.99	782.46
532.35	786.90
532.71	791.43
533.07	796.02
533.42	801.48
533.78	805.81
534.14	810.65
534.50	815.01
534.86	819.90
535.21	823.59
535.57	828.50
535.93	832.96
536.29	837.82
536.65	843.05
537.00	847.85
537.36	852.35
537.72	856.95
538.08	861.58
538.44	866.22
538.79	870.96
539.15	875.81
539.51	880.79
539.87	885.50
540.22	890.10
540.58	894.52
540.94	897.92
541.29	902.41
541.65	906.60
542.01	911.55
542.37	915.43
542.72	919.61
543.08	923.51
543.44	927.91
543.79	931.39
544.15	935.30
544.51	939.55
544.87	944.16
545.22	948.23
545.58	952.00
545.94	955.93
546.29	959.86
546.65	963.08
547.01	966.50
547.36	970.09
547.72	973.84
548.07	977.49
548.43	981.22
548.79	984.70
549.14	988.34
549.50	991.73
549.86	995.51
550.21	999.33
550.57	1002.94
550.92	1005.99
551.28	1009.67
551.64	1013.23
551.99	1016.57
552.35	1019.38
552.70	1022.66
553.06	1026.27
553.41	1029.89
553.77	1033.46
554.13	1037.14
554.48	1040.54
554.84	1043.91
555.19	1047.40
555.55	1051.47
555.90	1054.28
556.26	1056.90
556.61	1059.23
556.97	1061.26
557.32	1063.63
557.68	1066.20
558.03	1068.76
558.39	1071.26
558.74	1073.49
559.10	1075.36
559.45	1077.38
559.81	1079.75
560.16	1081.50
560.52	1083.27
560.87	1085.09
561.23	1086.61
561.58	1088.90
561.94	1090.13
562.29	1091.14
562.64	1092.29
563.00	1092.59
563.35	1094.21
563.71	1096.09
564.06	1098.05
564.42	1099.76
564.77	1101.63
565.12	1103.22
565.48	1105.48
565.83	1107.38
566.19	1109.09
566.54	1110.60
566.89	1112.06
567.25	1113.47
567.60	1115.43
567.96	1117.61
568.31	1119.51
568.66	1120.74
569.02	1120.86
569.37	1122.11
569.72	1123.87
570.08	1124.47
570.43	1124.62
570.78	1125.25
571.14	1125.30
571.49	1125.43
571.84	1125.67
572.20	1125.28
572.55	1125.19
572.90	1123.83
573.26	1123.23
573.61	1122.43
573.96	1121.68
574.31	1120.39
574.67	1119.21
575.02	1117.50
575.37	1115.22
575.72	1113.13
576.08	1111.79
576.43	1110.41
576.78	1108.70
577.13	1106.59
577.49	1104.95
577.84	1104.32
578.19	1102.78
578.54	1101.69
578.90	1100.21
579.25	1098.63
579.60	1097.11
579.95	1095.02
580.30	1093.60
580.66	1091.45
581.01	1089.43
581.36	1086.93
581.71	1085.36
582.06	1083.66
582.42	1082.03
582.77	1079.94
583.12	1078.32
583.47	1076.29
583.82	1074.25
584.17	1072.20
584.53	1070.68
584.88	1068.38
585.23	1065.86
585.58	1063.03
585.93	1060.01
586.28	1057.10
586.63	1054.29
586.98	1051.31
587.34	1048.77
587.69	1045.86
588.04	1043.69
588.39	1041.50
588.74	1039.27
589.09	1036.69
589.44	1033.34
589.79	1030.36
590.14	1027.88
590.49	1024.75
590.84	1021.62
591.19	1018.99
591.54	1016.32
591.89	1012.81
592.25	1011.48
592.60	1008.53
592.95	1005.84
593.30	1003.15
593.65	1000.45
594.00	997.25
594.35	997.03
594.70	993.55
595.05	990.28
595.40	986.67
595.75	982.85
596.10	979.78
596.45	976.24
596.80	973.43
597.15	970.26
597.50	966.77
597.85	963.84
598.19	960.50
598.54	956.89
598.89	953.10
599.24	950.23
599.59	945.91
599.94	942.23
600.29	939.11
600.64	935.82
600.99	932.42
601.34	929.52
601.69	923.72
602.04	920.65
602.39	917.49
602.74	914.86
603.08	912.10
603.43	908.95
603.78	905.65
604.13	902.29
604.48	898.61
604.83	895.03
605.18	891.21
605.53	887.81
605.87	884.57
606.22	881.86
606.57	877.96
606.92	874.36
607.27	871.54
607.62	867.96
607.96	864.63
608.31	861.61
608.66	858.57
609.01	855.10
609.36	851.97
609.70	848.70
610.05	844.93
610.40	841.55
610.75	837.78
611.10	834.77
611.44	831.17
611.79	827.93
612.14	824.93
612.49	821.65
612.83	818.50
613.18	815.06
613.53	811.40
613.88	807.95
614.22	804.31
614.57	800.33
614.92	796.63
615.27	793.43
615.61	789.64
615.96	786.16
616.31	782.71
616.65	779.16
617.00	775.45
617.35	772.13
617.70	768.52
618.04	764.99
618.39	761.42
618.74	758.50
619.08	755.22
619.43	751.65
619.78	747.97
620.12	744.32
620.47	740.71
620.82	737.11
621.16	733.67
621.51	730.78
621.85	727.48
622.20	724.31
622.55	720.74
622.89	717.32
623.24	713.70
623.59	710.38
623.93	707.05
624.28	703.87
624.62	701.44
624.97	698.54
625.32	695.28
625.66	691.98
626.01	688.34
626.35	685.05
626.70	681.86
627.04	678.93
627.39	675.73
627.73	673.20
628.08	670.22
628.43	667.12
628.77	663.54
629.12	660.31
629.46	657.39
629.81	654.72
630.15	651.84
630.50	648.77
630.84	645.72
631.19	642.73
631.53	639.89
631.88	635.91
632.22	632.59
632.57	630.17
632.91	627.17
633.26	624.45
633.60	621.47
633.95	618.55
634.29	615.29
634.64	612.50
634.98	609.06
635.32	606.30
635.67	603.65
636.01	600.80
636.36	598.15
636.70	595.39
637.05	592.08
637.39	589.45
637.73	586.91
638.08	584.34
638.42	581.58
638.77	578.72
639.11	575.54
639.45	572.47
639.80	569.21
640.14	566.45
640.49	563.52
640.83	560.80
641.17	558.22
641.52	555.54
641.86	552.90
642.20	550.94
642.55	548.41
642.89	545.74
643.23	543.26
643.58	541.13
643.92	538.40
644.26	535.92
644.61	533.41
644.95	530.70
645.29	527.81
645.64	525.49
645.98	523.09
646.32	521.23
646.66	518.86
647.01	516.45
647.35	514.25
647.69	512.01
648.04	509.76
648.38	507.30
648.72	505.20
649.06	502.53
649.41	499.67
649.75	496.83
650.09	494.58
650.43	492.06
650.78	489.15
651.12	486.83
651.46	484.57
651.80	482.18
652.14	479.97
652.49	478.02
652.83	475.64
653.17	473.20
653.51	470.66
653.85	468.74
654.20	466.75
654.54	464.36
654.88	462.00
655.22	460.34
655.56	458.18
655.90	456.11
656.25	454.04
656.59	451.95
656.93	450.22
657.27	448.56
657.61	446.50
657.95	444.63
658.29	442.63
658.64	440.73
658.98	438.67
659.32	436.49
659.66	434.59
660.00	432.87
660.34	431.19
660.68	429.34
661.02	427.33
661.36	425.32
661.70	423.48
662.05	421.79
662.39	419.96
662.73	418.58
663.07	417.39
663.41	415.93
663.75	414.10
664.09	412.24
664.43	409.93
664.77	408.36
665.11	406.69
665.45	405.12
665.79	403.56
666.13	401.87
666.47	400.38
666.81	398.61
667.15	396.69
667.49	395.21
667.83	394.09
668.17	392.56
668.51	391.02
668.85	389.77
669.19	388.90
669.53	387.00
669.87	385.14
670.21	383.43
670.55	381.83
670.89	380.92
671.23	379.56
671.57	378.14
671.91	376.82
672.25	375.52
672.58	374.31
672.92	372.56
673.26	371.24
673.60	369.98
673.94	368.77
674.28	367.67
674.62	366.50
674.96	364.81
675.30	363.57
675.64	362.31
675.97	360.90
676.31	359.10
676.65	357.72
676.99	356.92
677.33	355.45
677.67	354.29
678.01	352.60
678.34	351.49
678.68	350.73
679.02	349.46
679.36	348.29
679.70	346.90
680.04	346.04
680.37	345.11
680.71	343.96
681.05	342.77
681.39	341.65
681.73	340.35
682.06	339.43
682.40	338.52
682.74	337.61
683.08	336.84
683.42	335.80
683.75	335.10
684.09	333.78
684.43	332.76
684.77	331.77
685.10	330.90
685.44	329.89
685.78	328.61
686.12	327.74
686.45	326.75
686.79	325.77
687.13	324.87
687.46	323.90
687.80	323.13
688.14	322.15
688.48	321.33
688.81	320.36
689.15	319.58
689.49	318.53
689.82	317.66
690.16	316.45
690.50	315.48
690.83	314.50
691.17	313.46
691.51	312.65
691.84	311.90
692.18	310.84
692.52	309.88
692.85	309.26
693.19	308.71
693.52	307.82
693.86	306.96
694.20	306.07
694.53	305.18
694.87	304.29
695.21	303.45
695.54	302.54
695.88	301.69
696.21	300.52
696.55	299.75
696.88	298.89
697.22	298.01
697.56	297.34
697.89	296.47
698.23	295.93
698.56	295.12
698.90	294.48
699.23	293.88
699.57	293.25
699.90	292.36
700.24	291.51
700.58	290.89
700.91	290.44
701.25	290.55
701.58	290.52
701.92	290.01
702.25	289.53
702.59	288.88
702.92	288.45
703.26	288.05
703.59	287.48
703.93	287.75
704.26	287.38
704.60	286.95
704.93	286.35
705.26	285.69
705.60	285.35
705.93	284.47
706.27	284.14
706.60	283.85
706.94	283.84
707.27	283.25
707.61	282.87
707.94	282.37
708.27	281.10
708.61	279.95
708.94	279.30
709.28	278.62
709.61	277.92
709.94	277.38
710.28	276.78
710.61	276.28
710.95	274.98
711.28	275.13
711.61	274.60
711.95	274.34
712.28	273.73
712.61	273.10
712.95	273.25
713.28	273.26
713.61	272.60
713.95	271.60
714.28	271.10
714.61	270.52
714.95	269.92
715.28	269.37
715.61	268.88
715.95	268.49
716.28	268.12
716.61	268.05
716.95	267.54
717.28	267.24
717.61	266.75
717.94	266.29
718.28	265.17
718.61	264.78
718.94	264.26
719.27	264.00
719.61	263.68
719.94	263.05
720.27	262.05
720.60	261.76
720.94	261.48
721.27	261.20
721.60	261.05
721.93	260.85
722.27	260.93
722.60	260.77
722.93	260.49
723.26	260.24
723.59	259.75
723.93	259.63
724.26	259.43
724.59	259.19
724.92	258.97
725.25	259.02
725.59	258.65
725.92	258.44
726.25	258.10
726.58	257.92
726.91	257.60
727.24	257.51
727.57	257.10
727.91	256.79
728.24	256.50
728.57	256.07
728.90	255.84
729.23	255.19
729.56	255.38
729.89	255.19
730.22	254.79
730.55	254.44
730.89	254.10
731.22	253.67
731.55	253.41
731.88	253.26
732.21	252.75
732.54	252.42
732.87	252.20
733.20	252.10
733.53	251.86
733.86	251.70
734.19	251.33
734.52	251.28
734.85	251.75
735.18	251.53
735.51	251.68
735.84	251.39
736.17	251.46
736.50	250.67
736.83	251.44
737.16	251.31
737.49	251.26
737.82	250.99
738.15	251.00
738.48	250.83
738.81	250.53
739.14	250.20
739.47	250.04
739.80	249.84
740.13	249.71
740.46	249.34
740.79	248.96
741.12	248.77
741.45	248.40
741.78	247.70
742.11	247.80
742.44	247.38
742.77	247.32
743.10	246.95
743.43	246.77
743.75	245.62
744.08	246.69
744.41	246.41
744.74	246.29
745.07	245.91
745.40	245.85
745.73	246.09
746.06	245.99
746.39	245.86
746.71	245.66
747.04	245.42
747.37	245.25
747.70	245.35
748.03	245.18
748.36	245.20
748.68	244.94
749.01	244.46
749.34	244.30
749.67	244.17
750.00	244.21
750.33	244.82
750.65	244.72
750.98	243.46
751.31	243.32
751.64	243.20
751.97	243.67
752.29	243.42
752.62	242.85
752.95	242.66
753.28	242.47
753.60	242.33
753.93	242.40
754.26	242.35
754.59	242.00
754.91	241.77
755.24	241.51
755.57	241.42
755.90	241.35
756.22	241.15
756.55	240.93
756.88	240.58
757.20	239.82
757.53	239.46
757.86	239.32
758.19	239.32
758.51	239.19
758.84	238.51
759.17	238.31
759.49	238.22
759.82	238.61
760.15	238.60
760.47	238.42
760.80	237.99
761.13	238.05
761.45	237.77
761.78	237.87
762.11	237.90
762.43	237.81
762.76	237.68
763.08	237.60
763.41	237.53
763.74	237.47
764.06	237.29
764.39	237.30
764.71	237.11
765.04	236.87
765.37	236.69
765.69	236.56
766.02	236.51
766.34	236.43
766.67	235.95
767.00	236.00
767.32	236.51
767.65	237.06
767.97	236.89
768.30	237.01
768.62	236.92
768.95	236.71
769.27	236.52
769.60	236.51
769.92	236.39
770.25	236.09
770.57	235.97
770.90	236.00
771.22	235.83
771.55	235.81
771.87	235.83
772.20	235.74
772.52	236.48
772.85	237.59
773.17	237.60
773.50	237.51
773.82	237.34
774.15	236.74
774.47	236.10
774.80	235.90
775.12	235.77
775.45	235.61
775.77	235.59
776.09	235.64
776.42	235.68
776.74	235.92
777.07	235.92
777.39	235.83
777.72	235.60
778.04	235.66
778.36	235.48
778.69	235.43
779.01	235.39
779.33	234.51
779.66	233.37
779.98	233.18
780.31	233.06
780.63	233.37
780.95	233.51
781.28	233.40
781.60	233.32
781.92	233.29
782.25	233.24
782.57	233.21
782.89	233.10
783.22	232.84
783.54	232.49
783.86	232.44
784.19	232.31
784.51	232.60
784.83	232.46
785.16	232.42
785.48	232.42
785.80	232.43
786.12	232.45
786.45	232.36
786.77	232.34
787.09	232.28
787.42	231.90
787.74	231.80
788.06	231.92
788.38	231.85
788.71	231.77
789.03	231.71
789.35	231.74
789.67	231.58
789.99	231.56
790.32	231.46
790.64	231.61
790.96	232.48
791.28	232.14
791.61	232.02
791.93	232.12
792.25	232.06
792.57	232.69
792.89	232.43
793.21	232.43
793.54	232.30
793.86	232.23
794.18	232.28
794.50	232.03
794.82	231.97
795.14	232.17
795.47	232.38
795.79	232.41
796.11	232.22
796.43	232.18
796.75	232.19
797.07	232.28
797.39	232.15
797.71	231.41
798.04	231.43
798.36	231.49
798.68	231.42
799.00	231.45
799.32	230.91
799.64	231.14
799.96	231.12
800.28	231.29
800.60	231.35
800.92	231.30
801.24	231.32
801.56	231.38
801.89	231.14
802.21	231.17
802.53	231.04
802.85	231.24
803.17	231.63
803.49	231.49
803.81	231.37
804.13	231.29
804.45	231.19
804.77	231.20
805.09	231.15
805.41	231.02
805.73	230.80
806.05	230.64
806.37	230.55
806.69	230.42
807.01	230.36
807.33	230.37
807.65	230.11
807.97	230.49
808.28	230.34
808.60	230.34
808.92	230.14
809.24	230.75
809.56	230.62
809.88	230.31
810.20	230.31
810.52	230.51
810.84	230.37
811.16	230.23
811.48	230.21
811.80	230.53
812.12	230.47
812.43	230.54
812.75	230.57
813.07	230.50
813.39	230.59
813.71	230.48
814.03	230.35
814.35	230.36
814.67	229.99
814.98	229.99
815.30	229.93
815.62	229.66
815.94	228.96
816.26	229.31
816.58	229.09
816.89	229.28
817.21	228.96
817.53	229.14
817.85	229.19
818.17	229.23
818.48	228.81
818.80	229.09
819.12	229.01
819.44	228.89
819.76	228.77
820.07	228.81
820.39	228.76
820.71	228.85
821.03	228.84
821.34	228.82
821.66	228.90
821.98	229.03
822.30	229.10
822.61	229.65
822.93	229.22
823.25	229.33
823.57	229.16
823.88	229.32
824.20	229.15
824.52	229.37
824.83	229.29
825.15	229.27
825.47	229.02
825.79	229.15
826.10	229.07
826.42	229.11
826.74	229.16
827.05	229.16
827.37	229.04
827.69	229.05
828.00	229.13
828.32	229.09
828.64	228.93
828.95	229.43
829.27	229.18
829.58	229.14
829.90	229.29
830.22	229.35
830.53	229.20
830.85	229.15
831.17	228.87
831.48	228.89
831.80	228.97
832.11	229.07
832.43	228.87
832.75	228.83
833.06	229.43
833.38	229.15
833.69	229.15
834.01	229.21
834.32	229.26
834.64	229.07
834.96	229.04
835.27	229.00
835.59	228.70
835.90	228.52
836.22	228.60
836.53	228.31
836.85	228.12
837.16	229.15
837.48	229.26
837.79	229.64
838.11	229.67
838.42	229.61
838.74	229.66
839.05	229.75
839.37	229.74
839.68	229.08
840.00	229.11
840.31	229.27
840.63	229.32
840.94	229.06
841.26	229.03
841.57	229.03
841.88	229.17
842.20	229.02
842.51	228.94
842.83	228.79
843.14	229.70
843.46	229.76
843.77	229.14
844.08	229.05
844.40	228.70
844.71	228.56
845.03	228.44
845.34	228.34
845.65	228.21
845.97	228.27
846.28	228.28
846.60	228.38
846.91	228.25
847.22	228.07
847.54	228.29
847.85	228.38
848.16	228.31
848.48	228.10
848.79	228.46
849.10	228.52
849.42	228.62
849.73	227.81
850.04	227.89
850.36	227.51
850.67	227.66
850.98	227.60
851.30	227.70
851.61	227.75
851.92	227.64
852.23	227.97
852.55	228.03
852.86	228.12
853.17	228.10
853.49	228.24
853.80	228.50
854.11	228.62
854.42	228.67
854.74	228.59
855.05	228.70
855.36	228.27
855.67	228.28
855.99	228.30
856.30	229.35
856.61	229.24
856.92	229.33
857.23	229.30
857.55	229.31
857.86	229.22
858.17	229.34
858.48	229.35
858.79	229.17
859.11	229.30
859.42	229.20
859.73	229.10
860.04	229.07
860.35	228.79
860.66	228.54
860.98	228.62
861.29	228.78
861.60	228.70
861.91	228.88
862.22	228.80
862.53	228.64
862.84	227.49
863.16	227.91
863.47	227.79
863.78	227.78
864.09	227.84
864.40	228.04
864.71	228.09
865.02	228.33
865.33	228.16
865.64	227.92
865.95	228.06
866.27	228.63
866.58	228.51
866.89	228.65
867.20	228.62
867.51	228.31
867.82	228.20
868.13	228.50
868.44	228.24
868.75	228.44
869.06	228.42
869.37	228.63
869.68	228.15
869.99	228.29
870.30	228.24
870.61	228.39
870.92	228.12
871.23	227.95
871.54	227.93
871.85	228.22
872.16	228.45
872.47	228.31
872.78	227.74
873.09	227.87
873.40	227.71
873.71	227.81
874.02	227.97
874.33	227.93
874.64	227.70
874.95	227.88
875.26	227.62
875.56	227.52
875.87	227.41
876.18	227.39
876.49	228.30
876.80	228.21
877.11	227.98
877.42	228.04
877.73	228.03
878.04	227.86
878.35	227.75
878.66	227.69
878.96	227.63
879.27	227.58
879.58	227.43
879.89	227.46
880.20	227.77
880.51	227.73
880.82	227.64
881.12	227.69
881.43	227.57
881.74	227.45
882.05	227.50
882.36	227.62
882.67	227.67
882.97	226.56
883.28	226.58
883.59	226.55
883.90	226.63
884.21	226.83
884.51	226.80
884.82	226.65
885.13	226.55
885.44	226.56
885.74	226.64
886.05	226.63
886.36	226.65
886.67	226.20
886.98	226.68
887.28	226.84
887.59	226.78
887.90	226.85
888.20	227.02
888.51	227.21
888.82	227.01
889.13	227.20
889.43	228.05
889.74	227.93
890.05	227.96
890.35	227.92
890.66	227.71
890.97	227.70
891.28	227.65
891.58	227.71
891.89	227.77
892.20	227.62
892.50	227.59
892.81	227.53
893.12	227.53
893.42	227.08
893.73	227.13
894.04	227.32
894.34	227.40
894.65	227.31
894.95	227.23
895.26	227.31
895.57	227.69
895.87	226.85
896.18	227.02
896.48	227.06
896.79	227.04
897.10	227.19
897.40	227.10
897.71	227.32
898.01	227.29
898.32	227.41
898.63	227.47
898.93	227.60
899.24	227.75
899.54	227.84
899.85	227.83
900.15	227.75
900.46	227.77
900.76	227.80
901.07	227.89
901.38	227.89
901.68	228.00
901.99	227.55
902.29	227.65
902.60	227.69
902.90	227.67
903.21	227.77
903.51	227.66
903.82	228.00
904.12	227.94
904.43	227.93
904.73	227.84
905.03	227.96
905.34	228.78
905.64	228.69
905.95	228.75
906.25	228.78
906.56	228.80
906.86	228.63
907.17	228.58
907.47	228.60
907.77	228.50
908.08	228.42
908.38	228.48
908.69	228.50
908.99	228.65
909.30	228.66
909.60	228.65
909.90	228.80
910.21	228.48
910.51	228.41
910.81	228.47
911.12	228.46
911.42	228.44
911.73	227.46
912.03	227.52
912.33	227.66
912.64	227.53
912.94	227.48
913.24	227.38
913.55	227.30
913.85	227.24
914.15	227.43
914.46	227.53
914.76	227.39
915.06	227.24
915.37	227.02
915.67	226.99
915.97	226.88
916.27	226.57
916.58	226.55
916.88	226.48
917.18	226.47
917.49	227.16
917.79	227.13
918.09	227.20
918.39	227.46
918.70	227.32
919.00	227.35
919.30	227.74
919.60	227.69
919.91	227.60
920.21	227.62
920.51	227.41
920.81	227.24
921.12	227.38
921.42	227.40
921.72	227.48
922.02	227.49
922.32	227.59
922.63	227.65
922.93	228.10
923.23	228.13
923.53	227.97
923.83	227.30
924.13	227.31
924.44	227.39
924.74	227.45
925.04	227.57
925.34	227.61
925.64	227.27
925.94	227.23
926.24	227.78
926.55	227.65
926.85	227.80
927.15	227.85
927.45	227.91
927.75	227.94
928.05	227.97
928.35	228.00
928.65	228.20
928.95	228.29
929.26	227.94
929.56	228.11
929.86	228.22
930.16	228.15
930.46	228.03
930.76	228.05
931.06	227.59
931.36	227.40
931.66	227.47
931.96	227.53
932.26	227.70
932.56	227.37
932.86	227.52
933.16	227.55
933.46	227.47
933.76	227.29
934.06	227.52
934.36	227.75
934.66	227.60
934.96	227.39
935.26	227.54
935.56	227.69
935.86	227.50
936.16	227.42
936.46	227.41
936.76	227.55
937.06	227.45
937.36	227.51
937.66	227.49
937.96	227.57
938.26	227.36
938.56	227.11
938.86	227.10
939.16	227.21
939.46	227.21
939.76	227.29
940.06	227.29
940.35	227.08
940.65	226.69
940.95	226.81
941.25	226.69
941.55	226.50
941.85	226.42
942.15	226.63
942.45	226.87
942.75	226.74
943.04	226.67
943.34	226.88
943.64	226.94
943.94	226.88
944.24	226.83
944.54	226.92
944.84	227.04
945.13	226.88
945.43	226.74
945.73	226.78
946.03	226.68
946.33	226.60
946.62	226.40
946.92	226.37
947.22	226.44
947.52	226.54
947.82	226.71
948.11	226.70
948.41	226.49
948.71	226.25
949.01	226.44
949.31	226.40
949.60	226.40
949.90	226.53
950.20	226.54
950.50	226.48
950.79	226.40
951.09	226.50
951.39	226.56
951.69	226.48
951.98	226.69
952.28	226.75
952.58	226.69
952.87	226.81
953.17	226.94
953.47	226.78
953.76	226.76
954.06	226.56
954.36	226.37
954.66	226.37
954.95	226.58
955.25	226.54
955.55	226.55
955.84	226.34
956.14	226.38
956.44	226.55
956.73	226.48
957.03	226.58
957.32	226.64
957.62	226.56
957.92	226.69
958.21	226.52
958.51	227.63
958.81	227.84
959.10	227.92
959.40	228.21
959.69	228.30
959.99	228.48
960.29	228.61
960.58	228.58
960.88	228.95
961.17	228.85
961.47	229.00
961.76	228.99
962.06	229.07
962.36	228.90
962.65	228.86
962.95	228.96
963.24	228.89
963.54	228.88
963.83	228.97
964.13	228.91
964.42	228.75
964.72	227.92
965.01	227.91
965.31	227.86
965.60	227.54
965.90	228.21
966.19	228.00
966.49	227.85
966.78	227.86
967.08	227.79
967.37	227.87
967.67	227.67
967.96	227.78
968.26	227.75
968.55	227.92
968.85	227.89
969.14	227.79
969.43	227.69
969.73	227.67
970.02	227.68
970.32	227.61
970.61	227.61
970.91	227.43
971.20	227.29
971.49	227.25
971.79	227.35
972.08	226.62
972.38	226.71
972.67	226.69
972.96	226.92
973.26	226.73
973.55	227.01
973.85	227.07
974.14	227.04
974.43	227.10
974.73	226.93
975.02	226.90
975.31	226.94
975.61	226.99
975.90	226.88
976.19	226.72
976.49	226.80
976.78	226.80
977.07	226.68
977.37	226.71
977.66	226.79
977.95	226.71
978.24	226.75
978.54	226.93
978.83	226.96
979.12	226.87
979.42	226.88
979.71	226.56
980.00	226.52
980.29	226.57
980.59	226.40
980.88	226.64
981.17	226.55
981.46	226.54
981.76	226.60
982.05	226.83
982.34	226.89
982.63	226.93
982.93	226.96
983.22	227.33
983.51	227.44
983.80	227.63
984.09	227.71
984.39	227.72
984.68	227.60
984.97	227.56
985.26	227.44
985.55	227.52
985.85	227.42
986.14	227.50
986.43	227.59
986.72	227.60
987.01	227.24
987.30	227.32
987.59	227.29
987.89	227.33
988.18	227.17
988.47	227.16
988.76	227.18
989.05	227.07
989.34	226.83
989.63	227.06
989.92	226.87
990.22	226.67
990.51	226.69
990.80	226.57
991.09	226.69
991.38	226.85
991.67	226.65
991.96	226.56
992.25	226.58
992.54	226.52
992.83	226.63
993.12	226.61
993.41	226.71
993.70	227.11
993.99	227.23
994.28	227.31
994.58	227.44
994.87	227.22
995.16	227.22
995.45	227.10
995.74	226.71
996.03	226.90
996.32	227.10
996.61	227.24
996.90	227.32
997.19	227.31
997.48	227.31
997.77	227.33
998.06	227.38
998.34	227.35
998.63	227.23
998.92	227.25
999.21	227.47
999.50	227.49
999.79	227.13
1000.08	227.13
1000.37	227.11
1000.66	226.94
1000.95	227.24
1001.24	227.36
1001.53	227.52
1001.82	227.55
1002.11	227.29
1002.40	227.42
1002.68	227.56
1002.97	228.20
1003.26	227.98
1003.55	227.90
1003.84	228.04
1004.13	228.44
1004.42	228.32
1004.71	228.38
1004.99	228.19
1005.28	228.33
1005.57	228.27
1005.86	228.21
1006.15	228.06
1006.44	227.85
1006.72	228.02
1007.01	227.80
1007.30	227.72
1007.59	227.56
1007.88	227.53
1008.17	227.62
1008.45	227.36
1008.74	226.95
1009.03	226.48
1009.32	226.60
1009.60	226.50
1009.89	226.32
1010.18	225.84
1010.47	225.83
1010.76	225.74
1011.04	225.67
1011.33	225.67
1011.62	225.78
1011.91	225.90
1012.19	226.01
1012.48	226.14
1012.77	226.23
1013.05	226.74
1013.34	226.77
1013.63	226.80
1013.92	226.87
1014.20	226.82
1014.49	226.87
1014.78	227.06
1015.06	226.76
1015.35	226.71
1015.64	226.92
1015.92	227.21
1016.21	227.28
1016.50	227.31
1016.78	227.49
1017.07	227.60
1017.36	227.41
1017.64	227.28
1017.93	227.26
1018.22	227.23
1018.50	227.21
1018.79	227.10
1019.08	226.65
1019.36	226.65
1019.65	226.58
1019.93	226.72
1020.22	226.77
1020.51	227.28
1020.79	227.11
1021.08	227.20
1021.36	226.40
1021.65	227.10
1021.94	226.60
1022.22	226.20
1022.51	224.90
1022.79	228.90
1023.08	226.40
1023.36	238.30
1023.65	224.10
>>>>>End Processed Spectral Data<<<<<
