SpectraSuite Data File
++++++++++++++++++++++++++++++++++++
Date: Wed Sep 04 17:28:55 EDT 2013
User: lab3
Dark Spectrum Present: Yes
Reference Spectrum Present: No
Number of Sampled Component Spectra: 1
Spectrometers: USB2E7196
Integration Time (usec): 337000 (USB2E7196)
Spectra Averaged: 10 (USB2E7196)
Boxcar Smoothing: 10 (USB2E7196)
Correct for Electrical Dark: No (USB2E7196)
Strobe/Lamp Enabled: No (USB2E7196)
Correct for Detector Non-linearity: No (USB2E7196)
Correct for Stray Light: No (USB2E7196)
Number of Pixels in Processed Spectrum: 2048
>>>>>Begin Processed Spectral Data<<<<<
339.09	0.00
339.48	213.60
339.86	214.50
340.24	215.20
340.63	216.70
341.01	233.90
341.39	220.60
341.78	222.30
342.16	226.90
342.54	222.80
342.93	213.13
343.31	223.74
343.69	224.31
344.07	224.81
344.46	225.41
344.84	225.94
345.22	225.60
345.60	225.82
345.99	226.04
346.37	226.06
346.75	226.27
347.13	226.31
347.52	226.39
347.90	226.81
348.28	226.92
348.66	227.20
349.05	226.92
349.43	227.20
349.81	227.34
350.19	227.34
350.57	227.46
350.96	227.69
351.34	228.03
351.72	228.04
352.10	228.08
352.48	228.09
352.87	228.12
353.25	228.10
353.63	228.20
354.01	228.20
354.39	228.22
354.77	228.24
355.15	228.58
355.54	228.65
355.92	228.43
356.30	228.41
356.68	228.98
357.06	229.19
357.44	228.94
357.82	229.05
358.20	229.97
358.58	230.03
358.97	230.11
359.35	230.20
359.73	230.45
360.11	230.55
360.49	230.60
360.87	230.58
361.25	230.70
361.63	231.08
362.01	231.21
362.39	231.15
362.77	231.22
363.15	231.23
363.53	231.14
363.91	231.21
364.29	231.32
364.67	230.47
365.05	230.44
365.43	230.68
365.81	230.77
366.19	230.49
366.57	230.79
366.95	230.78
367.33	230.51
367.71	230.48
368.09	230.67
368.47	230.70
368.85	230.72
369.23	230.94
369.61	230.63
369.99	230.99
370.37	231.24
370.75	231.72
371.13	231.41
371.51	231.30
371.89	231.34
372.27	231.32
372.65	231.46
373.03	231.49
373.41	231.34
373.78	231.17
374.16	230.50
374.54	230.18
374.92	230.05
375.30	230.15
375.68	229.91
376.06	229.86
376.44	229.79
376.82	229.75
377.19	229.71
377.57	229.59
377.95	229.19
378.33	229.04
378.71	228.48
379.09	228.57
379.47	228.75
379.84	228.54
380.22	228.41
380.60	228.29
380.98	228.14
381.36	228.14
381.73	228.00
382.11	228.22
382.49	228.28
382.87	228.15
383.25	228.09
383.62	229.18
384.00	229.00
384.38	228.95
384.76	229.15
385.13	229.39
385.51	229.34
385.89	229.18
386.27	229.18
386.64	229.25
387.02	229.22
387.40	229.02
387.78	229.06
388.15	229.11
388.53	228.99
388.91	228.96
389.29	228.87
389.66	229.11
390.04	228.90
390.42	229.03
390.79	229.02
391.17	229.06
391.55	228.02
391.92	227.96
392.30	228.00
392.68	227.77
393.05	227.65
393.43	227.62
393.81	227.61
394.18	227.41
394.56	227.36
394.94	227.60
395.31	227.50
395.69	227.80
396.06	227.90
396.44	227.99
396.82	228.04
397.19	228.50
397.57	228.48
397.95	228.75
398.32	228.41
398.70	228.63
399.07	228.86
399.45	228.93
399.82	229.10
400.20	229.18
400.58	229.34
400.95	229.14
401.33	229.56
401.70	230.45
402.08	230.73
402.45	231.06
402.83	231.41
403.20	231.78
403.58	231.89
403.95	232.32
404.33	232.72
404.71	233.09
405.08	233.89
405.46	234.27
405.83	234.69
406.21	235.14
406.58	235.72
406.96	236.23
407.33	236.99
407.70	237.70
408.08	239.09
408.45	239.97
408.83	240.96
409.20	241.65
409.58	242.01
409.95	243.18
410.33	244.24
410.70	245.00
411.08	246.28
411.45	247.51
411.82	248.64
412.20	250.21
412.57	252.25
412.95	252.96
413.32	254.70
413.69	256.49
414.07	258.56
414.44	260.62
414.82	262.79
415.19	265.22
415.56	267.79
415.94	269.97
416.31	273.00
416.68	276.01
417.06	279.55
417.43	283.15
417.81	286.84
418.18	290.69
418.55	294.69
418.93	299.08
419.30	303.61
419.67	308.50
420.04	313.48
420.42	318.46
420.79	325.16
421.16	331.31
421.54	337.97
421.91	344.53
422.28	351.39
422.66	358.57
423.03	366.27
423.40	373.58
423.77	381.34
424.15	389.28
424.52	397.83
424.89	407.13
425.26	415.94
425.64	424.62
426.01	434.10
426.38	444.30
426.75	454.54
427.13	464.84
427.50	475.48
427.87	486.59
428.24	497.96
428.61	508.42
428.99	520.59
429.36	533.32
429.73	546.11
430.10	558.95
430.47	572.12
430.85	585.29
431.22	599.80
431.59	615.52
431.96	630.20
432.33	646.36
432.70	662.04
433.08	680.50
433.45	697.98
433.82	715.45
434.19	734.96
434.56	754.28
434.93	772.81
435.30	791.42
435.68	812.09
436.05	832.57
436.42	852.85
436.79	871.70
437.16	891.81
437.53	913.11
437.90	934.40
438.27	955.60
438.64	977.65
439.01	998.35
439.38	1016.70
439.75	1034.60
440.13	1055.00
440.50	1074.11
440.87	1090.00
441.24	1106.42
441.61	1124.49
441.98	1137.80
442.35	1153.38
442.72	1169.42
443.09	1185.22
443.46	1195.11
443.83	1201.97
444.20	1208.19
444.57	1216.27
444.94	1220.90
445.31	1225.55
445.68	1230.15
446.05	1232.17
446.42	1230.69
446.79	1229.05
447.16	1227.08
447.53	1225.94
447.90	1218.87
448.27	1211.89
448.64	1201.68
449.01	1194.55
449.37	1181.16
449.74	1167.86
450.11	1152.27
450.48	1134.85
450.85	1116.66
451.22	1101.22
451.59	1086.60
451.96	1072.69
452.33	1053.85
452.70	1036.65
453.07	1016.50
453.43	995.50
453.80	975.85
454.17	957.08
454.54	938.96
454.91	919.45
455.28	900.34
455.65	882.54
456.02	865.82
456.38	850.84
456.75	832.10
457.12	816.46
457.49	801.85
457.86	786.92
458.23	774.50
458.59	760.92
458.96	747.28
459.33	735.17
459.70	722.84
460.07	713.19
460.43	702.11
460.80	691.67
461.17	682.80
461.54	673.42
461.91	664.15
462.27	654.87
462.64	647.13
463.01	638.76
463.38	630.73
463.74	621.46
464.11	614.02
464.48	607.90
464.85	601.22
465.21	596.01
465.58	590.36
465.95	583.41
466.32	577.95
466.68	572.30
467.05	566.78
467.42	561.31
467.78	555.48
468.15	550.13
468.52	546.23
468.88	540.76
469.25	535.82
469.62	532.23
469.98	528.16
470.35	524.44
470.72	520.86
471.08	516.63
471.45	513.39
471.82	510.32
472.18	506.62
472.55	504.14
472.92	500.90
473.28	498.30
473.65	495.85
474.02	493.15
474.38	490.97
474.75	489.15
475.11	486.99
475.48	485.53
475.85	484.18
476.21	482.61
476.58	481.66
476.94	481.03
477.31	480.10
477.67	479.07
478.04	478.17
478.41	477.77
478.77	478.31
479.14	477.82
479.50	477.57
479.87	477.61
480.23	477.55
480.60	477.31
480.96	477.26
481.33	478.05
481.69	478.73
482.06	479.23
482.42	479.44
482.79	480.31
483.15	481.38
483.52	482.71
483.88	483.81
484.25	484.80
484.61	486.15
484.98	487.37
485.34	489.45
485.71	491.50
486.07	493.33
486.44	494.54
486.80	496.61
487.17	498.87
487.53	501.68
487.90	504.53
488.26	508.01
488.62	511.28
488.99	514.04
489.35	517.18
489.72	520.99
490.08	524.73
490.44	528.36
490.81	532.29
491.17	536.27
491.54	540.86
491.90	545.27
492.26	549.86
492.63	554.77
492.99	559.54
493.36	564.78
493.72	570.50
494.08	576.21
494.45	582.53
494.81	588.94
495.17	595.03
495.54	601.70
495.90	608.19
496.26	614.78
496.63	621.75
496.99	628.97
497.35	636.11
497.72	643.92
498.08	651.80
498.44	659.90
498.80	668.33
499.17	676.36
499.53	684.75
499.89	693.51
500.26	702.26
500.62	710.98
500.98	720.29
501.34	729.17
501.71	738.70
502.07	747.80
502.43	757.07
502.79	766.58
503.16	775.93
503.52	785.47
503.88	795.30
504.24	805.67
504.60	815.85
504.97	826.39
505.33	836.67
505.69	847.70
506.05	858.10
506.41	868.16
506.78	878.69
507.14	889.37
507.50	900.02
507.86	910.64
508.22	921.68
508.59	931.82
508.95	942.55
509.31	953.40
509.67	964.16
510.03	974.48
510.39	985.10
510.75	995.55
511.12	1006.10
511.48	1016.54
511.84	1026.76
512.20	1036.73
512.56	1046.43
512.92	1056.73
513.28	1066.05
513.64	1075.83
514.00	1085.63
514.37	1095.51
514.73	1105.11
515.09	1114.40
515.45	1123.78
515.81	1132.50
516.17	1141.58
516.53	1150.25
516.89	1158.67
517.25	1167.49
517.61	1176.83
517.97	1185.75
518.33	1194.31
518.69	1202.60
519.05	1210.99
519.41	1219.08
519.77	1227.72
520.13	1235.58
520.49	1242.36
520.85	1249.78
521.21	1257.44
521.57	1264.63
521.93	1270.97
522.29	1277.90
522.65	1284.01
523.01	1289.93
523.37	1295.83
523.73	1301.81
524.09	1307.00
524.45	1312.00
524.81	1316.86
525.17	1321.61
525.53	1326.28
525.89	1331.00
526.25	1335.82
526.61	1339.82
526.97	1344.34
527.33	1348.80
527.68	1354.38
528.04	1359.26
528.40	1363.71
528.76	1368.21
529.12	1372.38
529.48	1376.88
529.84	1380.52
530.20	1385.12
530.56	1389.80
530.91	1394.08
531.27	1397.90
531.63	1402.30
531.99	1406.64
532.35	1410.58
532.71	1414.48
533.07	1418.48
533.42	1422.11
533.78	1425.73
534.14	1430.11
534.50	1433.55
534.86	1437.53
535.21	1439.87
535.57	1443.21
535.93	1446.25
536.29	1448.90
536.65	1452.60
537.00	1455.81
537.36	1459.00
537.72	1461.66
538.08	1464.44
538.44	1467.33
538.79	1470.21
539.15	1473.41
539.51	1476.21
539.87	1478.84
540.22	1480.82
540.58	1482.89
540.94	1484.53
541.29	1486.13
541.65	1487.25
542.01	1488.99
542.37	1489.26
542.72	1490.21
543.08	1491.01
543.44	1492.30
543.79	1492.64
544.15	1492.87
544.51	1493.34
544.87	1493.86
545.22	1494.04
545.58	1493.80
545.94	1493.33
546.29	1492.67
546.65	1491.72
547.01	1490.67
547.36	1489.63
547.72	1488.73
548.07	1487.32
548.43	1486.90
548.79	1486.23
549.14	1485.60
549.50	1484.57
549.86	1483.40
550.21	1482.45
550.57	1481.74
550.92	1479.90
551.28	1478.97
551.64	1478.14
551.99	1477.34
552.35	1475.92
552.70	1475.12
553.06	1474.10
553.41	1473.46
553.77	1473.44
554.13	1472.92
554.48	1472.76
554.84	1472.23
555.19	1472.15
555.55	1472.78
555.90	1471.92
556.26	1470.66
556.61	1469.00
556.97	1467.19
557.32	1466.92
557.68	1466.12
558.03	1465.55
558.39	1464.66
558.74	1463.85
559.10	1462.28
559.45	1460.85
559.81	1459.71
560.16	1457.58
560.52	1455.97
560.87	1454.79
561.23	1452.96
561.58	1451.82
561.94	1449.45
562.29	1447.58
562.64	1445.66
563.00	1442.68
563.35	1441.02
563.71	1439.80
564.06	1438.69
564.42	1437.37
564.77	1435.66
565.12	1434.28
565.48	1433.12
565.83	1432.20
566.19	1430.70
566.54	1429.22
566.89	1427.12
567.25	1425.70
567.60	1425.22
567.96	1424.95
568.31	1423.60
568.66	1422.34
569.02	1420.03
569.37	1418.80
569.72	1417.39
570.08	1414.97
570.43	1412.61
570.78	1410.88
571.14	1408.60
571.49	1406.17
571.84	1404.09
572.20	1401.51
572.55	1398.80
572.90	1394.90
573.26	1391.88
573.61	1388.88
573.96	1385.79
574.31	1382.88
574.67	1379.39
575.02	1375.42
575.37	1371.19
575.72	1367.10
576.08	1362.94
576.43	1359.26
576.78	1355.10
577.13	1351.19
577.49	1347.89
577.84	1344.81
578.19	1341.04
578.54	1337.73
578.90	1334.50
579.25	1331.20
579.60	1327.46
579.95	1323.32
580.30	1319.74
580.66	1315.46
581.01	1311.20
581.36	1306.94
581.71	1303.00
582.06	1299.16
582.42	1295.43
582.77	1291.26
583.12	1287.68
583.47	1284.15
583.82	1280.70
584.17	1277.19
584.53	1273.74
584.88	1269.50
585.23	1265.11
585.58	1260.55
585.93	1255.73
586.28	1250.99
586.63	1245.66
586.98	1240.69
587.34	1236.53
587.69	1231.71
588.04	1227.80
588.39	1223.94
588.74	1219.80
589.09	1215.90
589.44	1211.23
589.79	1206.79
590.14	1202.62
590.49	1198.15
590.84	1193.63
591.19	1188.96
591.54	1184.41
591.89	1179.40
592.25	1176.37
592.60	1172.48
592.95	1168.28
593.30	1164.03
593.65	1159.57
594.00	1155.10
594.35	1153.35
594.70	1148.37
595.05	1143.93
595.40	1138.96
595.75	1133.95
596.10	1129.56
596.45	1125.01
596.80	1120.90
597.15	1116.21
597.50	1111.41
597.85	1107.02
598.19	1102.25
598.54	1097.33
598.89	1092.52
599.24	1088.46
599.59	1083.29
599.94	1078.31
600.29	1073.71
600.64	1069.08
600.99	1064.56
601.34	1061.00
601.69	1054.40
602.04	1050.56
602.39	1046.18
602.74	1042.49
603.08	1038.35
603.43	1034.18
603.78	1029.90
604.13	1025.47
604.48	1021.57
604.83	1017.00
605.18	1012.32
605.53	1008.10
605.87	1004.10
606.22	1000.51
606.57	996.09
606.92	991.30
607.27	987.54
607.62	983.61
607.96	980.05
608.31	976.29
608.66	972.09
609.01	967.78
609.36	963.32
609.70	959.25
610.05	954.71
610.40	950.64
610.75	946.24
611.10	941.70
611.44	937.08
611.79	932.33
612.14	928.34
612.49	924.01
612.83	919.62
613.18	915.15
613.53	910.51
613.88	905.99
614.22	901.47
614.57	896.53
614.92	891.71
615.27	887.04
615.61	882.34
615.96	877.80
616.31	873.24
616.65	869.37
617.00	865.33
617.35	861.08
617.70	856.53
618.04	851.83
618.39	847.46
618.74	844.01
619.08	839.94
619.43	835.55
619.78	831.06
620.12	826.69
620.47	822.58
620.82	818.09
621.16	813.57
621.51	809.76
621.85	805.82
622.20	801.80
622.55	797.49
622.89	793.46
623.24	789.28
623.59	785.10
623.93	780.83
624.28	776.45
624.62	773.27
624.97	769.69
625.32	766.06
625.66	762.05
626.01	757.44
626.35	753.61
626.70	749.72
627.04	746.71
627.39	742.65
627.73	738.73
628.08	735.00
628.43	731.27
628.77	727.28
629.12	723.37
629.46	719.90
629.81	716.53
630.15	712.98
630.50	709.30
630.84	705.89
631.19	702.25
631.53	698.92
631.88	694.37
632.22	690.37
632.57	687.09
632.91	683.45
633.26	680.33
633.60	676.42
633.95	672.79
634.29	668.32
634.64	664.94
634.98	661.25
635.32	657.64
635.67	654.46
636.01	651.01
636.36	647.62
636.70	644.40
637.05	640.73
637.39	637.36
637.73	634.01
638.08	630.84
638.42	627.20
638.77	623.75
639.11	620.21
639.45	616.63
639.80	612.78
640.14	609.65
640.49	606.00
640.83	602.83
641.17	599.75
641.52	596.75
641.86	593.67
642.20	591.37
642.55	588.31
642.89	585.35
643.23	582.47
643.58	579.76
643.92	576.19
644.26	573.07
644.61	569.88
644.95	566.86
645.29	563.48
645.64	560.90
645.98	557.92
646.32	555.40
646.66	552.50
647.01	549.88
647.35	547.09
647.69	544.36
648.04	541.82
648.38	539.21
648.72	536.48
649.06	533.71
649.41	530.34
649.75	527.61
650.09	524.71
650.43	521.94
650.78	518.91
651.12	516.37
651.46	513.79
651.80	511.28
652.14	508.88
652.49	506.88
652.83	504.18
653.17	501.71
653.51	498.88
653.85	496.71
654.20	494.28
654.54	491.70
654.88	489.28
655.22	487.28
655.56	484.93
655.90	482.72
656.25	480.47
656.59	478.46
656.93	476.40
657.27	474.50
657.61	471.93
657.95	469.82
658.29	467.57
658.64	465.45
658.98	463.20
659.32	460.65
659.66	458.22
660.00	456.26
660.34	454.14
660.68	451.97
661.02	449.78
661.36	447.50
661.70	445.48
662.05	443.34
662.39	441.04
662.73	439.12
663.07	437.63
663.41	435.58
663.75	433.39
664.09	431.28
664.43	429.01
664.77	427.27
665.11	425.30
665.45	423.45
665.79	421.72
666.13	419.85
666.47	417.95
666.81	416.06
667.15	413.76
667.49	412.06
667.83	410.61
668.17	408.99
668.51	407.41
668.85	405.76
669.19	404.62
669.53	402.86
669.87	400.97
670.21	398.90
670.55	397.42
670.89	396.22
671.23	394.75
671.57	393.18
671.91	391.62
672.25	390.14
672.58	388.98
672.92	387.11
673.26	385.80
673.60	384.58
673.94	383.30
674.28	382.13
674.62	380.69
674.96	379.10
675.30	377.60
675.64	376.05
675.97	374.59
676.31	372.82
676.65	371.32
676.99	370.34
677.33	368.82
677.67	367.49
678.01	365.74
678.34	364.32
678.68	363.12
679.02	361.73
679.36	360.46
679.70	358.84
680.04	357.65
680.37	356.28
680.71	355.02
681.05	353.72
681.39	352.60
681.73	351.46
682.06	350.20
682.40	348.99
682.74	348.09
683.08	347.22
683.42	346.01
683.75	345.06
684.09	343.66
684.43	342.63
684.77	341.40
685.10	340.37
685.44	339.32
685.78	338.07
686.12	337.06
686.45	335.83
686.79	334.67
687.13	333.90
687.46	332.88
687.80	332.00
688.14	330.73
688.48	329.71
688.81	328.68
689.15	327.98
689.49	327.00
689.82	325.87
690.16	324.52
690.50	323.60
690.83	322.42
691.17	321.22
691.51	320.21
691.84	319.43
692.18	318.38
692.52	317.29
692.85	316.56
693.19	315.97
693.52	315.22
693.86	314.22
694.20	313.11
694.53	312.21
694.87	311.26
695.21	310.44
695.54	309.56
695.88	308.45
696.21	307.17
696.55	306.22
696.88	305.44
697.22	304.65
697.56	303.94
697.89	303.18
698.23	302.54
698.56	301.64
698.90	300.84
699.23	300.04
699.57	299.40
699.90	298.41
700.24	297.29
700.58	296.53
700.91	296.06
701.25	296.09
701.58	296.10
701.92	295.56
702.25	294.93
702.59	294.14
702.92	293.59
703.26	293.08
703.59	292.48
703.93	292.56
704.26	292.00
704.60	291.48
704.93	290.84
705.26	290.18
705.60	289.89
705.93	289.13
706.27	288.80
706.60	288.37
706.94	288.34
707.27	287.75
707.61	287.23
707.94	286.54
708.27	285.14
708.61	283.83
708.94	283.19
709.28	282.67
709.61	282.18
709.94	281.59
710.28	281.15
710.61	280.66
710.95	279.32
711.28	279.42
711.61	278.76
711.95	278.42
712.28	277.76
712.61	277.25
712.95	277.20
713.28	277.09
713.61	276.33
713.95	275.49
714.28	275.06
714.61	274.49
714.95	273.99
715.28	273.48
715.61	272.93
715.95	272.48
716.28	271.82
716.61	271.40
716.95	270.88
717.28	270.33
717.61	269.88
717.94	269.46
718.28	268.27
718.61	267.84
718.94	267.27
719.27	266.87
719.61	266.27
719.94	265.70
720.27	264.78
720.60	264.44
720.94	263.99
721.27	263.71
721.60	263.47
721.93	263.13
722.27	263.24
722.60	262.95
722.93	262.44
723.26	262.33
723.59	261.88
723.93	261.71
724.26	261.31
724.59	260.93
724.92	260.65
725.25	260.60
725.59	260.10
725.92	259.83
726.25	259.58
726.58	259.37
726.91	258.92
727.24	258.77
727.57	258.49
727.91	258.02
728.24	257.76
728.57	257.38
728.90	257.20
729.23	256.49
729.56	256.74
729.89	256.56
730.22	256.22
730.55	255.88
730.89	255.51
731.22	255.38
731.55	255.08
731.88	254.79
732.21	254.33
732.54	254.10
732.87	253.82
733.20	253.60
733.53	253.46
733.86	253.29
734.19	252.97
734.52	252.84
734.85	253.33
735.18	252.89
735.51	253.01
735.84	252.80
736.17	252.98
736.50	252.22
736.83	253.01
737.16	252.80
737.49	252.66
737.82	252.48
738.15	252.53
738.48	252.33
738.81	252.17
739.14	251.91
739.47	251.61
739.80	251.38
740.13	251.32
740.46	250.84
740.79	250.53
741.12	250.32
741.45	250.03
741.78	249.34
742.11	249.46
742.44	249.02
742.77	248.97
743.10	248.51
743.43	248.33
743.75	247.21
744.08	248.21
744.41	248.00
744.74	247.81
745.07	247.27
745.40	247.30
745.73	247.52
746.06	247.41
746.39	247.45
746.71	247.36
747.04	247.12
747.37	247.03
747.70	247.05
748.03	246.91
748.36	246.84
748.68	246.62
749.01	246.24
749.34	246.06
749.67	245.86
750.00	245.93
750.33	246.46
750.65	246.29
750.98	244.87
751.31	244.81
751.64	244.65
751.97	245.11
752.29	244.82
752.62	244.16
752.95	243.96
753.28	243.64
753.60	243.41
753.93	243.42
754.26	243.37
754.59	242.95
754.91	242.68
755.24	242.54
755.57	242.37
755.90	242.20
756.22	242.00
756.55	241.72
756.88	241.25
757.20	240.41
757.53	240.02
757.86	239.97
758.19	239.79
758.51	239.69
758.84	238.99
759.17	238.81
759.49	238.65
759.82	238.95
760.15	239.00
760.47	238.87
760.80	238.44
761.13	238.46
761.45	238.29
761.78	238.20
762.11	238.00
762.43	237.70
762.76	237.51
763.08	237.55
763.41	237.52
763.74	237.64
764.06	237.56
764.39	237.53
764.71	237.46
765.04	237.28
765.37	237.05
765.69	236.99
766.02	236.83
766.34	236.85
766.67	236.35
767.00	236.32
767.32	236.68
767.65	237.16
767.97	236.90
768.30	236.95
768.62	236.84
768.95	236.67
769.27	236.73
769.60	236.87
769.92	236.60
770.25	236.42
770.57	236.12
770.90	236.06
771.22	235.88
771.55	235.76
771.87	235.80
772.20	235.80
772.52	236.51
772.85	237.58
773.17	237.41
773.50	237.44
773.82	237.25
774.15	236.77
774.47	236.15
774.80	235.99
775.12	235.92
775.45	235.75
775.77	235.75
776.09	235.75
776.42	235.70
776.74	235.87
777.07	235.84
777.39	235.78
777.72	235.70
778.04	235.78
778.36	235.54
778.69	235.53
779.01	235.49
779.33	234.66
779.66	233.56
779.98	233.63
780.31	233.55
780.63	233.87
780.95	234.01
781.28	233.98
781.60	233.96
781.92	233.84
782.25	233.99
782.57	234.00
782.89	233.83
783.22	233.77
783.54	233.67
783.86	233.62
784.19	233.62
784.51	233.90
784.83	233.75
785.16	233.83
785.48	233.81
785.80	233.80
786.12	233.80
786.45	233.76
786.77	233.70
787.09	233.58
787.42	233.25
787.74	233.20
788.06	233.09
788.38	232.98
788.71	232.86
789.03	232.75
789.35	232.80
789.67	232.75
789.99	232.64
790.32	232.42
790.64	232.41
790.96	233.10
791.28	232.70
791.61	232.68
791.93	232.68
792.25	232.52
792.57	233.23
792.89	233.02
793.21	233.02
793.54	232.84
793.86	232.75
794.18	232.70
794.50	232.56
794.82	232.60
795.14	232.72
795.47	232.88
795.79	232.92
796.11	232.70
796.43	232.63
796.75	232.65
797.07	232.69
797.39	232.61
797.71	231.96
798.04	231.97
798.36	231.93
798.68	231.81
799.00	231.87
799.32	231.14
799.64	231.32
799.96	231.29
800.28	231.50
800.60	231.36
800.92	231.39
801.24	231.24
801.56	231.20
801.89	231.10
802.21	231.18
802.53	230.90
802.85	231.02
803.17	231.43
803.49	231.16
803.81	231.12
804.13	231.05
804.45	230.88
804.77	230.86
805.09	230.81
805.41	230.74
805.73	230.51
806.05	230.40
806.37	230.33
806.69	230.32
807.01	230.18
807.33	230.29
807.65	229.90
807.97	230.27
808.28	230.21
808.60	230.11
808.92	229.89
809.24	230.53
809.56	230.41
809.88	230.04
810.20	230.05
810.52	230.30
810.84	230.16
811.16	230.00
811.48	229.95
811.80	230.27
812.12	230.29
812.43	230.45
812.75	230.40
813.07	230.30
813.39	230.22
813.71	230.01
814.03	229.96
814.35	229.99
814.67	229.65
814.98	229.52
815.30	229.49
815.62	229.29
815.94	228.65
816.26	229.04
816.58	228.80
816.89	228.91
817.21	228.57
817.53	228.63
817.85	228.70
818.17	228.73
818.48	228.42
818.80	228.62
819.12	228.57
819.44	228.45
819.76	228.26
820.07	228.25
820.39	228.24
820.71	228.29
821.03	228.34
821.34	228.19
821.66	228.37
821.98	228.44
822.30	228.43
822.61	228.93
822.93	228.43
823.25	228.51
823.57	228.48
823.88	228.68
824.20	228.63
824.52	228.81
824.83	228.64
825.15	228.50
825.47	228.40
825.79	228.34
826.10	228.31
826.42	228.30
826.74	228.43
827.05	228.51
827.37	228.62
827.69	228.66
828.00	228.79
828.32	228.80
828.64	228.72
828.95	229.23
829.27	229.09
829.58	229.10
829.90	229.26
830.22	229.29
830.53	229.00
830.85	228.97
831.17	228.66
831.48	228.76
831.80	228.85
832.11	228.81
832.43	228.72
832.75	228.71
833.06	229.30
833.38	228.93
833.69	228.88
834.01	228.85
834.32	228.78
834.64	228.70
834.96	228.75
835.27	228.67
835.59	228.40
835.90	228.21
836.22	228.22
836.53	227.97
836.85	227.86
837.16	228.91
837.48	228.96
837.79	229.26
838.11	229.32
838.42	229.31
838.74	229.33
839.05	229.39
839.37	229.36
839.68	228.81
840.00	228.91
840.31	229.10
840.63	229.01
840.94	228.97
841.26	228.96
841.57	228.78
841.88	228.97
842.20	228.81
842.51	228.64
842.83	228.65
843.14	229.51
843.46	229.54
843.77	228.93
844.08	228.80
844.40	228.53
844.71	228.36
845.03	228.23
845.34	228.11
845.65	228.05
845.97	228.10
846.28	228.23
846.60	228.27
846.91	228.06
847.22	228.05
847.54	228.31
847.85	228.26
848.16	228.21
848.48	228.02
848.79	228.49
849.10	228.62
849.42	228.55
849.73	227.64
850.04	227.63
850.36	227.36
850.67	227.56
850.98	227.64
851.30	227.70
851.61	227.72
851.92	227.79
852.23	228.09
852.55	228.13
852.86	228.07
853.17	228.14
853.49	228.35
853.80	228.51
854.11	228.52
854.42	228.70
854.74	228.68
855.05	228.77
855.36	228.18
855.67	228.13
855.99	228.27
856.30	229.46
856.61	229.37
856.92	229.33
857.23	229.36
857.55	229.20
857.86	229.23
858.17	229.48
858.48	229.26
858.79	229.04
859.11	229.14
859.42	229.04
859.73	228.92
860.04	228.92
860.35	228.68
860.66	228.33
860.98	228.25
861.29	228.42
861.60	228.29
861.91	228.55
862.22	228.52
862.53	228.40
862.84	227.30
863.16	227.61
863.47	227.40
863.78	227.27
864.09	227.38
864.40	227.44
864.71	227.34
865.02	227.59
865.33	227.41
865.64	227.23
865.95	227.28
866.27	227.83
866.58	227.70
866.89	227.67
867.20	227.70
867.51	227.61
867.82	227.56
868.13	227.93
868.44	227.68
868.75	227.87
869.06	227.86
869.37	227.95
869.68	227.60
869.99	227.74
870.30	227.71
870.61	227.80
870.92	227.57
871.23	227.47
871.54	227.55
871.85	227.77
872.16	227.91
872.47	227.82
872.78	227.39
873.09	227.47
873.40	227.45
873.71	227.54
874.02	227.56
874.33	227.31
874.64	226.98
874.95	227.21
875.26	226.91
875.56	226.88
875.87	226.70
876.18	226.74
876.49	227.69
876.80	227.62
877.11	227.51
877.42	227.66
877.73	227.70
878.04	227.48
878.35	227.57
878.66	227.54
878.96	227.60
879.27	227.51
879.58	227.42
879.89	227.44
880.20	227.63
880.51	227.57
880.82	227.66
881.12	227.69
881.43	227.51
881.74	227.57
882.05	227.60
882.36	227.81
882.67	227.83
882.97	226.88
883.28	226.86
883.59	226.86
883.90	227.04
884.21	227.23
884.51	227.32
884.82	227.04
885.13	227.03
885.44	227.02
885.74	227.06
886.05	227.00
886.36	227.05
886.67	226.82
886.98	227.33
887.28	227.48
887.59	227.51
887.90	227.54
888.20	227.46
888.51	227.70
888.82	227.60
889.13	227.74
889.43	228.61
889.74	228.75
890.05	228.73
890.35	228.51
890.66	228.28
890.97	228.11
891.28	228.10
891.58	228.13
891.89	228.15
892.20	228.04
892.50	228.01
892.81	227.87
893.12	227.81
893.42	227.42
893.73	227.38
894.04	227.44
894.34	227.50
894.65	227.50
894.95	227.23
895.26	227.25
895.57	227.62
895.87	226.64
896.18	226.71
896.48	226.83
896.79	226.81
897.10	227.07
897.40	227.20
897.71	227.33
898.01	227.34
898.32	227.40
898.63	227.43
898.93	227.43
899.24	227.61
899.54	227.60
899.85	227.45
900.15	227.45
900.46	227.47
900.76	227.52
901.07	227.50
901.38	227.55
901.68	227.70
901.99	227.19
902.29	227.37
902.60	227.34
902.90	227.22
903.21	227.25
903.51	227.07
903.82	227.24
904.12	227.30
904.43	227.31
904.73	227.33
905.03	227.34
905.34	228.36
905.64	228.28
905.95	228.37
906.25	228.47
906.56	228.44
906.86	228.40
907.17	228.43
907.47	228.61
907.77	228.54
908.08	228.31
908.38	228.45
908.69	228.48
908.99	228.51
909.30	228.58
909.60	228.56
909.90	228.68
910.21	228.46
910.51	228.28
910.81	228.30
911.12	228.29
911.42	228.33
911.73	227.28
912.03	227.35
912.33	227.52
912.64	227.47
912.94	227.39
913.24	227.34
913.55	227.26
913.85	227.10
914.15	227.35
914.46	227.43
914.76	227.40
915.06	227.29
915.37	227.11
915.67	227.08
915.97	227.13
916.27	226.99
916.58	227.10
916.88	227.21
917.18	227.12
917.49	227.79
917.79	227.75
918.09	228.02
918.39	228.25
918.70	228.12
919.00	228.16
919.30	228.57
919.60	228.44
919.91	228.33
920.21	228.35
920.51	228.07
920.81	228.07
921.12	228.19
921.42	228.14
921.72	228.36
922.02	228.43
922.32	228.56
922.63	228.56
922.93	228.96
923.23	229.02
923.53	228.93
923.83	228.38
924.13	228.49
924.44	228.44
924.74	228.54
925.04	228.80
925.34	228.84
925.64	228.45
925.94	228.48
926.24	228.98
926.55	228.92
926.85	229.07
927.15	229.04
927.45	228.92
927.75	229.04
928.05	228.97
928.35	228.86
928.65	229.07
928.95	229.20
929.26	228.84
929.56	228.86
929.86	229.01
930.16	228.90
930.46	228.80
930.76	228.79
931.06	228.40
931.36	228.13
931.66	228.25
931.96	228.38
932.26	228.48
932.56	228.12
932.86	228.26
933.16	228.25
933.46	228.13
933.76	228.03
934.06	228.16
934.36	228.40
934.66	228.41
934.96	228.22
935.26	228.25
935.56	228.34
935.86	228.18
936.16	228.15
936.46	228.08
936.76	228.07
937.06	227.96
937.36	227.95
937.66	228.02
937.96	227.98
938.26	227.77
938.56	227.67
938.86	227.69
939.16	227.87
939.46	228.02
939.76	228.11
940.06	228.22
940.35	227.89
940.65	227.50
940.95	227.53
941.25	227.32
941.55	227.15
941.85	227.08
942.15	227.25
942.45	227.44
942.75	227.35
943.04	227.35
943.34	227.51
943.64	227.39
943.94	227.22
944.24	227.28
944.54	227.45
944.84	227.45
945.13	227.33
945.43	227.10
945.73	226.96
946.03	226.89
946.33	226.75
946.62	226.81
946.92	226.75
947.22	226.85
947.52	226.89
947.82	226.99
948.11	226.90
948.41	226.76
948.71	226.48
949.01	226.49
949.31	226.43
949.60	226.47
949.90	226.70
950.20	226.70
950.50	226.61
950.79	226.50
951.09	226.67
951.39	226.62
951.69	226.62
951.98	226.79
952.28	226.92
952.58	226.93
952.87	226.99
953.17	227.19
953.47	226.99
953.76	226.94
954.06	226.76
954.36	226.61
954.66	226.58
954.95	226.80
955.25	226.96
955.55	227.08
955.84	226.85
956.14	226.90
956.44	226.94
956.73	226.73
957.03	226.88
957.32	226.87
957.62	226.84
957.92	227.03
958.21	226.88
958.51	227.77
958.81	227.96
959.10	227.95
959.40	228.10
959.69	228.24
959.99	228.35
960.29	228.41
960.58	228.47
960.88	228.87
961.17	228.85
961.47	228.94
961.76	228.79
962.06	228.92
962.36	228.82
962.65	228.80
962.95	228.93
963.24	228.78
963.54	228.80
963.83	228.86
964.13	228.76
964.42	228.55
964.72	227.89
965.01	227.81
965.31	227.90
965.60	227.70
965.90	228.29
966.19	228.11
966.49	228.17
966.78	228.11
967.08	227.92
967.37	227.85
967.67	227.65
967.96	227.85
968.26	227.83
968.55	227.91
968.85	227.92
969.14	227.90
969.43	227.97
969.73	227.90
970.02	227.91
970.32	227.84
970.61	227.89
970.91	227.54
971.20	227.27
971.49	227.10
971.79	227.20
972.08	226.54
972.38	226.53
972.67	226.47
972.96	226.66
973.26	226.43
973.55	226.63
973.85	226.53
974.14	226.38
974.43	226.47
974.73	226.35
975.02	226.38
975.31	226.33
975.61	226.33
975.90	226.22
976.19	226.17
976.49	226.31
976.78	226.38
977.07	226.48
977.37	226.70
977.66	226.78
977.95	226.66
978.24	226.74
978.54	227.02
978.83	226.96
979.12	226.90
979.42	227.05
979.71	226.88
980.00	226.94
980.29	227.04
980.59	226.84
980.88	227.10
981.17	227.00
981.46	227.09
981.76	227.00
982.05	227.38
982.34	227.44
982.63	227.34
982.93	227.26
983.22	227.57
983.51	227.52
983.80	227.59
984.09	227.80
984.39	227.68
984.68	227.47
984.97	227.62
985.26	227.54
985.55	227.59
985.85	227.46
986.14	227.64
986.43	227.74
986.72	227.69
987.01	227.36
987.30	227.34
987.59	227.19
987.89	227.21
988.18	226.78
988.47	226.65
988.76	226.63
989.05	226.66
989.34	226.41
989.63	226.59
989.92	226.51
990.22	226.23
990.51	226.23
990.80	226.11
991.09	226.15
991.38	226.26
991.67	226.10
991.96	225.99
992.25	225.97
992.54	225.72
992.83	225.84
993.12	225.85
993.41	226.03
993.70	226.44
993.99	226.66
994.28	226.86
994.58	227.03
994.87	226.95
995.16	226.95
995.45	226.89
995.74	226.78
996.03	227.00
996.32	227.22
996.61	227.44
996.90	227.52
997.19	227.44
997.48	227.47
997.77	227.38
998.06	227.48
998.34	227.42
998.63	227.53
998.92	227.48
999.21	227.57
999.50	227.56
999.79	227.27
1000.08	227.24
1000.37	227.29
1000.66	227.16
1000.95	227.40
1001.24	227.42
1001.53	227.51
1001.82	227.40
1002.11	227.10
1002.40	227.18
1002.68	227.40
1002.97	228.14
1003.26	228.06
1003.55	227.91
1003.84	227.96
1004.13	228.34
1004.42	228.25
1004.71	228.24
1004.99	228.15
1005.28	228.42
1005.57	228.45
1005.86	228.39
1006.15	228.23
1006.44	228.09
1006.72	228.21
1007.01	228.01
1007.30	227.99
1007.59	227.98
1007.88	227.98
1008.17	228.06
1008.45	227.83
1008.74	227.42
1009.03	226.98
1009.32	227.00
1009.60	226.99
1009.89	226.98
1010.18	226.50
1010.47	226.45
1010.76	226.37
1011.04	226.40
1011.33	226.34
1011.62	226.35
1011.91	226.38
1012.19	226.42
1012.48	226.43
1012.77	226.41
1013.05	226.84
1013.34	226.90
1013.63	226.80
1013.92	226.77
1014.20	226.74
1014.49	226.80
1014.78	226.87
1015.06	226.59
1015.35	226.54
1015.64	226.69
1015.92	226.80
1016.21	226.95
1016.50	227.00
1016.78	227.23
1017.07	227.26
1017.36	227.06
1017.64	226.93
1017.93	227.10
1018.22	226.96
1018.50	226.93
1018.79	226.92
1019.08	226.55
1019.36	226.61
1019.65	226.53
1019.93	226.88
1020.22	226.96
1020.51	227.40
1020.79	227.30
1021.08	224.00
1021.36	225.20
1021.65	227.40
1021.94	226.80
1022.22	228.10
1022.51	224.90
1022.79	231.80
1023.08	226.80
1023.36	237.50
1023.65	225.10
>>>>>End Processed Spectral Data<<<<<
