SpectraSuite Data File
++++++++++++++++++++++++++++++++++++
Date: Wed Sep 04 17:32:05 EDT 2013
User: lab3
Dark Spectrum Present: Yes
Reference Spectrum Present: No
Number of Sampled Component Spectra: 1
Spectrometers: USB2E7196
Integration Time (usec): 337000 (USB2E7196)
Spectra Averaged: 10 (USB2E7196)
Boxcar Smoothing: 10 (USB2E7196)
Correct for Electrical Dark: No (USB2E7196)
Strobe/Lamp Enabled: No (USB2E7196)
Correct for Detector Non-linearity: No (USB2E7196)
Correct for Stray Light: No (USB2E7196)
Number of Pixels in Processed Spectrum: 2048
>>>>>Begin Processed Spectral Data<<<<<
339.09	0.00
339.48	214.10
339.86	215.40
340.24	214.90
340.63	218.30
341.01	232.60
341.39	219.10
341.78	222.00
342.16	226.40
342.54	224.50
342.93	213.35
343.31	223.97
343.69	224.47
344.07	224.86
344.46	225.46
344.84	225.84
345.22	225.46
345.60	225.82
345.99	226.02
346.37	226.00
346.75	226.08
347.13	226.12
347.52	226.20
347.90	226.56
348.28	226.61
348.66	226.85
349.05	226.59
349.43	226.69
349.81	226.78
350.19	226.71
350.57	226.73
350.96	226.80
351.34	226.99
351.72	227.13
352.10	227.21
352.48	227.13
352.87	227.19
353.25	227.29
353.63	227.24
354.01	227.24
354.39	227.33
354.77	227.37
355.15	227.63
355.54	227.56
355.92	227.26
356.30	227.30
356.68	227.99
357.06	228.03
357.44	227.92
357.82	227.99
358.20	228.97
358.58	229.03
358.97	229.21
359.35	229.47
359.73	229.70
360.11	229.83
360.49	229.93
360.87	229.90
361.25	230.05
361.63	230.50
362.01	230.65
362.39	230.66
362.77	230.82
363.15	230.81
363.53	230.90
363.91	231.11
364.29	231.19
364.67	230.28
365.05	230.27
365.43	230.42
365.81	230.58
366.19	230.22
366.57	230.60
366.95	230.59
367.33	230.35
367.71	230.27
368.09	230.33
368.47	230.30
368.85	230.30
369.23	230.58
369.61	230.14
369.99	230.47
370.37	230.58
370.75	230.97
371.13	230.79
371.51	230.66
371.89	230.69
372.27	230.75
372.65	230.83
373.03	230.91
373.41	230.83
373.78	230.64
374.16	230.17
374.54	229.87
374.92	229.67
375.30	229.68
375.68	229.40
376.06	229.48
376.44	229.43
376.82	229.49
377.19	229.22
377.57	229.07
377.95	228.60
378.33	228.41
378.71	227.84
379.09	227.97
379.47	227.94
379.84	227.69
380.22	227.51
380.60	227.25
380.98	227.07
381.36	226.98
381.73	226.84
382.11	226.87
382.49	226.84
382.87	226.73
383.25	226.65
383.62	227.81
384.00	227.46
384.38	227.47
384.76	227.53
385.13	227.80
385.51	227.87
385.89	227.63
386.27	227.61
386.64	227.63
387.02	227.49
387.40	227.42
387.78	227.47
388.15	227.51
388.53	227.43
388.91	227.47
389.29	227.36
389.66	227.38
390.04	227.20
390.42	227.26
390.79	227.30
391.17	227.34
391.55	226.11
391.92	226.24
392.30	226.31
392.68	226.10
393.05	225.97
393.43	226.01
393.81	226.25
394.18	226.16
394.56	226.10
394.94	226.32
395.31	226.27
395.69	226.48
396.06	226.49
396.44	226.63
396.82	226.63
397.19	227.10
397.57	227.10
397.95	227.31
398.32	227.16
398.70	227.35
399.07	227.52
399.45	227.80
399.82	227.84
400.20	227.79
400.58	227.86
400.95	227.59
401.33	227.87
401.70	228.58
402.08	228.80
402.45	228.95
402.83	229.11
403.20	229.35
403.58	229.42
403.95	229.76
404.33	230.10
404.71	230.33
405.08	231.16
405.46	231.52
405.83	231.89
406.21	232.20
406.58	232.49
406.96	232.88
407.33	233.22
407.70	233.78
408.08	235.00
408.45	235.60
408.83	236.34
409.20	236.75
409.58	236.74
409.95	237.47
410.33	238.28
410.70	238.72
411.08	239.59
411.45	240.33
411.82	241.01
412.20	241.95
412.57	243.36
412.95	243.53
413.32	244.64
413.69	245.65
414.07	246.85
414.44	248.14
414.82	249.37
415.19	250.90
415.56	252.24
415.94	253.29
416.31	255.26
416.68	257.23
417.06	259.31
417.43	261.65
417.81	263.81
418.18	266.26
418.55	268.84
418.93	271.41
419.30	274.06
419.67	276.96
420.04	279.90
420.42	282.88
420.79	287.05
421.16	290.65
421.54	294.93
421.91	298.84
422.28	302.92
422.66	307.26
423.03	312.17
423.40	316.75
423.77	321.44
424.15	326.05
424.52	330.82
424.89	336.40
425.26	341.44
425.64	346.54
426.01	351.90
426.38	357.75
426.75	363.69
427.13	369.80
427.50	376.08
427.87	382.54
428.24	389.02
428.61	394.84
428.99	402.18
429.36	409.06
429.73	416.46
430.10	423.80
430.47	431.35
430.85	438.47
431.22	446.73
431.59	455.98
431.96	464.28
432.33	473.33
432.70	482.39
433.08	492.85
433.45	502.69
433.82	512.63
434.19	523.48
434.56	534.47
434.93	544.67
435.30	555.13
435.68	566.82
436.05	578.04
436.42	589.17
436.79	599.30
437.16	610.59
437.53	622.47
437.90	634.51
438.27	646.28
438.64	658.40
439.01	669.50
439.38	679.14
439.75	688.95
440.13	700.23
440.50	710.46
440.87	719.13
441.24	728.10
441.61	737.85
441.98	745.13
442.35	753.52
442.72	762.28
443.09	770.73
443.46	775.68
443.83	779.31
444.20	782.51
444.57	786.65
444.94	788.69
445.31	790.87
445.68	793.37
446.05	793.80
446.42	792.47
446.79	791.15
447.16	789.46
447.53	788.37
447.90	783.75
448.27	779.14
448.64	772.83
449.01	768.30
449.37	760.46
449.74	752.72
450.11	744.04
450.48	733.59
450.85	722.97
451.22	714.05
451.59	705.42
451.96	697.25
452.33	686.56
452.70	676.87
453.07	665.24
453.43	652.53
453.80	641.61
454.17	630.93
454.54	620.70
454.91	609.70
455.28	598.91
455.65	589.14
456.02	580.69
456.38	572.15
456.75	561.71
457.12	552.79
457.49	544.25
457.86	535.30
458.23	528.74
458.59	520.93
458.96	513.21
459.33	506.30
459.70	499.34
460.07	493.74
460.43	487.45
460.80	481.67
461.17	476.94
461.54	471.47
461.91	466.39
462.27	461.32
462.64	456.99
463.01	452.26
463.38	447.70
463.74	441.66
464.11	437.60
464.48	434.13
464.85	430.37
465.21	427.54
465.58	424.29
465.95	420.27
466.32	417.39
466.68	414.19
467.05	411.30
467.42	408.33
467.78	405.30
468.15	402.28
468.52	400.11
468.88	396.93
469.25	394.16
469.62	392.24
469.98	389.68
470.35	387.61
470.72	385.66
471.08	383.46
471.45	381.71
471.82	380.10
472.18	378.09
472.55	376.57
472.92	374.58
473.28	373.18
473.65	371.64
474.02	369.99
474.38	368.85
474.75	367.75
475.11	366.42
475.48	365.46
475.85	364.54
476.21	363.35
476.58	362.63
476.94	362.10
477.31	361.21
477.67	360.72
478.04	360.04
478.41	359.47
478.77	359.89
479.14	359.17
479.50	358.66
479.87	358.39
480.23	358.15
480.60	357.86
480.96	357.48
481.33	357.74
481.69	357.68
482.06	357.57
482.42	357.48
482.79	357.70
483.15	357.63
483.52	358.07
483.88	358.27
484.25	358.43
484.61	358.69
484.98	358.80
485.34	359.52
485.71	360.21
486.07	360.88
486.44	360.50
486.80	361.27
487.17	361.98
487.53	363.06
487.90	364.08
488.26	365.57
488.62	366.83
488.99	367.67
489.35	369.00
489.72	370.24
490.08	371.58
490.44	372.75
490.81	374.56
491.17	375.92
491.54	377.75
491.90	379.70
492.26	381.49
492.63	383.45
492.99	385.19
493.36	387.17
493.72	389.31
494.08	391.71
494.45	394.20
494.81	396.77
495.17	398.90
495.54	401.44
495.90	403.70
496.26	406.44
496.63	409.30
496.99	412.22
497.35	415.21
497.72	418.26
498.08	421.31
498.44	424.37
498.80	427.88
499.17	430.85
499.53	433.94
499.89	437.50
500.26	440.99
500.62	444.40
500.98	448.09
501.34	451.60
501.71	455.40
502.07	458.89
502.43	462.62
502.79	466.50
503.16	470.49
503.52	474.38
503.88	478.09
504.24	482.11
504.60	486.23
504.97	490.51
505.33	494.60
505.69	499.26
506.05	503.44
506.41	507.51
506.78	511.90
507.14	516.38
507.50	520.97
507.86	525.45
508.22	529.91
508.59	534.26
508.95	538.86
509.31	543.74
509.67	548.57
510.03	552.98
510.39	557.66
510.75	562.21
511.12	566.84
511.48	571.68
511.84	576.31
512.20	580.78
512.56	585.43
512.92	590.20
513.28	595.14
513.64	599.87
514.00	604.77
514.37	609.91
514.73	614.83
515.09	619.62
515.45	624.90
515.81	629.99
516.17	635.16
516.53	640.15
516.89	644.78
517.25	650.06
517.61	655.77
517.97	661.09
518.33	666.33
518.69	672.05
519.05	677.76
519.41	683.47
519.77	689.85
520.13	695.50
520.49	701.05
520.85	709.25
521.21	715.53
521.57	721.65
521.93	727.28
522.29	733.21
522.65	738.67
523.01	744.20
523.37	749.72
523.73	755.42
524.09	761.10
524.45	766.82
524.81	772.59
525.17	778.31
525.53	784.32
525.89	790.49
526.25	796.60
526.61	802.21
526.97	808.12
527.33	814.03
527.68	821.43
528.04	828.01
528.40	831.62
528.76	837.96
529.12	844.29
529.48	851.37
529.84	857.82
530.20	864.97
530.56	872.02
530.91	879.38
531.27	886.51
531.63	894.04
531.99	901.47
532.35	908.57
532.71	915.83
533.07	923.39
533.42	931.72
533.78	939.00
534.14	946.87
534.50	954.25
534.86	961.91
535.21	968.12
535.57	975.90
535.93	983.27
536.29	991.07
536.65	998.84
537.00	1005.77
537.36	1013.19
537.72	1020.57
538.08	1028.12
538.44	1035.30
538.79	1042.62
539.15	1049.94
539.51	1057.23
539.87	1064.60
540.22	1071.50
540.58	1078.44
540.94	1084.08
541.29	1090.35
541.65	1096.35
542.01	1103.48
542.37	1109.12
542.72	1115.21
543.08	1120.72
543.44	1127.00
543.79	1131.91
544.15	1137.50
544.51	1143.52
544.87	1149.40
545.22	1154.63
545.58	1159.92
545.94	1164.89
546.29	1170.00
546.65	1174.80
547.01	1179.38
547.36	1183.99
547.72	1188.90
548.07	1193.37
548.43	1198.22
548.79	1203.02
549.14	1207.84
549.50	1212.27
549.86	1216.91
550.21	1221.53
550.57	1226.04
550.92	1229.43
551.28	1233.90
551.64	1238.00
551.99	1241.92
552.35	1245.57
552.70	1249.46
553.06	1253.44
553.41	1257.45
553.77	1261.77
554.13	1265.47
554.48	1269.35
554.84	1273.33
555.19	1276.81
555.55	1281.19
555.90	1284.16
556.26	1286.85
556.61	1289.47
556.97	1291.31
557.32	1293.86
557.68	1296.50
558.03	1299.12
558.39	1302.09
558.74	1304.56
559.10	1306.65
559.45	1308.55
559.81	1310.27
560.16	1312.10
560.52	1313.49
560.87	1315.22
561.23	1316.21
561.58	1318.38
561.94	1319.17
562.29	1319.54
562.64	1320.43
563.00	1320.01
563.35	1320.99
563.71	1322.27
564.06	1323.48
564.42	1324.62
564.77	1326.09
565.12	1327.45
565.48	1329.40
565.83	1330.20
566.19	1331.02
566.54	1331.26
566.89	1331.86
567.25	1332.80
567.60	1334.06
567.96	1335.80
568.31	1336.76
568.66	1337.23
569.02	1336.52
569.37	1336.82
569.72	1336.98
570.08	1336.57
570.43	1336.39
570.78	1336.07
571.14	1335.69
571.49	1334.26
571.84	1333.44
572.20	1332.04
572.55	1330.39
572.90	1327.89
573.26	1326.26
573.61	1324.31
573.96	1322.71
574.31	1320.62
574.67	1318.51
575.02	1315.25
575.37	1311.54
575.72	1308.20
576.08	1305.44
576.43	1302.56
576.78	1299.51
577.13	1296.65
577.49	1293.97
577.84	1291.52
578.19	1288.77
578.54	1285.69
578.90	1283.59
579.25	1281.32
579.60	1278.43
579.95	1275.09
580.30	1272.00
580.66	1268.90
581.01	1265.50
581.36	1261.96
581.71	1258.78
582.06	1255.89
582.42	1253.01
582.77	1249.86
583.12	1247.04
583.47	1243.57
583.82	1240.65
584.17	1237.40
584.53	1234.62
584.88	1231.04
585.23	1227.45
585.58	1223.37
585.93	1219.31
586.28	1215.35
586.63	1210.99
586.98	1206.40
587.34	1202.44
587.69	1198.11
588.04	1194.33
588.39	1190.76
588.74	1186.85
589.09	1183.36
589.44	1178.60
589.79	1174.48
590.14	1170.60
590.49	1166.38
590.84	1162.36
591.19	1158.37
591.54	1154.45
591.89	1149.93
592.25	1147.15
592.60	1143.06
592.95	1139.23
593.30	1135.31
593.65	1130.88
594.00	1126.21
594.35	1125.07
594.70	1120.66
595.05	1116.50
595.40	1111.85
595.75	1107.13
596.10	1103.38
596.45	1098.99
596.80	1094.79
597.15	1090.49
597.50	1085.79
597.85	1081.63
598.19	1077.21
598.54	1072.40
598.89	1067.84
599.24	1063.64
599.59	1058.51
599.94	1053.94
600.29	1049.50
600.64	1045.44
600.99	1040.99
601.34	1037.18
601.69	1030.42
602.04	1026.36
602.39	1022.23
602.74	1018.72
603.08	1014.71
603.43	1010.38
603.78	1006.02
604.13	1002.00
604.48	997.82
604.83	993.44
605.18	988.83
605.53	984.92
605.87	980.70
606.22	977.02
606.57	972.67
606.92	968.24
607.27	963.86
607.62	959.75
607.96	955.60
608.31	952.08
608.66	948.00
609.01	943.69
609.36	939.72
609.70	935.65
610.05	930.73
610.40	926.58
610.75	922.37
611.10	917.99
611.44	913.28
611.79	908.91
612.14	905.02
612.49	900.63
612.83	896.30
613.18	892.14
613.53	887.78
613.88	883.31
614.22	878.84
614.57	874.42
614.92	869.82
615.27	865.74
615.61	861.09
615.96	856.70
616.31	852.48
616.65	848.47
617.00	844.12
617.35	840.00
617.70	835.79
618.04	831.56
618.39	827.39
618.74	824.12
619.08	820.11
619.43	815.85
619.78	811.77
620.12	807.36
620.47	803.28
620.82	798.99
621.16	794.88
621.51	791.27
621.85	787.60
622.20	783.98
622.55	779.36
622.89	775.42
623.24	771.55
623.59	767.48
623.93	763.43
624.28	759.43
624.62	756.67
624.97	753.49
625.32	749.56
625.66	745.77
626.01	741.35
626.35	737.58
626.70	733.82
627.04	730.37
627.39	726.58
627.73	723.27
628.08	719.63
628.43	715.96
628.77	711.99
629.12	708.20
629.46	704.64
629.81	701.81
630.15	698.32
630.50	694.82
630.84	691.32
631.19	687.70
631.53	684.50
631.88	680.16
632.22	676.22
632.57	673.42
632.91	670.18
633.26	667.28
633.60	663.79
633.95	660.36
634.29	656.59
634.64	653.35
634.98	649.36
635.32	646.17
635.67	643.37
636.01	640.23
636.36	636.80
636.70	633.68
637.05	630.03
637.39	626.77
637.73	623.69
638.08	620.87
638.42	617.67
638.77	614.43
639.11	610.85
639.45	607.18
639.80	603.32
640.14	599.93
640.49	596.31
640.83	593.25
641.17	590.38
641.52	587.49
641.86	584.54
642.20	582.48
642.55	579.32
642.89	576.10
643.23	573.11
643.58	570.93
643.92	567.62
644.26	564.88
644.61	562.50
644.95	559.66
645.29	556.52
645.64	553.84
645.98	550.90
646.32	548.53
646.66	545.93
647.01	543.24
647.35	540.80
647.69	538.33
648.04	535.90
648.38	533.26
648.72	530.74
649.06	527.93
649.41	524.79
649.75	522.07
650.09	519.53
650.43	516.82
650.78	513.70
651.12	511.29
651.46	508.63
651.80	505.75
652.14	503.22
652.49	501.22
652.83	498.79
653.17	496.38
653.51	493.70
653.85	491.48
654.20	489.26
654.54	486.60
654.88	484.13
655.22	481.96
655.56	479.57
655.90	477.38
656.25	475.05
656.59	472.84
656.93	470.80
657.27	468.77
657.61	466.47
657.95	464.45
658.29	462.20
658.64	460.23
658.98	458.07
659.32	455.75
659.66	453.33
660.00	451.17
660.34	449.07
660.68	446.89
661.02	444.89
661.36	442.77
661.70	440.70
662.05	438.69
662.39	436.69
662.73	434.91
663.07	433.42
663.41	431.83
663.75	429.73
664.09	427.73
664.43	425.46
664.77	423.76
665.11	421.80
665.45	420.17
665.79	418.31
666.13	416.35
666.47	414.44
666.81	412.59
667.15	410.51
667.49	408.97
667.83	407.71
668.17	405.90
668.51	404.12
668.85	402.65
669.19	401.75
669.53	399.84
669.87	397.93
670.21	395.81
670.55	393.97
670.89	392.86
671.23	391.29
671.57	389.77
671.91	388.31
672.25	386.79
672.58	385.40
672.92	383.74
673.26	382.42
673.60	381.19
673.94	379.80
674.28	378.65
674.62	377.31
674.96	375.78
675.30	374.44
675.64	373.15
675.97	371.71
676.31	369.69
676.65	368.10
676.99	367.16
677.33	365.74
677.67	364.70
678.01	362.97
678.34	361.79
678.68	360.86
679.02	359.39
679.36	358.27
679.70	356.86
680.04	355.73
680.37	354.50
680.71	353.20
681.05	351.96
681.39	350.81
681.73	349.42
682.06	348.21
682.40	347.10
682.74	346.01
683.08	345.25
683.42	344.20
683.75	343.42
684.09	342.03
684.43	341.10
684.77	339.80
685.10	338.81
685.44	337.64
685.78	336.35
686.12	335.23
686.45	334.02
686.79	332.96
687.13	332.12
687.46	330.99
687.80	330.23
688.14	329.14
688.48	328.05
688.81	327.13
689.15	326.24
689.49	325.13
689.82	324.10
690.16	322.69
690.50	321.63
690.83	320.58
691.17	319.43
691.51	318.35
691.84	317.50
692.18	316.43
692.52	315.50
692.85	314.60
693.19	314.12
693.52	313.25
693.86	312.34
694.20	311.28
694.53	310.50
694.87	309.39
695.21	308.46
695.54	307.46
695.88	306.50
696.21	305.37
696.55	304.59
696.88	303.70
697.22	302.93
697.56	302.27
697.89	301.39
698.23	300.89
698.56	299.98
698.90	299.41
699.23	298.67
699.57	298.12
699.90	297.28
700.24	296.30
700.58	295.59
700.91	294.95
701.25	294.97
701.58	294.93
701.92	294.54
702.25	293.98
702.59	293.42
702.92	292.80
703.26	292.34
703.59	291.67
703.93	291.92
704.26	291.35
704.60	290.73
704.93	290.05
705.26	289.19
705.60	288.86
705.93	287.98
706.27	287.60
706.60	287.11
706.94	287.01
707.27	286.37
707.61	285.93
707.94	285.36
708.27	284.03
708.61	282.63
708.94	281.87
709.28	281.31
709.61	280.60
709.94	280.21
710.28	279.58
710.61	278.99
710.95	277.50
711.28	277.61
711.61	276.99
711.95	276.80
712.28	276.20
712.61	275.72
712.95	275.79
713.28	275.72
713.61	274.98
713.95	274.10
714.28	273.61
714.61	272.89
714.95	272.33
715.28	271.80
715.61	271.42
715.95	271.09
716.28	270.52
716.61	270.30
716.95	269.61
717.28	269.29
717.61	268.84
717.94	268.42
718.28	267.23
718.61	266.84
718.94	266.16
719.27	265.83
719.61	265.33
719.94	264.61
720.27	263.67
720.60	263.25
720.94	262.97
721.27	262.70
721.60	262.58
721.93	262.20
722.27	262.10
722.60	261.94
722.93	261.46
723.26	261.23
723.59	260.75
723.93	260.54
724.26	260.28
724.59	259.98
724.92	259.70
725.25	259.75
725.59	259.39
725.92	259.35
726.25	259.15
726.58	258.91
726.91	258.56
727.24	258.42
727.57	258.18
727.91	257.70
728.24	257.40
728.57	256.93
728.90	256.72
729.23	256.19
729.56	256.32
729.89	256.07
730.22	255.76
730.55	255.46
730.89	255.21
731.22	254.75
731.55	254.47
731.88	254.28
732.21	253.77
732.54	253.57
732.87	253.22
733.20	252.83
733.53	252.53
733.86	252.28
734.19	251.95
734.52	251.91
734.85	252.40
735.18	251.98
735.51	252.10
735.84	252.01
736.17	252.12
736.50	251.32
736.83	252.12
737.16	251.94
737.49	251.79
737.82	251.52
738.15	251.57
738.48	251.33
738.81	251.11
739.14	250.77
739.47	250.46
739.80	250.15
740.13	250.19
740.46	249.78
740.79	249.46
741.12	249.09
741.45	248.68
741.78	247.89
742.11	248.11
742.44	247.70
742.77	247.54
743.10	247.14
743.43	247.01
743.75	245.76
744.08	246.83
744.41	246.60
744.74	246.34
745.07	245.83
745.40	245.83
745.73	246.02
746.06	245.90
746.39	245.78
746.71	245.56
747.04	245.15
747.37	245.13
747.70	245.15
748.03	245.16
748.36	245.18
748.68	245.03
749.01	244.53
749.34	244.38
749.67	244.30
750.00	244.30
750.33	244.90
750.65	244.92
750.98	243.49
751.31	243.40
751.64	243.25
751.97	243.70
752.29	243.45
752.62	242.85
752.95	242.72
753.28	242.61
753.60	242.51
753.93	242.71
754.26	242.66
754.59	242.19
754.91	241.99
755.24	241.64
755.57	241.62
755.90	241.49
756.22	241.26
756.55	241.01
756.88	240.65
757.20	239.82
757.53	239.39
757.86	239.30
758.19	239.19
758.51	239.15
758.84	238.56
759.17	238.37
759.49	238.35
759.82	238.77
760.15	238.67
760.47	238.55
760.80	238.13
761.13	238.13
761.45	238.08
761.78	237.96
762.11	238.01
762.43	237.72
762.76	237.55
763.08	237.54
763.41	237.32
763.74	237.35
764.06	237.11
764.39	237.08
764.71	236.93
765.04	236.74
765.37	236.57
765.69	236.45
766.02	236.37
766.34	236.28
766.67	235.78
767.00	235.93
767.32	236.33
767.65	236.82
767.97	236.67
768.30	236.62
768.62	236.53
768.95	236.31
769.27	236.19
769.60	236.30
769.92	236.14
770.25	236.06
770.57	235.75
770.90	235.77
771.22	235.69
771.55	235.61
771.87	235.59
772.20	235.43
772.52	236.15
772.85	237.29
773.17	237.18
773.50	237.09
773.82	236.95
774.15	236.53
774.47	235.92
774.80	235.70
775.12	235.75
775.45	235.72
775.77	235.70
776.09	235.85
776.42	235.71
776.74	235.91
777.07	235.79
777.39	235.85
777.72	235.74
778.04	235.87
778.36	235.83
778.69	235.80
779.01	235.94
779.33	235.09
779.66	233.95
779.98	233.89
780.31	233.89
780.63	234.03
780.95	233.98
781.28	233.89
781.60	233.78
781.92	233.79
782.25	233.76
782.57	233.71
782.89	233.47
783.22	233.41
783.54	233.22
783.86	233.31
784.19	233.25
784.51	233.45
784.83	233.12
785.16	233.05
785.48	233.06
785.80	232.86
786.12	233.00
786.45	232.88
786.77	232.89
787.09	232.84
787.42	232.54
787.74	232.59
788.06	232.52
788.38	232.56
788.71	232.25
789.03	232.31
789.35	232.35
789.67	232.17
789.99	232.23
790.32	232.07
790.64	232.05
790.96	232.90
791.28	232.56
791.61	232.65
791.93	232.69
792.25	232.63
792.57	233.40
792.89	233.16
793.21	233.26
793.54	233.14
793.86	232.90
794.18	232.91
794.50	232.65
794.82	232.68
795.14	232.63
795.47	232.90
795.79	232.76
796.11	232.60
796.43	232.62
796.75	232.48
797.07	232.33
797.39	232.34
797.71	231.52
798.04	231.52
798.36	231.40
798.68	231.30
799.00	231.36
799.32	230.78
799.64	230.96
799.96	230.91
800.28	231.00
800.60	230.99
800.92	230.97
801.24	230.90
801.56	231.02
801.89	231.06
802.21	230.91
802.53	230.70
802.85	230.85
803.17	231.27
803.49	231.18
803.81	231.14
804.13	231.08
804.45	230.85
804.77	230.97
805.09	231.00
805.41	230.92
805.73	230.67
806.05	230.47
806.37	230.26
806.69	230.05
807.01	229.94
807.33	230.01
807.65	229.66
807.97	230.09
808.28	229.94
808.60	229.86
808.92	229.84
809.24	230.52
809.56	230.25
809.88	229.98
810.20	229.91
810.52	230.15
810.84	229.88
811.16	229.79
811.48	229.69
811.80	229.98
812.12	229.98
812.43	230.14
812.75	230.20
813.07	230.18
813.39	230.27
813.71	230.13
814.03	230.09
814.35	230.16
814.67	229.77
814.98	229.60
815.30	229.63
815.62	229.44
815.94	228.82
816.26	229.37
816.58	229.15
816.89	229.28
817.21	229.10
817.53	229.25
817.85	229.41
818.17	229.32
818.48	229.01
818.80	229.17
819.12	229.00
819.44	228.82
819.76	228.73
820.07	228.72
820.39	228.85
820.71	228.93
821.03	228.95
821.34	228.95
821.66	229.17
821.98	229.23
822.30	229.23
822.61	229.78
822.93	229.31
823.25	229.37
823.57	229.27
823.88	229.46
824.20	229.46
824.52	229.49
824.83	229.56
825.15	229.50
825.47	229.44
825.79	229.58
826.10	229.57
826.42	229.48
826.74	229.53
827.05	229.54
827.37	229.51
827.69	229.60
828.00	229.57
828.32	229.60
828.64	229.41
828.95	229.91
829.27	229.66
829.58	229.70
829.90	229.71
830.22	229.84
830.53	229.59
830.85	229.50
831.17	229.40
831.48	229.39
831.80	229.45
832.11	229.39
832.43	229.28
832.75	229.28
833.06	229.99
833.38	229.77
833.69	229.66
834.01	229.61
834.32	229.47
834.64	229.42
834.96	229.38
835.27	229.46
835.59	229.10
835.90	228.86
836.22	228.81
836.53	228.70
836.85	228.58
837.16	229.66
837.48	229.62
837.79	229.96
838.11	230.00
838.42	229.90
838.74	229.97
839.05	229.90
839.37	229.87
839.68	229.17
840.00	229.20
840.31	229.42
840.63	229.37
840.94	229.29
841.26	229.22
841.57	229.03
841.88	229.07
842.20	228.99
842.51	228.85
842.83	228.77
843.14	229.60
843.46	229.53
843.77	228.83
844.08	228.75
844.40	228.38
844.71	228.17
845.03	228.10
845.34	228.02
845.65	227.95
845.97	227.86
846.28	227.97
846.60	227.95
846.91	227.70
847.22	227.70
847.54	227.86
847.85	227.93
848.16	227.97
848.48	227.79
848.79	228.14
849.10	228.26
849.42	228.26
849.73	227.28
850.04	227.28
850.36	226.87
850.67	227.04
850.98	227.04
851.30	227.25
851.61	227.29
851.92	227.27
852.23	227.59
852.55	227.71
852.86	227.68
853.17	227.75
853.49	227.87
853.80	228.01
854.11	228.12
854.42	228.20
854.74	228.08
855.05	228.07
855.36	227.58
855.67	227.69
855.99	227.74
856.30	229.00
856.61	229.04
856.92	229.14
857.23	229.16
857.55	228.97
857.86	228.92
858.17	229.08
858.48	228.88
858.79	228.70
859.11	228.80
859.42	228.68
859.73	228.55
860.04	228.58
860.35	228.30
860.66	228.02
860.98	227.99
861.29	228.15
861.60	228.15
861.91	228.39
862.22	228.21
862.53	228.01
862.84	226.94
863.16	227.16
863.47	226.97
863.78	226.85
864.09	227.08
864.40	227.18
864.71	227.15
865.02	227.35
865.33	227.22
865.64	227.03
865.95	227.18
866.27	227.78
866.58	227.76
866.89	227.90
867.20	227.94
867.51	227.80
867.82	227.73
868.13	228.12
868.44	227.86
868.75	228.14
869.06	228.35
869.37	228.39
869.68	228.07
869.99	228.29
870.30	228.49
870.61	228.54
870.92	228.24
871.23	228.19
871.54	228.35
871.85	228.60
872.16	228.78
872.47	228.73
872.78	228.28
873.09	228.30
873.40	228.24
873.71	228.30
874.02	228.37
874.33	228.39
874.64	228.12
874.95	228.41
875.26	228.11
875.56	228.02
875.87	228.04
876.18	228.11
876.49	229.10
876.80	228.91
877.11	228.80
877.42	228.98
877.73	228.94
878.04	228.76
878.35	228.79
878.66	228.73
878.96	228.69
879.27	228.67
879.58	228.54
879.89	228.53
880.20	228.75
880.51	228.71
880.82	228.71
881.12	228.73
881.43	228.45
881.74	228.48
882.05	228.43
882.36	228.43
882.67	228.40
882.97	227.30
883.28	227.28
883.59	227.27
883.90	227.30
884.21	227.51
884.51	227.43
884.82	227.29
885.13	227.30
885.44	227.31
885.74	227.30
886.05	227.40
886.36	227.35
886.67	226.99
886.98	227.48
887.28	227.61
887.59	227.51
887.90	227.68
888.20	227.50
888.51	227.69
888.82	227.47
889.13	227.63
889.43	228.48
889.74	228.46
890.05	228.42
890.35	228.28
890.66	228.10
890.97	228.11
891.28	227.94
891.58	227.90
891.89	227.85
892.20	227.82
892.50	227.67
892.81	227.66
893.12	227.72
893.42	227.23
893.73	227.20
894.04	227.36
894.34	227.41
894.65	227.46
894.95	227.41
895.26	227.53
895.57	227.82
895.87	226.88
896.18	227.09
896.48	227.13
896.79	227.15
897.10	227.31
897.40	227.36
897.71	227.56
898.01	227.52
898.32	227.58
898.63	227.52
898.93	227.64
899.24	227.65
899.54	227.60
899.85	227.53
900.15	227.46
900.46	227.41
900.76	227.42
901.07	227.29
901.38	227.29
901.68	227.39
901.99	226.94
902.29	227.06
902.60	226.90
902.90	226.81
903.21	226.83
903.51	226.70
903.82	226.71
904.12	226.66
904.43	226.76
904.73	226.78
905.03	226.76
905.34	227.68
905.64	227.71
905.95	227.73
906.25	227.71
906.56	227.70
906.86	227.67
907.17	227.64
907.47	227.84
907.77	227.66
908.08	227.48
908.38	227.53
908.69	227.64
908.99	227.83
909.30	227.85
909.60	227.94
909.90	228.00
910.21	227.87
910.51	227.77
910.81	227.70
911.12	227.76
911.42	227.79
911.73	226.83
912.03	226.81
912.33	227.08
912.64	227.07
912.94	227.07
913.24	226.86
913.55	226.83
913.85	226.75
914.15	227.02
914.46	227.26
914.76	227.27
915.06	227.19
915.37	227.08
915.67	227.10
915.97	227.00
916.27	226.84
916.58	226.90
916.88	226.74
917.18	226.76
917.49	227.47
917.79	227.50
918.09	227.64
918.39	228.00
918.70	227.90
919.00	227.90
919.30	228.19
919.60	228.17
919.91	228.07
920.21	228.09
920.51	227.89
920.81	227.72
921.12	227.80
921.42	227.76
921.72	227.71
922.02	227.68
922.32	227.84
922.63	227.93
922.93	228.41
923.23	228.60
923.53	228.47
923.83	227.75
924.13	227.84
924.44	227.78
924.74	227.84
925.04	228.01
925.34	228.07
925.64	227.82
925.94	227.92
926.24	228.48
926.55	228.37
926.85	228.51
927.15	228.53
927.45	228.50
927.75	228.57
928.05	228.65
928.35	228.62
928.65	228.72
928.95	228.82
929.26	228.39
929.56	228.52
929.86	228.68
930.16	228.57
930.46	228.42
930.76	228.42
931.06	228.00
931.36	227.81
931.66	228.00
931.96	228.01
932.26	228.09
932.56	227.70
932.86	227.87
933.16	227.82
933.46	227.73
933.76	227.70
934.06	227.87
934.36	228.09
934.66	228.05
934.96	227.94
935.26	227.97
935.56	228.16
935.86	227.98
936.16	227.86
936.46	227.83
936.76	227.84
937.06	227.71
937.36	227.73
937.66	227.69
937.96	227.60
938.26	227.43
938.56	227.31
938.86	227.38
939.16	227.61
939.46	227.68
939.76	227.77
940.06	227.71
940.35	227.49
940.65	227.12
940.95	227.27
941.25	227.04
941.55	226.87
941.85	226.75
942.15	226.99
942.45	227.22
942.75	227.29
943.04	227.32
943.34	227.60
943.64	227.47
943.94	227.40
944.24	227.40
944.54	227.52
944.84	227.51
945.13	227.26
945.43	227.00
945.73	226.93
946.03	226.89
946.33	226.85
946.62	226.86
946.92	226.82
947.22	226.97
947.52	227.06
947.82	227.15
948.11	227.07
948.41	226.78
948.71	226.50
949.01	226.49
949.31	226.40
949.60	226.18
949.90	226.44
950.20	226.38
950.50	226.30
950.79	226.22
951.09	226.40
951.39	226.45
951.69	226.40
951.98	226.57
952.28	226.72
952.58	226.63
952.87	226.64
953.17	226.76
953.47	226.62
953.76	226.70
954.06	226.57
954.36	226.49
954.66	226.48
954.95	226.79
955.25	226.90
955.55	227.11
955.84	227.07
956.14	227.05
956.44	227.18
956.73	227.08
957.03	227.15
957.32	227.08
957.62	227.01
957.92	227.13
958.21	227.07
958.51	228.01
958.81	228.22
959.10	228.32
959.40	228.56
959.69	228.52
959.99	228.60
960.29	228.71
960.58	228.69
960.88	229.12
961.17	228.99
961.47	229.06
961.76	228.93
962.06	229.05
962.36	228.96
962.65	228.95
962.95	229.00
963.24	228.88
963.54	228.94
963.83	228.99
964.13	229.01
964.42	228.80
964.72	228.11
965.01	228.12
965.31	228.10
965.60	227.78
965.90	228.38
966.19	228.17
966.49	228.14
966.78	228.14
967.08	228.07
967.37	228.11
967.67	227.92
967.96	228.00
968.26	227.98
968.55	228.13
968.85	228.06
969.14	228.14
969.43	228.20
969.73	228.23
970.02	228.30
970.32	228.26
970.61	228.14
970.91	227.86
971.20	227.67
971.49	227.45
971.79	227.60
972.08	226.95
972.38	227.02
972.67	227.01
972.96	227.12
973.26	226.96
973.55	227.20
973.85	227.11
974.14	226.99
974.43	227.04
974.73	226.82
975.02	226.80
975.31	226.78
975.61	226.77
975.90	226.63
976.19	226.46
976.49	226.48
976.78	226.58
977.07	226.51
977.37	226.62
977.66	226.83
977.95	226.80
978.24	226.79
978.54	227.05
978.83	226.92
979.12	226.94
979.42	226.92
979.71	226.70
980.00	226.82
980.29	226.95
980.59	226.80
980.88	227.06
981.17	227.11
981.46	227.02
981.76	226.99
982.05	227.24
982.34	227.33
982.63	227.39
982.93	227.50
983.22	227.85
983.51	227.86
983.80	227.95
984.09	227.99
984.39	227.94
984.68	227.77
984.97	227.82
985.26	227.82
985.55	227.85
985.85	227.69
986.14	227.74
986.43	227.83
986.72	227.76
987.01	227.41
987.30	227.28
987.59	227.29
987.89	227.30
988.18	226.99
988.47	226.90
988.76	226.80
989.05	226.64
989.34	226.27
989.63	226.45
989.92	226.34
990.22	226.16
990.51	226.19
990.80	226.09
991.09	226.10
991.38	226.20
991.67	226.01
991.96	225.98
992.25	226.04
992.54	225.90
992.83	226.00
993.12	226.06
993.41	226.38
993.70	226.72
993.99	226.97
994.28	227.15
994.58	227.32
994.87	227.30
995.16	227.33
995.45	227.38
995.74	227.10
996.03	227.16
996.32	227.37
996.61	227.57
996.90	227.55
997.19	227.54
997.48	227.50
997.77	227.50
998.06	227.51
998.34	227.37
998.63	227.38
998.92	227.38
999.21	227.54
999.50	227.41
999.79	227.15
1000.08	227.02
1000.37	227.06
1000.66	226.93
1000.95	227.15
1001.24	227.21
1001.53	227.28
1001.82	227.31
1002.11	227.08
1002.40	227.20
1002.68	227.45
1002.97	228.14
1003.26	228.05
1003.55	227.86
1003.84	227.96
1004.13	228.37
1004.42	228.36
1004.71	228.30
1004.99	228.19
1005.28	228.38
1005.57	228.41
1005.86	228.26
1006.15	228.16
1006.44	227.94
1006.72	228.10
1007.01	227.93
1007.30	228.04
1007.59	228.07
1007.88	227.99
1008.17	228.12
1008.45	227.82
1008.74	227.36
1009.03	226.90
1009.32	226.99
1009.60	227.02
1009.89	226.97
1010.18	226.56
1010.47	226.59
1010.76	226.63
1011.04	226.66
1011.33	226.65
1011.62	226.65
1011.91	226.79
1012.19	226.95
1012.48	226.99
1012.77	227.00
1013.05	227.40
1013.34	227.31
1013.63	227.20
1013.92	227.29
1014.20	227.13
1014.49	227.18
1014.78	227.34
1015.06	227.06
1015.35	227.04
1015.64	227.19
1015.92	227.31
1016.21	227.37
1016.50	227.31
1016.78	227.36
1017.07	227.52
1017.36	227.35
1017.64	227.23
1017.93	227.31
1018.22	227.14
1018.50	227.14
1018.79	227.02
1019.08	226.52
1019.36	226.57
1019.65	226.30
1019.93	226.53
1020.22	226.71
1020.51	227.25
1020.79	227.11
1021.08	225.10
1021.36	225.60
1021.65	226.20
1021.94	225.00
1022.22	227.40
1022.51	221.20
1022.79	230.70
1023.08	228.00
1023.36	238.20
1023.65	224.50
>>>>>End Processed Spectral Data<<<<<
