SpectraSuite Data File
++++++++++++++++++++++++++++++++++++
Date: Wed Sep 04 17:33:56 EDT 2013
User: lab3
Dark Spectrum Present: Yes
Reference Spectrum Present: No
Number of Sampled Component Spectra: 1
Spectrometers: USB2E7196
Integration Time (usec): 337000 (USB2E7196)
Spectra Averaged: 10 (USB2E7196)
Boxcar Smoothing: 10 (USB2E7196)
Correct for Electrical Dark: No (USB2E7196)
Strobe/Lamp Enabled: No (USB2E7196)
Correct for Detector Non-linearity: No (USB2E7196)
Correct for Stray Light: No (USB2E7196)
Number of Pixels in Processed Spectrum: 2048
>>>>>Begin Processed Spectral Data<<<<<
339.09	0.00
339.48	212.80
339.86	214.00
340.24	215.10
340.63	216.00
341.01	231.20
341.39	219.40
341.78	223.10
342.16	225.10
342.54	222.50
342.93	213.07
343.31	223.70
343.69	224.20
344.07	224.64
344.46	225.17
344.84	225.76
345.22	225.56
345.60	225.85
345.99	226.03
346.37	226.16
346.75	226.29
347.13	226.33
347.52	226.50
347.90	226.88
348.28	226.83
348.66	227.14
349.05	226.87
349.43	227.10
349.81	227.20
350.19	227.31
350.57	227.37
350.96	227.48
351.34	227.72
351.72	227.94
352.10	228.12
352.48	228.15
352.87	228.11
353.25	228.12
353.63	228.21
354.01	228.20
354.39	228.29
354.77	228.40
355.15	228.88
355.54	228.82
355.92	228.62
356.30	228.76
356.68	229.28
357.06	229.31
357.44	229.17
357.82	229.25
358.20	229.91
358.58	229.82
358.97	230.03
359.35	230.21
359.73	230.38
360.11	230.41
360.49	230.44
360.87	230.52
361.25	230.66
361.63	230.95
362.01	231.06
362.39	230.94
362.77	231.05
363.15	231.00
363.53	231.01
363.91	231.08
364.29	231.06
364.67	230.23
365.05	230.32
365.43	230.48
365.81	230.53
366.19	230.27
366.57	230.78
366.95	230.73
367.33	230.55
367.71	230.59
368.09	230.80
368.47	230.94
368.85	230.84
369.23	231.11
369.61	230.92
369.99	231.27
370.37	231.49
370.75	231.99
371.13	231.84
371.51	231.76
371.89	231.83
372.27	231.79
372.65	231.85
373.03	231.96
373.41	231.83
373.78	231.81
374.16	231.24
374.54	230.95
374.92	230.74
375.30	230.74
375.68	230.49
376.06	230.48
376.44	230.32
376.82	230.42
377.19	230.26
377.57	230.15
377.95	229.68
378.33	229.56
378.71	228.97
379.09	228.91
379.47	228.95
379.84	228.74
380.22	228.73
380.60	228.50
380.98	228.31
381.36	228.32
381.73	228.12
382.11	228.37
382.49	228.34
382.87	228.29
383.25	228.20
383.62	229.30
384.00	229.10
384.38	229.05
384.76	229.21
385.13	229.43
385.51	229.38
385.89	229.31
386.27	229.27
386.64	229.26
387.02	229.16
387.40	229.07
387.78	229.07
388.15	229.10
388.53	229.05
388.91	229.01
389.29	228.84
389.66	228.90
390.04	228.71
390.42	228.75
390.79	228.79
391.17	228.80
391.55	227.70
391.92	227.64
392.30	227.81
392.68	227.57
393.05	227.54
393.43	227.60
393.81	227.70
394.18	227.61
394.56	227.77
394.94	228.07
395.31	228.05
395.69	228.42
396.06	228.52
396.44	228.70
396.82	228.66
397.19	229.13
397.57	229.13
397.95	229.42
398.32	229.21
398.70	229.37
399.07	229.72
399.45	229.71
399.82	229.85
400.20	229.91
400.58	229.97
400.95	229.74
401.33	230.06
401.70	230.85
402.08	231.08
402.45	231.11
402.83	231.38
403.20	231.63
403.58	231.66
403.95	232.06
404.33	232.42
404.71	232.76
405.08	233.54
405.46	233.91
405.83	234.11
406.21	234.58
406.58	235.02
406.96	235.31
407.33	235.95
407.70	236.49
408.08	237.64
408.45	238.30
408.83	239.04
409.20	239.54
409.58	239.63
409.95	240.44
410.33	241.33
410.70	241.78
411.08	242.68
411.45	243.58
411.82	244.18
412.20	245.28
412.57	246.80
412.95	247.10
413.32	248.36
413.69	249.53
414.07	250.78
414.44	252.15
414.82	253.63
415.19	255.28
415.56	256.86
415.94	258.14
416.31	260.23
416.68	262.22
417.06	264.42
417.43	266.79
417.81	269.26
418.18	271.76
418.55	274.63
418.93	277.43
419.30	280.32
419.67	283.57
420.04	286.64
420.42	289.76
420.79	294.31
421.16	298.10
421.54	302.64
421.91	306.86
422.28	311.17
422.66	315.61
423.03	320.74
423.40	325.58
423.77	330.60
424.15	335.56
424.52	340.94
424.89	347.14
425.26	352.77
425.64	357.90
426.01	363.74
426.38	369.93
426.75	376.49
427.13	382.78
427.50	389.44
427.87	396.33
428.24	403.32
428.61	409.48
428.99	417.26
429.36	424.89
429.73	432.62
430.10	440.42
430.47	448.48
430.85	456.20
431.22	464.80
431.59	474.56
431.96	483.47
432.33	493.16
432.70	502.24
433.08	513.17
433.45	523.67
433.82	534.24
434.19	545.68
434.56	557.05
434.93	567.99
435.30	578.98
435.68	591.26
436.05	603.08
436.42	614.69
436.79	625.67
437.16	637.44
437.53	650.20
437.90	662.60
438.27	675.00
438.64	687.55
439.01	699.48
439.38	709.54
439.75	719.60
440.13	731.47
440.50	742.40
440.87	751.15
441.24	760.53
441.61	770.54
441.98	777.87
442.35	786.14
442.72	795.07
443.09	803.89
443.46	809.15
443.83	812.74
444.20	816.00
444.57	819.71
444.94	821.43
445.31	823.10
445.68	825.68
446.05	826.08
446.42	824.52
446.79	822.67
447.16	820.58
447.53	819.00
447.90	813.49
448.27	808.28
448.64	801.72
449.01	796.64
449.37	787.89
449.74	779.47
450.11	770.43
450.48	759.52
450.85	747.93
451.22	738.21
451.59	728.96
451.96	720.09
452.33	708.73
452.70	698.36
453.07	685.99
453.43	672.70
453.80	660.82
454.17	649.61
454.54	638.71
454.91	626.93
455.28	615.72
455.65	605.38
456.02	596.13
456.38	587.11
456.75	576.10
457.12	567.02
457.49	558.23
457.86	548.76
458.23	541.42
458.59	533.27
458.96	524.93
459.33	517.68
459.70	510.40
460.07	504.66
460.43	497.92
460.80	491.88
461.17	486.70
461.54	481.09
461.91	475.57
462.27	470.06
462.64	465.48
463.01	460.56
463.38	455.92
463.74	449.74
464.11	445.38
464.48	441.72
464.85	437.65
465.21	434.65
465.58	431.46
465.95	427.35
466.32	424.33
466.68	420.93
467.05	417.76
467.42	414.69
467.78	411.37
468.15	408.60
468.52	406.49
468.88	403.23
469.25	400.40
469.62	398.31
469.98	396.06
470.35	394.04
470.72	391.86
471.08	389.20
471.45	387.66
471.82	385.93
472.18	383.84
472.55	382.33
472.92	380.48
473.28	378.90
473.65	377.52
474.02	376.05
474.38	375.13
474.75	374.13
475.11	372.82
475.48	371.97
475.85	370.89
476.21	369.83
476.58	369.14
476.94	368.61
477.31	367.86
477.67	367.30
478.04	366.85
478.41	366.62
478.77	367.52
479.14	367.08
479.50	366.91
479.87	366.83
480.23	366.90
480.60	366.82
480.96	366.73
481.33	367.26
481.69	367.34
482.06	367.63
482.42	367.98
482.79	368.55
483.15	369.05
483.52	370.07
483.88	370.75
484.25	371.34
484.61	372.31
484.98	373.32
485.34	374.70
485.71	375.92
486.07	377.17
486.44	377.42
486.80	378.82
487.17	380.32
487.53	382.24
487.90	384.09
488.26	386.29
488.62	388.55
488.99	390.37
489.35	392.88
489.72	395.35
490.08	397.83
490.44	400.40
490.81	403.40
491.17	406.49
491.54	409.83
491.90	413.36
492.26	416.84
492.63	420.54
492.99	424.24
493.36	428.42
493.72	432.97
494.08	437.79
494.45	442.76
494.81	447.80
495.17	452.99
495.54	458.56
495.90	464.17
496.26	470.07
496.63	476.28
496.99	482.43
497.35	488.95
497.72	496.00
498.08	503.20
498.44	510.60
498.80	518.34
499.17	526.26
499.53	534.59
499.89	543.55
500.26	552.20
500.62	561.44
500.98	571.13
501.34	580.90
501.71	591.03
502.07	601.17
502.43	611.89
502.79	622.89
503.16	634.24
503.52	646.02
503.88	657.78
504.24	670.62
504.60	683.89
504.97	697.60
505.33	711.37
505.69	726.02
506.05	740.44
506.41	755.01
506.78	770.17
507.14	785.82
507.50	801.54
507.86	818.33
508.22	835.07
508.59	852.00
508.95	869.65
509.31	887.80
509.67	906.28
510.03	924.72
510.39	943.51
510.75	962.97
511.12	982.65
511.48	1003.00
511.84	1023.11
512.20	1043.72
512.56	1064.35
512.92	1085.79
513.28	1107.28
513.64	1129.41
514.00	1152.26
514.37	1174.83
514.73	1197.94
515.09	1221.57
515.45	1244.68
515.81	1268.14
516.17	1292.18
516.53	1315.63
516.89	1339.67
517.25	1364.53
517.61	1390.56
517.97	1416.51
518.33	1441.74
518.69	1467.44
519.05	1493.36
519.41	1519.64
519.77	1546.41
520.13	1572.63
520.49	1598.34
520.85	1627.21
521.21	1653.79
521.57	1680.24
521.93	1706.33
522.29	1732.95
522.65	1758.87
523.01	1785.31
523.37	1811.07
523.73	1837.72
524.09	1863.55
524.45	1889.11
524.81	1914.74
525.17	1940.56
525.53	1966.00
525.89	1992.31
526.25	2018.23
526.61	2043.90
526.97	2069.96
527.33	2095.85
527.68	2123.19
528.04	2150.03
528.40	2173.43
528.76	2199.36
529.12	2224.62
529.48	2250.70
529.84	2275.38
530.20	2301.44
530.56	2327.09
530.91	2353.57
531.27	2378.58
531.63	2404.45
531.99	2430.40
532.35	2455.39
532.71	2479.98
533.07	2505.80
533.42	2530.40
533.78	2554.79
534.14	2578.89
534.50	2602.40
534.86	2625.90
535.21	2647.12
535.57	2669.96
535.93	2691.86
536.29	2714.34
536.65	2737.14
537.00	2758.64
537.36	2780.66
537.72	2800.73
538.08	2822.21
538.44	2842.66
538.79	2862.37
539.15	2882.62
539.51	2901.89
539.87	2920.90
540.22	2937.94
540.58	2955.40
540.94	2971.74
541.29	2987.30
541.65	3002.99
542.01	3018.01
542.37	3031.26
542.72	3045.06
543.08	3057.81
543.44	3072.40
543.79	3084.20
544.15	3096.50
544.51	3109.60
544.87	3121.71
545.22	3133.24
545.58	3142.42
545.94	3151.40
546.29	3160.03
546.65	3167.86
547.01	3175.58
547.36	3182.90
547.72	3190.62
548.07	3195.93
548.43	3202.60
548.79	3209.19
549.14	3215.13
549.50	3220.93
549.86	3226.75
550.21	3231.64
550.57	3236.14
550.92	3238.50
551.28	3241.10
551.64	3244.11
551.99	3246.08
552.35	3248.30
552.70	3251.33
553.06	3254.70
553.41	3256.95
553.77	3259.83
554.13	3262.50
554.48	3265.33
554.84	3267.70
555.19	3270.13
555.55	3274.26
555.90	3274.56
556.26	3275.55
556.61	3275.27
556.97	3273.83
557.32	3274.31
557.68	3274.96
558.03	3275.47
558.39	3275.30
558.74	3276.27
559.10	3274.26
559.45	3272.40
559.81	3269.04
560.16	3264.42
560.52	3259.80
560.87	3256.36
561.23	3251.73
561.58	3247.02
561.94	3240.48
562.29	3233.10
562.64	3226.05
563.00	3216.23
563.35	3210.22
563.71	3203.16
564.06	3197.08
564.42	3191.40
564.77	3185.35
565.12	3178.14
565.48	3171.44
565.83	3163.97
566.19	3155.74
566.54	3147.82
566.89	3140.15
567.25	3132.67
567.60	3126.43
567.96	3120.09
568.31	3112.55
568.66	3104.87
569.02	3096.46
569.37	3088.73
569.72	3082.65
570.08	3074.27
570.43	3065.82
570.78	3057.65
571.14	3048.57
571.49	3038.62
571.84	3029.10
572.20	3017.82
572.55	3007.99
572.90	2996.39
573.26	2986.14
573.61	2975.31
573.96	2964.37
574.31	2952.33
574.67	2940.55
575.02	2927.01
575.37	2913.52
575.72	2899.80
576.08	2886.73
576.43	2873.07
576.78	2858.85
577.13	2844.27
577.49	2831.11
577.84	2819.13
578.19	2806.23
578.54	2793.06
578.90	2780.19
579.25	2767.56
579.60	2754.77
579.95	2741.11
580.30	2727.21
580.66	2712.90
581.01	2698.05
581.36	2682.97
581.71	2668.99
582.06	2655.34
582.42	2642.29
582.77	2628.92
583.12	2616.09
583.47	2603.28
583.82	2590.72
584.17	2577.98
584.53	2565.20
584.88	2550.91
585.23	2536.55
585.58	2521.05
585.93	2506.36
586.28	2492.21
586.63	2476.54
586.98	2460.41
587.34	2445.63
587.69	2431.22
588.04	2417.64
588.39	2404.77
588.74	2391.19
589.09	2378.32
589.44	2364.15
589.79	2350.79
590.14	2337.70
590.49	2324.30
590.84	2310.37
591.19	2296.84
591.54	2283.20
591.89	2269.49
592.25	2258.44
592.60	2245.39
592.95	2232.65
593.30	2219.74
593.65	2205.93
594.00	2192.84
594.35	2182.93
594.70	2169.60
595.05	2156.45
595.40	2142.16
595.75	2128.20
596.10	2115.92
596.45	2102.79
596.80	2090.52
597.15	2077.00
597.50	2063.25
597.85	2050.17
598.19	2036.90
598.54	2022.96
598.89	2009.70
599.24	1997.28
599.59	1983.21
599.94	1970.11
600.29	1957.81
600.64	1945.20
600.99	1932.38
601.34	1920.49
601.69	1906.36
602.04	1894.67
602.39	1882.87
602.74	1872.30
603.08	1861.37
603.43	1850.10
603.78	1838.05
604.13	1826.13
604.48	1814.11
604.83	1801.71
605.18	1789.35
605.53	1777.44
605.87	1766.79
606.22	1756.62
606.57	1745.14
606.92	1733.30
607.27	1722.49
607.62	1711.18
607.96	1700.62
608.31	1690.81
608.66	1680.04
609.01	1668.83
609.36	1658.06
609.70	1647.15
610.05	1636.08
610.40	1624.77
610.75	1613.36
611.10	1603.13
611.44	1591.50
611.79	1581.00
612.14	1571.16
612.49	1561.28
612.83	1551.69
613.18	1541.28
613.53	1530.84
613.88	1520.25
614.22	1509.78
614.57	1499.27
614.92	1489.03
615.27	1478.84
615.61	1468.43
615.96	1458.34
616.31	1448.37
616.65	1438.54
617.00	1428.60
617.35	1418.71
617.70	1408.89
618.04	1398.92
618.39	1388.88
618.74	1380.43
619.08	1371.06
619.43	1361.43
619.78	1351.42
620.12	1341.23
620.47	1331.15
620.82	1321.16
621.16	1311.65
621.51	1303.23
621.85	1294.02
622.20	1283.97
622.55	1274.64
622.89	1265.50
623.24	1256.18
623.59	1247.10
623.93	1237.88
624.28	1229.13
624.62	1221.33
624.97	1213.11
625.32	1204.41
625.66	1195.61
626.01	1186.41
626.35	1178.12
626.70	1169.50
627.04	1161.60
627.39	1153.08
627.73	1145.67
628.08	1137.73
628.43	1129.34
628.77	1120.86
629.12	1112.98
629.46	1106.35
629.81	1099.10
630.15	1091.94
630.50	1084.58
630.84	1076.81
631.19	1069.43
631.53	1062.24
631.88	1053.67
632.22	1046.12
632.57	1039.56
632.91	1032.14
633.26	1025.18
633.60	1017.65
633.95	1010.39
634.29	1002.85
634.64	995.93
634.98	987.96
635.32	981.23
635.67	975.09
636.01	968.24
636.36	961.30
636.70	954.68
637.05	947.90
637.39	941.23
637.73	934.75
638.08	928.56
638.42	921.25
638.77	914.21
639.11	906.91
639.45	899.72
639.80	892.51
640.14	885.91
640.49	879.32
640.83	873.27
641.17	867.63
641.52	861.37
641.86	855.38
642.20	850.30
642.55	843.92
642.89	837.90
643.23	832.29
643.58	826.93
643.92	820.49
644.26	814.48
644.61	808.70
644.95	802.91
645.29	797.10
645.64	792.20
645.98	786.70
646.32	781.97
646.66	776.69
647.01	771.60
647.35	766.75
647.69	761.82
648.04	757.06
648.38	752.08
648.72	747.00
649.06	741.86
649.41	736.12
649.75	730.98
650.09	725.46
650.43	720.16
650.78	715.02
651.12	710.37
651.46	705.30
651.80	700.37
652.14	695.68
652.49	691.29
652.83	686.50
653.17	681.88
653.51	676.91
653.85	672.54
654.20	667.90
654.54	663.38
654.88	658.61
655.22	654.36
655.56	649.67
655.90	645.70
656.25	641.56
656.59	637.53
656.93	633.53
657.27	630.06
657.61	625.67
657.95	621.50
658.29	617.19
658.64	613.40
658.98	609.37
659.32	604.93
659.66	600.75
660.00	596.94
660.34	593.02
660.68	589.26
661.02	585.28
661.36	581.30
661.70	577.38
662.05	573.76
662.39	569.87
662.73	566.45
663.07	563.20
663.41	559.65
663.75	555.99
664.09	552.50
664.43	548.48
664.77	545.23
665.11	541.64
665.45	538.50
665.79	535.07
666.13	531.58
666.47	528.45
666.81	525.06
667.15	521.61
667.49	518.68
667.83	516.11
668.17	513.38
668.51	510.77
668.85	508.13
669.19	505.88
669.53	502.76
669.87	499.47
670.21	496.29
670.55	493.55
670.89	491.34
671.23	488.54
671.57	485.96
671.91	483.27
672.25	480.74
672.58	478.21
672.92	475.40
673.26	472.86
673.60	470.34
673.94	467.90
674.28	465.67
674.62	463.23
674.96	460.41
675.30	457.96
675.64	455.38
675.97	452.66
676.31	449.81
676.65	447.22
676.99	445.30
677.33	442.93
677.67	440.65
678.01	438.00
678.34	435.86
678.68	433.57
679.02	431.44
679.36	429.24
679.70	426.97
680.04	425.00
680.37	422.99
680.71	420.95
681.05	419.19
681.39	417.19
681.73	415.26
682.06	413.28
682.40	411.38
682.74	409.62
683.08	408.19
683.42	406.11
683.75	404.57
684.09	402.47
684.43	400.80
684.77	398.85
685.10	397.02
685.44	395.18
685.78	393.37
686.12	391.54
686.45	389.68
686.79	387.94
687.13	386.45
687.46	384.72
687.80	383.24
688.14	381.27
688.48	379.57
688.81	377.83
689.15	376.36
689.49	374.56
689.82	372.86
690.16	370.76
690.50	369.46
690.83	367.82
691.17	366.13
691.51	364.58
691.84	363.14
692.18	361.58
692.52	359.94
692.85	358.44
693.19	357.52
693.52	356.33
693.86	354.74
694.20	353.15
694.53	351.71
694.87	350.10
695.21	348.53
695.54	347.15
695.88	345.59
696.21	343.92
696.55	342.60
696.88	341.09
697.22	339.80
697.56	338.32
697.89	336.90
698.23	335.79
698.56	334.41
698.90	333.31
699.23	332.01
699.57	330.84
699.90	329.54
700.24	327.92
700.58	326.73
700.91	325.76
701.25	325.42
701.58	324.99
701.92	324.18
702.25	323.25
702.59	322.11
702.92	321.20
703.26	320.25
703.59	319.27
703.93	319.20
704.26	318.41
704.60	317.65
704.93	316.59
705.26	315.50
705.60	314.57
705.93	313.40
706.27	312.70
706.60	312.06
706.94	311.75
707.27	310.78
707.61	309.87
707.94	309.04
708.27	307.46
708.61	305.98
708.94	304.96
709.28	304.22
709.61	303.25
709.94	302.53
710.28	301.76
710.61	300.89
710.95	299.27
711.28	298.80
711.61	297.83
711.95	297.38
712.28	296.49
712.61	295.69
712.95	295.45
713.28	294.97
713.61	293.99
713.95	292.78
714.28	292.15
714.61	291.32
714.95	290.47
715.28	289.56
715.61	288.71
715.95	287.99
716.28	287.16
716.61	286.72
716.95	285.76
717.28	285.04
717.61	284.32
717.94	283.53
718.28	282.39
718.61	281.70
718.94	280.90
719.27	280.35
719.61	279.86
719.94	279.06
720.27	278.16
720.60	277.55
720.94	277.12
721.27	276.80
721.60	276.49
721.93	276.05
722.27	275.92
722.60	275.45
722.93	274.85
723.26	274.44
723.59	273.80
723.93	273.57
724.26	273.16
724.59	272.70
724.92	272.52
725.25	272.35
725.59	271.80
725.92	271.46
726.25	271.00
726.58	270.58
726.91	269.97
727.24	269.63
727.57	269.18
727.91	268.62
728.24	268.14
728.57	267.54
728.90	267.13
729.23	266.44
729.56	266.51
729.89	266.20
730.22	265.74
730.55	265.36
730.89	264.98
731.22	264.59
731.55	264.18
731.88	263.74
732.21	263.16
732.54	262.80
732.87	262.47
733.20	262.23
733.53	261.92
733.86	261.82
734.19	261.40
734.52	261.22
734.85	261.59
735.18	261.07
735.51	261.23
735.84	261.08
736.17	261.06
736.50	260.31
736.83	261.03
737.16	260.88
737.49	260.60
737.82	260.24
738.15	260.11
738.48	259.95
738.81	259.58
739.14	259.20
739.47	258.94
739.80	258.56
740.13	258.31
740.46	257.84
740.79	257.26
741.12	256.94
741.45	256.60
741.78	255.81
742.11	255.75
742.44	255.06
742.77	254.81
743.10	254.30
743.43	253.94
743.75	252.70
744.08	253.58
744.41	253.24
744.74	252.81
745.07	252.30
745.40	252.19
745.73	252.35
746.06	252.15
746.39	252.13
746.71	251.88
747.04	251.52
747.37	251.31
747.70	251.27
748.03	251.01
748.36	250.96
748.68	250.70
749.01	250.27
749.34	250.14
749.67	249.91
750.00	249.82
750.33	250.40
750.65	250.38
750.98	249.00
751.31	248.89
751.64	248.80
751.97	249.08
752.29	248.78
752.62	248.07
752.95	247.85
753.28	247.44
753.60	247.10
753.93	247.21
754.26	247.17
754.59	246.78
754.91	246.42
755.24	246.10
755.57	245.99
755.90	245.82
756.22	245.55
756.55	245.21
756.88	244.87
757.20	243.96
757.53	243.41
757.86	243.24
758.19	243.10
758.51	242.99
758.84	242.37
759.17	242.08
759.49	242.11
759.82	242.41
760.15	242.34
760.47	242.23
760.80	241.81
761.13	241.73
761.45	241.47
761.78	241.49
762.11	241.39
762.43	241.01
762.76	240.80
763.08	240.68
763.41	240.63
763.74	240.57
764.06	240.45
764.39	240.35
764.71	240.20
765.04	240.00
765.37	239.83
765.69	239.67
766.02	239.54
766.34	239.28
766.67	238.67
767.00	238.68
767.32	239.13
767.65	239.52
767.97	239.36
768.30	239.38
768.62	239.30
768.95	238.96
769.27	238.87
769.60	238.90
769.92	238.75
770.25	238.51
770.57	238.14
770.90	238.04
771.22	237.93
771.55	237.72
771.87	237.72
772.20	237.54
772.52	238.30
772.85	239.41
773.17	239.29
773.50	239.34
773.82	239.19
774.15	238.58
774.47	237.99
774.80	237.77
775.12	237.67
775.45	237.53
775.77	237.65
776.09	237.62
776.42	237.59
776.74	237.81
777.07	237.64
777.39	237.76
777.72	237.61
778.04	237.66
778.36	237.51
778.69	237.35
779.01	237.35
779.33	236.43
779.66	235.20
779.98	235.11
780.31	234.90
780.63	235.20
780.95	235.32
781.28	235.21
781.60	235.09
781.92	235.06
782.25	234.97
782.57	234.86
782.89	234.79
783.22	234.60
783.54	234.32
783.86	234.39
784.19	234.20
784.51	234.53
784.83	234.30
785.16	234.24
785.48	234.16
785.80	234.09
786.12	234.14
786.45	234.10
786.77	234.13
787.09	234.12
787.42	233.63
787.74	233.62
788.06	233.62
788.38	233.55
788.71	233.40
789.03	233.32
789.35	233.37
789.67	233.17
789.99	233.21
790.32	233.09
790.64	233.21
790.96	233.95
791.28	233.50
791.61	233.50
791.93	233.56
792.25	233.46
792.57	234.07
792.89	233.86
793.21	233.82
793.54	233.66
793.86	233.48
794.18	233.46
794.50	233.24
794.82	233.11
795.14	233.17
795.47	233.34
795.79	233.36
796.11	233.14
796.43	233.11
796.75	233.06
797.07	232.88
797.39	232.64
797.71	231.90
798.04	231.90
798.36	231.80
798.68	231.77
799.00	231.91
799.32	231.37
799.64	231.51
799.96	231.48
800.28	231.64
800.60	231.71
800.92	231.75
801.24	231.59
801.56	231.76
801.89	231.58
802.21	231.55
802.53	231.38
802.85	231.61
803.17	231.97
803.49	231.76
803.81	231.80
804.13	231.89
804.45	231.77
804.77	231.81
805.09	231.88
805.41	231.79
805.73	231.59
806.05	231.36
806.37	231.26
806.69	231.24
807.01	231.20
807.33	231.14
807.65	230.96
807.97	231.48
808.28	231.39
808.60	231.49
808.92	231.30
809.24	231.93
809.56	231.72
809.88	231.44
810.20	231.57
810.52	231.69
810.84	231.48
811.16	231.38
811.48	231.28
811.80	231.62
812.12	231.58
812.43	231.73
812.75	231.79
813.07	231.71
813.39	231.70
813.71	231.48
814.03	231.45
814.35	231.43
814.67	230.97
814.98	230.80
815.30	230.68
815.62	230.63
815.94	230.00
816.26	230.42
816.58	230.25
816.89	230.29
817.21	230.09
817.53	230.18
817.85	230.24
818.17	230.23
818.48	229.90
818.80	230.13
819.12	230.00
819.44	229.88
819.76	229.79
820.07	229.78
820.39	229.78
820.71	229.86
821.03	229.77
821.34	229.69
821.66	229.85
821.98	230.00
822.30	229.90
822.61	230.43
822.93	229.97
823.25	229.82
823.57	229.71
823.88	229.86
824.20	229.84
824.52	229.94
824.83	229.97
825.15	229.72
825.47	229.59
825.79	229.65
826.10	229.55
826.42	229.60
826.74	229.70
827.05	229.69
827.37	229.61
827.69	229.61
828.00	229.77
828.32	229.72
828.64	229.61
828.95	230.13
829.27	229.81
829.58	229.73
829.90	229.96
830.22	230.06
830.53	229.88
830.85	229.75
831.17	229.53
831.48	229.46
831.80	229.59
832.11	229.40
832.43	229.24
832.75	229.33
833.06	229.86
833.38	229.58
833.69	229.57
834.01	229.68
834.32	229.65
834.64	229.50
834.96	229.43
835.27	229.34
835.59	228.98
835.90	228.93
836.22	228.95
836.53	228.84
836.85	228.62
837.16	229.55
837.48	229.68
837.79	230.02
838.11	230.07
838.42	230.06
838.74	230.29
839.05	230.13
839.37	230.03
839.68	229.42
840.00	229.49
840.31	229.59
840.63	229.39
840.94	229.28
841.26	229.20
841.57	229.20
841.88	229.36
842.20	229.22
842.51	229.01
842.83	228.99
843.14	229.83
843.46	229.90
843.77	229.41
844.08	229.21
844.40	228.99
844.71	228.91
845.03	228.79
845.34	228.68
845.65	228.81
845.97	228.84
846.28	228.86
846.60	228.83
846.91	228.74
847.22	228.78
847.54	229.03
847.85	229.08
848.16	229.04
848.48	228.88
848.79	229.32
849.10	229.40
849.42	229.49
849.73	228.57
850.04	228.53
850.36	228.17
850.67	228.35
850.98	228.29
851.30	228.30
851.61	228.35
851.92	228.28
852.23	228.57
852.55	228.70
852.86	228.73
853.17	228.83
853.49	229.07
853.80	229.30
854.11	229.36
854.42	229.54
854.74	229.35
855.05	229.39
855.36	228.84
855.67	228.89
855.99	228.87
856.30	230.00
856.61	229.97
856.92	230.02
857.23	229.94
857.55	229.87
857.86	229.90
858.17	230.05
858.48	230.01
858.79	229.80
859.11	229.85
859.42	229.83
859.73	229.76
860.04	229.66
860.35	229.42
860.66	229.11
860.98	229.03
861.29	229.30
861.60	229.21
861.91	229.50
862.22	229.42
862.53	229.26
862.84	228.16
863.16	228.40
863.47	228.28
863.78	228.26
864.09	228.38
864.40	228.50
864.71	228.44
865.02	228.50
865.33	228.30
865.64	228.17
865.95	228.08
866.27	228.66
866.58	228.58
866.89	228.60
867.20	228.62
867.51	228.50
867.82	228.42
868.13	228.69
868.44	228.45
868.75	228.64
869.06	228.66
869.37	228.79
869.68	228.49
869.99	228.60
870.30	228.61
870.61	228.71
870.92	228.46
871.23	228.35
871.54	228.48
871.85	228.82
872.16	228.86
872.47	228.85
872.78	228.33
873.09	228.40
873.40	228.36
873.71	228.44
874.02	228.42
874.33	228.29
874.64	228.11
874.95	228.30
875.26	228.02
875.56	228.02
875.87	227.92
876.18	227.88
876.49	228.96
876.80	228.84
877.11	228.65
877.42	228.78
877.73	228.83
878.04	228.66
878.35	228.59
878.66	228.59
878.96	228.58
879.27	228.47
879.58	228.35
879.89	228.28
880.20	228.58
880.51	228.56
880.82	228.60
881.12	228.65
881.43	228.46
881.74	228.34
882.05	228.32
882.36	228.40
882.67	228.55
882.97	227.37
883.28	227.38
883.59	227.41
883.90	227.44
884.21	227.61
884.51	227.60
884.82	227.45
885.13	227.45
885.44	227.46
885.74	227.49
886.05	227.50
886.36	227.46
886.67	227.11
886.98	227.56
887.28	227.60
887.59	227.53
887.90	227.51
888.20	227.54
888.51	227.75
888.82	227.59
889.13	227.63
889.43	228.42
889.74	228.48
890.05	228.43
890.35	228.32
890.66	228.19
890.97	228.07
891.28	228.06
891.58	227.99
891.89	227.90
892.20	227.80
892.50	227.76
892.81	227.76
893.12	227.73
893.42	227.35
893.73	227.41
894.04	227.50
894.34	227.55
894.65	227.53
894.95	227.40
895.26	227.47
895.57	227.80
895.87	226.95
896.18	226.95
896.48	226.99
896.79	227.01
897.10	227.13
897.40	227.19
897.71	227.21
898.01	227.29
898.32	227.41
898.63	227.47
898.93	227.54
899.24	227.55
899.54	227.53
899.85	227.46
900.15	227.37
900.46	227.30
900.76	227.43
901.07	227.43
901.38	227.44
901.68	227.53
901.99	227.15
902.29	227.20
902.60	227.27
902.90	227.23
903.21	227.18
903.51	227.13
903.82	227.33
904.12	227.36
904.43	227.42
904.73	227.48
905.03	227.46
905.34	228.25
905.64	228.27
905.95	228.29
906.25	228.31
906.56	228.23
906.86	228.29
907.17	228.21
907.47	228.30
907.77	228.18
908.08	228.03
908.38	228.04
908.69	228.09
908.99	228.20
909.30	228.26
909.60	228.33
909.90	228.44
910.21	228.15
910.51	228.01
910.81	227.90
911.12	227.91
911.42	227.90
911.73	226.90
912.03	226.94
912.33	227.12
912.64	227.09
912.94	227.05
913.24	226.85
913.55	226.87
913.85	226.76
914.15	226.99
914.46	227.10
914.76	226.97
915.06	226.91
915.37	226.74
915.67	226.63
915.97	226.55
916.27	226.34
916.58	226.35
916.88	226.29
917.18	226.22
917.49	226.85
917.79	226.87
918.09	227.08
918.39	227.26
918.70	227.22
919.00	227.18
919.30	227.74
919.60	227.68
919.91	227.55
920.21	227.70
920.51	227.37
920.81	227.26
921.12	227.41
921.42	227.42
921.72	227.41
922.02	227.47
922.32	227.69
922.63	227.68
922.93	228.23
923.23	228.35
923.53	228.23
923.83	227.57
924.13	227.65
924.44	227.61
924.74	227.76
925.04	227.79
925.34	227.83
925.64	227.30
925.94	227.40
926.24	227.83
926.55	227.70
926.85	227.87
927.15	227.85
927.45	227.77
927.75	227.68
928.05	227.80
928.35	227.75
928.65	227.88
928.95	227.91
929.26	227.47
929.56	227.66
929.86	227.92
930.16	227.93
930.46	227.76
930.76	227.79
931.06	227.42
931.36	227.34
931.66	227.52
931.96	227.76
932.26	227.84
932.56	227.53
932.86	227.66
933.16	227.82
933.46	227.74
933.76	227.80
934.06	228.03
934.36	228.31
934.66	228.32
934.96	228.20
935.26	228.27
935.56	228.52
935.86	228.38
936.16	228.25
936.46	228.20
936.76	228.24
937.06	228.22
937.36	228.26
937.66	228.25
937.96	228.19
938.26	227.96
938.56	227.83
938.86	227.89
939.16	227.99
939.46	227.94
939.76	228.15
940.06	228.19
940.35	228.02
940.65	227.58
940.95	227.68
941.25	227.46
941.55	227.34
941.85	227.31
942.15	227.45
942.45	227.71
942.75	227.74
943.04	227.73
943.34	227.90
943.64	227.86
943.94	227.70
944.24	227.73
944.54	227.78
944.84	227.91
945.13	227.71
945.43	227.59
945.73	227.55
946.03	227.50
946.33	227.37
946.62	227.31
946.92	227.27
947.22	227.28
947.52	227.33
947.82	227.53
948.11	227.34
948.41	227.21
948.71	226.88
949.01	226.86
949.31	226.85
949.60	226.72
949.90	226.92
950.20	226.94
950.50	226.91
950.79	226.85
951.09	226.98
951.39	227.08
951.69	226.94
951.98	227.09
952.28	227.08
952.58	227.00
952.87	227.03
953.17	227.13
953.47	227.00
953.76	226.94
954.06	226.71
954.36	226.67
954.66	226.65
954.95	227.01
955.25	227.15
955.55	227.20
955.84	227.02
956.14	227.01
956.44	227.10
956.73	227.00
957.03	227.09
957.32	226.92
957.62	226.92
957.92	227.17
958.21	227.02
958.51	228.17
958.81	228.33
959.10	228.46
959.40	228.61
959.69	228.75
959.99	228.96
960.29	229.00
960.58	228.93
960.88	229.12
961.17	228.92
961.47	228.98
961.76	228.84
962.06	229.01
962.36	228.85
962.65	228.91
962.95	228.89
963.24	228.79
963.54	228.88
963.83	228.84
964.13	228.78
964.42	228.61
964.72	227.74
965.01	227.74
965.31	227.62
965.60	227.47
965.90	227.95
966.19	227.71
966.49	227.73
966.78	227.79
967.08	227.79
967.37	227.77
967.67	227.48
967.96	227.79
968.26	227.78
968.55	227.96
968.85	227.88
969.14	227.86
969.43	227.87
969.73	227.73
970.02	227.67
970.32	227.58
970.61	227.60
970.91	227.34
971.20	227.24
971.49	227.21
971.79	227.31
972.08	226.81
972.38	226.89
972.67	226.86
972.96	226.89
973.26	226.72
973.55	227.01
973.85	227.06
974.14	226.94
974.43	227.00
974.73	226.77
975.02	226.74
975.31	226.71
975.61	226.72
975.90	226.75
976.19	226.75
976.49	226.86
976.78	226.94
977.07	226.93
977.37	227.03
977.66	227.11
977.95	226.99
978.24	226.94
978.54	227.06
978.83	227.07
979.12	227.08
979.42	227.12
979.71	227.01
980.00	226.99
980.29	227.04
980.59	226.88
980.88	227.24
981.17	227.17
981.46	227.30
981.76	227.29
982.05	227.51
982.34	227.52
982.63	227.55
982.93	227.51
983.22	227.75
983.51	227.85
983.80	228.03
984.09	228.16
984.39	228.15
984.68	228.15
984.97	228.18
985.26	228.00
985.55	228.04
985.85	227.87
986.14	228.10
986.43	228.26
986.72	228.22
987.01	227.80
987.30	227.84
987.59	227.79
987.89	227.93
988.18	227.76
988.47	227.81
988.76	227.69
989.05	227.71
989.34	227.55
989.63	227.81
989.92	227.58
990.22	227.55
990.51	227.60
990.80	227.47
991.09	227.61
991.38	227.83
991.67	227.75
991.96	227.59
992.25	227.50
992.54	227.14
992.83	227.15
993.12	227.22
993.41	227.43
993.70	227.82
993.99	227.83
994.28	227.90
994.58	227.95
994.87	227.93
995.16	227.81
995.45	227.78
995.74	227.33
996.03	227.54
996.32	227.65
996.61	227.81
996.90	227.78
997.19	227.62
997.48	227.54
997.77	227.42
998.06	227.43
998.34	227.41
998.63	227.46
998.92	227.56
999.21	227.70
999.50	227.60
999.79	227.20
1000.08	227.15
1000.37	227.17
1000.66	227.03
1000.95	227.24
1001.24	227.26
1001.53	227.33
1001.82	227.31
1002.11	227.06
1002.40	227.01
1002.68	227.15
1002.97	227.87
1003.26	227.75
1003.55	227.65
1003.84	227.70
1004.13	228.14
1004.42	227.98
1004.71	227.96
1004.99	227.82
1005.28	227.98
1005.57	227.91
1005.86	227.76
1006.15	227.68
1006.44	227.41
1006.72	227.48
1007.01	227.27
1007.30	227.27
1007.59	227.17
1007.88	227.13
1008.17	227.18
1008.45	226.96
1008.74	226.54
1009.03	225.98
1009.32	225.92
1009.60	225.91
1009.89	225.81
1010.18	225.33
1010.47	225.30
1010.76	225.25
1011.04	225.23
1011.33	225.20
1011.62	225.23
1011.91	225.35
1012.19	225.43
1012.48	225.60
1012.77	225.60
1013.05	226.09
1013.34	226.19
1013.63	226.14
1013.92	226.22
1014.20	226.12
1014.49	226.18
1014.78	226.27
1015.06	226.03
1015.35	226.11
1015.64	226.31
1015.92	226.45
1016.21	226.58
1016.50	226.57
1016.78	226.71
1017.07	226.80
1017.36	226.59
1017.64	226.54
1017.93	226.60
1018.22	226.52
1018.50	226.45
1018.79	226.43
1019.08	225.98
1019.36	225.92
1019.65	225.82
1019.93	226.09
1020.22	226.20
1020.51	226.80
1020.79	226.74
1021.08	225.30
1021.36	225.10
1021.65	226.30
1021.94	226.50
1022.22	225.80
1022.51	224.00
1022.79	231.80
1023.08	226.70
1023.36	239.60
1023.65	224.50
>>>>>End Processed Spectral Data<<<<<
