SpectraSuite Data File
++++++++++++++++++++++++++++++++++++
Date: Wed Sep 04 17:32:40 EDT 2013
User: lab3
Dark Spectrum Present: Yes
Reference Spectrum Present: No
Number of Sampled Component Spectra: 1
Spectrometers: USB2E7196
Integration Time (usec): 337000 (USB2E7196)
Spectra Averaged: 10 (USB2E7196)
Boxcar Smoothing: 10 (USB2E7196)
Correct for Electrical Dark: No (USB2E7196)
Strobe/Lamp Enabled: No (USB2E7196)
Correct for Detector Non-linearity: No (USB2E7196)
Correct for Stray Light: No (USB2E7196)
Number of Pixels in Processed Spectrum: 2048
>>>>>Begin Processed Spectral Data<<<<<
339.09	0.00
339.48	213.60
339.86	213.30
340.24	214.90
340.63	217.40
341.01	233.00
341.39	219.00
341.78	222.30
342.16	225.60
342.54	225.70
342.93	213.05
343.31	223.71
343.69	224.30
344.07	224.84
344.46	225.38
344.84	225.75
345.22	225.36
345.60	225.63
345.99	225.79
346.37	225.84
346.75	225.79
347.13	225.95
347.52	226.12
347.90	226.47
348.28	226.42
348.66	226.68
349.05	226.43
349.43	226.65
349.81	226.78
350.19	226.81
350.57	226.82
350.96	226.95
351.34	227.17
351.72	227.14
352.10	227.18
352.48	227.16
352.87	227.17
353.25	227.27
353.63	227.32
354.01	227.40
354.39	227.49
354.77	227.54
355.15	227.83
355.54	227.73
355.92	227.43
356.30	227.48
356.68	228.00
357.06	228.15
357.44	228.08
357.82	228.08
358.20	229.01
358.58	228.97
358.97	229.01
359.35	229.08
359.73	229.37
360.11	229.47
360.49	229.56
360.87	229.70
361.25	229.82
361.63	230.24
362.01	230.34
362.39	230.28
362.77	230.39
363.15	230.38
363.53	230.40
363.91	230.61
364.29	230.70
364.67	229.86
365.05	229.97
365.43	230.05
365.81	230.24
366.19	229.86
366.57	230.38
366.95	230.23
367.33	230.08
367.71	230.05
368.09	230.19
368.47	230.17
368.85	230.15
369.23	230.39
369.61	230.04
369.99	230.29
370.37	230.49
370.75	230.98
371.13	230.77
371.51	230.76
371.89	230.77
372.27	230.78
372.65	230.88
373.03	230.78
373.41	230.70
373.78	230.63
374.16	230.06
374.54	229.66
374.92	229.63
375.30	229.68
375.68	229.42
376.06	229.40
376.44	229.26
376.82	229.27
377.19	229.08
377.57	228.98
377.95	228.75
378.33	228.60
378.71	228.02
379.09	228.17
379.47	228.15
379.84	227.99
380.22	227.91
380.60	227.80
380.98	227.65
381.36	227.55
381.73	227.32
382.11	227.46
382.49	227.45
382.87	227.33
383.25	227.31
383.62	228.41
384.00	228.16
384.38	228.26
384.76	228.39
385.13	228.68
385.51	228.60
385.89	228.36
386.27	228.30
386.64	228.38
387.02	228.20
387.40	228.10
387.78	228.10
388.15	228.01
388.53	227.85
388.91	227.91
389.29	227.74
389.66	227.86
390.04	227.68
390.42	227.86
390.79	227.93
391.17	227.92
391.55	226.86
391.92	226.88
392.30	226.93
392.68	226.72
393.05	226.66
393.43	226.80
393.81	226.89
394.18	226.77
394.56	226.84
394.94	227.10
395.31	227.06
395.69	227.31
396.06	227.50
396.44	227.60
396.82	227.56
397.19	228.17
397.57	228.07
397.95	228.38
398.32	228.07
398.70	228.18
399.07	228.41
399.45	228.36
399.82	228.49
400.20	228.47
400.58	228.54
400.95	228.22
401.33	228.45
401.70	229.15
402.08	229.31
402.45	229.43
402.83	229.67
403.20	229.84
403.58	229.88
403.95	230.20
404.33	230.41
404.71	230.68
405.08	231.42
405.46	231.69
405.83	231.97
406.21	232.25
406.58	232.56
406.96	232.82
407.33	233.36
407.70	233.86
408.08	235.04
408.45	235.60
408.83	236.34
409.20	236.70
409.58	236.74
409.95	237.42
410.33	238.04
410.70	238.32
411.08	239.22
411.45	239.96
411.82	240.57
412.20	241.68
412.57	243.13
412.95	243.20
413.32	244.36
413.69	245.23
414.07	246.43
414.44	247.64
414.82	248.98
415.19	250.45
415.56	251.84
415.94	252.86
416.31	254.70
416.68	256.46
417.06	258.57
417.43	260.71
417.81	262.90
418.18	265.18
418.55	267.59
418.93	269.98
419.30	272.59
419.67	275.32
420.04	278.24
420.42	280.92
420.79	285.10
421.16	288.62
421.54	292.77
421.91	296.58
422.28	300.46
422.66	304.39
423.03	308.98
423.40	313.19
423.77	317.62
424.15	322.12
424.52	326.96
424.89	332.37
425.26	337.22
425.64	341.95
426.01	347.20
426.38	352.88
426.75	358.61
427.13	364.55
427.50	370.64
427.87	376.68
428.24	382.87
428.61	388.27
428.99	395.24
429.36	401.90
429.73	408.88
430.10	416.01
430.47	423.37
430.85	430.21
431.22	438.19
431.59	447.27
431.96	455.24
432.33	463.96
432.70	472.26
433.08	482.41
433.45	492.01
433.82	501.54
434.19	512.03
434.56	522.54
434.93	532.34
435.30	542.37
435.68	553.76
436.05	564.76
436.42	575.49
436.79	585.32
437.16	596.25
437.53	607.78
437.90	618.81
438.27	630.25
438.64	641.83
439.01	652.56
439.38	661.57
439.75	670.70
440.13	681.44
440.50	691.36
440.87	699.34
441.24	707.80
441.61	717.15
441.98	724.00
442.35	731.76
442.72	739.88
443.09	747.80
443.46	752.10
443.83	755.33
444.20	758.43
444.57	762.19
444.94	763.85
445.31	765.51
445.68	768.27
446.05	768.60
446.42	767.44
446.79	766.07
447.16	764.12
447.53	763.14
447.90	758.53
448.27	754.06
448.64	748.18
449.01	743.66
449.37	735.91
449.74	728.38
450.11	720.16
450.48	710.43
450.85	700.20
451.22	691.85
451.59	683.62
451.96	675.43
452.33	665.17
452.70	655.90
453.07	644.83
453.43	632.70
453.80	621.79
454.17	611.36
454.54	601.50
454.91	591.30
455.28	580.92
455.65	571.38
456.02	563.32
456.38	555.06
456.75	544.99
457.12	536.49
457.49	528.43
457.86	519.93
458.23	513.19
458.59	505.84
458.96	498.23
459.33	491.53
459.70	484.93
460.07	479.51
460.43	473.44
460.80	468.02
461.17	463.45
461.54	458.57
461.91	453.75
462.27	448.88
462.64	444.54
463.01	439.99
463.38	435.76
463.74	429.80
464.11	425.97
464.48	422.69
464.85	419.00
465.21	416.28
465.58	413.20
465.95	409.40
466.32	406.48
466.68	403.47
467.05	400.61
467.42	397.92
467.78	394.96
468.15	392.21
468.52	390.13
468.88	387.00
469.25	384.25
469.62	382.27
469.98	380.10
470.35	378.15
470.72	376.19
471.08	373.86
471.45	372.34
471.82	370.82
472.18	369.00
472.55	367.82
472.92	365.85
473.28	364.52
473.65	363.11
474.02	361.68
474.38	360.73
474.75	359.68
475.11	358.42
475.48	357.64
475.85	356.59
476.21	355.51
476.58	354.83
476.94	354.28
477.31	353.69
477.67	352.82
478.04	352.23
478.41	351.80
478.77	352.28
479.14	351.67
479.50	351.14
479.87	350.96
480.23	350.68
480.60	350.50
480.96	350.21
481.33	350.60
481.69	350.60
482.06	350.59
482.42	350.73
482.79	350.93
483.15	351.00
483.52	351.62
483.88	351.98
484.25	352.34
484.61	352.74
484.98	352.91
485.34	353.82
485.71	354.54
486.07	355.22
486.44	355.21
486.80	355.99
487.17	356.76
487.53	357.88
487.90	358.90
488.26	360.24
488.62	361.55
488.99	362.36
489.35	363.80
489.72	365.09
490.08	366.43
490.44	367.81
490.81	369.51
491.17	371.03
491.54	372.69
491.90	374.55
492.26	376.59
492.63	378.74
492.99	380.61
493.36	382.82
493.72	385.33
494.08	387.59
494.45	390.20
494.81	393.05
495.17	395.49
495.54	398.32
495.90	401.09
496.26	403.93
496.63	407.28
496.99	410.32
497.35	413.51
497.72	417.03
498.08	420.43
498.44	423.87
498.80	427.58
499.17	431.31
499.53	435.07
499.89	439.04
500.26	443.13
500.62	447.36
500.98	451.79
501.34	455.86
501.71	460.55
502.07	464.96
502.43	469.35
502.79	474.00
503.16	478.80
503.52	483.60
503.88	488.49
504.24	493.62
504.60	499.00
504.97	504.65
505.33	509.89
505.69	515.99
506.05	521.68
506.41	527.48
506.78	533.52
507.14	539.46
507.50	545.58
507.86	551.94
508.22	558.16
508.59	564.45
508.95	571.32
509.31	578.12
509.67	584.99
510.03	591.95
510.39	598.90
510.75	605.83
511.12	612.94
511.48	620.18
511.84	627.13
512.20	634.21
512.56	641.44
512.92	649.16
513.28	656.48
513.64	664.07
514.00	671.84
514.37	679.69
514.73	687.70
515.09	695.75
515.45	703.57
515.81	711.51
516.17	719.68
516.53	727.50
516.89	735.37
517.25	743.75
517.61	752.69
517.97	761.56
518.33	770.39
518.69	779.63
519.05	789.01
519.41	798.43
519.77	808.62
520.13	817.98
520.49	827.19
520.85	836.85
521.21	846.80
521.57	856.70
521.93	866.00
522.29	875.90
522.65	884.91
523.01	894.56
523.37	904.13
523.73	913.74
524.09	923.64
524.45	933.29
524.81	942.96
525.17	952.57
525.53	962.41
525.89	972.40
526.25	982.05
526.61	991.25
526.97	1000.93
527.33	1010.58
527.68	1021.50
528.04	1031.74
528.40	1041.82
528.76	1052.15
529.12	1062.01
529.48	1072.68
529.84	1082.83
530.20	1094.01
530.56	1105.14
530.91	1116.37
531.27	1126.94
531.63	1137.70
531.99	1148.84
532.35	1159.81
532.71	1170.82
533.07	1181.94
533.42	1193.45
533.78	1204.33
534.14	1215.70
534.50	1226.74
534.86	1237.45
535.21	1246.98
535.57	1257.82
535.93	1267.91
536.29	1278.60
536.65	1289.47
537.00	1299.86
537.36	1310.26
537.72	1320.43
538.08	1330.91
538.44	1340.44
538.79	1350.61
539.15	1360.38
539.51	1370.56
539.87	1379.74
540.22	1388.19
540.58	1397.30
540.94	1405.43
541.29	1413.79
541.65	1422.08
542.01	1430.70
542.37	1438.34
542.72	1446.05
543.08	1453.33
543.44	1461.51
543.79	1467.92
544.15	1475.19
544.51	1482.68
544.87	1489.77
545.22	1496.22
545.58	1501.98
545.94	1508.38
546.29	1514.10
546.65	1519.66
547.01	1524.77
547.36	1530.78
547.72	1536.82
548.07	1541.76
548.43	1546.86
548.79	1552.24
549.14	1557.18
549.50	1562.17
549.86	1566.82
550.21	1571.76
550.57	1576.76
550.92	1580.31
551.28	1584.58
551.64	1588.66
551.99	1592.32
552.35	1596.13
552.70	1600.17
553.06	1604.22
553.41	1607.62
553.77	1612.05
554.13	1616.09
554.48	1619.77
554.84	1623.19
555.19	1626.67
555.55	1631.12
555.90	1633.99
556.26	1636.44
556.61	1638.37
556.97	1639.70
557.32	1642.42
557.68	1644.96
558.03	1647.20
558.39	1649.50
558.74	1651.60
559.10	1652.80
559.45	1654.12
559.81	1654.92
560.16	1655.19
560.52	1655.75
560.87	1656.83
561.23	1656.93
561.58	1657.71
561.94	1657.54
562.29	1657.11
562.64	1656.79
563.00	1655.06
563.35	1654.86
563.71	1654.93
564.06	1655.48
564.42	1655.49
564.77	1655.02
565.12	1654.30
565.48	1654.28
565.83	1653.83
566.19	1653.40
566.54	1652.50
566.89	1651.49
567.25	1651.06
567.60	1651.41
567.96	1651.51
568.31	1650.94
568.66	1649.92
569.02	1648.11
569.37	1646.67
569.72	1646.10
570.08	1644.36
570.43	1642.19
570.78	1640.36
571.14	1637.83
571.49	1634.90
571.84	1632.43
572.20	1629.63
572.55	1626.84
572.90	1622.68
573.26	1619.70
573.61	1616.27
573.96	1613.06
574.31	1609.24
574.67	1605.24
575.02	1600.16
575.37	1594.98
575.72	1589.92
576.08	1585.20
576.43	1580.20
576.78	1575.44
577.13	1569.85
577.49	1565.02
577.84	1560.96
578.19	1556.56
578.54	1552.50
578.90	1548.70
579.25	1544.45
579.60	1539.86
579.95	1535.20
580.30	1530.64
580.66	1525.12
581.01	1519.56
581.36	1513.74
581.71	1508.61
582.06	1503.62
582.42	1498.85
582.77	1493.64
583.12	1489.06
583.47	1484.36
583.82	1479.81
584.17	1474.91
584.53	1470.47
584.88	1464.60
585.23	1459.24
585.58	1452.90
585.93	1446.55
586.28	1440.15
586.63	1433.73
586.98	1426.94
587.34	1420.90
587.69	1414.48
588.04	1409.22
588.39	1403.96
588.74	1398.21
589.09	1392.91
589.44	1386.54
589.79	1380.86
590.14	1375.11
590.49	1368.92
590.84	1362.88
591.19	1357.23
591.54	1351.60
591.89	1345.33
592.25	1341.78
592.60	1335.72
592.95	1330.23
593.30	1324.79
593.65	1318.84
594.00	1312.82
594.35	1310.27
594.70	1303.76
595.05	1298.33
595.40	1291.97
595.75	1285.46
596.10	1279.94
596.45	1273.75
596.80	1267.80
597.15	1262.00
597.50	1256.12
597.85	1250.60
598.19	1244.11
598.54	1237.84
598.89	1231.13
599.24	1225.50
599.59	1218.30
599.94	1212.30
600.29	1206.50
600.64	1200.53
600.99	1194.81
601.34	1189.37
601.69	1180.94
602.04	1175.64
602.39	1169.76
602.74	1164.65
603.08	1159.56
603.43	1154.46
603.78	1148.91
604.13	1143.70
604.48	1137.84
604.83	1131.84
605.18	1125.90
605.53	1120.63
605.87	1115.45
606.22	1110.69
606.57	1105.07
606.92	1099.24
607.27	1094.11
607.62	1089.03
607.96	1083.85
608.31	1078.74
608.66	1073.78
609.01	1068.87
609.36	1063.75
609.70	1058.71
610.05	1053.04
610.40	1047.66
610.75	1042.07
611.10	1036.90
611.44	1031.43
611.79	1026.23
612.14	1021.33
612.49	1016.18
612.83	1011.27
613.18	1005.64
613.53	1000.56
613.88	995.28
614.22	989.88
614.57	984.55
614.92	979.11
615.27	973.87
615.61	968.30
615.96	962.78
616.31	957.42
616.65	952.60
617.00	947.14
617.35	942.01
617.70	936.95
618.04	931.69
618.39	926.79
618.74	922.25
619.08	917.25
619.43	911.97
619.78	906.73
620.12	901.30
620.47	896.17
620.82	890.78
621.16	885.50
621.51	880.99
621.85	876.07
622.20	870.83
622.55	865.60
622.89	860.98
623.24	856.30
623.59	851.19
623.93	846.20
624.28	841.56
624.62	837.94
624.97	833.80
625.32	829.11
625.66	823.97
626.01	818.74
626.35	814.17
626.70	809.50
627.04	805.26
627.39	800.52
627.73	796.51
628.08	792.42
628.43	788.10
628.77	783.54
629.12	779.08
629.46	775.32
629.81	771.77
630.15	767.59
630.50	763.23
630.84	759.23
631.19	754.88
631.53	751.04
631.88	745.87
632.22	741.19
632.57	737.68
632.91	733.90
633.26	730.27
633.60	726.11
633.95	722.12
634.29	717.49
634.64	714.02
634.98	709.50
635.32	705.39
635.67	701.84
636.01	697.94
636.36	693.98
636.70	690.15
637.05	685.90
637.39	682.25
637.73	678.65
638.08	675.00
638.42	671.15
638.77	666.94
639.11	662.79
639.45	658.62
639.80	654.00
640.14	649.95
640.49	646.00
640.83	642.27
641.17	638.95
641.52	635.66
641.86	631.86
642.20	628.93
642.55	625.41
642.89	621.51
643.23	618.01
643.58	614.91
643.92	611.10
644.26	607.64
644.61	604.21
644.95	600.65
645.29	597.11
645.64	594.03
645.98	590.74
646.32	587.89
646.66	584.67
647.01	581.67
647.35	578.84
647.69	575.90
648.04	572.97
648.38	569.78
648.72	566.77
649.06	563.58
649.41	560.10
649.75	556.74
650.09	553.80
650.43	550.63
650.78	547.31
651.12	544.30
651.46	541.61
651.80	538.74
652.14	535.97
652.49	533.31
652.83	530.28
653.17	527.58
653.51	524.37
653.85	522.11
654.20	519.45
654.54	516.59
654.88	513.64
655.22	511.32
655.56	508.63
655.90	506.11
656.25	503.62
656.59	501.27
656.93	498.97
657.27	496.75
657.61	494.05
657.95	491.60
658.29	489.18
658.64	486.77
658.98	484.23
659.32	481.58
659.66	478.95
660.00	476.60
660.34	474.01
660.68	471.77
661.02	469.13
661.36	466.66
661.70	464.41
662.05	462.10
662.39	459.63
662.73	457.69
663.07	455.82
663.41	453.75
663.75	451.26
664.09	448.94
664.43	446.40
664.77	444.57
665.11	442.43
665.45	440.40
665.79	438.09
666.13	435.87
666.47	433.86
666.81	431.79
667.15	429.61
667.49	427.92
667.83	426.31
668.17	424.43
668.51	422.69
668.85	420.80
669.19	419.56
669.53	417.43
669.87	415.14
670.21	412.91
670.55	411.10
670.89	409.82
671.23	408.00
671.57	406.29
671.91	404.60
672.25	402.97
672.58	401.40
672.92	399.59
673.26	397.99
673.60	396.43
673.94	394.91
674.28	393.55
674.62	391.95
674.96	390.26
675.30	388.66
675.64	387.14
675.97	385.64
676.31	383.69
676.65	382.10
676.99	380.98
677.33	379.37
677.67	377.80
678.01	375.73
678.34	374.36
678.68	373.07
679.02	371.54
679.36	370.06
679.70	368.48
680.04	367.17
680.37	365.71
680.71	364.33
681.05	363.00
681.39	361.66
681.73	360.21
682.06	358.74
682.40	357.45
682.74	356.35
683.08	355.34
683.42	353.99
683.75	352.94
684.09	351.46
684.43	350.26
684.77	348.99
685.10	348.01
685.44	346.92
685.78	345.70
686.12	344.40
686.45	343.19
686.79	342.10
687.13	341.16
687.46	340.15
687.80	339.19
688.14	338.01
688.48	336.80
688.81	335.73
689.15	334.82
689.49	333.70
689.82	332.47
690.16	330.85
690.50	329.86
690.83	328.69
691.17	327.59
691.51	326.62
691.84	325.75
692.18	324.74
692.52	323.61
692.85	322.53
693.19	321.92
693.52	320.99
693.86	319.79
694.20	318.65
694.53	317.72
694.87	316.50
695.21	315.40
695.54	314.48
695.88	313.32
696.21	312.17
696.55	311.34
696.88	310.35
697.22	309.46
697.56	308.60
697.89	307.60
698.23	306.83
698.56	305.84
698.90	304.99
699.23	304.04
699.57	303.21
699.90	302.25
700.24	301.11
700.58	300.40
700.91	299.88
701.25	299.89
701.58	299.76
701.92	299.31
702.25	298.70
702.59	297.90
702.92	297.34
703.26	296.71
703.59	295.83
703.93	296.00
704.26	295.53
704.60	294.91
704.93	294.19
705.26	293.36
705.60	293.04
705.93	292.15
706.27	291.71
706.60	291.31
706.94	291.27
707.27	290.65
707.61	289.97
707.94	289.29
708.27	287.84
708.61	286.47
708.94	285.60
709.28	285.01
709.61	284.42
709.94	283.93
710.28	283.40
710.61	282.91
710.95	281.37
711.28	281.35
711.61	280.64
711.95	280.37
712.28	279.76
712.61	279.00
712.95	279.04
713.28	278.83
713.61	278.05
713.95	277.00
714.28	276.47
714.61	275.79
714.95	275.12
715.28	274.51
715.61	274.06
715.95	273.65
716.28	273.01
716.61	272.55
716.95	271.88
717.28	271.29
717.61	270.75
717.94	270.23
718.28	269.01
718.61	268.54
718.94	267.82
719.27	267.34
719.61	266.90
719.94	266.13
720.27	265.22
720.60	264.78
720.94	264.47
721.27	264.15
721.60	264.07
721.93	263.79
722.27	263.70
722.60	263.33
722.93	262.80
723.26	262.58
723.59	262.20
723.93	261.95
724.26	261.66
724.59	261.26
724.92	261.06
725.25	261.08
725.59	260.79
725.92	260.62
726.25	260.38
726.58	260.12
726.91	259.82
727.24	259.63
727.57	259.39
727.91	258.87
728.24	258.67
728.57	258.20
728.90	258.00
729.23	257.47
729.56	257.58
729.89	257.34
730.22	256.96
730.55	256.63
730.89	256.30
731.22	256.00
731.55	255.70
731.88	255.45
732.21	254.94
732.54	254.65
732.87	254.39
733.20	254.17
733.53	253.94
733.86	253.72
734.19	253.35
734.52	253.28
734.85	253.78
735.18	253.39
735.51	253.45
735.84	253.15
736.17	253.22
736.50	252.57
736.83	253.52
737.16	253.28
737.49	253.08
737.82	252.88
738.15	252.78
738.48	252.70
738.81	252.49
739.14	252.22
739.47	251.80
739.80	251.52
740.13	251.42
740.46	250.98
740.79	250.73
741.12	250.50
741.45	250.17
741.78	249.44
742.11	249.44
742.44	249.00
742.77	248.85
743.10	248.57
743.43	248.33
743.75	247.08
744.08	248.24
744.41	247.99
744.74	247.78
745.07	247.37
745.40	247.32
745.73	247.57
746.06	247.44
746.39	247.49
746.71	247.20
747.04	246.77
747.37	246.57
747.70	246.50
748.03	246.42
748.36	246.31
748.68	246.06
749.01	245.59
749.34	245.34
749.67	245.20
750.00	245.10
750.33	245.70
750.65	245.55
750.98	244.09
751.31	244.07
751.64	243.98
751.97	244.36
752.29	243.95
752.62	243.30
752.95	243.09
753.28	242.81
753.60	242.79
753.93	243.00
754.26	243.00
754.59	242.53
754.91	242.30
755.24	241.95
755.57	241.87
755.90	241.75
756.22	241.51
756.55	241.25
756.88	240.89
757.20	240.07
757.53	239.70
757.86	239.66
758.19	239.58
758.51	239.40
758.84	238.80
759.17	238.75
759.49	238.70
759.82	239.08
760.15	239.22
760.47	239.02
760.80	238.53
761.13	238.52
761.45	238.45
761.78	238.33
762.11	238.41
762.43	238.16
762.76	238.00
763.08	238.06
763.41	238.11
763.74	238.06
764.06	237.95
764.39	238.00
764.71	237.82
765.04	237.53
765.37	237.39
765.69	237.39
766.02	237.28
766.34	237.00
766.67	236.44
767.00	236.35
767.32	236.79
767.65	237.26
767.97	237.20
768.30	237.16
768.62	237.02
768.95	236.81
769.27	236.83
769.60	237.01
769.92	236.88
770.25	236.53
770.57	236.18
770.90	236.13
771.22	235.91
771.55	235.85
771.87	235.97
772.20	235.84
772.52	236.54
772.85	237.50
773.17	237.59
773.50	237.64
773.82	237.49
774.15	236.91
774.47	236.33
774.80	236.15
775.12	236.18
775.45	236.21
775.77	236.18
776.09	236.09
776.42	236.01
776.74	236.23
777.07	236.25
777.39	236.38
777.72	236.28
778.04	236.39
778.36	236.29
778.69	236.21
779.01	236.24
779.33	235.29
779.66	234.29
779.98	234.17
780.31	233.96
780.63	234.29
780.95	234.49
781.28	234.45
781.60	234.35
781.92	234.25
782.25	234.19
782.57	234.09
782.89	234.11
783.22	233.90
783.54	233.69
783.86	233.72
784.19	233.67
784.51	233.81
784.83	233.75
785.16	233.64
785.48	233.60
785.80	233.51
786.12	233.70
786.45	233.61
786.77	233.72
787.09	233.70
787.42	233.38
787.74	233.21
788.06	233.27
788.38	233.20
788.71	233.05
789.03	232.97
789.35	233.12
789.67	232.97
789.99	233.13
790.32	233.02
790.64	233.03
790.96	233.71
791.28	233.34
791.61	233.15
791.93	233.10
792.25	232.95
792.57	233.59
792.89	233.26
793.21	233.41
793.54	233.28
793.86	233.16
794.18	233.04
794.50	232.92
794.82	232.79
795.14	232.76
795.47	232.94
795.79	232.95
796.11	232.71
796.43	232.61
796.75	232.47
797.07	232.49
797.39	232.39
797.71	231.55
798.04	231.68
798.36	231.68
798.68	231.77
799.00	231.79
799.32	231.23
799.64	231.50
799.96	231.30
800.28	231.41
800.60	231.32
800.92	231.35
801.24	231.22
801.56	231.32
801.89	231.25
802.21	231.31
802.53	231.19
802.85	231.40
803.17	231.82
803.49	231.57
803.81	231.36
804.13	231.24
804.45	231.26
804.77	231.33
805.09	231.30
805.41	231.12
805.73	230.90
806.05	230.75
806.37	230.56
806.69	230.50
807.01	230.35
807.33	230.38
807.65	230.08
807.97	230.62
808.28	230.53
808.60	230.50
808.92	230.31
809.24	230.90
809.56	230.76
809.88	230.41
810.20	230.48
810.52	230.77
810.84	230.71
811.16	230.61
811.48	230.49
811.80	230.77
812.12	230.77
812.43	231.03
812.75	231.10
813.07	231.08
813.39	231.10
813.71	230.97
814.03	230.94
814.35	231.04
814.67	230.59
814.98	230.46
815.30	230.48
815.62	230.38
815.94	229.74
816.26	230.12
816.58	229.87
816.89	229.94
817.21	229.69
817.53	229.82
817.85	229.96
818.17	229.86
818.48	229.66
818.80	229.85
819.12	229.74
819.44	229.56
819.76	229.40
820.07	229.47
820.39	229.49
820.71	229.50
821.03	229.42
821.34	229.40
821.66	229.62
821.98	229.75
822.30	229.66
822.61	230.24
822.93	229.73
823.25	229.79
823.57	229.77
823.88	229.92
824.20	229.87
824.52	229.91
824.83	230.02
825.15	229.76
825.47	229.69
825.79	229.82
826.10	229.84
826.42	229.89
826.74	229.87
827.05	229.87
827.37	230.01
827.69	229.94
828.00	229.91
828.32	229.85
828.64	229.69
828.95	230.24
829.27	230.01
829.58	230.02
829.90	230.24
830.22	230.28
830.53	229.99
830.85	229.92
831.17	229.71
831.48	229.66
831.80	229.87
832.11	229.80
832.43	229.62
832.75	229.60
833.06	230.10
833.38	229.88
833.69	229.86
834.01	229.87
834.32	229.89
834.64	229.89
834.96	229.90
835.27	229.84
835.59	229.64
835.90	229.40
836.22	229.43
836.53	229.24
836.85	229.08
837.16	230.09
837.48	230.03
837.79	230.33
838.11	230.41
838.42	230.37
838.74	230.56
839.05	230.59
839.37	230.54
839.68	229.98
840.00	229.96
840.31	230.07
840.63	229.99
840.94	229.95
841.26	229.87
841.57	229.80
841.88	229.96
842.20	229.66
842.51	229.63
842.83	229.62
843.14	230.49
843.46	230.52
843.77	230.03
844.08	229.98
844.40	229.72
844.71	229.50
845.03	229.46
845.34	229.35
845.65	229.24
845.97	229.26
846.28	229.30
846.60	229.35
846.91	229.26
847.22	229.17
847.54	229.34
847.85	229.31
848.16	229.24
848.48	229.04
848.79	229.43
849.10	229.45
849.42	229.46
849.73	228.49
850.04	228.51
850.36	228.14
850.67	228.34
850.98	228.41
851.30	228.48
851.61	228.40
851.92	228.22
852.23	228.44
852.55	228.52
852.86	228.62
853.17	228.66
853.49	228.84
853.80	229.07
854.11	229.19
854.42	229.37
854.74	229.15
855.05	229.23
855.36	228.72
855.67	228.79
855.99	228.83
856.30	230.02
856.61	229.99
856.92	230.04
857.23	229.95
857.55	229.83
857.86	229.74
858.17	229.88
858.48	229.87
858.79	229.69
859.11	229.71
859.42	229.64
859.73	229.52
860.04	229.40
860.35	229.21
860.66	228.88
860.98	228.82
861.29	229.20
861.60	229.05
861.91	229.28
862.22	229.13
862.53	228.90
862.84	227.76
863.16	228.08
863.47	227.91
863.78	227.90
864.09	227.86
864.40	228.03
864.71	228.03
865.02	228.15
865.33	228.08
865.64	227.94
865.95	227.94
866.27	228.56
866.58	228.58
866.89	228.60
867.20	228.56
867.51	228.46
867.82	228.29
868.13	228.63
868.44	228.40
868.75	228.60
869.06	228.81
869.37	229.00
869.68	228.63
869.99	228.80
870.30	228.88
870.61	229.04
870.92	228.94
871.23	228.87
871.54	228.97
871.85	229.15
872.16	229.33
872.47	229.17
872.78	228.63
873.09	228.58
873.40	228.50
873.71	228.62
874.02	228.59
874.33	228.50
874.64	228.18
874.95	228.33
875.26	228.07
875.56	227.96
875.87	227.85
876.18	227.86
876.49	228.80
876.80	228.56
877.11	228.40
877.42	228.40
877.73	228.37
878.04	228.22
878.35	228.20
878.66	228.11
878.96	228.20
879.27	228.17
879.58	228.08
879.89	227.93
880.20	228.23
880.51	228.26
880.82	228.25
881.12	228.30
881.43	228.10
881.74	227.99
882.05	227.89
882.36	227.92
882.67	228.02
882.97	226.92
883.28	226.91
883.59	226.87
883.90	226.93
884.21	227.17
884.51	226.98
884.82	226.92
885.13	226.91
885.44	226.90
885.74	226.83
886.05	226.90
886.36	227.00
886.67	226.58
886.98	226.96
887.28	227.12
887.59	227.24
887.90	227.37
888.20	227.47
888.51	227.60
888.82	227.50
889.13	227.58
889.43	228.44
889.74	228.48
890.05	228.58
890.35	228.48
890.66	228.30
890.97	228.34
891.28	228.23
891.58	228.24
891.89	228.22
892.20	228.15
892.50	228.06
892.81	227.99
893.12	228.06
893.42	227.70
893.73	227.72
894.04	227.63
894.34	227.72
894.65	227.67
894.95	227.70
895.26	227.70
895.57	228.07
895.87	227.22
896.18	227.36
896.48	227.37
896.79	227.32
897.10	227.42
897.40	227.45
897.71	227.62
898.01	227.62
898.32	227.72
898.63	227.79
898.93	227.84
899.24	227.90
899.54	227.86
899.85	227.84
900.15	227.71
900.46	227.79
900.76	227.84
901.07	227.82
901.38	227.76
901.68	227.90
901.99	227.37
902.29	227.43
902.60	227.34
902.90	227.32
903.21	227.29
903.51	227.17
903.82	227.34
904.12	227.22
904.43	227.20
904.73	227.12
905.03	227.12
905.34	228.03
905.64	227.99
905.95	227.97
906.25	227.80
906.56	227.70
906.86	227.72
907.17	227.61
907.47	227.64
907.77	227.49
908.08	227.29
908.38	227.45
908.69	227.48
908.99	227.65
909.30	227.70
909.60	227.82
909.90	227.84
910.21	227.63
910.51	227.54
910.81	227.53
911.12	227.57
911.42	227.62
911.73	226.63
912.03	226.65
912.33	226.88
912.64	226.96
912.94	226.92
913.24	226.80
913.55	226.88
913.85	226.77
914.15	227.00
914.46	227.11
914.76	226.90
915.06	226.81
915.37	226.60
915.67	226.46
915.97	226.42
916.27	226.27
916.58	226.34
916.88	226.38
917.18	226.42
917.49	227.04
917.79	227.02
918.09	227.10
918.39	227.37
918.70	227.29
919.00	227.40
919.30	227.93
919.60	227.80
919.91	227.60
920.21	227.76
920.51	227.50
920.81	227.43
921.12	227.66
921.42	227.56
921.72	227.68
922.02	227.81
922.32	227.92
922.63	228.07
922.93	228.48
923.23	228.52
923.53	228.40
923.83	227.82
924.13	227.92
924.44	227.95
924.74	228.12
925.04	228.42
925.34	228.34
925.64	227.98
925.94	228.01
926.24	228.58
926.55	228.54
926.85	228.77
927.15	228.87
927.45	228.90
927.75	229.01
928.05	229.08
928.35	229.03
928.65	229.24
928.95	229.25
929.26	228.90
929.56	229.16
929.86	229.28
930.16	229.26
930.46	229.13
930.76	229.21
931.06	228.74
931.36	228.36
931.66	228.57
931.96	228.66
932.26	228.76
932.56	228.36
932.86	228.44
933.16	228.43
933.46	228.21
933.76	227.97
934.06	228.20
934.36	228.50
934.66	228.48
934.96	228.39
935.26	228.37
935.56	228.62
935.86	228.22
936.16	228.06
936.46	227.91
936.76	227.90
937.06	227.80
937.36	227.92
937.66	227.99
937.96	227.78
938.26	227.57
938.56	227.45
938.86	227.45
939.16	227.63
939.46	227.73
939.76	227.92
940.06	227.95
940.35	227.74
940.65	227.20
940.95	227.18
941.25	226.83
941.55	226.79
941.85	226.59
942.15	226.79
942.45	227.10
942.75	227.16
943.04	227.26
943.34	227.31
943.64	227.18
943.94	227.07
944.24	227.16
944.54	227.23
944.84	227.29
945.13	227.12
945.43	226.82
945.73	226.67
946.03	226.52
946.33	226.44
946.62	226.32
946.92	226.38
947.22	226.46
947.52	226.60
947.82	226.70
948.11	226.57
948.41	226.42
948.71	226.05
949.01	226.15
949.31	225.99
949.60	225.94
949.90	226.08
950.20	226.00
950.50	225.87
950.79	225.76
951.09	225.86
951.39	225.93
951.69	225.91
951.98	226.14
952.28	226.17
952.58	226.11
952.87	226.08
953.17	226.15
953.47	226.09
953.76	226.10
954.06	225.89
954.36	225.73
954.66	225.73
954.95	226.10
955.25	226.03
955.55	226.12
955.84	226.04
956.14	226.06
956.44	226.08
956.73	226.03
957.03	226.13
957.32	226.11
957.62	226.05
957.92	226.22
958.21	226.16
958.51	227.18
958.81	227.31
959.10	227.53
959.40	227.78
959.69	227.73
959.99	227.79
960.29	227.82
960.58	227.90
960.88	228.22
961.17	228.04
961.47	228.27
961.76	228.13
962.06	228.41
962.36	228.32
962.65	228.47
962.95	228.53
963.24	228.46
963.54	228.55
963.83	228.68
964.13	228.56
964.42	228.30
964.72	227.62
965.01	227.65
965.31	227.54
965.60	227.28
965.90	228.00
966.19	227.83
966.49	227.92
966.78	227.94
967.08	227.88
967.37	227.99
967.67	227.72
967.96	227.97
968.26	227.82
968.55	228.04
968.85	227.98
969.14	227.99
969.43	228.04
969.73	227.96
970.02	227.95
970.32	227.94
970.61	228.07
970.91	227.78
971.20	227.67
971.49	227.60
971.79	227.74
972.08	227.08
972.38	227.21
972.67	227.15
972.96	227.30
973.26	227.13
973.55	227.37
973.85	227.27
974.14	227.15
974.43	227.29
974.73	227.10
975.02	227.14
975.31	227.14
975.61	227.05
975.90	226.90
976.19	226.72
976.49	226.88
976.78	226.84
977.07	226.88
977.37	226.97
977.66	227.09
977.95	226.99
978.24	226.99
978.54	227.23
978.83	227.15
979.12	227.06
979.42	226.97
979.71	226.74
980.00	226.81
980.29	226.90
980.59	226.61
980.88	226.83
981.17	226.67
981.46	226.64
981.76	226.72
982.05	227.07
982.34	227.20
982.63	227.12
982.93	227.04
983.22	227.26
983.51	227.23
983.80	227.43
984.09	227.42
984.39	227.32
984.68	227.08
984.97	227.14
985.26	227.01
985.55	227.13
985.85	226.83
986.14	226.94
986.43	227.03
986.72	226.98
987.01	226.66
987.30	226.77
987.59	226.70
987.89	226.67
988.18	226.36
988.47	226.26
988.76	226.19
989.05	226.10
989.34	225.87
989.63	226.19
989.92	225.97
990.22	225.83
990.51	225.84
990.80	225.75
991.09	225.86
991.38	226.03
991.67	225.94
991.96	226.00
992.25	226.10
992.54	225.91
992.83	225.99
993.12	226.07
993.41	226.11
993.70	226.54
993.99	226.74
994.28	226.90
994.58	226.97
994.87	226.90
995.16	226.96
995.45	226.89
995.74	226.56
996.03	226.73
996.32	226.94
996.61	227.15
996.90	227.12
997.19	227.04
997.48	227.01
997.77	227.00
998.06	227.05
998.34	227.00
998.63	227.04
998.92	227.04
999.21	227.18
999.50	227.22
999.79	226.90
1000.08	226.84
1000.37	226.94
1000.66	226.93
1000.95	227.20
1001.24	227.27
1001.53	227.51
1001.82	227.46
1002.11	227.22
1002.40	227.37
1002.68	227.62
1002.97	228.37
1003.26	228.32
1003.55	228.20
1003.84	228.20
1004.13	228.58
1004.42	228.47
1004.71	228.50
1004.99	228.47
1005.28	228.62
1005.57	228.57
1005.86	228.52
1006.15	228.52
1006.44	228.24
1006.72	228.38
1007.01	228.24
1007.30	228.25
1007.59	228.11
1007.88	228.11
1008.17	228.15
1008.45	227.86
1008.74	227.52
1009.03	227.10
1009.32	227.13
1009.60	227.19
1009.89	227.09
1010.18	226.68
1010.47	226.61
1010.76	226.53
1011.04	226.58
1011.33	226.60
1011.62	226.70
1011.91	226.78
1012.19	226.80
1012.48	226.93
1012.77	226.82
1013.05	227.17
1013.34	227.10
1013.63	227.00
1013.92	227.06
1014.20	227.01
1014.49	227.11
1014.78	227.09
1015.06	226.74
1015.35	226.76
1015.64	226.83
1015.92	227.01
1016.21	227.10
1016.50	227.17
1016.78	227.28
1017.07	227.27
1017.36	227.10
1017.64	226.94
1017.93	227.04
1018.22	226.90
1018.50	226.80
1018.79	226.83
1019.08	226.36
1019.36	226.48
1019.65	226.47
1019.93	226.75
1020.22	226.84
1020.51	227.24
1020.79	227.14
1021.08	224.80
1021.36	225.30
1021.65	227.30
1021.94	224.70
1022.22	227.40
1022.51	225.50
1022.79	231.60
1023.08	227.10
1023.36	236.60
1023.65	224.20
>>>>>End Processed Spectral Data<<<<<
