SpectraSuite Data File
++++++++++++++++++++++++++++++++++++
Date: Wed Sep 04 17:34:03 EDT 2013
User: lab3
Dark Spectrum Present: Yes
Reference Spectrum Present: No
Number of Sampled Component Spectra: 1
Spectrometers: USB2E7196
Integration Time (usec): 337000 (USB2E7196)
Spectra Averaged: 10 (USB2E7196)
Boxcar Smoothing: 10 (USB2E7196)
Correct for Electrical Dark: No (USB2E7196)
Strobe/Lamp Enabled: No (USB2E7196)
Correct for Detector Non-linearity: No (USB2E7196)
Correct for Stray Light: No (USB2E7196)
Number of Pixels in Processed Spectrum: 2048
>>>>>Begin Processed Spectral Data<<<<<
339.09	0.00
339.48	211.80
339.86	213.30
340.24	216.40
340.63	216.30
341.01	232.10
341.39	221.00
341.78	222.20
342.16	225.60
342.54	222.90
342.93	212.99
343.31	223.66
343.69	224.27
344.07	224.88
344.46	225.40
344.84	225.82
345.22	225.54
345.60	225.82
345.99	226.10
346.37	226.22
346.75	226.32
347.13	226.45
347.52	226.49
347.90	226.89
348.28	227.04
348.66	227.29
349.05	227.03
349.43	227.15
349.81	227.26
350.19	227.31
350.57	227.47
350.96	227.55
351.34	227.76
351.72	227.92
352.10	228.04
352.48	228.06
352.87	228.11
353.25	228.18
353.63	228.20
354.01	228.16
354.39	228.34
354.77	228.52
355.15	228.80
355.54	228.76
355.92	228.54
356.30	228.46
356.68	229.20
357.06	229.36
357.44	229.26
357.82	229.24
358.20	230.14
358.58	230.18
358.97	230.31
359.35	230.54
359.73	230.73
360.11	230.65
360.49	230.70
360.87	230.76
361.25	230.90
361.63	231.34
362.01	231.46
362.39	231.28
362.77	231.32
363.15	231.39
363.53	231.43
363.91	231.49
364.29	231.61
364.67	230.67
365.05	230.67
365.43	230.86
365.81	230.99
366.19	230.74
366.57	231.09
366.95	231.05
367.33	230.85
367.71	230.80
368.09	231.06
368.47	231.19
368.85	231.25
369.23	231.46
369.61	231.05
369.99	231.33
370.37	231.42
370.75	231.86
371.13	231.58
371.51	231.52
371.89	231.64
372.27	231.72
372.65	231.80
373.03	231.80
373.41	231.70
373.78	231.56
374.16	231.05
374.54	230.67
374.92	230.66
375.30	230.64
375.68	230.40
376.06	230.37
376.44	230.12
376.82	230.08
377.19	229.91
377.57	229.88
377.95	229.48
378.33	229.45
378.71	228.85
379.09	228.96
379.47	229.03
379.84	228.86
380.22	228.64
380.60	228.43
380.98	228.30
381.36	228.26
381.73	228.15
382.11	228.26
382.49	228.30
382.87	228.08
383.25	227.92
383.62	229.10
384.00	228.84
384.38	228.84
384.76	228.99
385.13	229.24
385.51	229.26
385.89	229.19
386.27	229.10
386.64	229.20
387.02	229.01
387.40	228.89
387.78	228.87
388.15	228.98
388.53	228.85
388.91	228.83
389.29	228.85
389.66	228.90
390.04	228.70
390.42	228.84
390.79	228.88
391.17	229.02
391.55	227.95
391.92	227.95
392.30	228.03
392.68	227.84
393.05	227.84
393.43	227.78
393.81	228.00
394.18	227.86
394.56	227.95
394.94	228.23
395.31	228.22
395.69	228.61
396.06	228.77
396.44	229.00
396.82	229.04
397.19	229.59
397.57	229.61
397.95	229.84
398.32	229.71
398.70	230.00
399.07	230.25
399.45	230.26
399.82	230.37
400.20	230.42
400.58	230.61
400.95	230.32
401.33	230.60
401.70	231.18
402.08	231.41
402.45	231.53
402.83	231.85
403.20	232.10
403.58	232.07
403.95	232.35
404.33	232.60
404.71	232.83
405.08	233.51
405.46	233.88
405.83	234.28
406.21	234.58
406.58	234.84
406.96	235.15
407.33	235.59
407.70	236.09
408.08	237.30
408.45	237.93
408.83	238.79
409.20	239.27
409.58	239.31
409.95	240.17
410.33	240.94
410.70	241.31
411.08	242.20
411.45	243.04
411.82	243.82
412.20	244.96
412.57	246.55
412.95	246.74
413.32	248.00
413.69	249.20
414.07	250.51
414.44	252.09
414.82	253.66
415.19	255.41
415.56	257.19
415.94	258.40
416.31	260.39
416.68	262.34
417.06	264.71
417.43	267.27
417.81	269.76
418.18	272.40
418.55	275.28
418.93	278.15
419.30	281.11
419.67	284.34
420.04	287.59
420.42	290.82
420.79	295.47
421.16	299.49
421.54	304.12
421.91	308.41
422.28	312.80
422.66	317.39
423.03	322.60
423.40	327.46
423.77	332.62
424.15	337.66
424.52	343.27
424.89	349.38
425.26	354.87
425.64	360.37
426.01	366.35
426.38	372.71
426.75	379.34
427.13	386.15
427.50	393.12
427.87	400.25
428.24	407.45
428.61	413.84
428.99	421.54
429.36	429.17
429.73	437.22
430.10	445.20
430.47	453.69
430.85	461.73
431.22	470.64
431.59	480.85
431.96	489.97
432.33	499.88
432.70	509.29
433.08	520.76
433.45	531.52
433.82	542.31
434.19	554.11
434.56	565.98
434.93	577.06
435.30	588.19
435.68	600.68
436.05	612.85
436.42	624.99
436.79	636.02
437.16	648.22
437.53	661.10
437.90	673.84
438.27	686.23
438.64	699.20
439.01	711.41
439.38	721.75
439.75	732.36
440.13	744.10
440.50	755.40
440.87	764.39
441.24	773.91
441.61	784.34
441.98	791.89
442.35	800.40
442.72	809.46
443.09	818.40
443.46	823.46
443.83	827.00
444.20	829.92
444.57	834.35
444.94	836.20
445.31	838.01
445.68	840.27
446.05	840.71
446.42	838.81
446.79	837.01
447.16	834.63
447.53	832.80
447.90	827.67
448.27	822.47
448.64	815.59
449.01	810.33
449.37	801.51
449.74	792.93
450.11	783.48
450.48	772.06
450.85	760.25
451.22	750.47
451.59	741.12
451.96	732.30
452.33	720.45
452.70	709.76
453.07	697.27
453.43	683.95
453.80	671.69
454.17	660.20
454.54	648.86
454.91	637.15
455.28	625.80
455.65	614.98
456.02	605.43
456.38	596.20
456.75	584.96
457.12	575.30
457.49	566.17
457.86	556.59
458.23	549.46
458.59	541.24
458.96	532.98
459.33	525.32
459.70	517.66
460.07	511.67
460.43	504.79
460.80	498.38
461.17	492.99
461.54	487.20
461.91	481.76
462.27	476.14
462.64	471.20
463.01	465.85
463.38	461.14
463.74	454.91
464.11	450.48
464.48	446.60
464.85	442.51
465.21	439.36
465.58	435.96
465.95	431.56
466.32	428.31
466.68	424.90
467.05	421.76
467.42	418.60
467.78	415.20
468.15	412.10
468.52	409.97
468.88	406.66
469.25	403.91
469.62	401.82
469.98	399.50
470.35	397.42
470.72	395.34
471.08	392.71
471.45	391.00
471.82	389.33
472.18	387.19
472.55	385.75
472.92	383.73
473.28	382.13
473.65	380.53
474.02	378.94
474.38	377.80
474.75	376.64
475.11	375.35
475.48	374.53
475.85	373.73
476.21	372.77
476.58	372.06
476.94	371.48
477.31	370.79
477.67	370.18
478.04	369.67
478.41	369.58
478.77	370.33
479.14	369.87
479.50	369.72
479.87	369.90
480.23	369.87
480.60	370.02
480.96	370.10
481.33	370.78
481.69	371.10
482.06	371.54
482.42	372.03
482.79	372.68
483.15	373.18
483.52	374.06
483.88	374.70
484.25	375.60
484.61	376.53
484.98	377.44
485.34	378.97
485.71	380.34
486.07	381.74
486.44	382.39
486.80	383.93
487.17	385.49
487.53	387.63
487.90	389.68
488.26	392.27
488.62	394.67
488.99	396.71
489.35	399.44
489.72	401.96
490.08	404.74
490.44	407.64
490.81	410.94
491.17	414.18
491.54	417.80
491.90	421.51
492.26	425.38
492.63	429.56
492.99	433.58
493.36	438.20
493.72	443.00
494.08	447.79
494.45	453.20
494.81	458.84
495.17	464.16
495.54	470.10
495.90	475.84
496.26	482.30
496.63	489.00
496.99	495.72
497.35	502.99
497.72	510.65
498.08	518.39
498.44	526.42
498.80	534.93
499.17	543.55
499.53	552.32
499.89	561.74
500.26	571.30
500.62	581.19
500.98	591.70
501.34	602.25
501.71	613.24
502.07	624.27
502.43	635.54
502.79	647.24
503.16	659.55
503.52	672.23
503.88	685.00
504.24	698.46
504.60	712.68
504.97	727.08
505.33	741.68
505.69	757.49
506.05	773.02
506.41	788.85
506.78	805.00
507.14	821.98
507.50	839.31
507.86	856.93
508.22	875.29
508.59	893.30
508.95	912.09
509.31	932.10
509.67	951.91
510.03	971.99
510.39	992.88
510.75	1013.52
511.12	1034.93
511.48	1056.84
511.84	1078.92
512.20	1100.93
512.56	1123.53
512.92	1146.58
513.28	1169.65
513.64	1193.39
514.00	1217.64
514.37	1242.36
514.73	1267.48
515.09	1292.27
515.45	1317.61
515.81	1342.66
516.17	1368.76
516.53	1394.46
516.89	1419.88
517.25	1446.38
517.61	1474.14
517.97	1501.68
518.33	1529.30
518.69	1557.07
519.05	1585.00
519.41	1613.08
519.77	1641.37
520.13	1669.53
520.49	1697.44
520.85	1728.23
521.21	1756.78
521.57	1785.50
521.93	1813.32
522.29	1841.92
522.65	1870.06
523.01	1898.42
523.37	1926.16
523.73	1954.19
524.09	1981.99
524.45	2009.57
524.81	2037.69
525.17	2065.46
525.53	2092.48
525.89	2120.62
526.25	2147.92
526.61	2175.09
526.97	2203.23
527.33	2231.47
527.68	2260.68
528.04	2289.21
528.40	2314.66
528.76	2342.93
529.12	2369.80
529.48	2397.69
529.84	2424.23
530.20	2452.42
530.56	2479.64
530.91	2507.48
531.27	2534.14
531.63	2561.46
531.99	2588.81
532.35	2615.12
532.71	2641.72
533.07	2669.31
533.42	2695.68
533.78	2722.00
534.14	2748.22
534.50	2773.21
534.86	2798.44
535.21	2820.96
535.57	2845.36
535.93	2868.34
536.29	2891.33
536.65	2915.29
537.00	2938.19
537.36	2961.19
537.72	2982.21
538.08	3004.53
538.44	3026.70
538.79	3048.01
539.15	3069.05
539.51	3089.70
539.87	3109.58
540.22	3127.09
540.58	3145.72
540.94	3162.51
541.29	3178.93
541.65	3195.26
542.01	3211.50
542.37	3225.62
542.72	3240.11
543.08	3253.16
543.44	3268.83
543.79	3281.80
544.15	3294.60
544.51	3307.69
544.87	3319.42
545.22	3331.73
545.58	3342.13
545.94	3350.80
546.29	3360.07
546.65	3367.84
547.01	3375.29
547.36	3382.77
547.72	3390.68
548.07	3395.77
548.43	3402.57
548.79	3409.12
549.14	3414.64
549.50	3419.83
549.86	3425.39
550.21	3430.55
550.57	3436.32
550.92	3438.00
551.28	3440.07
551.64	3442.86
551.99	3445.79
552.35	3448.64
552.70	3451.62
553.06	3454.27
553.41	3456.71
553.77	3459.59
554.13	3463.34
554.48	3466.99
554.84	3469.34
555.19	3471.82
555.55	3475.10
555.90	3475.46
556.26	3475.40
556.61	3474.25
556.97	3472.18
557.32	3472.12
557.68	3472.56
558.03	3471.54
558.39	3470.82
558.74	3470.92
559.10	3469.14
559.45	3465.68
559.81	3461.52
560.16	3455.83
560.52	3450.39
560.87	3446.68
561.23	3440.89
561.58	3435.22
561.94	3427.18
562.29	3419.47
562.64	3411.43
563.00	3402.45
563.35	3395.52
563.71	3388.01
564.06	3382.12
564.42	3375.86
564.77	3369.11
565.12	3360.82
565.48	3353.33
565.83	3345.91
566.19	3337.92
566.54	3329.50
566.89	3321.46
567.25	3314.40
567.60	3307.52
567.96	3300.55
568.31	3292.42
568.66	3283.79
569.02	3274.30
569.37	3266.17
569.72	3258.65
570.08	3250.01
570.43	3240.44
570.78	3231.43
571.14	3221.98
571.49	3210.89
571.84	3201.05
572.20	3188.84
572.55	3177.99
572.90	3165.16
573.26	3153.54
573.61	3141.75
573.96	3128.89
574.31	3115.60
574.67	3101.91
575.02	3087.67
575.37	3073.50
575.72	3058.26
576.08	3044.77
576.43	3029.67
576.78	3014.37
577.13	2999.12
577.49	2984.30
577.84	2970.64
578.19	2956.80
578.54	2942.50
578.90	2929.11
579.25	2915.09
579.60	2901.10
579.95	2886.16
580.30	2871.80
580.66	2856.36
581.01	2840.41
581.36	2825.18
581.71	2810.73
582.06	2796.62
582.42	2782.57
582.77	2767.93
583.12	2754.32
583.47	2740.21
583.82	2727.39
584.17	2713.84
584.53	2700.05
584.88	2685.11
585.23	2670.23
585.58	2653.56
585.93	2638.08
586.28	2622.48
586.63	2605.98
586.98	2589.16
587.34	2573.20
587.69	2557.55
588.04	2543.05
588.39	2528.93
588.74	2513.90
589.09	2499.91
589.44	2484.25
589.79	2469.49
590.14	2455.30
590.49	2441.04
590.84	2426.59
591.19	2412.11
591.54	2397.67
591.89	2382.86
592.25	2371.08
592.60	2357.02
592.95	2343.10
593.30	2329.05
593.65	2313.96
594.00	2298.94
594.35	2288.20
594.70	2274.28
595.05	2260.39
595.40	2245.72
595.75	2230.94
596.10	2217.47
596.45	2202.96
596.80	2189.28
597.15	2175.40
597.50	2161.09
597.85	2146.88
598.19	2132.21
598.54	2117.10
598.89	2102.48
599.24	2089.82
599.59	2075.06
599.94	2061.55
600.29	2048.95
600.64	2036.14
600.99	2023.06
601.34	2011.37
601.69	1996.23
602.04	1983.80
602.39	1971.76
602.74	1959.87
603.08	1947.83
603.43	1935.58
603.78	1922.87
604.13	1910.50
604.48	1897.80
604.83	1884.73
605.18	1871.58
605.53	1858.84
605.87	1847.02
606.22	1836.19
606.57	1823.15
606.92	1810.15
607.27	1798.00
607.62	1785.59
607.96	1773.79
608.31	1763.16
608.66	1751.48
609.01	1739.76
609.36	1727.97
609.70	1715.73
610.05	1704.16
610.40	1692.82
610.75	1681.34
611.10	1670.59
611.44	1658.85
611.79	1647.36
612.14	1636.97
612.49	1626.41
612.83	1616.13
613.18	1605.56
613.53	1594.81
613.88	1583.69
614.22	1573.15
614.57	1561.80
614.92	1551.12
615.27	1540.50
615.61	1528.98
615.96	1518.24
616.31	1507.63
616.65	1497.51
617.00	1487.36
617.35	1476.54
617.70	1466.18
618.04	1455.65
618.39	1445.10
618.74	1435.85
619.08	1425.85
619.43	1415.17
619.78	1404.83
620.12	1394.29
620.47	1383.62
620.82	1372.53
621.16	1362.63
621.51	1352.80
621.85	1343.37
622.20	1333.30
622.55	1323.00
622.89	1313.78
623.24	1304.82
623.59	1295.08
623.93	1285.52
624.28	1275.69
624.62	1267.41
624.97	1258.48
625.32	1249.42
625.66	1239.77
626.01	1230.19
626.35	1221.69
626.70	1213.09
627.04	1204.90
627.39	1196.16
627.73	1188.02
628.08	1180.15
628.43	1171.73
628.77	1163.29
629.12	1154.95
629.46	1147.56
629.81	1140.25
630.15	1132.37
630.50	1123.87
630.84	1116.06
631.19	1108.23
631.53	1100.90
631.88	1092.14
632.22	1084.00
632.57	1077.30
632.91	1069.90
633.26	1062.80
633.60	1054.77
633.95	1046.83
634.29	1038.53
634.64	1031.33
634.98	1023.30
635.32	1015.90
635.67	1009.27
636.01	1002.25
636.36	994.73
636.70	987.64
637.05	980.51
637.39	973.52
637.73	966.90
638.08	960.30
638.42	953.13
638.77	945.64
639.11	938.21
639.45	930.65
639.80	922.83
640.14	915.85
640.49	908.48
640.83	902.03
641.17	895.97
641.52	889.70
641.86	883.12
642.20	877.51
642.55	870.77
642.89	864.09
643.23	857.86
643.58	852.71
643.92	845.96
644.26	839.77
644.61	833.95
644.95	827.63
645.29	821.41
645.64	815.79
645.98	810.23
646.32	805.00
646.66	799.40
647.01	793.72
647.35	788.58
647.69	783.50
648.04	778.22
648.38	772.78
648.72	767.67
649.06	762.51
649.41	756.83
649.75	751.50
650.09	745.92
650.43	740.54
650.78	734.93
651.12	729.94
651.46	724.69
651.80	719.36
652.14	714.16
652.49	709.55
652.83	704.62
653.17	699.71
653.51	694.70
653.85	690.63
654.20	685.91
654.54	680.93
654.88	676.12
655.22	671.73
655.56	667.18
655.90	662.58
656.25	657.89
656.59	653.65
656.93	649.66
657.27	645.90
657.61	641.36
657.95	636.93
658.29	632.78
658.64	628.67
658.98	624.30
659.32	620.17
659.66	615.79
660.00	611.52
660.34	607.53
660.68	603.43
661.02	598.92
661.36	595.01
661.70	591.10
662.05	587.21
662.39	583.29
662.73	579.64
663.07	576.27
663.41	572.56
663.75	568.74
664.09	564.95
664.43	561.00
664.77	557.53
665.11	553.90
665.45	550.27
665.79	546.88
666.13	543.62
666.47	540.26
666.81	536.70
667.15	533.27
667.49	530.12
667.83	527.38
668.17	524.44
668.51	521.56
668.85	518.87
669.19	516.34
669.53	513.28
669.87	510.11
670.21	506.92
670.55	504.12
670.89	501.84
671.23	498.84
671.57	495.82
671.91	492.90
672.25	490.02
672.58	487.49
672.92	484.40
673.26	481.67
673.60	478.94
673.94	476.59
674.28	474.14
674.62	471.71
674.96	468.83
675.30	466.24
675.64	463.63
675.97	460.75
676.31	457.80
676.65	455.03
676.99	452.92
677.33	450.28
677.67	447.93
678.01	444.83
678.34	442.75
678.68	440.65
679.02	438.46
679.36	436.30
679.70	433.88
680.04	431.80
680.37	429.64
680.71	427.47
681.05	425.34
681.39	423.46
681.73	421.33
682.06	419.28
682.40	417.35
682.74	415.46
683.08	413.88
683.42	411.77
683.75	409.94
684.09	407.73
684.43	405.86
684.77	403.85
685.10	402.13
685.44	400.25
685.78	398.26
686.12	396.44
686.45	394.53
686.79	392.74
687.13	391.19
687.46	389.51
687.80	388.18
688.14	386.23
688.48	384.30
688.81	382.46
689.15	381.00
689.49	379.23
689.82	377.56
690.16	375.61
690.50	374.07
690.83	372.39
691.17	370.68
691.51	369.09
691.84	367.59
692.18	365.89
692.52	364.20
692.85	362.85
693.19	361.66
693.52	360.22
693.86	358.75
694.20	357.20
694.53	355.68
694.87	353.91
695.21	352.46
695.54	351.08
695.88	349.65
696.21	347.89
696.55	346.54
696.88	345.08
697.22	343.63
697.56	342.44
697.89	341.13
698.23	339.77
698.56	338.32
698.90	337.29
699.23	336.04
699.57	334.99
699.90	333.70
700.24	332.18
700.58	331.02
700.91	330.08
701.25	329.60
701.58	329.12
701.92	328.31
702.25	327.33
702.59	326.26
702.92	325.29
703.26	324.38
703.59	323.29
703.93	323.10
704.26	322.28
704.60	321.22
704.93	320.16
705.26	319.08
705.60	318.41
705.93	317.16
706.27	316.52
706.60	315.71
706.94	315.02
707.27	313.93
707.61	313.17
707.94	312.11
708.27	310.52
708.61	308.89
708.94	307.93
709.28	307.02
709.61	306.00
709.94	305.13
710.28	304.20
710.61	303.40
710.95	301.65
711.28	301.35
711.61	300.53
711.95	300.03
712.28	299.24
712.61	298.26
712.95	297.91
713.28	297.45
713.61	296.43
713.95	295.41
714.28	294.82
714.61	293.90
714.95	292.85
715.28	291.96
715.61	291.28
715.95	290.48
716.28	289.69
716.61	289.11
716.95	288.25
717.28	287.46
717.61	286.70
717.94	285.98
718.28	284.61
718.61	283.87
718.94	283.00
719.27	282.41
719.61	281.84
719.94	280.94
720.27	279.92
720.60	279.29
720.94	278.70
721.27	278.29
721.60	277.87
721.93	277.56
722.27	277.33
722.60	276.94
722.93	276.28
723.26	275.81
723.59	275.15
723.93	274.84
724.26	274.56
724.59	274.00
724.92	273.54
725.25	273.38
725.59	272.95
725.92	272.61
726.25	272.18
726.58	271.90
726.91	271.42
727.24	271.11
727.57	270.69
727.91	270.06
728.24	269.69
728.57	269.13
728.90	268.80
729.23	268.15
729.56	268.03
729.89	267.78
730.22	267.33
730.55	266.96
730.89	266.42
731.22	265.90
731.55	265.54
731.88	265.20
732.21	264.68
732.54	264.17
732.87	263.57
733.20	263.24
733.53	262.82
733.86	262.56
734.19	261.94
734.52	261.73
734.85	262.10
735.18	261.43
735.51	261.53
735.84	261.20
736.17	261.13
736.50	260.36
736.83	261.13
737.16	260.85
737.49	260.55
737.82	260.24
738.15	260.01
738.48	259.74
738.81	259.38
739.14	258.88
739.47	258.49
739.80	258.32
740.13	258.07
740.46	257.65
740.79	257.20
741.12	256.94
741.45	256.50
741.78	255.69
742.11	255.76
742.44	255.18
742.77	254.95
743.10	254.47
743.43	254.16
743.75	252.76
744.08	253.73
744.41	253.42
744.74	253.10
745.07	252.74
745.40	252.51
745.73	252.74
746.06	252.50
746.39	252.43
746.71	252.09
747.04	251.74
747.37	251.40
747.70	251.35
748.03	251.20
748.36	251.16
748.68	250.89
749.01	250.36
749.34	250.14
749.67	250.06
750.00	249.81
750.33	250.39
750.65	250.29
750.98	248.84
751.31	248.63
751.64	248.56
751.97	248.88
752.29	248.70
752.62	247.99
752.95	247.82
753.28	247.49
753.60	247.30
753.93	247.36
754.26	247.32
754.59	246.89
754.91	246.56
755.24	246.26
755.57	246.16
755.90	245.94
756.22	245.61
756.55	245.31
756.88	245.11
757.20	244.30
757.53	243.92
757.86	243.74
758.19	243.70
758.51	243.50
758.84	242.90
759.17	242.60
759.49	242.52
759.82	242.78
760.15	242.79
760.47	242.64
760.80	242.17
761.13	242.05
761.45	241.90
761.78	241.70
762.11	241.50
762.43	241.20
762.76	241.03
763.08	240.98
763.41	240.76
763.74	240.62
764.06	240.43
764.39	240.25
764.71	240.21
765.04	239.92
765.37	239.60
765.69	239.44
766.02	239.38
766.34	239.18
766.67	238.77
767.00	238.73
767.32	239.23
767.65	239.73
767.97	239.58
768.30	239.53
768.62	239.49
768.95	239.29
769.27	239.18
769.60	239.20
769.92	239.02
770.25	238.74
770.57	238.48
770.90	238.28
771.22	238.18
771.55	238.00
771.87	237.99
772.20	238.01
772.52	238.66
772.85	239.63
773.17	239.58
773.50	239.35
773.82	238.99
774.15	238.27
774.47	237.61
774.80	237.41
775.12	237.28
775.45	237.11
775.77	236.97
776.09	236.94
776.42	236.87
776.74	237.01
777.07	236.94
777.39	236.87
777.72	236.77
778.04	236.78
778.36	236.60
778.69	236.49
779.01	236.48
779.33	235.57
779.66	234.45
779.98	234.38
780.31	234.40
780.63	234.92
780.95	235.10
781.28	234.98
781.60	234.90
781.92	234.85
782.25	234.85
782.57	234.87
782.89	234.75
783.22	234.65
783.54	234.42
783.86	234.46
784.19	234.38
784.51	234.67
784.83	234.42
785.16	234.36
785.48	234.34
785.80	234.35
786.12	234.43
786.45	234.47
786.77	234.45
787.09	234.30
787.42	233.88
787.74	233.77
788.06	233.73
788.38	233.56
788.71	233.46
789.03	233.33
789.35	233.53
789.67	233.40
789.99	233.44
790.32	233.31
790.64	233.40
790.96	234.08
791.28	233.67
791.61	233.62
791.93	233.70
792.25	233.66
792.57	234.18
792.89	233.99
793.21	233.88
793.54	233.75
793.86	233.64
794.18	233.61
794.50	233.44
794.82	233.55
795.14	233.74
795.47	233.74
795.79	233.79
796.11	233.52
796.43	233.35
796.75	233.38
797.07	233.37
797.39	233.33
797.71	232.71
798.04	232.81
798.36	232.85
798.68	232.78
799.00	232.81
799.32	232.22
799.64	232.35
799.96	232.34
800.28	232.50
800.60	232.42
800.92	232.53
801.24	232.49
801.56	232.48
801.89	232.38
802.21	232.47
802.53	232.40
802.85	232.53
803.17	233.09
803.49	232.75
803.81	232.72
804.13	232.52
804.45	232.38
804.77	232.39
805.09	232.40
805.41	232.18
805.73	231.99
806.05	231.81
806.37	231.60
806.69	231.48
807.01	231.40
807.33	231.50
807.65	231.15
807.97	231.57
808.28	231.53
808.60	231.48
808.92	231.37
809.24	231.91
809.56	231.81
809.88	231.44
810.20	231.45
810.52	231.55
810.84	231.40
811.16	231.35
811.48	231.28
811.80	231.60
812.12	231.60
812.43	231.73
812.75	231.72
813.07	231.77
813.39	231.81
813.71	231.61
814.03	231.58
814.35	231.58
814.67	231.19
814.98	230.99
815.30	230.95
815.62	230.75
815.94	230.13
816.26	230.46
816.58	230.30
816.89	230.48
817.21	230.26
817.53	230.32
817.85	230.35
818.17	230.33
818.48	229.85
818.80	230.06
819.12	229.90
819.44	229.82
819.76	229.68
820.07	229.69
820.39	229.69
820.71	229.74
821.03	229.72
821.34	229.60
821.66	229.76
821.98	229.81
822.30	229.83
822.61	230.27
822.93	229.89
823.25	229.93
823.57	229.78
823.88	229.98
824.20	230.04
824.52	230.26
824.83	230.25
825.15	230.30
825.47	230.28
825.79	230.42
826.10	230.43
826.42	230.42
826.74	230.47
827.05	230.45
827.37	230.42
827.69	230.39
828.00	230.51
828.32	230.40
828.64	230.32
828.95	230.80
829.27	230.62
829.58	230.60
829.90	230.68
830.22	230.78
830.53	230.62
830.85	230.42
831.17	230.10
831.48	230.05
831.80	230.03
832.11	229.99
832.43	229.81
832.75	229.81
833.06	230.39
833.38	230.12
833.69	230.22
834.01	230.24
834.32	230.19
834.64	230.06
834.96	230.04
835.27	230.03
835.59	229.68
835.90	229.57
836.22	229.53
836.53	229.38
836.85	229.26
837.16	230.14
837.48	230.29
837.79	230.63
838.11	230.73
838.42	230.67
838.74	230.72
839.05	230.59
839.37	230.51
839.68	229.98
840.00	229.98
840.31	229.98
840.63	229.85
840.94	229.76
841.26	229.58
841.57	229.65
841.88	229.79
842.20	229.62
842.51	229.47
842.83	229.51
843.14	230.33
843.46	230.28
843.77	229.83
844.08	229.69
844.40	229.36
844.71	229.24
845.03	229.25
845.34	229.14
845.65	229.11
845.97	229.17
846.28	229.15
846.60	229.29
846.91	229.13
847.22	229.09
847.54	229.19
847.85	229.36
848.16	229.20
848.48	228.94
848.79	229.42
849.10	229.49
849.42	229.50
849.73	228.65
850.04	228.68
850.36	228.30
850.67	228.51
850.98	228.52
851.30	228.45
851.61	228.34
851.92	228.28
852.23	228.70
852.55	228.71
852.86	228.72
853.17	228.70
853.49	228.84
853.80	229.07
854.11	229.25
854.42	229.37
854.74	229.20
855.05	229.28
855.36	228.70
855.67	228.73
855.99	228.65
856.30	229.83
856.61	229.75
856.92	229.70
857.23	229.64
857.55	229.56
857.86	229.62
858.17	229.84
858.48	229.71
858.79	229.40
859.11	229.40
859.42	229.36
859.73	229.21
860.04	229.19
860.35	228.87
860.66	228.52
860.98	228.45
861.29	228.74
861.60	228.67
861.91	228.96
862.22	228.76
862.53	228.64
862.84	227.51
863.16	227.71
863.47	227.59
863.78	227.46
864.09	227.63
864.40	227.62
864.71	227.59
865.02	227.82
865.33	227.70
865.64	227.59
865.95	227.59
866.27	228.21
866.58	228.12
866.89	228.30
867.20	228.30
867.51	228.05
867.82	227.96
868.13	228.27
868.44	228.05
868.75	228.34
869.06	228.46
869.37	228.51
869.68	228.30
869.99	228.46
870.30	228.57
870.61	228.58
870.92	228.45
871.23	228.31
871.54	228.34
871.85	228.64
872.16	228.75
872.47	228.75
872.78	228.19
873.09	228.32
873.40	228.22
873.71	228.31
874.02	228.42
874.33	228.26
874.64	227.98
874.95	228.02
875.26	227.69
875.56	227.58
875.87	227.45
876.18	227.33
876.49	228.25
876.80	228.18
877.11	227.98
877.42	228.00
877.73	228.08
878.04	227.95
878.35	227.83
878.66	227.87
878.96	227.76
879.27	227.68
879.58	227.58
879.89	227.39
880.20	227.60
880.51	227.56
880.82	227.60
881.12	227.64
881.43	227.52
881.74	227.49
882.05	227.41
882.36	227.55
882.67	227.64
882.97	226.59
883.28	226.55
883.59	226.59
883.90	226.67
884.21	226.75
884.51	226.66
884.82	226.54
885.13	226.52
885.44	226.53
885.74	226.60
886.05	226.65
886.36	226.77
886.67	226.43
886.98	226.98
887.28	227.10
887.59	227.10
887.90	227.12
888.20	227.03
888.51	227.35
888.82	227.14
889.13	227.27
889.43	228.06
889.74	227.96
890.05	227.94
890.35	228.01
890.66	227.89
890.97	227.86
891.28	227.79
891.58	227.76
891.89	227.79
892.20	227.70
892.50	227.61
892.81	227.56
893.12	227.65
893.42	227.14
893.73	227.25
894.04	227.32
894.34	227.47
894.65	227.50
894.95	227.30
895.26	227.42
895.57	227.88
895.87	227.06
896.18	227.35
896.48	227.40
896.79	227.30
897.10	227.46
897.40	227.57
897.71	227.75
898.01	227.66
898.32	227.78
898.63	227.75
898.93	227.72
899.24	227.80
899.54	227.82
899.85	227.87
900.15	227.82
900.46	227.71
900.76	227.85
901.07	227.84
901.38	227.83
901.68	227.89
901.99	227.29
902.29	227.30
902.60	227.17
902.90	227.08
903.21	227.07
903.51	227.02
903.82	227.19
904.12	227.18
904.43	227.31
904.73	227.30
905.03	227.42
905.34	228.41
905.64	228.23
905.95	228.13
906.25	228.04
906.56	227.99
906.86	228.04
907.17	227.90
907.47	228.03
907.77	228.00
908.08	227.80
908.38	227.99
908.69	228.19
908.99	228.34
909.30	228.40
909.60	228.42
909.90	228.41
910.21	228.00
910.51	227.90
910.81	227.87
911.12	228.00
911.42	227.93
911.73	226.86
912.03	227.13
912.33	227.38
912.64	227.42
912.94	227.32
913.24	227.13
913.55	226.98
913.85	226.94
914.15	227.09
914.46	227.24
914.76	227.04
915.06	226.83
915.37	226.67
915.67	226.60
915.97	226.58
916.27	226.32
916.58	226.51
916.88	226.39
917.18	226.36
917.49	226.85
917.79	226.84
918.09	227.02
918.39	227.18
918.70	227.10
919.00	227.07
919.30	227.50
919.60	227.50
919.91	227.49
920.21	227.49
920.51	227.26
920.81	227.22
921.12	227.40
921.42	227.40
921.72	227.48
922.02	227.59
922.32	227.72
922.63	227.85
922.93	228.30
923.23	228.40
923.53	228.29
923.83	227.70
924.13	227.79
924.44	227.74
924.74	227.90
925.04	228.08
925.34	228.10
925.64	227.77
925.94	227.87
926.24	228.46
926.55	228.41
926.85	228.62
927.15	228.64
927.45	228.65
927.75	228.71
928.05	228.70
928.35	228.63
928.65	228.83
928.95	228.87
929.26	228.52
929.56	228.69
929.86	228.81
930.16	228.80
930.46	228.73
930.76	228.80
931.06	228.29
931.36	228.10
931.66	228.29
931.96	228.34
932.26	228.27
932.56	227.76
932.86	227.80
933.16	227.80
933.46	227.73
933.76	227.58
934.06	227.72
934.36	228.03
934.66	228.00
934.96	227.78
935.26	227.86
935.56	227.89
935.86	227.67
936.16	227.49
936.46	227.32
936.76	227.28
937.06	227.12
937.36	227.28
937.66	227.19
937.96	227.17
938.26	227.02
938.56	227.02
938.86	227.22
939.16	227.44
939.46	227.46
939.76	227.56
940.06	227.62
940.35	227.46
940.65	226.90
940.95	226.92
941.25	226.76
941.55	226.61
941.85	226.63
942.15	226.83
942.45	227.13
942.75	227.14
943.04	227.20
943.34	227.46
943.64	227.35
943.94	227.36
944.24	227.28
944.54	227.37
944.84	227.36
945.13	227.22
945.43	227.09
945.73	227.00
946.03	226.77
946.33	226.71
946.62	226.71
946.92	226.80
947.22	226.97
947.52	227.08
947.82	227.18
948.11	227.06
948.41	226.92
948.71	226.63
949.01	226.82
949.31	226.71
949.60	226.55
949.90	226.70
950.20	226.63
950.50	226.65
950.79	226.43
951.09	226.69
951.39	226.60
951.69	226.47
951.98	226.80
952.28	227.02
952.58	226.94
952.87	226.90
953.17	227.05
953.47	226.92
953.76	226.87
954.06	226.71
954.36	226.59
954.66	226.57
954.95	226.90
955.25	226.83
955.55	226.95
955.84	226.85
956.14	226.98
956.44	227.10
956.73	226.91
957.03	227.01
957.32	226.86
957.62	226.93
957.92	227.07
958.21	226.89
958.51	227.87
958.81	228.12
959.10	228.18
959.40	228.40
959.69	228.45
959.99	228.62
960.29	228.67
960.58	228.67
960.88	229.04
961.17	228.84
961.47	228.89
961.76	228.83
962.06	229.01
962.36	228.90
962.65	228.91
962.95	228.99
963.24	229.00
963.54	229.06
963.83	229.01
964.13	229.07
964.42	228.86
964.72	228.14
965.01	227.96
965.31	227.94
965.60	227.67
965.90	228.31
966.19	228.13
966.49	228.21
966.78	228.21
967.08	228.10
967.37	228.07
967.67	227.88
967.96	228.10
968.26	228.07
968.55	228.13
968.85	228.08
969.14	228.13
969.43	228.03
969.73	228.00
970.02	227.92
970.32	227.80
970.61	227.69
970.91	227.42
971.20	227.42
971.49	227.32
971.79	227.47
972.08	226.66
972.38	226.82
972.67	226.74
972.96	226.96
973.26	226.70
973.55	227.00
973.85	227.10
974.14	226.93
974.43	226.97
974.73	226.87
975.02	226.76
975.31	226.69
975.61	226.69
975.90	226.57
976.19	226.50
976.49	226.55
976.78	226.76
977.07	226.69
977.37	226.69
977.66	226.92
977.95	226.74
978.24	226.91
978.54	226.94
978.83	226.85
979.12	226.74
979.42	226.85
979.71	226.67
980.00	226.58
980.29	226.62
980.59	226.52
980.88	226.70
981.17	226.74
981.46	226.80
981.76	226.82
982.05	227.17
982.34	227.41
982.63	227.46
982.93	227.34
983.22	227.65
983.51	227.71
983.80	227.73
984.09	227.80
984.39	227.62
984.68	227.60
984.97	227.71
985.26	227.50
985.55	227.59
985.85	227.37
986.14	227.46
986.43	227.62
986.72	227.57
987.01	227.28
987.30	227.23
987.59	227.13
987.89	227.18
988.18	226.83
988.47	226.66
988.76	226.56
989.05	226.49
989.34	226.29
989.63	226.49
989.92	226.29
990.22	226.20
990.51	226.29
990.80	226.19
991.09	226.23
991.38	226.50
991.67	226.30
991.96	226.37
992.25	226.40
992.54	226.10
992.83	226.07
993.12	226.01
993.41	226.21
993.70	226.57
993.99	226.76
994.28	226.92
994.58	227.00
994.87	226.98
995.16	227.10
995.45	227.14
995.74	226.86
996.03	227.03
996.32	227.23
996.61	227.46
996.90	227.42
997.19	227.46
997.48	227.39
997.77	227.46
998.06	227.54
998.34	227.51
998.63	227.56
998.92	227.55
999.21	227.67
999.50	227.70
999.79	227.40
1000.08	227.30
1000.37	227.20
1000.66	227.14
1000.95	227.29
1001.24	227.28
1001.53	227.40
1001.82	227.43
1002.11	227.27
1002.40	227.24
1002.68	227.45
1002.97	228.13
1003.26	228.00
1003.55	227.97
1003.84	227.95
1004.13	228.14
1004.42	228.15
1004.71	228.16
1004.99	228.21
1005.28	228.50
1005.57	228.43
1005.86	228.30
1006.15	228.32
1006.44	228.23
1006.72	228.32
1007.01	228.21
1007.30	228.24
1007.59	228.03
1007.88	227.93
1008.17	227.99
1008.45	227.88
1008.74	227.48
1009.03	227.02
1009.32	226.97
1009.60	226.91
1009.89	226.90
1010.18	226.60
1010.47	226.54
1010.76	226.55
1011.04	226.54
1011.33	226.47
1011.62	226.55
1011.91	226.71
1012.19	226.75
1012.48	226.87
1012.77	226.81
1013.05	227.23
1013.34	227.18
1013.63	227.20
1013.92	227.25
1014.20	227.16
1014.49	227.23
1014.78	227.30
1015.06	227.03
1015.35	227.03
1015.64	227.15
1015.92	227.25
1016.21	227.35
1016.50	227.40
1016.78	227.57
1017.07	227.61
1017.36	227.52
1017.64	227.40
1017.93	227.54
1018.22	227.50
1018.50	227.42
1018.79	227.42
1019.08	226.99
1019.36	227.08
1019.65	226.91
1019.93	227.22
1020.22	227.24
1020.51	227.68
1020.79	227.54
1021.08	227.90
1021.36	224.70
1021.65	226.20
1021.94	226.40
1022.22	227.90
1022.51	223.80
1022.79	231.40
1023.08	225.80
1023.36	238.50
1023.65	225.00
>>>>>End Processed Spectral Data<<<<<
