SpectraSuite Data File
++++++++++++++++++++++++++++++++++++
Date: Wed Sep 04 17:28:42 EDT 2013
User: lab3
Dark Spectrum Present: Yes
Reference Spectrum Present: No
Number of Sampled Component Spectra: 1
Spectrometers: USB2E7196
Integration Time (usec): 337000 (USB2E7196)
Spectra Averaged: 10 (USB2E7196)
Boxcar Smoothing: 10 (USB2E7196)
Correct for Electrical Dark: No (USB2E7196)
Strobe/Lamp Enabled: No (USB2E7196)
Correct for Detector Non-linearity: No (USB2E7196)
Correct for Stray Light: No (USB2E7196)
Number of Pixels in Processed Spectrum: 2048
>>>>>Begin Processed Spectral Data<<<<<
339.09	0.00
339.48	213.70
339.86	214.20
340.24	216.30
340.63	216.00
341.01	231.90
341.39	218.70
341.78	223.10
342.16	225.70
342.54	224.50
342.93	212.97
343.31	223.61
343.69	224.13
344.07	224.62
344.46	225.17
344.84	225.74
345.22	225.35
345.60	225.78
345.99	225.99
346.37	226.02
346.75	226.05
347.13	225.98
347.52	226.20
347.90	226.51
348.28	226.62
348.66	226.96
349.05	226.76
349.43	226.87
349.81	226.87
350.19	226.94
350.57	226.93
350.96	227.20
351.34	227.35
351.72	227.41
352.10	227.43
352.48	227.30
352.87	227.27
353.25	227.45
353.63	227.44
354.01	227.40
354.39	227.50
354.77	227.57
355.15	228.01
355.54	227.83
355.92	227.60
356.30	227.58
356.68	228.23
357.06	228.39
357.44	228.33
357.82	228.49
358.20	229.40
358.58	229.48
358.97	229.54
359.35	229.80
359.73	230.05
360.11	230.18
360.49	230.40
360.87	230.42
361.25	230.60
361.63	230.95
362.01	231.06
362.39	231.12
362.77	231.25
363.15	231.18
363.53	231.29
363.91	231.53
364.29	231.58
364.67	230.68
365.05	230.65
365.43	230.86
365.81	231.00
366.19	230.56
366.57	231.00
366.95	230.94
367.33	230.69
367.71	230.67
368.09	230.93
368.47	230.90
368.85	230.97
369.23	231.09
369.61	230.76
369.99	231.09
370.37	231.18
370.75	231.65
371.13	231.48
371.51	231.40
371.89	231.45
372.27	231.48
372.65	231.57
373.03	231.63
373.41	231.54
373.78	231.41
374.16	230.92
374.54	230.53
374.92	230.39
375.30	230.54
375.68	230.38
376.06	230.27
376.44	230.22
376.82	230.24
377.19	230.11
377.57	230.09
377.95	229.65
378.33	229.56
378.71	228.93
379.09	229.10
379.47	229.18
379.84	228.88
380.22	228.73
380.60	228.53
380.98	228.55
381.36	228.39
381.73	228.18
382.11	228.46
382.49	228.51
382.87	228.45
383.25	228.33
383.62	229.36
384.00	229.20
384.38	229.10
384.76	229.21
385.13	229.54
385.51	229.46
385.89	229.42
386.27	229.41
386.64	229.67
387.02	229.48
387.40	229.40
387.78	229.56
388.15	229.68
388.53	229.58
388.91	229.41
389.29	229.39
389.66	229.51
390.04	229.24
390.42	229.35
390.79	229.30
391.17	229.33
391.55	228.29
391.92	228.36
392.30	228.55
392.68	228.33
393.05	228.22
393.43	228.36
393.81	228.40
394.18	228.26
394.56	228.16
394.94	228.29
395.31	228.21
395.69	228.51
396.06	228.52
396.44	228.67
396.82	228.70
397.19	229.20
397.57	229.27
397.95	229.66
398.32	229.47
398.70	229.79
399.07	230.06
399.45	230.11
399.82	230.14
400.20	230.15
400.58	230.34
400.95	230.12
401.33	230.40
401.70	231.24
402.08	231.46
402.45	231.61
402.83	232.13
403.20	232.50
403.58	232.58
403.95	233.10
404.33	233.56
404.71	234.02
405.08	234.82
405.46	235.19
405.83	235.68
406.21	236.19
406.58	236.52
406.96	236.96
407.33	237.67
407.70	238.36
408.08	239.79
408.45	240.57
408.83	241.58
409.20	242.26
409.58	242.47
409.95	243.52
410.33	244.63
410.70	245.40
411.08	246.63
411.45	247.95
411.82	249.13
412.20	250.57
412.57	252.55
412.95	253.22
413.32	254.94
413.69	256.53
414.07	258.40
414.44	260.56
414.82	262.76
415.19	265.20
415.56	267.80
415.94	269.94
416.31	272.99
416.68	276.00
417.06	279.55
417.43	283.11
417.81	286.91
418.18	290.80
418.55	294.98
418.93	299.22
419.30	303.65
419.67	308.50
420.04	313.67
420.42	318.54
420.79	325.34
421.16	331.51
421.54	338.31
421.91	344.77
422.28	351.59
422.66	358.82
423.03	366.39
423.40	373.82
423.77	381.76
424.15	389.84
424.52	398.25
424.89	407.53
425.26	416.52
425.64	425.04
426.01	434.48
426.38	444.34
426.75	454.61
427.13	465.05
427.50	475.76
427.87	486.74
428.24	498.13
428.61	508.43
428.99	520.53
429.36	533.01
429.73	545.69
430.10	558.43
430.47	571.59
430.85	584.79
431.22	599.01
431.59	614.54
431.96	629.12
432.33	645.40
432.70	661.18
433.08	679.45
433.45	696.94
433.82	714.36
434.19	733.82
434.56	753.11
434.93	771.50
435.30	789.90
435.68	810.55
436.05	830.97
436.42	851.00
436.79	869.68
437.16	889.97
437.53	911.42
437.90	932.69
438.27	953.96
438.64	975.95
439.01	996.54
439.38	1014.77
439.75	1032.89
440.13	1053.31
440.50	1072.17
440.87	1088.22
441.24	1105.01
441.61	1123.41
441.98	1136.70
442.35	1152.20
442.72	1168.25
443.09	1184.00
443.46	1193.63
443.83	1200.70
444.20	1206.94
444.57	1215.38
444.94	1219.86
445.31	1224.62
445.68	1229.68
446.05	1231.72
446.42	1230.51
446.79	1228.94
447.16	1227.06
447.53	1225.69
447.90	1218.49
448.27	1211.63
448.64	1201.28
449.01	1193.80
449.37	1180.18
449.74	1167.34
450.11	1151.85
450.48	1134.24
450.85	1116.14
451.22	1101.19
451.59	1086.61
451.96	1072.81
452.33	1053.80
452.70	1037.01
453.07	1016.70
453.43	995.64
453.80	975.98
454.17	957.25
454.54	939.41
454.91	919.92
455.28	900.74
455.65	882.74
456.02	865.93
456.38	851.04
456.75	832.43
457.12	817.10
457.49	802.22
457.86	787.37
458.23	775.19
458.59	761.50
458.96	747.46
459.33	735.03
459.70	723.00
460.07	713.42
460.43	701.97
460.80	691.81
461.17	682.70
461.54	673.15
461.91	663.76
462.27	654.21
462.64	646.56
463.01	638.21
463.38	630.50
463.74	621.21
464.11	613.87
464.48	607.61
464.85	600.46
465.21	595.08
465.58	589.47
465.95	582.48
466.32	577.26
466.68	571.81
467.05	566.23
467.42	560.82
467.78	555.10
468.15	549.89
468.52	545.75
468.88	540.40
469.25	535.84
469.62	532.34
469.98	528.47
470.35	524.59
470.72	521.06
471.08	516.91
471.45	513.93
471.82	510.73
472.18	507.00
472.55	504.72
472.92	501.79
473.28	499.14
473.65	496.63
474.02	494.06
474.38	491.98
474.75	490.29
475.11	488.06
475.48	486.62
475.85	485.17
476.21	483.80
476.58	482.55
476.94	481.60
477.31	480.33
477.67	479.32
478.04	478.72
478.41	478.19
478.77	478.84
479.14	478.05
479.50	477.94
479.87	478.04
480.23	478.00
480.60	477.55
480.96	477.41
481.33	478.12
481.69	478.42
482.06	478.67
482.42	479.16
482.79	479.72
483.15	480.49
483.52	481.95
483.88	482.82
484.25	483.91
484.61	485.23
484.98	486.65
485.34	488.74
485.71	490.49
486.07	492.52
486.44	493.76
486.80	496.03
487.17	498.17
487.53	501.10
487.90	503.81
488.26	507.21
488.62	510.61
488.99	513.41
489.35	516.68
489.72	520.34
490.08	523.95
490.44	527.77
490.81	531.78
491.17	535.62
491.54	540.42
491.90	545.06
492.26	549.76
492.63	554.65
492.99	559.20
493.36	564.49
493.72	570.01
494.08	575.41
494.45	581.67
494.81	588.03
495.17	593.99
495.54	600.37
495.90	606.91
496.26	613.65
496.63	620.77
496.99	628.03
497.35	635.45
497.72	643.20
498.08	650.99
498.44	659.01
498.80	667.59
499.17	675.56
499.53	684.01
499.89	692.84
500.26	701.70
500.62	710.56
500.98	719.94
501.34	729.06
501.71	738.26
502.07	747.25
502.43	756.57
502.79	766.05
503.16	775.69
503.52	785.44
503.88	795.27
504.24	805.34
504.60	815.61
504.97	826.10
505.33	836.22
505.69	847.25
506.05	857.77
506.41	867.87
506.78	878.20
507.14	888.77
507.50	899.37
507.86	909.94
508.22	920.72
508.59	930.76
508.95	941.52
509.31	952.84
509.67	963.75
510.03	974.26
510.39	984.70
510.75	995.29
511.12	1005.43
511.48	1015.70
511.84	1025.85
512.20	1035.70
512.56	1045.56
512.92	1055.91
513.28	1065.61
513.64	1075.59
514.00	1085.18
514.37	1095.12
514.73	1104.82
515.09	1114.61
515.45	1123.82
515.81	1132.83
516.17	1141.86
516.53	1150.23
516.89	1158.30
517.25	1166.78
517.61	1175.99
517.97	1184.68
518.33	1193.06
518.69	1201.88
519.05	1210.17
519.41	1218.25
519.77	1227.01
520.13	1234.72
520.49	1242.04
520.85	1249.60
521.21	1256.92
521.57	1264.22
521.93	1270.36
522.29	1277.22
522.65	1282.60
523.01	1288.97
523.37	1294.89
523.73	1300.93
524.09	1306.45
524.45	1311.88
524.81	1316.92
525.17	1321.55
525.53	1326.52
525.89	1331.46
526.25	1335.72
526.61	1339.80
526.97	1344.40
527.33	1348.72
527.68	1354.08
528.04	1358.74
528.40	1362.97
528.76	1367.32
529.12	1371.63
529.48	1376.44
529.84	1380.04
530.20	1385.16
530.56	1389.38
530.91	1393.66
531.27	1397.60
531.63	1401.67
531.99	1405.75
532.35	1409.67
532.71	1413.86
533.07	1417.93
533.42	1422.55
533.78	1426.73
534.14	1430.98
534.50	1434.66
534.86	1438.51
535.21	1440.85
535.57	1444.04
535.93	1446.46
536.29	1449.94
536.65	1453.03
537.00	1456.06
537.36	1459.15
537.72	1461.26
538.08	1464.31
538.44	1467.02
538.79	1469.86
539.15	1473.12
539.51	1476.39
539.87	1479.21
540.22	1480.99
540.58	1483.52
540.94	1484.56
541.29	1486.00
541.65	1487.34
542.01	1488.50
542.37	1488.83
542.72	1489.95
543.08	1490.78
543.44	1492.52
543.79	1492.17
544.15	1493.07
544.51	1494.13
544.87	1494.45
545.22	1494.52
545.58	1493.77
545.94	1493.65
546.29	1492.86
546.65	1491.77
547.01	1490.44
547.36	1489.77
547.72	1489.29
548.07	1487.74
548.43	1486.97
548.79	1486.03
549.14	1485.21
549.50	1484.80
549.86	1483.64
550.21	1482.92
550.57	1481.98
550.92	1480.33
551.28	1479.61
551.64	1478.57
551.99	1477.50
552.35	1476.59
552.70	1475.99
553.06	1475.70
553.41	1474.66
553.77	1474.88
554.13	1474.84
554.48	1474.77
554.84	1474.27
555.19	1473.63
555.55	1474.16
555.90	1473.31
556.26	1472.40
556.61	1471.17
556.97	1469.27
557.32	1468.90
557.68	1467.85
558.03	1466.99
558.39	1466.02
558.74	1465.02
559.10	1463.32
559.45	1461.58
559.81	1460.09
560.16	1458.15
560.52	1456.49
560.87	1455.42
561.23	1453.38
561.58	1452.00
561.94	1449.60
562.29	1447.11
562.64	1445.29
563.00	1442.29
563.35	1440.35
563.71	1439.03
564.06	1437.66
564.42	1436.52
564.77	1435.28
565.12	1433.79
565.48	1432.78
565.83	1431.55
566.19	1429.97
566.54	1428.68
566.89	1427.17
567.25	1425.99
567.60	1425.70
567.96	1425.08
568.31	1423.60
568.66	1422.00
569.02	1419.70
569.37	1418.03
569.72	1416.80
570.08	1414.67
570.43	1412.10
570.78	1410.14
571.14	1407.67
571.49	1404.92
571.84	1402.43
572.20	1399.38
572.55	1396.82
572.90	1393.28
573.26	1390.69
573.61	1387.74
573.96	1384.72
574.31	1381.30
574.67	1377.90
575.02	1373.50
575.37	1368.92
575.72	1364.88
576.08	1361.34
576.43	1357.51
576.78	1353.64
577.13	1349.60
577.49	1346.20
577.84	1343.55
578.19	1340.17
578.54	1336.79
578.90	1333.59
579.25	1330.36
579.60	1326.92
579.95	1323.08
580.30	1319.45
580.66	1314.94
581.01	1310.59
581.36	1305.90
581.71	1302.17
582.06	1298.46
582.42	1294.60
582.77	1290.81
583.12	1287.50
583.47	1283.53
583.82	1280.10
584.17	1276.56
584.53	1273.27
584.88	1268.68
585.23	1264.32
585.58	1259.72
585.93	1254.97
586.28	1250.35
586.63	1245.39
586.98	1240.34
587.34	1236.00
587.69	1231.43
588.04	1227.56
588.39	1223.79
588.74	1219.47
589.09	1215.59
589.44	1210.65
589.79	1206.49
590.14	1202.27
590.49	1197.80
590.84	1193.40
591.19	1189.16
591.54	1184.53
591.89	1179.63
592.25	1176.93
592.60	1172.32
592.95	1168.02
593.30	1163.76
593.65	1159.42
594.00	1154.92
594.35	1153.61
594.70	1148.60
595.05	1144.30
595.40	1139.17
595.75	1134.22
596.10	1129.96
596.45	1124.85
596.80	1120.87
597.15	1116.17
597.50	1111.42
597.85	1106.85
598.19	1102.18
598.54	1097.04
598.89	1092.23
599.24	1087.99
599.59	1082.58
599.94	1077.94
600.29	1073.50
600.64	1069.10
600.99	1064.74
601.34	1060.67
601.69	1053.71
602.04	1049.60
602.39	1045.18
602.74	1041.59
603.08	1037.80
603.43	1034.09
603.78	1030.15
604.13	1025.74
604.48	1021.34
604.83	1017.00
605.18	1012.41
605.53	1008.27
605.87	1004.10
606.22	1000.62
606.57	996.40
606.92	991.80
607.27	988.15
607.62	984.20
607.96	980.63
608.31	976.96
608.66	973.16
609.01	969.13
609.36	965.01
609.70	961.09
610.05	956.68
610.40	952.48
610.75	947.83
611.10	943.18
611.44	938.63
611.79	934.46
612.14	930.36
612.49	925.98
612.83	921.70
613.18	917.40
613.53	912.84
613.88	908.18
614.22	903.97
614.57	899.17
614.92	894.47
615.27	889.69
615.61	884.74
615.96	880.09
616.31	875.10
616.65	871.36
617.00	866.64
617.35	862.03
617.70	857.49
618.04	852.97
618.39	848.91
618.74	845.00
619.08	840.70
619.43	836.22
619.78	831.86
620.12	827.27
620.47	823.01
620.82	818.45
621.16	813.94
621.51	809.85
621.85	805.70
622.20	801.44
622.55	796.71
622.89	792.36
623.24	788.26
623.59	784.04
623.93	779.43
624.28	775.21
624.62	772.20
624.97	768.59
625.32	764.70
625.66	760.65
626.01	756.34
626.35	752.59
626.70	748.79
627.04	745.58
627.39	741.46
627.73	737.92
628.08	734.52
628.43	730.65
628.77	726.52
629.12	722.66
629.46	719.09
629.81	716.18
630.15	712.75
630.50	708.88
630.84	705.37
631.19	701.63
631.53	698.47
631.88	693.93
632.22	689.80
632.57	686.66
632.91	682.94
633.26	679.61
633.60	675.82
633.95	672.41
634.29	668.29
634.64	665.06
634.98	661.07
635.32	657.46
635.67	654.45
636.01	651.14
636.36	647.66
636.70	644.51
637.05	640.83
637.39	637.71
637.73	634.63
638.08	631.69
638.42	628.41
638.77	624.80
639.11	621.01
639.45	617.44
639.80	613.50
640.14	610.05
640.49	606.77
640.83	603.60
641.17	600.49
641.52	597.26
641.86	594.04
642.20	591.63
642.55	588.42
642.89	585.34
643.23	582.33
643.58	579.85
643.92	576.39
644.26	573.46
644.61	570.62
644.95	567.63
645.29	564.25
645.64	561.60
645.98	558.58
646.32	556.30
646.66	553.50
647.01	550.83
647.35	548.50
647.69	545.59
648.04	542.89
648.38	540.07
648.72	537.39
649.06	534.48
649.41	531.20
649.75	528.58
650.09	525.87
650.43	523.05
650.78	520.21
651.12	517.75
651.46	515.10
651.80	512.38
652.14	509.69
652.49	507.80
652.83	505.18
653.17	502.70
653.51	499.92
653.85	497.89
654.20	495.40
654.54	492.63
654.88	490.28
655.22	488.21
655.56	485.75
655.90	483.49
656.25	481.50
656.59	479.44
656.93	477.06
657.27	474.95
657.61	472.52
657.95	470.07
658.29	467.65
658.64	465.51
658.98	463.02
659.32	460.61
659.66	457.94
660.00	455.72
660.34	453.61
660.68	451.52
661.02	449.01
661.36	447.00
661.70	445.03
662.05	442.89
662.39	440.77
662.73	438.83
663.07	437.16
663.41	435.06
663.75	432.88
664.09	431.00
664.43	428.75
664.77	426.98
665.11	424.92
665.45	423.19
665.79	421.21
666.13	419.28
666.47	417.34
666.81	415.48
667.15	413.32
667.49	411.66
667.83	410.19
668.17	408.60
668.51	406.85
668.85	405.20
669.19	404.05
669.53	402.12
669.87	400.25
670.21	398.50
670.55	396.89
670.89	395.66
671.23	393.91
671.57	392.29
671.91	390.72
672.25	389.36
672.58	387.97
672.92	386.36
673.26	385.00
673.60	383.64
673.94	382.33
674.28	381.10
674.62	379.69
674.96	378.06
675.30	376.66
675.64	375.40
675.97	373.93
676.31	372.06
676.65	370.61
676.99	369.58
677.33	367.99
677.67	366.78
678.01	364.97
678.34	363.68
678.68	362.57
679.02	361.26
679.36	359.96
679.70	358.59
680.04	357.31
680.37	356.10
680.71	354.95
681.05	353.82
681.39	352.77
681.73	351.50
682.06	350.27
682.40	349.11
682.74	347.97
683.08	347.29
683.42	345.97
683.75	344.92
684.09	343.64
684.43	342.49
684.77	341.21
685.10	340.24
685.44	339.15
685.78	337.90
686.12	336.80
686.45	335.68
686.79	334.56
687.13	333.63
687.46	332.60
687.80	331.73
688.14	330.53
688.48	329.42
688.81	328.44
689.15	327.68
689.49	326.68
689.82	325.70
690.16	324.18
690.50	323.37
690.83	322.40
691.17	321.26
691.51	320.41
691.84	319.62
692.18	318.57
692.52	317.59
692.85	316.87
693.19	316.28
693.52	315.40
693.86	314.36
694.20	313.50
694.53	312.58
694.87	311.59
695.21	310.62
695.54	309.74
695.88	308.75
696.21	307.52
696.55	306.67
696.88	305.66
697.22	304.85
697.56	304.14
697.89	303.34
698.23	302.64
698.56	301.66
698.90	300.89
699.23	300.22
699.57	299.55
699.90	298.67
700.24	297.60
700.58	296.93
700.91	296.35
701.25	296.34
701.58	296.29
701.92	295.73
702.25	295.16
702.59	294.39
702.92	293.82
703.26	293.30
703.59	292.70
703.93	292.94
704.26	292.38
704.60	291.78
704.93	291.11
705.26	290.37
705.60	290.02
705.93	289.18
706.27	288.72
706.60	288.42
706.94	288.11
707.27	287.51
707.61	286.93
707.94	286.32
708.27	285.00
708.61	283.80
708.94	283.16
709.28	282.60
709.61	282.09
709.94	281.59
710.28	281.12
710.61	280.55
710.95	279.11
711.28	279.20
711.61	278.50
711.95	278.23
712.28	277.64
712.61	277.01
712.95	277.06
713.28	276.94
713.61	276.17
713.95	275.44
714.28	275.08
714.61	274.57
714.95	274.02
715.28	273.48
715.61	272.86
715.95	272.45
716.28	271.87
716.61	271.48
716.95	270.89
717.28	270.38
717.61	269.93
717.94	269.51
718.28	268.37
718.61	267.92
718.94	267.26
719.27	266.92
719.61	266.57
719.94	265.84
720.27	264.92
720.60	264.44
720.94	263.93
721.27	263.60
721.60	263.37
721.93	263.07
722.27	262.99
722.60	262.80
722.93	262.19
723.26	262.01
723.59	261.56
723.93	261.33
724.26	260.97
724.59	260.67
724.92	260.50
725.25	260.42
725.59	260.11
725.92	259.92
726.25	259.56
726.58	259.25
726.91	258.99
727.24	258.82
727.57	258.54
727.91	258.21
728.24	257.91
728.57	257.43
728.90	257.25
729.23	256.60
729.56	256.79
729.89	256.63
730.22	256.38
730.55	256.04
730.89	255.69
731.22	255.42
731.55	254.96
731.88	254.70
732.21	254.22
732.54	253.85
732.87	253.56
733.20	253.41
733.53	253.15
733.86	252.99
734.19	252.65
734.52	252.46
734.85	252.98
735.18	252.68
735.51	252.74
735.84	252.70
736.17	252.76
736.50	251.99
736.83	252.88
737.16	252.57
737.49	252.40
737.82	252.17
738.15	252.05
738.48	251.91
738.81	251.64
739.14	251.40
739.47	251.20
739.80	251.01
740.13	250.83
740.46	250.44
740.79	250.04
741.12	249.73
741.45	249.49
741.78	248.63
742.11	248.63
742.44	248.21
742.77	248.03
743.10	247.71
743.43	247.58
743.75	246.27
744.08	247.38
744.41	247.12
744.74	246.96
745.07	246.60
745.40	246.60
745.73	246.81
746.06	246.72
746.39	246.58
746.71	246.18
747.04	245.89
747.37	245.80
747.70	245.88
748.03	245.87
748.36	245.87
748.68	245.70
749.01	245.30
749.34	245.17
749.67	244.91
750.00	244.94
750.33	245.40
750.65	245.46
750.98	244.01
751.31	244.04
751.64	243.89
751.97	244.22
752.29	244.03
752.62	243.38
752.95	243.19
753.28	243.00
753.60	243.00
753.93	243.12
754.26	243.12
754.59	242.67
754.91	242.33
755.24	242.14
755.57	242.13
755.90	241.95
756.22	241.70
756.55	241.40
756.88	241.05
757.20	240.30
757.53	239.90
757.86	239.76
758.19	239.54
758.51	239.42
758.84	238.89
759.17	238.52
759.49	238.57
759.82	238.91
760.15	238.83
760.47	238.61
760.80	238.29
761.13	238.25
761.45	238.18
761.78	238.22
762.11	238.14
762.43	237.84
762.76	237.74
763.08	237.73
763.41	237.71
763.74	237.58
764.06	237.59
764.39	237.42
764.71	237.34
765.04	237.31
765.37	237.19
765.69	237.19
766.02	237.20
766.34	237.01
766.67	236.53
767.00	236.67
767.32	237.20
767.65	237.67
767.97	237.50
768.30	237.50
768.62	237.40
768.95	237.27
769.27	237.25
769.60	237.31
769.92	237.13
770.25	236.93
770.57	236.69
770.90	236.56
771.22	236.39
771.55	236.39
771.87	236.36
772.20	236.34
772.52	237.06
772.85	238.07
773.17	238.07
773.50	237.90
773.82	237.70
774.15	237.14
774.47	236.48
774.80	236.32
775.12	236.07
775.45	235.90
775.77	235.75
776.09	235.86
776.42	235.74
776.74	235.97
777.07	235.91
777.39	236.00
777.72	235.87
778.04	236.13
778.36	235.98
778.69	235.93
779.01	235.94
779.33	234.99
779.66	233.85
779.98	233.65
780.31	233.75
780.63	234.06
780.95	234.24
781.28	234.23
781.60	234.06
781.92	234.05
782.25	234.12
782.57	234.15
782.89	233.97
783.22	233.92
783.54	233.77
783.86	233.77
784.19	233.54
784.51	233.86
784.83	233.60
785.16	233.52
785.48	233.48
785.80	233.36
786.12	233.39
786.45	233.46
786.77	233.53
787.09	233.39
787.42	233.02
787.74	233.01
788.06	233.01
788.38	233.01
788.71	232.93
789.03	232.95
789.35	233.03
789.67	232.85
789.99	232.84
790.32	232.65
790.64	232.70
790.96	233.64
791.28	233.16
791.61	233.14
791.93	233.23
792.25	233.06
792.57	233.74
792.89	233.58
793.21	233.52
793.54	233.41
793.86	233.31
794.18	233.33
794.50	232.99
794.82	232.90
795.14	233.08
795.47	233.31
795.79	233.12
796.11	232.85
796.43	232.82
796.75	232.85
797.07	232.93
797.39	232.90
797.71	232.15
798.04	232.32
798.36	232.40
798.68	232.39
799.00	232.46
799.32	231.90
799.64	232.09
799.96	232.06
800.28	232.19
800.60	232.09
800.92	232.16
801.24	232.16
801.56	232.35
801.89	232.20
802.21	232.31
802.53	232.22
802.85	232.48
803.17	232.96
803.49	232.64
803.81	232.50
804.13	232.48
804.45	232.40
804.77	232.33
805.09	232.30
805.41	232.12
805.73	231.90
806.05	231.70
806.37	231.57
806.69	231.55
807.01	231.52
807.33	231.61
807.65	231.34
807.97	231.72
808.28	231.46
808.60	231.42
808.92	231.22
809.24	231.85
809.56	231.64
809.88	231.19
810.20	231.40
810.52	231.49
810.84	231.28
811.16	231.14
811.48	231.10
811.80	231.34
812.12	231.27
812.43	231.53
812.75	231.54
813.07	231.49
813.39	231.47
813.71	231.27
814.03	231.07
814.35	231.01
814.67	230.60
814.98	230.56
815.30	230.52
815.62	230.29
815.94	229.64
816.26	230.04
816.58	229.93
816.89	229.90
817.21	229.75
817.53	229.84
817.85	229.95
818.17	229.89
818.48	229.54
818.80	229.73
819.12	229.58
819.44	229.41
819.76	229.25
820.07	229.30
820.39	229.29
820.71	229.39
821.03	229.45
821.34	229.33
821.66	229.47
821.98	229.59
822.30	229.57
822.61	230.08
822.93	229.61
823.25	229.57
823.57	229.49
823.88	229.62
824.20	229.50
824.52	229.55
824.83	229.48
825.15	229.44
825.47	229.42
825.79	229.45
826.10	229.45
826.42	229.43
826.74	229.38
827.05	229.28
827.37	229.42
827.69	229.25
828.00	229.45
828.32	229.30
828.64	229.15
828.95	229.59
829.27	229.39
829.58	229.35
829.90	229.51
830.22	229.47
830.53	229.35
830.85	229.35
831.17	229.04
831.48	229.07
831.80	229.01
832.11	228.90
832.43	228.86
832.75	228.84
833.06	229.43
833.38	229.16
833.69	229.30
834.01	229.17
834.32	229.17
834.64	229.01
834.96	229.04
835.27	228.93
835.59	228.68
835.90	228.50
836.22	228.39
836.53	228.17
836.85	228.02
837.16	228.96
837.48	228.96
837.79	229.43
838.11	229.49
838.42	229.50
838.74	229.65
839.05	229.46
839.37	229.38
839.68	228.69
840.00	228.80
840.31	228.81
840.63	228.91
840.94	228.83
841.26	228.76
841.57	228.76
841.88	228.95
842.20	228.76
842.51	228.56
842.83	228.62
843.14	229.50
843.46	229.66
843.77	229.12
844.08	229.14
844.40	228.67
844.71	228.59
845.03	228.46
845.34	228.33
845.65	228.36
845.97	228.44
846.28	228.51
846.60	228.54
846.91	228.37
847.22	228.16
847.54	228.45
847.85	228.51
848.16	228.49
848.48	228.30
848.79	228.66
849.10	228.91
849.42	228.95
849.73	227.99
850.04	227.90
850.36	227.45
850.67	227.54
850.98	227.68
851.30	227.74
851.61	227.79
851.92	227.68
852.23	227.92
852.55	227.87
852.86	227.94
853.17	228.01
853.49	228.29
853.80	228.60
854.11	228.55
854.42	228.64
854.74	228.54
855.05	228.60
855.36	228.17
855.67	228.05
855.99	228.10
856.30	229.29
856.61	229.30
856.92	229.33
857.23	229.29
857.55	229.15
857.86	229.01
858.17	229.11
858.48	229.08
858.79	228.91
859.11	229.07
859.42	229.10
859.73	228.86
860.04	228.75
860.35	228.36
860.66	228.17
860.98	228.03
861.29	228.26
861.60	228.10
861.91	228.41
862.22	228.33
862.53	228.26
862.84	227.08
863.16	227.30
863.47	227.20
863.78	227.20
864.09	227.30
864.40	227.35
864.71	227.38
865.02	227.48
865.33	227.40
865.64	227.16
865.95	227.07
866.27	227.83
866.58	227.69
866.89	227.92
867.20	227.90
867.51	227.83
867.82	227.55
868.13	227.89
868.44	227.49
868.75	227.72
869.06	227.78
869.37	228.01
869.68	227.69
869.99	227.78
870.30	227.82
870.61	227.86
870.92	227.80
871.23	227.79
871.54	227.93
871.85	228.25
872.16	228.37
872.47	228.36
872.78	227.81
873.09	227.89
873.40	227.80
873.71	227.94
874.02	227.94
874.33	228.06
874.64	227.77
874.95	228.03
875.26	227.74
875.56	227.68
875.87	227.48
876.18	227.50
876.49	228.48
876.80	228.42
877.11	228.29
877.42	228.32
877.73	228.34
878.04	228.21
878.35	228.12
878.66	228.24
878.96	228.27
879.27	228.25
879.58	228.25
879.89	228.30
880.20	228.55
880.51	228.62
880.82	228.63
881.12	228.78
881.43	228.50
881.74	228.52
882.05	228.40
882.36	228.54
882.67	228.66
882.97	227.54
883.28	227.47
883.59	227.43
883.90	227.54
884.21	227.62
884.51	227.60
884.82	227.45
885.13	227.40
885.44	227.39
885.74	227.39
886.05	227.34
886.36	227.26
886.67	226.80
886.98	227.27
887.28	227.31
887.59	227.35
887.90	227.38
888.20	227.33
888.51	227.54
888.82	227.45
889.13	227.55
889.43	228.45
889.74	228.49
890.05	228.64
890.35	228.54
890.66	228.46
890.97	228.43
891.28	228.35
891.58	228.35
891.89	228.31
892.20	228.23
892.50	228.10
892.81	228.09
893.12	228.20
893.42	227.90
893.73	228.00
894.04	228.01
894.34	228.27
894.65	228.19
894.95	228.07
895.26	228.20
895.57	228.59
895.87	227.78
896.18	227.89
896.48	227.88
896.79	227.84
897.10	227.81
897.40	227.73
897.71	227.85
898.01	227.81
898.32	227.93
898.63	227.92
898.93	228.00
899.24	228.06
899.54	228.07
899.85	227.90
900.15	227.84
900.46	227.78
900.76	227.75
901.07	227.79
901.38	227.75
901.68	227.75
901.99	227.20
902.29	227.31
902.60	227.22
902.90	227.10
903.21	227.04
903.51	227.17
903.82	227.37
904.12	227.38
904.43	227.48
904.73	227.44
905.03	227.44
905.34	228.33
905.64	228.30
905.95	228.19
906.25	228.20
906.56	228.05
906.86	228.01
907.17	227.94
907.47	227.98
907.77	228.03
908.08	227.86
908.38	227.93
908.69	227.89
908.99	228.03
909.30	228.18
909.60	228.20
909.90	228.11
910.21	227.85
910.51	227.74
910.81	227.66
911.12	227.65
911.42	227.70
911.73	226.82
912.03	226.84
912.33	227.04
912.64	227.00
912.94	227.07
913.24	226.93
913.55	226.82
913.85	226.82
914.15	226.94
914.46	227.12
914.76	227.05
915.06	227.02
915.37	226.77
915.67	226.65
915.97	226.75
916.27	226.61
916.58	226.66
916.88	226.71
917.18	226.68
917.49	227.37
917.79	227.36
918.09	227.54
918.39	227.87
918.70	227.82
919.00	227.90
919.30	228.28
919.60	228.28
919.91	228.28
920.21	228.34
920.51	228.19
920.81	228.13
921.12	228.29
921.42	228.20
921.72	228.35
922.02	228.38
922.32	228.49
922.63	228.60
922.93	229.03
923.23	229.00
923.53	228.88
923.83	228.24
924.13	228.31
924.44	228.30
924.74	228.31
925.04	228.54
925.34	228.38
925.64	228.04
925.94	228.18
926.24	228.70
926.55	228.64
926.85	228.76
927.15	228.80
927.45	228.78
927.75	228.78
928.05	228.81
928.35	228.76
928.65	228.90
928.95	229.00
929.26	228.71
929.56	228.91
929.86	229.04
930.16	229.01
930.46	228.99
930.76	228.94
931.06	228.58
931.36	228.32
931.66	228.63
931.96	228.67
932.26	228.60
932.56	228.17
932.86	228.26
933.16	228.30
933.46	228.17
933.76	228.08
934.06	228.36
934.36	228.62
934.66	228.59
934.96	228.40
935.26	228.38
935.56	228.55
935.86	228.30
936.16	228.18
936.46	228.05
936.76	228.01
937.06	227.96
937.36	227.93
937.66	228.02
937.96	227.91
938.26	227.65
938.56	227.52
938.86	227.65
939.16	227.82
939.46	227.85
939.76	227.83
940.06	227.70
940.35	227.36
940.65	226.93
940.95	227.05
941.25	226.89
941.55	226.72
941.85	226.67
942.15	226.89
942.45	227.17
942.75	227.12
943.04	227.08
943.34	227.22
943.64	227.15
943.94	227.06
944.24	227.00
944.54	227.17
944.84	227.26
945.13	227.11
945.43	226.95
945.73	226.85
946.03	226.85
946.33	226.84
946.62	226.82
946.92	226.84
947.22	226.89
947.52	226.97
947.82	227.08
948.11	226.92
948.41	226.71
948.71	226.47
949.01	226.63
949.31	226.59
949.60	226.53
949.90	226.72
950.20	226.59
950.50	226.60
950.79	226.56
951.09	226.60
951.39	226.64
951.69	226.57
951.98	226.80
952.28	226.90
952.58	226.91
952.87	226.95
953.17	227.06
953.47	226.89
953.76	226.77
954.06	226.62
954.36	226.53
954.66	226.58
954.95	226.89
955.25	226.84
955.55	226.90
955.84	226.69
956.14	226.74
956.44	226.83
956.73	226.74
957.03	226.79
957.32	226.82
957.62	226.74
957.92	226.94
958.21	226.76
958.51	227.75
958.81	227.86
959.10	227.90
959.40	228.14
959.69	228.28
959.99	228.52
960.29	228.59
960.58	228.62
960.88	228.95
961.17	228.72
961.47	228.95
961.76	228.94
962.06	229.08
962.36	229.02
962.65	229.12
962.95	229.13
963.24	229.06
963.54	229.15
963.83	229.24
964.13	229.07
964.42	228.86
964.72	228.10
965.01	228.15
965.31	228.20
965.60	227.90
965.90	228.50
966.19	228.10
966.49	228.20
966.78	228.20
967.08	228.03
967.37	228.08
967.67	227.72
967.96	227.81
968.26	227.91
968.55	227.93
968.85	227.87
969.14	227.91
969.43	227.91
969.73	227.73
970.02	227.59
970.32	227.57
970.61	227.62
970.91	227.36
971.20	227.19
971.49	227.07
971.79	227.22
972.08	226.50
972.38	226.71
972.67	226.56
972.96	226.63
973.26	226.40
973.55	226.67
973.85	226.74
974.14	226.62
974.43	226.58
974.73	226.53
975.02	226.43
975.31	226.42
975.61	226.40
975.90	226.43
976.19	226.41
976.49	226.51
976.78	226.55
977.07	226.51
977.37	226.57
977.66	226.66
977.95	226.53
978.24	226.52
978.54	226.68
978.83	226.60
979.12	226.46
979.42	226.44
979.71	226.20
980.00	226.20
980.29	226.29
980.59	226.13
980.88	226.29
981.17	226.41
981.46	226.36
981.76	226.37
982.05	226.67
982.34	226.77
982.63	226.80
982.93	226.83
983.22	227.13
983.51	227.17
983.80	227.28
984.09	227.27
984.39	227.30
984.68	227.21
984.97	227.36
985.26	227.32
985.55	227.55
985.85	227.31
986.14	227.49
986.43	227.54
986.72	227.50
987.01	227.21
987.30	227.13
987.59	227.11
987.89	227.13
988.18	226.80
988.47	226.70
988.76	226.54
989.05	226.47
989.34	226.27
989.63	226.55
989.92	226.41
990.22	226.41
990.51	226.49
990.80	226.47
991.09	226.50
991.38	226.69
991.67	226.53
991.96	226.60
992.25	226.52
992.54	226.38
992.83	226.46
993.12	226.45
993.41	226.63
993.70	227.04
993.99	227.29
994.28	227.46
994.58	227.72
994.87	227.69
995.16	227.63
995.45	227.60
995.74	227.18
996.03	227.41
996.32	227.53
996.61	227.61
996.90	227.53
997.19	227.45
997.48	227.42
997.77	227.32
998.06	227.41
998.34	227.42
998.63	227.53
998.92	227.48
999.21	227.66
999.50	227.60
999.79	227.30
1000.08	227.12
1000.37	227.19
1000.66	226.92
1000.95	227.15
1001.24	227.30
1001.53	227.43
1001.82	227.63
1002.11	227.39
1002.40	227.49
1002.68	227.75
1002.97	228.50
1003.26	228.42
1003.55	228.36
1003.84	228.45
1004.13	228.78
1004.42	228.78
1004.71	228.75
1004.99	228.80
1005.28	229.02
1005.57	228.91
1005.86	228.78
1006.15	228.77
1006.44	228.56
1006.72	228.77
1007.01	228.60
1007.30	228.50
1007.59	228.43
1007.88	228.16
1008.17	228.17
1008.45	227.95
1008.74	227.54
1009.03	227.10
1009.32	227.04
1009.60	227.07
1009.89	226.98
1010.18	226.55
1010.47	226.38
1010.76	226.37
1011.04	226.33
1011.33	226.28
1011.62	226.40
1011.91	226.48
1012.19	226.60
1012.48	226.64
1012.77	226.60
1013.05	226.99
1013.34	227.13
1013.63	226.99
1013.92	227.17
1014.20	227.08
1014.49	227.17
1014.78	227.31
1015.06	227.00
1015.35	227.10
1015.64	227.20
1015.92	227.48
1016.21	227.51
1016.50	227.61
1016.78	227.62
1017.07	227.70
1017.36	227.41
1017.64	227.27
1017.93	227.28
1018.22	227.10
1018.50	227.10
1018.79	226.97
1019.08	226.62
1019.36	226.63
1019.65	226.61
1019.93	226.82
1020.22	227.03
1020.51	227.40
1020.79	227.16
1021.08	225.20
1021.36	226.40
1021.65	225.40
1021.94	227.40
1022.22	228.70
1022.51	224.60
1022.79	230.60
1023.08	228.80
1023.36	236.90
1023.65	223.20
>>>>>End Processed Spectral Data<<<<<
