SpectraSuite Data File
++++++++++++++++++++++++++++++++++++
Date: Wed Sep 04 17:32:50 EDT 2013
User: lab3
Dark Spectrum Present: Yes
Reference Spectrum Present: No
Number of Sampled Component Spectra: 1
Spectrometers: USB2E7196
Integration Time (usec): 337000 (USB2E7196)
Spectra Averaged: 10 (USB2E7196)
Boxcar Smoothing: 10 (USB2E7196)
Correct for Electrical Dark: No (USB2E7196)
Strobe/Lamp Enabled: No (USB2E7196)
Correct for Detector Non-linearity: No (USB2E7196)
Correct for Stray Light: No (USB2E7196)
Number of Pixels in Processed Spectrum: 2048
>>>>>Begin Processed Spectral Data<<<<<
339.09	0.00
339.48	213.70
339.86	213.90
340.24	216.70
340.63	217.30
341.01	233.00
341.39	219.70
341.78	223.50
342.16	225.80
342.54	224.90
342.93	213.29
343.31	223.98
343.69	224.56
344.07	225.02
344.46	225.55
344.84	226.01
345.22	225.70
345.60	226.09
345.99	226.32
346.37	226.33
346.75	226.41
347.13	226.43
347.52	226.45
347.90	226.82
348.28	226.90
348.66	227.11
349.05	226.86
349.43	227.15
349.81	227.33
350.19	227.37
350.57	227.51
350.96	227.62
351.34	227.78
351.72	227.86
352.10	227.97
352.48	227.83
352.87	227.76
353.25	227.78
353.63	227.69
354.01	227.68
354.39	227.72
354.77	227.67
355.15	227.94
355.54	227.92
355.92	227.61
356.30	227.57
356.68	228.20
357.06	228.33
357.44	228.14
357.82	228.10
358.20	228.94
358.58	228.90
358.97	228.99
359.35	229.18
359.73	229.31
360.11	229.33
360.49	229.46
360.87	229.56
361.25	229.67
361.63	230.07
362.01	230.14
362.39	230.09
362.77	230.23
363.15	230.17
363.53	230.22
363.91	230.34
364.29	230.40
364.67	229.49
365.05	229.45
365.43	229.53
365.81	229.68
366.19	229.34
366.57	229.79
366.95	229.83
367.33	229.58
367.71	229.53
368.09	229.76
368.47	229.88
368.85	229.92
369.23	230.17
369.61	229.82
369.99	230.09
370.37	230.30
370.75	230.78
371.13	230.66
371.51	230.55
371.89	230.57
372.27	230.63
372.65	230.62
373.03	230.60
373.41	230.60
373.78	230.47
374.16	229.94
374.54	229.56
374.92	229.48
375.30	229.46
375.68	229.33
376.06	229.31
376.44	229.12
376.82	229.04
377.19	228.88
377.57	228.75
377.95	228.35
378.33	228.13
378.71	227.44
379.09	227.50
379.47	227.52
379.84	227.37
380.22	227.31
380.60	227.20
380.98	227.10
381.36	227.01
381.73	226.82
382.11	227.02
382.49	227.04
382.87	226.82
383.25	226.82
383.62	227.82
384.00	227.54
384.38	227.54
384.76	227.69
385.13	228.10
385.51	228.10
385.89	227.95
386.27	228.01
386.64	228.14
387.02	227.99
387.40	227.95
387.78	228.03
388.15	227.97
388.53	227.89
388.91	228.00
389.29	227.97
389.66	228.10
390.04	227.90
390.42	228.06
390.79	228.03
391.17	228.02
391.55	226.96
391.92	227.00
392.30	227.07
392.68	226.94
393.05	226.70
393.43	226.78
393.81	226.94
394.18	226.79
394.56	226.79
394.94	227.06
395.31	226.98
395.69	227.24
396.06	227.39
396.44	227.56
396.82	227.37
397.19	227.93
397.57	228.00
397.95	228.25
398.32	227.99
398.70	228.29
399.07	228.55
399.45	228.63
399.82	228.67
400.20	228.63
400.58	228.64
400.95	228.46
401.33	228.84
401.70	229.59
402.08	229.79
402.45	230.12
402.83	230.44
403.20	230.74
403.58	230.81
403.95	231.21
404.33	231.52
404.71	231.95
405.08	232.53
405.46	232.76
405.83	233.08
406.21	233.47
406.58	233.74
406.96	234.03
407.33	234.42
407.70	235.00
408.08	236.16
408.45	236.89
408.83	237.59
409.20	237.90
409.58	237.86
409.95	238.55
410.33	239.15
410.70	239.53
411.08	240.25
411.45	240.93
411.82	241.50
412.20	242.60
412.57	243.96
412.95	244.00
413.32	245.20
413.69	246.08
414.07	247.20
414.44	248.41
414.82	249.62
415.19	251.11
415.56	252.59
415.94	253.68
416.31	255.38
416.68	257.14
417.06	259.27
417.43	261.37
417.81	263.55
418.18	265.77
418.55	268.07
418.93	270.49
419.30	273.04
419.67	275.72
420.04	278.32
420.42	280.90
420.79	285.08
421.16	288.42
421.54	292.56
421.91	296.28
422.28	300.14
422.66	304.28
423.03	309.01
423.40	313.06
423.77	317.53
424.15	321.90
424.52	326.54
424.89	331.73
425.26	336.76
425.64	341.58
426.01	346.79
426.38	352.33
426.75	358.16
427.13	363.88
427.50	369.95
427.87	376.19
428.24	382.50
428.61	387.93
428.99	394.82
429.36	401.54
429.73	408.50
430.10	415.42
430.47	422.68
430.85	429.54
431.22	437.56
431.59	446.47
431.96	454.39
432.33	463.11
432.70	471.37
433.08	481.17
433.45	490.53
433.82	499.88
434.19	510.21
434.56	520.59
434.93	530.27
435.30	540.13
435.68	551.20
436.05	561.95
436.42	572.59
436.79	582.38
437.16	593.00
437.53	604.42
437.90	615.53
438.27	626.62
438.64	637.99
439.01	648.61
439.38	657.43
439.75	666.79
440.13	676.94
440.50	686.80
440.87	694.72
441.24	703.02
441.61	712.22
441.98	718.91
442.35	726.52
442.72	734.72
443.09	742.62
443.46	747.07
443.83	750.33
444.20	753.13
444.57	756.83
444.94	758.50
445.31	760.11
445.68	762.84
446.05	763.23
446.42	761.93
446.79	760.46
447.16	758.83
447.53	757.48
447.90	753.30
448.27	748.81
448.64	743.06
449.01	738.80
449.37	731.25
449.74	724.01
450.11	715.95
450.48	706.18
450.85	696.03
451.22	687.79
451.59	679.60
451.96	671.71
452.33	661.50
452.70	652.08
453.07	641.12
453.43	629.12
453.80	618.55
454.17	608.29
454.54	598.64
454.91	588.33
455.28	578.20
455.65	568.84
456.02	561.02
456.38	552.90
456.75	542.95
457.12	534.51
457.49	526.45
457.86	517.88
458.23	511.52
458.59	504.30
458.96	496.73
459.33	490.16
459.70	483.81
460.07	478.62
460.43	472.84
460.80	467.50
461.17	462.76
461.54	457.73
461.91	452.80
462.27	447.79
462.64	443.35
463.01	438.97
463.38	434.92
463.74	428.94
464.11	425.04
464.48	421.75
464.85	418.02
465.21	415.50
465.58	412.65
465.95	408.72
466.32	405.76
466.68	402.78
467.05	399.88
467.42	396.94
467.78	393.96
468.15	391.17
468.52	389.06
468.88	386.05
469.25	383.42
469.62	381.66
469.98	379.46
470.35	377.66
470.72	375.57
471.08	373.26
471.45	371.93
471.82	370.33
472.18	368.28
472.55	367.04
472.92	365.02
473.28	363.29
473.65	362.00
474.02	360.61
474.38	359.49
474.75	358.37
475.11	357.15
475.48	356.06
475.85	355.05
476.21	353.98
476.58	353.30
476.94	352.83
477.31	352.01
477.67	351.35
478.04	350.61
478.41	350.14
478.77	350.54
479.14	349.73
479.50	349.29
479.87	349.23
480.23	349.10
480.60	348.72
480.96	348.73
481.33	349.01
481.69	349.03
482.06	349.05
482.42	349.30
482.79	349.47
483.15	349.80
483.52	350.33
483.88	350.58
484.25	350.75
484.61	350.97
484.98	351.30
485.34	352.14
485.71	353.08
486.07	353.71
486.44	353.59
486.80	354.60
487.17	355.30
487.53	356.45
487.90	357.53
488.26	359.15
488.62	360.35
488.99	361.31
489.35	362.55
489.72	363.87
490.08	365.17
490.44	366.83
490.81	368.58
491.17	370.13
491.54	372.10
491.90	374.30
492.26	376.37
492.63	378.74
492.99	380.76
493.36	382.96
493.72	385.72
494.08	388.27
494.45	390.91
494.81	393.94
495.17	396.60
495.54	399.70
495.90	402.46
496.26	405.72
496.63	409.10
496.99	412.40
497.35	416.07
497.72	419.87
498.08	423.48
498.44	427.11
498.80	431.39
499.17	435.49
499.53	439.72
499.89	444.27
500.26	448.63
500.62	453.17
500.98	458.12
501.34	462.54
501.71	467.68
502.07	472.67
502.43	477.66
502.79	482.94
503.16	488.19
503.52	493.73
503.88	499.15
504.24	505.05
504.60	511.14
504.97	517.30
505.33	523.53
505.69	530.59
506.05	537.44
506.41	543.94
506.78	550.94
507.14	557.80
507.50	564.75
507.86	572.09
508.22	579.47
508.59	586.45
508.95	594.59
509.31	602.59
509.67	610.57
510.03	618.24
510.39	626.33
510.75	634.55
511.12	642.71
511.48	651.04
511.84	659.29
512.20	667.51
512.56	675.91
512.92	684.65
513.28	693.10
513.64	702.02
514.00	710.96
514.37	719.97
514.73	729.56
515.09	739.15
515.45	748.52
515.81	757.97
516.17	767.86
516.53	777.08
516.89	786.41
517.25	796.33
517.61	807.41
517.97	817.96
518.33	828.43
518.69	839.26
519.05	850.36
519.41	861.53
519.77	873.29
520.13	884.47
520.49	895.30
520.85	906.48
521.21	918.20
521.57	929.88
521.93	940.87
522.29	952.04
522.65	963.06
523.01	974.28
523.37	985.18
523.73	996.71
524.09	1008.14
524.45	1019.56
524.81	1030.67
525.17	1042.06
525.53	1053.38
525.89	1065.17
526.25	1076.80
526.61	1087.60
526.97	1099.28
527.33	1110.93
527.68	1123.75
528.04	1136.30
528.40	1148.12
528.76	1159.76
529.12	1171.53
529.48	1184.15
529.84	1195.74
530.20	1208.25
530.56	1221.24
530.91	1234.50
531.27	1246.71
531.63	1258.95
531.99	1271.47
532.35	1283.92
532.71	1295.61
533.07	1308.34
533.42	1320.95
533.78	1333.38
534.14	1346.21
534.50	1358.43
534.86	1370.55
535.21	1381.28
535.57	1393.28
535.93	1404.87
536.29	1416.63
536.65	1428.74
537.00	1439.99
537.36	1451.77
537.72	1462.57
538.08	1473.81
538.44	1484.47
538.79	1496.00
539.15	1507.11
539.51	1517.98
539.87	1528.85
540.22	1539.03
540.58	1549.18
540.94	1558.12
541.29	1566.97
541.65	1576.06
542.01	1584.87
542.37	1593.18
542.72	1601.76
543.08	1609.11
543.44	1617.93
543.79	1625.37
544.15	1633.19
544.51	1641.12
544.87	1648.91
545.22	1656.45
545.58	1662.79
545.94	1669.11
546.29	1674.80
546.65	1680.83
547.01	1686.45
547.36	1692.14
547.72	1698.20
548.07	1702.82
548.43	1708.56
548.79	1714.08
549.14	1719.18
549.50	1724.28
549.86	1729.16
550.21	1734.33
550.57	1739.38
550.92	1743.16
551.28	1747.10
551.64	1750.86
551.99	1755.10
552.35	1758.52
552.70	1762.32
553.06	1766.37
553.41	1770.44
553.77	1774.89
554.13	1778.82
554.48	1782.80
554.84	1786.46
555.19	1789.96
555.55	1794.57
555.90	1797.01
556.26	1799.36
556.61	1801.55
556.97	1802.52
557.32	1804.67
557.68	1806.56
558.03	1808.73
558.39	1810.42
558.74	1812.73
559.10	1813.89
559.45	1814.61
559.81	1815.22
560.16	1815.17
560.52	1815.04
560.87	1815.47
561.23	1814.84
561.58	1815.28
561.94	1813.88
562.29	1812.37
562.64	1811.07
563.00	1808.21
563.35	1807.06
563.71	1806.34
564.06	1805.42
564.42	1805.03
564.77	1804.26
565.12	1803.10
565.48	1802.33
565.83	1801.02
566.19	1799.75
566.54	1798.37
566.89	1796.92
567.25	1795.92
567.60	1795.99
567.96	1795.50
568.31	1794.17
568.66	1792.54
569.02	1789.57
569.37	1787.87
569.72	1786.62
570.08	1784.28
570.43	1781.90
570.78	1779.97
571.14	1777.09
571.49	1773.55
571.84	1771.02
572.20	1767.46
572.55	1763.91
572.90	1759.09
573.26	1755.44
573.61	1751.24
573.96	1746.81
574.31	1741.55
574.67	1736.58
575.02	1730.26
575.37	1724.23
575.72	1718.08
576.08	1712.59
576.43	1706.88
576.78	1701.03
577.13	1694.87
577.49	1689.15
577.84	1684.32
578.19	1678.87
578.54	1673.53
578.90	1668.70
579.25	1663.32
579.60	1657.54
579.95	1651.68
580.30	1646.21
580.66	1639.74
581.01	1632.90
581.36	1626.42
581.71	1620.55
582.06	1614.66
582.42	1608.93
582.77	1603.21
583.12	1597.59
583.47	1591.38
583.82	1586.27
584.17	1580.70
584.53	1575.31
584.88	1568.76
585.23	1562.28
585.58	1554.86
585.93	1547.87
586.28	1541.43
586.63	1534.04
586.98	1526.77
587.34	1520.03
587.69	1512.75
588.04	1506.93
588.39	1501.06
588.74	1494.62
589.09	1488.82
589.44	1481.74
589.79	1475.06
590.14	1468.50
590.49	1462.06
590.84	1455.89
591.19	1449.08
591.54	1442.43
591.89	1435.20
592.25	1430.83
592.60	1424.30
592.95	1418.37
593.30	1412.06
593.65	1405.03
594.00	1398.41
594.35	1395.10
594.70	1388.42
595.05	1382.18
595.40	1375.18
595.75	1368.46
596.10	1362.21
596.45	1355.28
596.80	1348.94
597.15	1342.44
597.50	1335.58
597.85	1329.23
598.19	1322.66
598.54	1315.66
598.89	1308.93
599.24	1302.80
599.59	1294.97
599.94	1288.52
600.29	1282.11
600.64	1275.61
600.99	1269.18
601.34	1263.22
601.69	1254.30
602.04	1248.03
602.39	1242.02
602.74	1236.37
603.08	1230.25
603.43	1224.51
603.78	1218.35
604.13	1212.51
604.48	1206.39
604.83	1200.04
605.18	1193.40
605.53	1186.85
605.87	1181.06
606.22	1175.38
606.57	1169.04
606.92	1162.81
607.27	1156.87
607.62	1151.08
607.96	1145.47
608.31	1140.02
608.66	1134.28
609.01	1128.34
609.36	1122.51
609.70	1116.56
610.05	1110.18
610.40	1104.14
610.75	1097.73
611.10	1091.87
611.44	1085.39
611.79	1079.45
612.14	1073.56
612.49	1067.90
612.83	1062.39
613.18	1056.56
613.53	1051.05
613.88	1045.32
614.22	1039.39
614.57	1033.27
614.92	1026.98
615.27	1021.28
615.61	1015.42
615.96	1009.46
616.31	1003.81
616.65	998.24
617.00	992.40
617.35	986.74
617.70	981.08
618.04	975.76
618.39	970.20
618.74	965.59
619.08	959.99
619.43	954.53
619.78	948.64
620.12	943.03
620.47	937.37
620.82	931.15
621.16	925.45
621.51	920.45
621.85	915.13
622.20	909.97
622.55	904.34
622.89	898.85
623.24	893.86
623.59	888.34
623.93	883.09
624.28	878.00
624.62	873.66
624.97	868.96
625.32	863.72
625.66	858.62
626.01	852.87
626.35	848.10
626.70	843.35
627.04	838.68
627.39	833.46
627.73	828.99
628.08	824.76
628.43	820.03
628.77	814.97
629.12	810.58
629.46	806.19
629.81	802.10
630.15	797.74
630.50	792.97
630.84	788.65
631.19	784.37
631.53	780.18
631.88	774.77
632.22	770.06
632.57	766.10
632.91	761.80
633.26	757.93
633.60	753.50
633.95	748.75
634.29	744.02
634.64	740.13
634.98	735.38
635.32	731.20
635.67	727.15
636.01	723.15
636.36	718.67
636.70	714.83
637.05	710.35
637.39	706.40
637.73	702.47
638.08	698.67
638.42	694.43
638.77	690.04
639.11	685.84
639.45	681.53
639.80	676.73
640.14	672.43
640.49	668.16
640.83	664.42
641.17	661.03
641.52	657.51
641.86	653.76
642.20	650.72
642.55	646.82
642.89	643.44
643.23	639.73
643.58	636.50
643.92	632.33
644.26	628.80
644.61	625.38
644.95	621.85
645.29	617.93
645.64	614.49
645.98	611.13
646.32	608.10
646.66	604.61
647.01	601.49
647.35	598.56
647.69	595.54
648.04	592.49
648.38	589.16
648.72	586.19
649.06	582.72
649.41	578.92
649.75	575.42
650.09	572.02
650.43	568.86
650.78	565.43
651.12	562.25
651.46	559.09
651.80	555.68
652.14	552.45
652.49	549.75
652.83	546.53
653.17	543.61
653.51	540.21
653.85	537.53
654.20	534.75
654.54	531.60
654.88	528.38
655.22	525.52
655.56	522.73
655.90	519.72
656.25	516.89
656.59	514.35
656.93	511.89
657.27	509.32
657.61	506.37
657.95	503.80
658.29	501.26
658.64	498.76
658.98	496.01
659.32	493.36
659.66	490.60
660.00	488.17
660.34	485.54
660.68	483.21
661.02	480.68
661.36	478.04
661.70	475.40
662.05	472.94
662.39	470.39
662.73	468.09
663.07	466.19
663.41	463.90
663.75	461.34
664.09	458.91
664.43	456.26
664.77	454.13
665.11	451.89
665.45	449.77
665.79	447.52
666.13	445.41
666.47	443.05
666.81	440.74
667.15	438.47
667.49	436.72
667.83	434.98
668.17	432.88
668.51	430.93
668.85	429.35
669.19	427.86
669.53	425.72
669.87	423.47
670.21	421.28
670.55	419.36
670.89	417.97
671.23	416.05
671.57	414.29
671.91	412.40
672.25	410.49
672.58	408.86
672.92	406.84
673.26	405.06
673.60	403.42
673.94	401.87
674.28	400.32
674.62	398.55
674.96	396.61
675.30	394.99
675.64	393.37
675.97	391.53
676.31	389.58
676.65	387.82
676.99	386.64
677.33	384.90
677.67	383.51
678.01	381.56
678.34	380.03
678.68	378.64
679.02	377.03
679.36	375.61
679.70	373.88
680.04	372.66
680.37	371.30
680.71	369.73
681.05	368.36
681.39	367.11
681.73	365.47
682.06	364.04
682.40	362.77
682.74	361.59
683.08	360.69
683.42	359.25
683.75	358.26
684.09	356.84
684.43	355.61
684.77	354.24
685.10	353.02
685.44	351.91
685.78	350.63
686.12	349.50
686.45	348.09
686.79	346.90
687.13	345.93
687.46	344.79
687.80	343.90
688.14	342.56
688.48	341.40
688.81	340.25
689.15	339.36
689.49	338.18
689.82	336.93
690.16	335.31
690.50	334.38
690.83	333.12
691.17	331.76
691.51	330.61
691.84	329.65
692.18	328.42
692.52	327.22
692.85	326.14
693.19	325.39
693.52	324.48
693.86	323.27
694.20	321.99
694.53	320.94
694.87	319.83
695.21	318.80
695.54	317.70
695.88	316.63
696.21	315.35
696.55	314.30
696.88	313.26
697.22	312.30
697.56	311.43
697.89	310.34
698.23	309.60
698.56	308.59
698.90	307.68
699.23	306.75
699.57	305.88
699.90	304.90
700.24	303.72
700.58	302.84
700.91	302.40
701.25	302.30
701.58	302.12
701.92	301.48
702.25	300.74
702.59	299.94
702.92	299.30
703.26	298.70
703.59	298.01
703.93	298.07
704.26	297.50
704.60	296.65
704.93	295.90
705.26	295.03
705.60	294.52
705.93	293.47
706.27	293.01
706.60	292.53
706.94	292.32
707.27	291.71
707.61	291.24
707.94	290.36
708.27	289.02
708.61	287.60
708.94	286.87
709.28	286.27
709.61	285.52
709.94	284.95
710.28	284.28
710.61	283.71
710.95	282.28
711.28	282.22
711.61	281.59
711.95	281.20
712.28	280.55
712.61	279.95
712.95	280.07
713.28	279.93
713.61	279.27
713.95	278.28
714.28	277.70
714.61	277.02
714.95	276.44
715.28	275.61
715.61	275.20
715.95	274.67
716.28	274.08
716.61	273.60
716.95	272.92
717.28	272.44
717.61	271.83
717.94	271.35
718.28	270.09
718.61	269.70
718.94	269.22
719.27	268.81
719.61	268.39
719.94	267.71
720.27	266.81
720.60	266.31
720.94	266.10
721.27	265.74
721.60	265.50
721.93	265.07
722.27	265.12
722.60	264.86
722.93	264.40
723.26	264.12
723.59	263.75
723.93	263.60
724.26	263.35
724.59	263.03
724.92	262.86
725.25	262.92
725.59	262.46
725.92	262.15
726.25	261.90
726.58	261.61
726.91	261.11
727.24	260.84
727.57	260.56
727.91	260.00
728.24	259.82
728.57	259.36
728.90	259.31
729.23	258.72
729.56	258.82
729.89	258.59
730.22	258.33
730.55	258.04
730.89	257.66
731.22	257.26
731.55	256.91
731.88	256.50
732.21	256.04
732.54	255.73
732.87	255.41
733.20	255.16
733.53	254.90
733.86	254.85
734.19	254.43
734.52	254.20
734.85	254.62
735.18	254.07
735.51	254.06
735.84	253.77
736.17	253.79
736.50	253.09
736.83	253.82
737.16	253.51
737.49	253.30
737.82	253.13
738.15	253.07
738.48	252.89
738.81	252.62
739.14	252.27
739.47	252.04
739.80	251.80
740.13	251.65
740.46	251.21
740.79	250.70
741.12	250.59
741.45	250.21
741.78	249.48
742.11	249.70
742.44	249.23
742.77	249.09
743.10	248.73
743.43	248.46
743.75	247.36
744.08	248.39
744.41	248.09
744.74	247.79
745.07	247.23
745.40	247.20
745.73	247.40
746.06	247.27
746.39	247.19
746.71	247.03
747.04	246.61
747.37	246.45
747.70	246.55
748.03	246.40
748.36	246.56
748.68	246.32
749.01	245.83
749.34	245.65
749.67	245.49
750.00	245.39
750.33	245.88
750.65	245.73
750.98	244.38
751.31	244.28
751.64	244.11
751.97	244.59
752.29	244.30
752.62	243.73
752.95	243.49
753.28	243.26
753.60	243.01
753.93	243.24
754.26	243.32
754.59	242.89
754.91	242.78
755.24	242.41
755.57	242.33
755.90	242.13
756.22	242.02
756.55	241.69
756.88	241.41
757.20	240.76
757.53	240.41
757.86	240.31
758.19	240.17
758.51	240.10
758.84	239.47
759.17	239.22
759.49	239.15
759.82	239.48
760.15	239.42
760.47	239.32
760.80	238.87
761.13	238.70
761.45	238.60
761.78	238.46
762.11	238.45
762.43	238.23
762.76	238.19
763.08	238.18
763.41	238.25
763.74	238.16
764.06	238.02
764.39	238.03
764.71	237.86
765.04	237.70
765.37	237.58
765.69	237.42
766.02	237.47
766.34	237.29
766.67	236.81
767.00	236.93
767.32	237.32
767.65	237.91
767.97	237.82
768.30	237.76
768.62	237.60
768.95	237.37
769.27	237.25
769.60	237.41
769.92	237.16
770.25	236.88
770.57	236.61
770.90	236.50
771.22	236.36
771.55	236.29
771.87	236.30
772.20	236.14
772.52	237.03
772.85	238.11
773.17	238.06
773.50	238.00
773.82	237.70
774.15	237.22
774.47	236.55
774.80	236.30
775.12	236.23
775.45	236.20
775.77	236.26
776.09	236.33
776.42	236.19
776.74	236.51
777.07	236.39
777.39	236.54
777.72	236.46
778.04	236.49
778.36	236.37
778.69	236.38
779.01	236.44
779.33	235.48
779.66	234.23
779.98	234.11
780.31	234.06
780.63	234.44
780.95	234.43
781.28	234.29
781.60	234.32
781.92	234.26
782.25	234.12
782.57	234.09
782.89	233.89
783.22	233.73
783.54	233.33
783.86	233.31
784.19	233.07
784.51	233.21
784.83	233.01
785.16	232.95
785.48	232.81
785.80	232.73
786.12	232.76
786.45	232.68
786.77	232.69
787.09	232.63
787.42	232.20
787.74	232.24
788.06	232.29
788.38	232.25
788.71	232.08
789.03	232.18
789.35	232.21
789.67	232.09
789.99	232.12
790.32	232.00
790.64	232.05
790.96	232.82
791.28	232.46
791.61	232.46
791.93	232.59
792.25	232.54
792.57	233.24
792.89	232.97
793.21	233.19
793.54	233.13
793.86	233.04
794.18	233.04
794.50	232.83
794.82	232.80
795.14	232.78
795.47	233.00
795.79	232.89
796.11	232.62
796.43	232.55
796.75	232.47
797.07	232.52
797.39	232.52
797.71	231.88
798.04	231.92
798.36	231.89
798.68	231.76
799.00	231.82
799.32	231.21
799.64	231.42
799.96	231.26
800.28	231.41
800.60	231.29
800.92	231.40
801.24	231.28
801.56	231.38
801.89	231.30
802.21	231.32
802.53	231.16
802.85	231.40
803.17	231.95
803.49	231.80
803.81	231.79
804.13	231.70
804.45	231.58
804.77	231.58
805.09	231.60
805.41	231.44
805.73	231.23
806.05	231.05
806.37	231.02
806.69	230.97
807.01	230.92
807.33	231.09
807.65	230.74
807.97	231.28
808.28	231.07
808.60	231.15
808.92	231.04
809.24	231.70
809.56	231.48
809.88	231.12
810.20	231.26
810.52	231.40
810.84	231.29
811.16	231.22
811.48	231.16
811.80	231.52
812.12	231.66
812.43	231.89
812.75	232.03
813.07	231.93
813.39	231.87
813.71	231.67
814.03	231.54
814.35	231.53
814.67	231.15
814.98	231.12
815.30	230.90
815.62	230.70
815.94	229.97
816.26	230.45
816.58	230.27
816.89	230.28
817.21	230.07
817.53	230.08
817.85	230.20
818.17	230.20
818.48	229.75
818.80	229.88
819.12	229.65
819.44	229.41
819.76	229.31
820.07	229.34
820.39	229.30
820.71	229.45
821.03	229.41
821.34	229.25
821.66	229.43
821.98	229.66
822.30	229.68
822.61	230.41
822.93	229.85
823.25	229.87
823.57	229.74
823.88	229.90
824.20	229.89
824.52	229.95
824.83	229.97
825.15	229.88
825.47	229.79
825.79	229.94
826.10	229.91
826.42	229.89
826.74	230.00
827.05	230.05
827.37	229.98
827.69	229.99
828.00	230.14
828.32	229.97
828.64	229.74
828.95	230.23
829.27	229.91
829.58	229.97
829.90	230.10
830.22	230.10
830.53	229.88
830.85	229.86
831.17	229.65
831.48	229.58
831.80	229.67
832.11	229.48
832.43	229.29
832.75	229.24
833.06	229.74
833.38	229.37
833.69	229.26
834.01	229.21
834.32	229.20
834.64	229.04
834.96	229.06
835.27	228.96
835.59	228.56
835.90	228.30
836.22	228.22
836.53	227.91
836.85	227.83
837.16	228.75
837.48	228.59
837.79	228.80
838.11	228.86
838.42	228.82
838.74	228.98
839.05	228.92
839.37	228.89
839.68	228.36
840.00	228.44
840.31	228.61
840.63	228.48
840.94	228.47
841.26	228.35
841.57	228.33
841.88	228.63
842.20	228.46
842.51	228.32
842.83	228.32
843.14	229.32
843.46	229.23
843.77	228.66
844.08	228.79
844.40	228.48
844.71	228.40
845.03	228.33
845.34	228.27
845.65	228.32
845.97	228.34
846.28	228.45
846.60	228.43
846.91	228.31
847.22	228.30
847.54	228.44
847.85	228.52
848.16	228.43
848.48	228.18
848.79	228.70
849.10	228.83
849.42	228.90
849.73	227.95
850.04	228.05
850.36	227.88
850.67	227.99
850.98	228.10
851.30	228.20
851.61	228.19
851.92	228.27
852.23	228.55
852.55	228.66
852.86	228.64
853.17	228.75
853.49	229.00
853.80	229.31
854.11	229.35
854.42	229.52
854.74	229.58
855.05	229.65
855.36	229.12
855.67	229.10
855.99	229.13
856.30	230.25
856.61	230.15
856.92	230.04
857.23	230.04
857.55	229.92
857.86	229.87
858.17	230.02
858.48	229.75
858.79	229.52
859.11	229.64
859.42	229.57
859.73	229.47
860.04	229.40
860.35	229.10
860.66	228.79
860.98	228.77
861.29	228.84
861.60	228.78
861.91	229.00
862.22	228.88
862.53	228.61
862.84	227.58
863.16	227.85
863.47	227.74
863.78	227.67
864.09	227.75
864.40	227.87
864.71	227.87
865.02	228.02
865.33	227.88
865.64	227.53
865.95	227.57
866.27	228.15
866.58	227.99
866.89	228.08
867.20	228.11
867.51	227.89
867.82	227.76
868.13	228.00
868.44	227.78
868.75	228.03
869.06	228.12
869.37	228.13
869.68	227.85
869.99	228.03
870.30	228.00
870.61	228.02
870.92	227.81
871.23	227.71
871.54	227.75
871.85	227.96
872.16	228.13
872.47	228.01
872.78	227.43
873.09	227.49
873.40	227.30
873.71	227.39
874.02	227.52
874.33	227.35
874.64	227.07
874.95	227.14
875.26	226.93
875.56	226.90
875.87	226.87
876.18	226.80
876.49	227.68
876.80	227.63
877.11	227.40
877.42	227.38
877.73	227.36
878.04	227.28
878.35	227.29
878.66	227.32
878.96	227.32
879.27	227.33
879.58	227.27
879.89	227.32
880.20	227.59
880.51	227.48
880.82	227.62
881.12	227.73
881.43	227.67
881.74	227.47
882.05	227.40
882.36	227.44
882.67	227.53
882.97	226.46
883.28	226.37
883.59	226.48
883.90	226.64
884.21	226.74
884.51	226.70
884.82	226.47
885.13	226.43
885.44	226.42
885.74	226.44
886.05	226.39
886.36	226.39
886.67	226.03
886.98	226.56
887.28	226.56
887.59	226.53
887.90	226.53
888.20	226.56
888.51	226.73
888.82	226.57
889.13	226.67
889.43	227.55
889.74	227.64
890.05	227.60
890.35	227.43
890.66	227.34
890.97	227.35
891.28	227.31
891.58	227.36
891.89	227.33
892.20	227.20
892.50	227.23
892.81	227.26
893.12	227.23
893.42	226.73
893.73	226.80
894.04	226.85
894.34	227.00
894.65	227.13
894.95	227.07
895.26	227.19
895.57	227.60
895.87	226.66
896.18	226.82
896.48	226.95
896.79	227.02
897.10	227.19
897.40	227.14
897.71	227.36
898.01	227.30
898.32	227.47
898.63	227.50
898.93	227.50
899.24	227.50
899.54	227.52
899.85	227.49
900.15	227.42
900.46	227.45
900.76	227.52
901.07	227.41
901.38	227.38
901.68	227.51
901.99	227.10
902.29	227.28
902.60	227.13
902.90	227.01
903.21	227.08
903.51	227.02
903.82	227.34
904.12	227.30
904.43	227.34
904.73	227.40
905.03	227.51
905.34	228.42
905.64	228.36
905.95	228.36
906.25	228.38
906.56	228.38
906.86	228.30
907.17	228.12
907.47	228.31
907.77	228.32
908.08	228.10
908.38	228.13
908.69	228.13
908.99	228.31
909.30	228.37
909.60	228.26
909.90	228.24
910.21	227.80
910.51	227.77
910.81	227.86
911.12	227.82
911.42	227.68
911.73	226.70
912.03	226.82
912.33	227.17
912.64	227.10
912.94	227.14
913.24	227.06
913.55	227.10
913.85	226.95
914.15	227.08
914.46	227.18
914.76	227.06
915.06	227.01
915.37	226.88
915.67	226.80
915.97	226.80
916.27	226.61
916.58	226.73
916.88	226.61
917.18	226.51
917.49	227.02
917.79	227.12
918.09	227.28
918.39	227.50
918.70	227.34
919.00	227.43
919.30	227.71
919.60	227.61
919.91	227.49
920.21	227.54
920.51	227.32
920.81	227.27
921.12	227.42
921.42	227.26
921.72	227.29
922.02	227.38
922.32	227.51
922.63	227.53
922.93	228.05
923.23	228.10
923.53	227.96
923.83	227.40
924.13	227.44
924.44	227.44
924.74	227.54
925.04	227.70
925.34	227.63
925.64	227.27
925.94	227.43
926.24	227.95
926.55	227.88
926.85	228.07
927.15	228.15
927.45	228.12
927.75	228.15
928.05	228.10
928.35	228.00
928.65	228.27
928.95	228.40
929.26	228.04
929.56	228.22
929.86	228.47
930.16	228.36
930.46	228.24
930.76	228.18
931.06	227.71
931.36	227.41
931.66	227.62
931.96	227.73
932.26	227.66
932.56	227.29
932.86	227.30
933.16	227.22
933.46	227.01
933.76	226.95
934.06	227.22
934.36	227.63
934.66	227.56
934.96	227.31
935.26	227.36
935.56	227.44
935.86	227.19
936.16	227.00
936.46	226.95
936.76	226.97
937.06	226.91
937.36	227.06
937.66	227.26
937.96	227.13
938.26	226.95
938.56	226.97
938.86	227.02
939.16	227.20
939.46	227.38
939.76	227.50
940.06	227.46
940.35	227.27
940.65	226.74
940.95	226.86
941.25	226.65
941.55	226.58
941.85	226.51
942.15	226.73
942.45	226.99
942.75	227.06
943.04	227.08
943.34	227.21
943.64	227.17
943.94	226.97
944.24	227.00
944.54	227.16
944.84	227.20
945.13	227.08
945.43	227.06
945.73	227.03
946.03	226.97
946.33	227.01
946.62	227.05
946.92	227.08
947.22	227.16
947.52	227.33
947.82	227.41
948.11	227.32
948.41	227.10
948.71	226.90
949.01	226.98
949.31	226.98
949.60	226.93
949.90	227.05
950.20	227.05
950.50	227.10
950.79	227.00
951.09	227.13
951.39	227.10
951.69	226.94
951.98	227.14
952.28	227.26
952.58	227.16
952.87	227.12
953.17	227.35
953.47	227.22
953.76	227.20
954.06	227.01
954.36	226.90
954.66	226.91
954.95	227.14
955.25	227.16
955.55	227.24
955.84	227.15
956.14	227.14
956.44	227.25
956.73	227.03
957.03	227.05
957.32	226.96
957.62	226.96
957.92	227.25
958.21	227.07
958.51	228.02
958.81	228.14
959.10	228.33
959.40	228.43
959.69	228.61
959.99	228.71
960.29	228.85
960.58	228.91
960.88	229.32
961.17	229.09
961.47	229.19
961.76	229.11
962.06	229.26
962.36	229.24
962.65	229.18
962.95	229.34
963.24	229.26
963.54	229.29
963.83	229.31
964.13	229.14
964.42	228.98
964.72	228.21
965.01	228.21
965.31	228.08
965.60	227.85
965.90	228.36
966.19	228.19
966.49	228.21
966.78	228.19
967.08	228.14
967.37	228.20
967.67	228.05
967.96	228.29
968.26	228.25
968.55	228.32
968.85	228.29
969.14	228.26
969.43	228.31
969.73	228.31
970.02	228.28
970.32	228.29
970.61	228.25
970.91	227.95
971.20	227.88
971.49	227.79
971.79	228.00
972.08	227.32
972.38	227.47
972.67	227.39
972.96	227.63
973.26	227.39
973.55	227.71
973.85	227.69
974.14	227.47
974.43	227.59
974.73	227.45
975.02	227.45
975.31	227.41
975.61	227.48
975.90	227.42
976.19	227.33
976.49	227.48
976.78	227.58
977.07	227.68
977.37	227.69
977.66	227.78
977.95	227.53
978.24	227.68
978.54	227.77
978.83	227.81
979.12	227.60
979.42	227.67
979.71	227.50
980.00	227.49
980.29	227.59
980.59	227.34
980.88	227.67
981.17	227.67
981.46	227.74
981.76	227.64
982.05	227.95
982.34	228.17
982.63	228.01
982.93	228.08
983.22	228.25
983.51	228.23
983.80	228.34
984.09	228.42
984.39	228.37
984.68	228.28
984.97	228.29
985.26	228.25
985.55	228.29
985.85	228.09
986.14	228.22
986.43	228.30
986.72	228.36
987.01	227.99
987.30	228.05
987.59	228.02
987.89	228.14
988.18	227.85
988.47	227.63
988.76	227.58
989.05	227.42
989.34	227.30
989.63	227.68
989.92	227.58
990.22	227.50
990.51	227.47
990.80	227.32
991.09	227.33
991.38	227.47
991.67	227.36
991.96	227.27
992.25	227.34
992.54	227.22
992.83	227.14
993.12	227.12
993.41	227.13
993.70	227.50
993.99	227.61
994.28	227.76
994.58	227.94
994.87	227.90
995.16	227.87
995.45	227.83
995.74	227.40
996.03	227.56
996.32	227.62
996.61	227.81
996.90	227.73
997.19	227.72
997.48	227.76
997.77	227.70
998.06	227.80
998.34	227.63
998.63	227.59
998.92	227.67
999.21	227.78
999.50	227.80
999.79	227.43
1000.08	227.36
1000.37	227.23
1000.66	227.13
1000.95	227.47
1001.24	227.54
1001.53	227.62
1001.82	227.54
1002.11	227.27
1002.40	227.32
1002.68	227.41
1002.97	228.20
1003.26	228.06
1003.55	227.86
1003.84	227.84
1004.13	228.11
1004.42	228.06
1004.71	228.02
1004.99	227.96
1005.28	228.01
1005.57	227.84
1005.86	227.73
1006.15	227.66
1006.44	227.53
1006.72	227.57
1007.01	227.21
1007.30	227.09
1007.59	226.97
1007.88	227.01
1008.17	227.00
1008.45	226.82
1008.74	226.51
1009.03	225.99
1009.32	225.94
1009.60	225.92
1009.89	225.88
1010.18	225.45
1010.47	225.35
1010.76	225.33
1011.04	225.28
1011.33	225.41
1011.62	225.47
1011.91	225.52
1012.19	225.51
1012.48	225.46
1012.77	225.49
1013.05	226.03
1013.34	226.12
1013.63	226.09
1013.92	226.19
1014.20	226.14
1014.49	226.26
1014.78	226.27
1015.06	226.00
1015.35	226.00
1015.64	226.16
1015.92	226.35
1016.21	226.53
1016.50	226.50
1016.78	226.58
1017.07	226.65
1017.36	226.46
1017.64	226.36
1017.93	226.46
1018.22	226.40
1018.50	226.53
1018.79	226.38
1019.08	225.89
1019.36	225.93
1019.65	225.92
1019.93	226.14
1020.22	226.28
1020.51	226.74
1020.79	226.73
1021.08	224.80
1021.36	226.00
1021.65	224.20
1021.94	226.40
1022.22	226.70
1022.51	225.60
1022.79	231.20
1023.08	226.70
1023.36	237.60
1023.65	225.40
>>>>>End Processed Spectral Data<<<<<
