SpectraSuite Data File
++++++++++++++++++++++++++++++++++++
Date: Wed Sep 04 17:29:54 EDT 2013
User: lab3
Dark Spectrum Present: Yes
Reference Spectrum Present: No
Number of Sampled Component Spectra: 1
Spectrometers: USB2E7196
Integration Time (usec): 337000 (USB2E7196)
Spectra Averaged: 10 (USB2E7196)
Boxcar Smoothing: 10 (USB2E7196)
Correct for Electrical Dark: No (USB2E7196)
Strobe/Lamp Enabled: No (USB2E7196)
Correct for Detector Non-linearity: No (USB2E7196)
Correct for Stray Light: No (USB2E7196)
Number of Pixels in Processed Spectrum: 2048
>>>>>Begin Processed Spectral Data<<<<<
339.09	0.00
339.48	211.80
339.86	214.50
340.24	212.90
340.63	216.40
341.01	232.40
341.39	221.50
341.78	221.80
342.16	225.20
342.54	223.60
342.93	212.75
343.31	223.45
343.69	223.96
344.07	224.42
344.46	225.19
344.84	225.67
345.22	225.31
345.60	225.59
345.99	225.88
346.37	226.00
346.75	226.07
347.13	226.14
347.52	226.36
347.90	226.69
348.28	226.70
348.66	226.97
349.05	226.64
349.43	226.79
349.81	226.93
350.19	227.02
350.57	227.14
350.96	227.26
351.34	227.49
351.72	227.72
352.10	227.81
352.48	227.70
352.87	227.76
353.25	227.86
353.63	227.81
354.01	227.78
354.39	227.91
354.77	228.01
355.15	228.26
355.54	228.16
355.92	227.91
356.30	227.94
356.68	228.50
357.06	228.66
357.44	228.62
357.82	228.65
358.20	229.45
358.58	229.39
358.97	229.51
359.35	229.58
359.73	229.80
360.11	229.94
360.49	230.10
360.87	230.04
361.25	230.19
361.63	230.48
362.01	230.58
362.39	230.37
362.77	230.54
363.15	230.52
363.53	230.64
363.91	230.70
364.29	230.73
364.67	229.82
365.05	229.90
365.43	229.99
365.81	230.23
366.19	229.90
366.57	230.33
366.95	230.30
367.33	230.13
367.71	230.11
368.09	230.24
368.47	230.18
368.85	230.24
369.23	230.42
369.61	230.13
369.99	230.45
370.37	230.70
370.75	231.05
371.13	230.88
371.51	230.79
371.89	230.82
372.27	230.88
372.65	230.91
373.03	230.97
373.41	230.87
373.78	230.60
374.16	230.18
374.54	229.99
374.92	229.81
375.30	229.76
375.68	229.49
376.06	229.45
376.44	229.36
376.82	229.38
377.19	229.18
377.57	229.09
377.95	228.71
378.33	228.46
378.71	227.85
379.09	227.89
379.47	227.89
379.84	227.78
380.22	227.63
380.60	227.60
380.98	227.41
381.36	227.41
381.73	227.33
382.11	227.38
382.49	227.31
382.87	227.23
383.25	227.22
383.62	228.32
384.00	228.07
384.38	228.02
384.76	228.18
385.13	228.58
385.51	228.59
385.89	228.36
386.27	228.38
386.64	228.56
387.02	228.50
387.40	228.48
387.78	228.49
388.15	228.50
388.53	228.35
388.91	228.31
389.29	228.21
389.66	228.25
390.04	228.22
390.42	228.34
390.79	228.35
391.17	228.36
391.55	227.29
391.92	227.30
392.30	227.51
392.68	227.21
393.05	227.10
393.43	227.13
393.81	227.22
394.18	227.16
394.56	227.18
394.94	227.38
395.31	227.25
395.69	227.59
396.06	227.78
396.44	227.88
396.82	227.99
397.19	228.53
397.57	228.62
397.95	228.74
398.32	228.52
398.70	228.72
399.07	228.95
399.45	229.07
399.82	229.16
400.20	229.02
400.58	229.21
400.95	228.96
401.33	229.36
401.70	230.27
402.08	230.48
402.45	230.66
402.83	231.03
403.20	231.42
403.58	231.44
403.95	231.90
404.33	232.37
404.71	232.68
405.08	233.56
405.46	233.95
405.83	234.35
406.21	234.88
406.58	235.33
406.96	235.89
407.33	236.50
407.70	237.20
408.08	238.72
408.45	239.62
408.83	240.57
409.20	241.20
409.58	241.40
409.95	242.52
410.33	243.60
410.70	244.27
411.08	245.42
411.45	246.67
411.82	247.61
412.20	248.97
412.57	250.81
412.95	251.39
413.32	253.05
413.69	254.66
414.07	256.31
414.44	258.26
414.82	260.24
415.19	262.42
415.56	264.69
415.94	266.62
416.31	269.34
416.68	272.08
417.06	275.36
417.43	278.63
417.81	282.09
418.18	285.57
418.55	289.48
418.93	293.55
419.30	297.66
419.67	302.31
420.04	307.00
420.42	311.54
420.79	317.69
421.16	323.31
421.54	329.46
421.91	335.68
422.28	341.98
422.66	348.60
423.03	355.77
423.40	362.50
423.77	369.80
424.15	377.23
424.52	384.97
424.89	393.30
425.26	401.53
425.64	409.35
426.01	417.98
426.38	427.13
426.75	436.56
427.13	446.12
427.50	455.82
427.87	465.95
428.24	476.36
428.61	485.92
428.99	497.15
429.36	508.75
429.73	520.28
430.10	531.90
430.47	543.93
430.85	555.92
431.22	569.18
431.59	583.53
431.96	596.77
432.33	611.69
432.70	626.10
433.08	642.92
433.45	658.93
433.82	674.94
434.19	692.70
434.56	710.39
434.93	727.55
435.30	744.64
435.68	763.78
436.05	782.36
436.42	800.80
436.79	817.68
437.16	836.15
437.53	855.89
437.90	875.70
438.27	895.04
438.64	915.03
439.01	934.36
439.38	950.95
439.75	967.49
440.13	986.10
440.50	1003.69
440.87	1018.08
441.24	1033.34
441.61	1049.83
441.98	1062.26
442.35	1076.45
442.72	1090.86
443.09	1105.19
443.46	1114.30
443.83	1120.70
444.20	1126.54
444.57	1134.00
444.94	1138.06
445.31	1142.45
445.68	1146.74
446.05	1148.88
446.42	1147.84
446.79	1145.94
447.16	1143.92
447.53	1143.06
447.90	1136.47
448.27	1130.00
448.64	1120.68
449.01	1113.91
449.37	1101.62
449.74	1089.51
450.11	1075.22
450.48	1059.13
450.85	1042.46
451.22	1028.12
451.59	1014.65
451.96	1001.58
452.33	984.56
452.70	969.35
453.07	950.52
453.43	930.87
453.80	912.71
454.17	895.17
454.54	878.51
454.91	861.03
455.28	843.33
455.65	827.26
456.02	811.94
456.38	798.29
456.75	781.06
457.12	767.10
457.49	753.33
457.86	739.58
458.23	728.20
458.59	715.82
458.96	703.07
459.33	692.03
459.70	680.95
460.07	672.17
460.43	661.65
460.80	652.10
461.17	644.23
461.54	635.49
461.91	627.25
462.27	618.72
462.64	611.32
463.01	603.60
463.38	595.98
463.74	587.39
464.11	580.63
464.48	574.85
464.85	568.27
465.21	563.55
465.58	558.27
465.95	552.15
466.32	546.92
466.68	541.85
467.05	536.71
467.42	531.72
467.78	526.33
468.15	521.44
468.52	517.97
468.88	512.90
469.25	508.43
469.62	505.13
469.98	501.44
470.35	498.02
470.72	494.75
471.08	491.15
471.45	488.40
471.82	485.76
472.18	482.61
472.55	480.42
472.92	477.48
473.28	475.22
473.65	472.60
474.02	470.20
474.38	468.34
474.75	466.78
475.11	464.79
475.48	463.35
475.85	461.77
476.21	460.29
476.58	459.05
476.94	458.43
477.31	457.27
477.67	456.41
478.04	455.70
478.41	455.05
478.77	455.47
479.14	454.62
479.50	454.21
479.87	454.18
480.23	454.12
480.60	453.88
480.96	453.64
481.33	454.21
481.69	454.56
482.06	454.74
482.42	454.97
482.79	455.40
483.15	456.17
483.52	457.49
483.88	458.23
484.25	459.42
484.61	460.34
484.98	461.30
485.34	463.03
485.71	464.40
486.07	466.12
486.44	466.88
486.80	468.82
487.17	470.53
487.53	472.77
487.90	475.10
488.26	478.04
488.62	480.69
488.99	483.15
489.35	486.16
489.72	489.31
490.08	492.58
490.44	495.86
490.81	499.37
491.17	502.75
491.54	506.58
491.90	510.35
492.26	514.40
492.63	518.91
492.99	522.90
493.36	527.78
493.72	532.68
494.08	537.61
494.45	543.14
494.81	548.69
495.17	554.05
495.54	559.70
495.90	565.32
496.26	571.40
496.63	577.50
496.99	583.31
497.35	589.64
497.72	596.20
498.08	602.93
498.44	609.60
498.80	616.61
499.17	623.65
499.53	630.54
499.89	637.97
500.26	645.35
500.62	652.99
500.98	660.72
501.34	668.28
501.71	676.02
502.07	683.53
502.43	691.14
502.79	698.76
503.16	706.61
503.52	714.46
503.88	722.34
504.24	730.81
504.60	739.32
504.97	747.96
505.33	756.14
505.69	765.22
506.05	773.84
506.41	782.39
506.78	790.70
507.14	799.54
507.50	808.00
507.86	816.56
508.22	825.24
508.59	833.51
508.95	842.02
509.31	851.29
509.67	859.71
510.03	868.14
510.39	876.75
510.75	884.94
511.12	893.16
511.48	901.18
511.84	909.13
512.20	917.14
512.56	924.74
512.92	932.67
513.28	940.05
513.64	947.57
514.00	954.96
514.37	962.55
514.73	969.87
515.09	977.21
515.45	984.09
515.81	990.75
516.17	997.59
516.53	1004.34
516.89	1010.00
517.25	1016.69
517.61	1023.61
517.97	1030.03
518.33	1036.69
518.69	1042.96
519.05	1049.60
519.41	1055.66
519.77	1062.00
520.13	1067.68
520.49	1073.10
520.85	1078.56
521.21	1084.37
521.57	1089.96
521.93	1094.88
522.29	1100.16
522.65	1104.48
523.01	1109.30
523.37	1113.19
523.73	1117.48
524.09	1121.60
524.45	1125.75
524.81	1129.53
525.17	1133.53
525.53	1137.33
525.89	1140.77
526.25	1144.60
526.61	1147.69
526.97	1151.04
527.33	1154.40
527.68	1158.98
528.04	1162.88
528.40	1166.27
528.76	1169.68
529.12	1173.04
529.48	1176.68
529.84	1179.80
530.20	1183.82
530.56	1187.41
530.91	1191.65
531.27	1195.22
531.63	1198.61
531.99	1202.12
532.35	1205.64
532.71	1208.88
533.07	1212.53
533.42	1216.84
533.78	1220.12
534.14	1223.78
534.50	1227.12
534.86	1231.02
535.21	1233.05
535.57	1236.28
535.93	1239.01
536.29	1242.02
536.65	1245.24
537.00	1247.79
537.36	1250.16
537.72	1252.72
538.08	1255.50
538.44	1257.89
538.79	1260.90
539.15	1263.49
539.51	1266.29
539.87	1268.56
540.22	1270.40
540.58	1272.35
540.94	1273.68
541.29	1275.18
541.65	1276.77
542.01	1278.39
542.37	1279.10
542.72	1280.19
543.08	1280.95
543.44	1282.72
543.79	1283.39
544.15	1284.19
544.51	1285.80
544.87	1287.39
545.22	1288.13
545.58	1288.68
545.94	1289.40
546.29	1289.01
546.65	1289.34
547.01	1289.61
547.36	1290.18
547.72	1290.80
548.07	1291.10
548.43	1291.07
548.79	1291.64
549.14	1291.90
549.50	1292.35
549.86	1292.40
550.21	1293.13
550.57	1293.78
550.92	1293.48
551.28	1293.86
551.64	1294.31
551.99	1294.76
552.35	1295.02
552.70	1295.27
553.06	1295.91
553.41	1296.53
553.77	1297.90
554.13	1298.50
554.48	1299.12
554.84	1299.84
555.19	1300.48
555.55	1301.99
555.90	1302.35
556.26	1302.09
556.61	1301.72
556.97	1301.39
557.32	1301.55
557.68	1301.90
558.03	1302.10
558.39	1302.18
558.74	1302.23
559.10	1301.77
559.45	1301.35
559.81	1300.60
560.16	1300.00
560.52	1299.10
560.87	1298.64
561.23	1297.55
561.58	1297.56
561.94	1296.57
562.29	1294.90
562.64	1293.85
563.00	1291.82
563.35	1291.31
563.71	1291.10
564.06	1291.02
564.42	1290.67
564.77	1290.39
565.12	1289.85
565.48	1290.02
565.83	1289.84
566.19	1289.22
566.54	1288.64
566.89	1287.85
567.25	1288.01
567.60	1288.25
567.96	1288.89
568.31	1288.59
568.66	1288.43
569.02	1286.83
569.37	1286.09
569.72	1286.17
570.08	1285.07
570.43	1283.90
570.78	1282.87
571.14	1281.56
571.49	1279.77
571.84	1278.22
572.20	1276.58
572.55	1274.69
572.90	1272.00
573.26	1269.89
573.61	1267.84
573.96	1265.68
574.31	1263.29
574.67	1260.43
575.02	1257.40
575.37	1253.71
575.72	1250.46
576.08	1247.31
576.43	1244.47
576.78	1241.25
577.13	1237.99
577.49	1234.86
577.84	1232.73
578.19	1229.90
578.54	1227.40
578.90	1225.08
579.25	1222.45
579.60	1219.85
579.95	1216.73
580.30	1213.52
580.66	1210.50
581.01	1207.08
581.36	1203.48
581.71	1200.15
582.06	1197.40
582.42	1194.30
582.77	1191.11
583.12	1188.15
583.47	1185.20
583.82	1182.64
584.17	1179.91
584.53	1177.28
584.88	1174.16
585.23	1170.17
585.58	1166.07
585.93	1161.97
586.28	1158.19
586.63	1154.20
586.98	1150.04
587.34	1146.66
587.69	1142.95
588.04	1139.27
588.39	1136.18
588.74	1132.79
589.09	1129.56
589.44	1125.32
589.79	1121.91
590.14	1118.71
590.49	1115.34
590.84	1111.62
591.19	1108.09
591.54	1104.30
591.89	1100.07
592.25	1098.00
592.60	1094.67
592.95	1091.40
593.30	1088.14
593.65	1084.38
594.00	1080.42
594.35	1079.54
594.70	1075.44
595.05	1071.64
595.40	1067.55
595.75	1063.26
596.10	1059.72
596.45	1055.80
596.80	1052.30
597.15	1048.11
597.50	1043.83
597.85	1040.04
598.19	1035.95
598.54	1031.40
598.89	1027.49
599.24	1024.03
599.59	1018.89
599.94	1014.62
600.29	1010.71
600.64	1006.74
600.99	1002.85
601.34	999.57
601.69	992.61
602.04	988.83
602.39	985.22
602.74	981.99
603.08	978.41
603.43	974.74
603.78	971.19
604.13	967.24
604.48	963.56
604.83	959.70
605.18	955.47
605.53	951.69
605.87	948.23
606.22	944.57
606.57	940.63
606.92	936.54
607.27	933.26
607.62	929.40
607.96	925.88
608.31	922.59
608.66	918.90
609.01	915.49
609.36	911.73
609.70	907.79
610.05	903.61
610.40	900.02
610.75	895.96
611.10	892.00
611.44	887.89
611.79	884.01
612.14	880.47
612.49	876.23
612.83	872.48
613.18	868.80
613.53	865.09
613.88	860.95
614.22	856.99
614.57	852.62
614.92	848.40
615.27	844.20
615.61	839.59
615.96	835.35
616.31	831.41
616.65	827.84
617.00	823.87
617.35	820.16
617.70	815.92
618.04	812.01
618.39	808.02
618.74	804.63
619.08	800.64
619.43	796.51
619.78	792.61
620.12	788.56
620.47	784.30
620.82	779.86
621.16	775.99
621.51	772.64
621.85	768.91
622.20	765.50
622.55	761.37
622.89	757.69
623.24	754.14
623.59	750.27
623.93	746.11
624.28	742.36
624.62	739.59
624.97	736.38
625.32	732.74
625.66	728.90
626.01	724.76
626.35	721.35
626.70	717.74
627.04	714.68
627.39	710.94
627.73	707.79
628.08	704.73
628.43	701.02
628.77	697.30
629.12	693.73
629.46	690.37
629.81	687.82
630.15	684.64
630.50	681.07
630.84	677.84
631.19	674.82
631.53	671.75
631.88	667.28
632.22	663.52
632.57	660.46
632.91	657.47
633.26	654.66
633.60	651.37
633.95	648.00
634.29	644.41
634.64	641.36
634.98	637.58
635.32	634.45
635.67	631.84
636.01	628.86
636.36	625.73
636.70	622.76
637.05	619.24
637.39	616.33
637.73	613.42
638.08	610.51
638.42	607.18
638.77	603.81
639.11	600.61
639.45	597.49
639.80	594.18
640.14	590.96
640.49	587.77
640.83	584.69
641.17	581.98
641.52	579.03
641.86	576.28
642.20	573.98
642.55	570.98
642.89	568.00
643.23	565.13
643.58	562.84
643.92	559.86
644.26	556.96
644.61	554.15
644.95	551.33
645.29	548.46
645.64	545.99
645.98	543.47
646.32	541.13
646.66	538.35
647.01	535.61
647.35	533.26
647.69	530.74
648.04	528.41
648.38	525.72
648.72	523.20
649.06	520.25
649.41	517.43
649.75	514.63
650.09	511.81
650.43	509.12
650.78	506.11
651.12	503.42
651.46	500.80
651.80	498.29
652.14	495.93
652.49	493.76
652.83	491.25
653.17	488.92
653.51	486.30
653.85	484.25
654.20	482.07
654.54	479.38
654.88	476.80
655.22	474.80
655.56	472.57
655.90	470.45
656.25	468.49
656.59	466.27
656.93	464.26
657.27	462.55
657.61	460.27
657.95	458.15
658.29	455.95
658.64	454.22
658.98	451.83
659.32	449.40
659.66	447.09
660.00	444.96
660.34	442.90
660.68	440.94
661.02	438.79
661.36	436.76
661.70	434.81
662.05	432.98
662.39	430.81
662.73	429.06
663.07	427.71
663.41	425.89
663.75	423.83
664.09	422.01
664.43	419.80
664.77	418.10
665.11	416.32
665.45	414.72
665.79	413.00
666.13	411.30
666.47	409.56
666.81	407.61
667.15	405.74
667.49	404.05
667.83	402.63
668.17	401.00
668.51	399.32
668.85	397.96
669.19	396.81
669.53	395.10
669.87	393.42
670.21	391.41
670.55	389.91
670.89	388.98
671.23	387.46
671.57	386.01
671.91	384.66
672.25	383.17
672.58	381.92
672.92	380.06
673.26	378.82
673.60	377.60
673.94	376.40
674.28	375.32
674.62	374.01
674.96	372.46
675.30	371.15
675.64	369.94
675.97	368.46
676.31	366.80
676.65	365.36
676.99	364.29
677.33	362.83
677.67	361.63
678.01	359.69
678.34	358.42
678.68	357.24
679.02	355.79
679.36	354.54
679.70	353.18
680.04	352.16
680.37	350.91
680.71	349.66
681.05	348.64
681.39	347.40
681.73	346.20
682.06	345.07
682.40	343.98
682.74	342.99
683.08	342.16
683.42	341.07
683.75	340.14
684.09	338.89
684.43	337.88
684.77	336.61
685.10	335.70
685.44	334.74
685.78	333.54
686.12	332.60
686.45	331.67
686.79	330.50
687.13	329.63
687.46	328.69
687.80	327.98
688.14	326.77
688.48	325.86
688.81	324.88
689.15	324.09
689.49	323.02
689.82	322.10
690.16	320.86
690.50	319.93
690.83	318.88
691.17	317.80
691.51	316.95
691.84	316.21
692.18	315.30
692.52	314.34
692.85	313.63
693.19	313.11
693.52	312.11
693.86	311.36
694.20	310.38
694.53	309.46
694.87	308.50
695.21	307.63
695.54	306.77
695.88	305.93
696.21	304.74
696.55	303.94
696.88	302.89
697.22	301.98
697.56	301.32
697.89	300.56
698.23	299.94
698.56	299.07
698.90	298.38
699.23	297.67
699.57	297.04
699.90	296.09
700.24	295.07
700.58	294.51
700.91	293.97
701.25	294.10
701.58	294.15
701.92	293.66
702.25	293.07
702.59	292.42
702.92	291.91
703.26	291.53
703.59	291.02
703.93	291.29
704.26	290.95
704.60	290.32
704.93	289.69
705.26	288.99
705.60	288.69
705.93	287.90
706.27	287.46
706.60	287.12
706.94	287.02
707.27	286.43
707.61	285.89
707.94	285.21
708.27	283.92
708.61	282.72
708.94	282.05
709.28	281.55
709.61	280.81
709.94	280.24
710.28	279.58
710.61	279.09
710.95	277.68
711.28	277.70
711.61	277.08
711.95	276.84
712.28	276.30
712.61	275.64
712.95	275.57
713.28	275.51
713.61	274.73
713.95	273.90
714.28	273.48
714.61	273.03
714.95	272.51
715.28	271.93
715.61	271.51
715.95	271.06
716.28	270.50
716.61	270.33
716.95	269.69
717.28	269.27
717.61	268.72
717.94	268.32
718.28	267.31
718.61	266.78
718.94	266.10
719.27	265.66
719.61	265.33
719.94	264.69
720.27	263.78
720.60	263.38
720.94	263.06
721.27	262.63
721.60	262.30
721.93	262.00
722.27	261.98
722.60	261.70
722.93	261.25
723.26	261.02
723.59	260.45
723.93	260.34
724.26	260.04
724.59	259.72
724.92	259.42
725.25	259.24
725.59	259.06
725.92	258.83
726.25	258.58
726.58	258.31
726.91	257.93
727.24	257.87
727.57	257.45
727.91	256.98
728.24	256.84
728.57	256.45
728.90	256.17
729.23	255.60
729.56	255.65
729.89	255.40
730.22	255.07
730.55	254.81
730.89	254.56
731.22	254.27
731.55	254.07
731.88	253.82
732.21	253.39
732.54	253.04
732.87	252.81
733.20	252.56
733.53	252.32
733.86	252.26
734.19	251.87
734.52	251.91
734.85	252.35
735.18	251.99
735.51	252.14
735.84	252.00
736.17	252.00
736.50	251.36
736.83	252.28
737.16	252.06
737.49	251.93
737.82	251.62
738.15	251.60
738.48	251.32
738.81	251.10
739.14	250.87
739.47	250.57
739.80	250.42
740.13	250.32
740.46	249.90
740.79	249.54
741.12	249.33
741.45	248.86
741.78	248.18
742.11	248.27
742.44	247.80
742.77	247.72
743.10	247.48
743.43	247.19
743.75	245.97
744.08	247.00
744.41	246.79
744.74	246.39
745.07	245.96
745.40	245.88
745.73	246.15
746.06	246.06
746.39	246.09
746.71	245.79
747.04	245.55
747.37	245.51
747.70	245.61
748.03	245.52
748.36	245.53
748.68	245.42
749.01	244.96
749.34	244.82
749.67	244.66
750.00	244.55
750.33	245.23
750.65	245.23
750.98	243.88
751.31	243.82
751.64	243.88
751.97	244.20
752.29	244.00
752.62	243.42
752.95	243.23
753.28	242.98
753.60	242.80
753.93	242.94
754.26	242.94
754.59	242.42
754.91	242.20
755.24	241.97
755.57	241.96
755.90	241.89
756.22	241.70
756.55	241.37
756.88	241.00
757.20	240.18
757.53	239.77
757.86	239.70
758.19	239.55
758.51	239.40
758.84	238.91
759.17	238.72
759.49	238.66
759.82	238.98
760.15	238.93
760.47	238.85
760.80	238.41
761.13	238.35
761.45	238.27
761.78	238.22
762.11	238.25
762.43	237.93
762.76	237.67
763.08	237.62
763.41	237.76
763.74	237.74
764.06	237.65
764.39	237.53
764.71	237.40
765.04	237.19
765.37	237.01
765.69	236.89
766.02	236.90
766.34	236.62
766.67	236.19
767.00	236.33
767.32	236.72
767.65	237.22
767.97	237.00
768.30	237.01
768.62	236.80
768.95	236.60
769.27	236.47
769.60	236.64
769.92	236.42
770.25	236.05
770.57	235.91
770.90	235.78
771.22	235.60
771.55	235.53
771.87	235.45
772.20	235.39
772.52	236.14
772.85	237.15
773.17	237.27
773.50	237.01
773.82	236.79
774.15	236.39
774.47	235.71
774.80	235.64
775.12	235.49
775.45	235.49
775.77	235.52
776.09	235.60
776.42	235.52
776.74	235.79
777.07	235.75
777.39	235.74
777.72	235.65
778.04	235.82
778.36	235.73
778.69	235.80
779.01	235.89
779.33	235.00
779.66	233.85
779.98	233.70
780.31	233.69
780.63	234.02
780.95	234.10
781.28	234.16
781.60	234.03
781.92	234.00
782.25	233.92
782.57	233.79
782.89	233.63
783.22	233.48
783.54	233.25
783.86	233.19
784.19	233.08
784.51	233.38
784.83	233.23
785.16	233.17
785.48	233.17
785.80	233.13
786.12	233.22
786.45	233.24
786.77	233.33
787.09	233.27
787.42	232.82
787.74	232.78
788.06	232.72
788.38	232.67
788.71	232.56
789.03	232.54
789.35	232.62
789.67	232.47
789.99	232.55
790.32	232.47
790.64	232.58
790.96	233.36
791.28	232.96
791.61	232.84
791.93	232.90
792.25	232.78
792.57	233.38
792.89	233.07
793.21	233.06
793.54	232.91
793.86	232.83
794.18	232.87
794.50	232.59
794.82	232.53
795.14	232.60
795.47	232.76
795.79	232.69
796.11	232.41
796.43	232.33
796.75	232.31
797.07	232.27
797.39	232.18
797.71	231.41
798.04	231.47
798.36	231.50
798.68	231.40
799.00	231.45
799.32	230.99
799.64	231.19
799.96	231.15
800.28	231.34
800.60	231.33
800.92	231.41
801.24	231.39
801.56	231.50
801.89	231.40
802.21	231.42
802.53	231.30
802.85	231.59
803.17	232.02
803.49	231.76
803.81	231.61
804.13	231.55
804.45	231.45
804.77	231.50
805.09	231.50
805.41	231.35
805.73	231.05
806.05	230.81
806.37	230.82
806.69	230.73
807.01	230.61
807.33	230.69
807.65	230.31
807.97	230.66
808.28	230.42
808.60	230.40
808.92	230.27
809.24	230.81
809.56	230.60
809.88	230.27
810.20	230.28
810.52	230.42
810.84	230.27
811.16	230.13
811.48	229.96
811.80	230.26
812.12	230.22
812.43	230.51
812.75	230.47
813.07	230.18
813.39	230.16
813.71	230.01
814.03	229.86
814.35	229.85
814.67	229.45
814.98	229.43
815.30	229.46
815.62	229.27
815.94	228.67
816.26	229.10
816.58	228.98
816.89	229.11
817.21	228.96
817.53	229.00
817.85	229.17
818.17	229.14
818.48	228.80
818.80	229.02
819.12	228.83
819.44	228.69
819.76	228.71
820.07	228.69
820.39	228.62
820.71	228.80
821.03	228.91
821.34	228.96
821.66	229.10
821.98	229.12
822.30	229.14
822.61	229.79
822.93	229.34
823.25	229.25
823.57	229.17
823.88	229.32
824.20	229.37
824.52	229.43
824.83	229.40
825.15	229.24
825.47	229.17
825.79	229.32
826.10	229.33
826.42	229.35
826.74	229.57
827.05	229.60
827.37	229.50
827.69	229.44
828.00	229.50
828.32	229.43
828.64	229.36
828.95	229.82
829.27	229.49
829.58	229.47
829.90	229.69
830.22	229.71
830.53	229.61
830.85	229.52
831.17	229.39
831.48	229.37
831.80	229.44
832.11	229.35
832.43	229.25
832.75	229.23
833.06	229.77
833.38	229.40
833.69	229.40
834.01	229.55
834.32	229.58
834.64	229.49
834.96	229.52
835.27	229.52
835.59	229.26
835.90	229.20
836.22	229.24
836.53	229.07
836.85	229.06
837.16	229.94
837.48	230.02
837.79	230.39
838.11	230.50
838.42	230.59
838.74	230.82
839.05	230.76
839.37	230.77
839.68	230.17
840.00	230.20
840.31	230.35
840.63	230.28
840.94	230.11
841.26	229.95
841.57	229.92
841.88	229.91
842.20	229.72
842.51	229.46
842.83	229.48
843.14	230.36
843.46	230.27
843.77	229.64
844.08	229.51
844.40	229.09
844.71	229.03
845.03	228.96
845.34	228.88
845.65	228.77
845.97	228.75
846.28	228.84
846.60	228.87
846.91	228.66
847.22	228.49
847.54	228.70
847.85	228.70
848.16	228.69
848.48	228.50
848.79	228.79
849.10	228.91
849.42	228.90
849.73	227.99
850.04	228.03
850.36	227.84
850.67	228.05
850.98	228.00
851.30	228.00
851.61	227.88
851.92	227.76
852.23	228.08
852.55	228.10
852.86	228.09
853.17	228.16
853.49	228.49
853.80	228.67
854.11	228.67
854.42	228.92
854.74	228.79
855.05	228.99
855.36	228.63
855.67	228.64
855.99	228.72
856.30	229.76
856.61	229.73
856.92	229.62
857.23	229.61
857.55	229.55
857.86	229.53
858.17	229.65
858.48	229.46
858.79	229.28
859.11	229.31
859.42	229.31
859.73	229.20
860.04	229.02
860.35	228.72
860.66	228.49
860.98	228.40
861.29	228.57
861.60	228.36
861.91	228.56
862.22	228.46
862.53	228.24
862.84	227.22
863.16	227.33
863.47	227.27
863.78	227.10
864.09	227.24
864.40	227.23
864.71	227.30
865.02	227.48
865.33	227.31
865.64	227.16
865.95	227.11
866.27	227.72
866.58	227.70
866.89	227.88
867.20	227.83
867.51	227.67
867.82	227.60
868.13	227.94
868.44	227.83
868.75	228.10
869.06	228.15
869.37	228.28
869.68	228.10
869.99	228.29
870.30	228.37
870.61	228.40
870.92	228.27
871.23	228.12
871.54	228.27
871.85	228.56
872.16	228.72
872.47	228.59
872.78	228.03
873.09	228.07
873.40	227.94
873.71	228.09
874.02	228.14
874.33	227.99
874.64	227.77
874.95	227.89
875.26	227.60
875.56	227.60
875.87	227.50
876.18	227.50
876.49	228.52
876.80	228.52
877.11	228.36
877.42	228.54
877.73	228.57
878.04	228.35
878.35	228.30
878.66	228.38
878.96	228.43
879.27	228.46
879.58	228.35
879.89	228.37
880.20	228.60
880.51	228.59
880.82	228.70
881.12	228.70
881.43	228.54
881.74	228.50
882.05	228.43
882.36	228.57
882.67	228.60
882.97	227.53
883.28	227.40
883.59	227.35
883.90	227.41
884.21	227.59
884.51	227.64
884.82	227.53
885.13	227.55
885.44	227.54
885.74	227.49
886.05	227.56
886.36	227.54
886.67	227.21
886.98	227.71
887.28	227.71
887.59	227.75
887.90	227.79
888.20	227.81
888.51	227.91
888.82	227.67
889.13	227.74
889.43	228.42
889.74	228.39
890.05	228.51
890.35	228.33
890.66	228.10
890.97	227.96
891.28	227.89
891.58	227.83
891.89	227.86
892.20	227.77
892.50	227.57
892.81	227.51
893.12	227.49
893.42	227.02
893.73	227.03
894.04	227.02
894.34	227.07
894.65	227.05
894.95	226.92
895.26	227.06
895.57	227.42
895.87	226.54
896.18	226.68
896.48	226.70
896.79	226.79
897.10	226.92
897.40	227.03
897.71	227.18
898.01	227.05
898.32	227.14
898.63	227.15
898.93	227.22
899.24	227.27
899.54	227.20
899.85	227.22
900.15	227.20
900.46	227.26
900.76	227.33
901.07	227.26
901.38	227.33
901.68	227.41
901.99	227.00
902.29	227.14
902.60	227.10
902.90	226.94
903.21	226.88
903.51	226.89
903.82	227.14
904.12	227.08
904.43	227.20
904.73	227.11
905.03	227.14
905.34	228.10
905.64	228.15
905.95	228.16
906.25	228.18
906.56	228.22
906.86	228.16
907.17	228.02
907.47	228.19
907.77	228.08
908.08	227.90
908.38	227.89
908.69	227.98
908.99	228.11
909.30	228.20
909.60	228.16
909.90	228.17
910.21	227.78
910.51	227.68
910.81	227.73
911.12	227.84
911.42	228.03
911.73	227.05
912.03	227.14
912.33	227.37
912.64	227.23
912.94	227.12
913.24	226.98
913.55	226.98
913.85	226.77
914.15	227.02
914.46	227.04
914.76	227.02
915.06	226.85
915.37	226.64
915.67	226.63
915.97	226.67
916.27	226.47
916.58	226.51
916.88	226.54
917.18	226.35
917.49	226.94
917.79	226.74
918.09	226.89
918.39	227.02
918.70	227.01
919.00	227.01
919.30	227.43
919.60	227.53
919.91	227.32
920.21	227.41
920.51	227.17
920.81	227.14
921.12	227.13
921.42	227.17
921.72	227.26
922.02	227.28
922.32	227.39
922.63	227.39
922.93	227.89
923.23	227.83
923.53	227.81
923.83	227.16
924.13	227.31
924.44	227.28
924.74	227.38
925.04	227.49
925.34	227.47
925.64	227.06
925.94	227.03
926.24	227.63
926.55	227.59
926.85	227.80
927.15	227.74
927.45	227.84
927.75	227.80
928.05	227.78
928.35	227.80
928.65	227.93
928.95	228.04
929.26	227.73
929.56	227.94
929.86	228.18
930.16	228.06
930.46	227.92
930.76	227.97
931.06	227.52
931.36	227.29
931.66	227.55
931.96	227.70
932.26	227.72
932.56	227.42
932.86	227.46
933.16	227.41
933.46	227.42
933.76	227.29
934.06	227.54
934.36	227.83
934.66	227.75
934.96	227.65
935.26	227.74
935.56	227.90
935.86	227.66
936.16	227.48
936.46	227.51
936.76	227.46
937.06	227.36
937.36	227.50
937.66	227.64
937.96	227.50
938.26	227.17
938.56	227.11
938.86	227.19
939.16	227.40
939.46	227.53
939.76	227.61
940.06	227.68
940.35	227.44
940.65	227.02
940.95	227.18
941.25	227.00
941.55	226.78
941.85	226.70
942.15	226.94
942.45	227.24
942.75	227.24
943.04	227.28
943.34	227.44
943.64	227.38
943.94	227.15
944.24	227.20
944.54	227.47
944.84	227.45
945.13	227.21
945.43	227.01
945.73	226.85
946.03	226.88
946.33	226.80
946.62	226.75
946.92	226.74
947.22	226.82
947.52	226.82
947.82	227.02
948.11	226.85
948.41	226.65
948.71	226.34
949.01	226.50
949.31	226.59
949.60	226.55
949.90	226.66
950.20	226.75
950.50	226.69
950.79	226.64
951.09	226.76
951.39	226.79
951.69	226.71
951.98	226.98
952.28	227.00
952.58	226.89
952.87	226.92
953.17	227.10
953.47	226.90
953.76	226.98
954.06	226.77
954.36	226.71
954.66	226.72
954.95	226.98
955.25	226.92
955.55	226.92
955.84	226.74
956.14	226.81
956.44	226.91
956.73	226.86
957.03	226.77
957.32	226.71
957.62	226.67
957.92	226.91
958.21	226.76
958.51	227.80
958.81	228.00
959.10	228.07
959.40	228.38
959.69	228.47
959.99	228.57
960.29	228.71
960.58	228.61
960.88	228.89
961.17	228.76
961.47	228.87
961.76	228.65
962.06	228.81
962.36	228.68
962.65	228.64
962.95	228.61
963.24	228.63
963.54	228.75
963.83	228.81
964.13	228.68
964.42	228.45
964.72	227.59
965.01	227.60
965.31	227.56
965.60	227.26
965.90	227.83
966.19	227.59
966.49	227.61
966.78	227.67
967.08	227.69
967.37	227.72
967.67	227.54
967.96	227.87
968.26	227.91
968.55	228.09
968.85	228.05
969.14	228.14
969.43	228.10
969.73	227.95
970.02	227.85
970.32	227.84
970.61	227.78
970.91	227.48
971.20	227.34
971.49	227.40
971.79	227.54
972.08	226.89
972.38	227.05
972.67	226.97
972.96	227.16
973.26	226.90
973.55	227.14
973.85	227.10
974.14	226.95
974.43	227.04
974.73	226.86
975.02	226.77
975.31	226.78
975.61	226.88
975.90	226.86
976.19	226.86
976.49	227.02
976.78	227.12
977.07	227.26
977.37	227.34
977.66	227.25
977.95	227.07
978.24	227.03
978.54	227.17
978.83	227.09
979.12	227.00
979.42	227.02
979.71	226.84
980.00	226.81
980.29	226.84
980.59	226.56
980.88	226.85
981.17	226.85
981.46	226.88
981.76	226.80
982.05	227.06
982.34	227.13
982.63	227.10
982.93	227.17
983.22	227.41
983.51	227.37
983.80	227.66
984.09	227.78
984.39	227.81
984.68	227.68
984.97	227.78
985.26	227.70
985.55	227.77
985.85	227.56
986.14	227.78
986.43	227.92
986.72	227.84
987.01	227.52
987.30	227.47
987.59	227.36
987.89	227.43
988.18	227.18
988.47	227.09
988.76	226.91
989.05	226.75
989.34	226.58
989.63	226.91
989.92	226.60
990.22	226.30
990.51	226.24
990.80	226.10
991.09	226.17
991.38	226.30
991.67	226.11
991.96	226.01
992.25	225.98
992.54	225.73
992.83	225.80
993.12	225.84
993.41	226.00
993.70	226.41
993.99	226.54
994.28	226.76
994.58	226.88
994.87	226.81
995.16	226.84
995.45	226.80
995.74	226.41
996.03	226.63
996.32	226.96
996.61	227.15
996.90	227.12
997.19	227.09
997.48	227.05
997.77	227.03
998.06	227.14
998.34	227.06
998.63	227.03
998.92	227.08
999.21	227.18
999.50	227.17
999.79	226.82
1000.08	226.77
1000.37	226.66
1000.66	226.60
1000.95	226.91
1001.24	226.95
1001.53	226.99
1001.82	227.03
1002.11	226.76
1002.40	226.81
1002.68	227.09
1002.97	227.87
1003.26	227.77
1003.55	227.71
1003.84	227.83
1004.13	228.17
1004.42	228.15
1004.71	228.20
1004.99	228.13
1005.28	228.28
1005.57	228.24
1005.86	228.20
1006.15	228.10
1006.44	228.04
1006.72	228.14
1007.01	227.98
1007.30	228.09
1007.59	228.02
1007.88	227.97
1008.17	228.11
1008.45	227.86
1008.74	227.40
1009.03	226.91
1009.32	227.00
1009.60	226.98
1009.89	226.95
1010.18	226.62
1010.47	226.65
1010.76	226.75
1011.04	226.80
1011.33	226.89
1011.62	227.00
1011.91	227.05
1012.19	227.16
1012.48	227.18
1012.77	227.10
1013.05	227.51
1013.34	227.49
1013.63	227.44
1013.92	227.51
1014.20	227.38
1014.49	227.41
1014.78	227.52
1015.06	227.25
1015.35	227.14
1015.64	227.26
1015.92	227.35
1016.21	227.37
1016.50	227.31
1016.78	227.44
1017.07	227.51
1017.36	227.30
1017.64	227.16
1017.93	227.23
1018.22	227.07
1018.50	226.96
1018.79	226.97
1019.08	226.45
1019.36	226.49
1019.65	226.40
1019.93	226.71
1020.22	226.98
1020.51	227.54
1020.79	227.40
1021.08	225.10
1021.36	224.00
1021.65	226.60
1021.94	225.20
1022.22	227.60
1022.51	224.30
1022.79	233.00
1023.08	229.80
1023.36	238.30
1023.65	223.60
>>>>>End Processed Spectral Data<<<<<
