SpectraSuite Data File
++++++++++++++++++++++++++++++++++++
Date: Wed Sep 04 17:32:09 EDT 2013
User: lab3
Dark Spectrum Present: Yes
Reference Spectrum Present: No
Number of Sampled Component Spectra: 1
Spectrometers: USB2E7196
Integration Time (usec): 337000 (USB2E7196)
Spectra Averaged: 10 (USB2E7196)
Boxcar Smoothing: 10 (USB2E7196)
Correct for Electrical Dark: No (USB2E7196)
Strobe/Lamp Enabled: No (USB2E7196)
Correct for Detector Non-linearity: No (USB2E7196)
Correct for Stray Light: No (USB2E7196)
Number of Pixels in Processed Spectrum: 2048
>>>>>Begin Processed Spectral Data<<<<<
339.09	0.00
339.48	211.80
339.86	213.10
340.24	216.20
340.63	216.10
341.01	234.10
341.39	219.80
341.78	222.10
342.16	224.80
342.54	223.60
342.93	212.96
343.31	223.71
343.69	224.30
344.07	224.83
344.46	225.38
344.84	225.82
345.22	225.34
345.60	225.70
345.99	225.99
346.37	226.14
346.75	226.24
347.13	226.28
347.52	226.28
347.90	226.47
348.28	226.55
348.66	226.73
349.05	226.31
349.43	226.54
349.81	226.71
350.19	226.78
350.57	226.82
350.96	227.00
351.34	226.94
351.72	226.98
352.10	227.06
352.48	227.02
352.87	226.99
353.25	227.13
353.63	227.08
354.01	226.94
354.39	226.92
354.77	227.02
355.15	227.38
355.54	227.26
355.92	227.07
356.30	227.17
356.68	227.83
357.06	227.90
357.44	227.71
357.82	227.73
358.20	228.46
358.58	228.53
358.97	228.56
359.35	228.94
359.73	229.15
360.11	229.22
360.49	229.28
360.87	229.41
361.25	229.55
361.63	229.94
362.01	230.14
362.39	230.07
362.77	230.19
363.15	230.12
363.53	230.25
363.91	230.32
364.29	230.34
364.67	229.56
365.05	229.63
365.43	229.79
365.81	229.89
366.19	229.68
366.57	230.14
366.95	230.10
367.33	229.80
367.71	229.81
368.09	229.91
368.47	229.85
368.85	229.85
369.23	230.01
369.61	229.69
369.99	230.01
370.37	230.23
370.75	230.67
371.13	230.51
371.51	230.43
371.89	230.51
372.27	230.52
372.65	230.48
373.03	230.52
373.41	230.45
373.78	230.40
374.16	229.89
374.54	229.54
374.92	229.44
375.30	229.55
375.68	229.35
376.06	229.43
376.44	229.37
376.82	229.40
377.19	229.39
377.57	229.31
377.95	228.88
378.33	228.70
378.71	228.08
379.09	228.28
379.47	228.31
379.84	228.13
380.22	228.00
380.60	227.74
380.98	227.67
381.36	227.55
381.73	227.30
382.11	227.42
382.49	227.33
382.87	227.23
383.25	227.17
383.62	228.32
384.00	228.05
384.38	228.10
384.76	228.20
385.13	228.37
385.51	228.35
385.89	228.16
386.27	228.19
386.64	228.31
387.02	227.95
387.40	227.81
387.78	227.79
388.15	227.72
388.53	227.74
388.91	227.66
389.29	227.60
389.66	227.79
390.04	227.68
390.42	227.83
390.79	227.90
391.17	227.83
391.55	226.74
391.92	226.72
392.30	226.87
392.68	226.70
393.05	226.61
393.43	226.62
393.81	226.78
394.18	226.60
394.56	226.52
394.94	226.83
395.31	226.87
395.69	227.24
396.06	227.43
396.44	227.64
396.82	227.62
397.19	228.10
397.57	227.98
397.95	228.21
398.32	228.00
398.70	228.15
399.07	228.40
399.45	228.44
399.82	228.58
400.20	228.48
400.58	228.52
400.95	228.16
401.33	228.40
401.70	229.24
402.08	229.50
402.45	229.74
402.83	230.02
403.20	230.27
403.58	230.23
403.95	230.73
404.33	231.01
404.71	231.29
405.08	232.07
405.46	232.38
405.83	232.60
406.21	232.92
406.58	233.29
406.96	233.54
407.33	234.00
407.70	234.53
408.08	235.72
408.45	236.40
408.83	237.11
409.20	237.61
409.58	237.53
409.95	238.21
410.33	238.77
410.70	239.19
411.08	240.00
411.45	240.84
411.82	241.30
412.20	242.40
412.57	243.88
412.95	243.92
413.32	245.08
413.69	246.10
414.07	247.31
414.44	248.47
414.82	249.81
415.19	251.25
415.56	252.77
415.94	253.77
416.31	255.56
416.68	257.51
417.06	259.53
417.43	261.66
417.81	263.89
418.18	266.12
418.55	268.55
418.93	271.03
419.30	273.63
419.67	276.56
420.04	279.26
420.42	282.06
420.79	286.30
421.16	289.99
421.54	294.16
421.91	297.95
422.28	302.01
422.66	306.30
423.03	311.19
423.40	315.53
423.77	320.13
424.15	324.68
424.52	329.52
424.89	335.11
425.26	340.29
425.64	345.44
426.01	350.99
426.38	356.80
426.75	362.99
427.13	369.07
427.50	375.32
427.87	381.82
428.24	388.24
428.61	394.00
428.99	401.19
429.36	408.29
429.73	415.68
430.10	422.89
430.47	430.41
430.85	437.61
431.22	445.75
431.59	455.18
431.96	463.53
432.33	472.73
432.70	481.59
433.08	492.16
433.45	501.81
433.82	511.57
434.19	522.67
434.56	533.42
434.93	543.63
435.30	554.17
435.68	565.82
436.05	577.18
436.42	588.59
436.79	598.83
437.16	610.22
437.53	621.95
437.90	633.85
438.27	645.61
438.64	657.57
439.01	668.97
439.38	678.32
439.75	688.12
440.13	699.27
440.50	709.48
440.87	717.95
441.24	726.82
441.61	736.60
441.98	743.81
442.35	751.69
442.72	760.09
443.09	768.42
443.46	773.33
443.83	776.79
444.20	779.50
444.57	783.40
444.94	785.16
445.31	787.07
445.68	789.93
446.05	790.30
446.42	788.94
446.79	787.50
447.16	786.01
447.53	784.96
447.90	780.41
448.27	775.93
448.64	769.53
449.01	765.19
449.37	757.33
449.74	749.50
450.11	741.04
450.48	731.06
450.85	720.43
451.22	711.41
451.59	703.03
451.96	694.74
452.33	684.25
452.70	674.65
453.07	663.31
453.43	650.70
453.80	639.88
454.17	629.34
454.54	619.14
454.91	608.24
455.28	597.46
455.65	587.44
456.02	578.96
456.38	570.52
456.75	559.93
457.12	551.20
457.49	542.53
457.86	533.98
458.23	527.26
458.59	519.62
458.96	511.92
459.33	504.90
459.70	498.37
460.07	492.72
460.43	486.29
460.80	480.63
461.17	475.59
461.54	470.13
461.91	464.86
462.27	459.49
462.64	454.94
463.01	450.20
463.38	445.84
463.74	439.71
464.11	435.62
464.48	432.15
464.85	428.20
465.21	425.64
465.58	422.33
465.95	418.18
466.32	415.12
466.68	411.92
467.05	409.07
467.42	406.10
467.78	402.99
468.15	400.11
468.52	397.84
468.88	394.86
469.25	392.23
469.62	390.54
469.98	388.31
470.35	386.27
470.72	384.20
471.08	381.69
471.45	380.17
471.82	378.65
472.18	376.64
472.55	375.53
472.92	373.41
473.28	371.95
473.65	370.52
474.02	368.98
474.38	368.02
474.75	366.80
475.11	365.37
475.48	364.45
475.85	363.53
476.21	362.51
476.58	361.63
476.94	361.00
477.31	360.03
477.67	359.40
478.04	358.75
478.41	358.30
478.77	358.90
479.14	358.15
479.50	357.62
479.87	357.35
480.23	356.96
480.60	356.81
480.96	356.50
481.33	356.83
481.69	356.84
482.06	356.84
482.42	357.06
482.79	357.27
483.15	357.38
483.52	357.78
483.88	358.03
484.25	358.28
484.61	358.45
484.98	358.88
485.34	359.70
485.71	360.46
486.07	361.00
486.44	360.72
486.80	361.52
487.17	362.09
487.53	363.30
487.90	364.36
488.26	365.61
488.62	366.78
488.99	367.54
489.35	368.72
489.72	369.70
490.08	370.92
490.44	372.13
490.81	373.80
491.17	375.02
491.54	376.70
491.90	378.47
492.26	380.35
492.63	382.11
492.99	383.66
493.36	385.54
493.72	387.97
494.08	390.34
494.45	392.70
494.81	395.37
495.17	397.58
495.54	399.87
495.90	402.34
496.26	405.21
496.63	408.08
496.99	410.82
497.35	413.99
497.72	416.99
498.08	420.10
498.44	423.08
498.80	426.58
499.17	429.67
499.53	433.02
499.89	436.41
500.26	439.95
500.62	443.58
500.98	447.34
501.34	450.78
501.71	454.46
502.07	458.16
502.43	461.87
502.79	465.75
503.16	469.90
503.52	473.70
503.88	477.18
504.24	481.32
504.60	485.71
504.97	489.99
505.33	494.22
505.69	498.92
506.05	503.31
506.41	507.68
506.78	512.19
507.14	516.53
507.50	521.30
507.86	526.03
508.22	530.81
508.59	535.33
508.95	540.01
509.31	545.17
509.67	549.97
510.03	554.69
510.39	559.36
510.75	564.16
511.12	569.13
511.48	574.16
511.84	579.00
512.20	583.50
512.56	588.45
512.92	593.42
513.28	598.23
513.64	603.18
514.00	608.37
514.37	613.56
514.73	618.86
515.09	623.96
515.45	629.11
515.81	634.21
516.17	639.30
516.53	644.62
516.89	649.38
517.25	654.83
517.61	660.74
517.97	666.40
518.33	671.97
518.69	677.79
519.05	683.84
519.41	689.72
519.77	696.49
520.13	702.25
520.49	708.01
520.85	716.86
521.21	723.25
521.57	729.28
521.93	735.19
522.29	741.37
522.65	747.06
523.01	753.04
523.37	758.70
523.73	765.08
524.09	771.14
524.45	777.16
524.81	783.49
525.17	789.44
525.53	795.69
525.89	801.98
526.25	808.29
526.61	814.13
526.97	820.68
527.33	827.13
527.68	834.41
528.04	841.32
528.40	845.11
528.76	851.67
529.12	858.45
529.48	865.59
529.84	872.28
530.20	879.69
530.56	887.00
530.91	895.03
531.27	902.41
531.63	909.93
531.99	917.47
532.35	924.75
532.71	932.36
533.07	940.20
533.42	948.78
533.78	956.40
534.14	964.46
534.50	972.00
534.86	979.93
535.21	986.76
535.57	994.59
535.93	1001.80
536.29	1009.90
536.65	1017.61
537.00	1025.11
537.36	1032.97
537.72	1040.47
538.08	1048.29
538.44	1055.57
538.79	1063.19
539.15	1070.59
539.51	1078.41
539.87	1085.68
540.22	1092.49
540.58	1099.33
540.94	1105.44
541.29	1112.03
541.65	1118.47
542.01	1125.31
542.37	1131.10
542.72	1137.28
543.08	1142.76
543.44	1149.34
543.79	1154.55
544.15	1160.57
544.51	1167.09
544.87	1173.00
545.22	1178.67
545.58	1184.20
545.94	1189.34
546.29	1194.27
546.65	1198.91
547.01	1203.59
547.36	1208.67
547.72	1213.82
548.07	1218.50
548.43	1223.05
548.79	1227.77
549.14	1232.39
549.50	1236.89
549.86	1241.07
550.21	1245.69
550.57	1250.40
550.92	1254.33
551.28	1258.58
551.64	1262.45
551.99	1266.17
552.35	1269.80
552.70	1273.58
553.06	1277.30
553.41	1281.37
553.77	1285.65
554.13	1289.65
554.48	1293.54
554.84	1297.02
555.19	1300.69
555.55	1305.41
555.90	1308.46
556.26	1311.47
556.61	1314.40
556.97	1316.11
557.32	1319.10
557.68	1322.02
558.03	1324.76
558.39	1327.16
558.74	1329.83
559.10	1331.73
559.45	1333.28
559.81	1335.09
560.16	1336.40
560.52	1337.50
560.87	1338.90
561.23	1339.76
561.58	1342.00
561.94	1342.53
562.29	1343.12
562.64	1343.91
563.00	1342.98
563.35	1343.98
563.71	1344.56
564.06	1344.96
564.42	1346.65
564.77	1347.59
565.12	1348.25
565.48	1349.84
565.83	1350.86
566.19	1351.39
566.54	1351.86
566.89	1352.38
567.25	1353.28
567.60	1354.83
567.96	1356.14
568.31	1356.84
568.66	1357.22
569.02	1356.25
569.37	1356.46
569.72	1356.80
570.08	1356.68
570.43	1356.24
570.78	1355.86
571.14	1355.39
571.49	1354.79
571.84	1353.75
572.20	1352.30
572.55	1350.90
572.90	1348.12
573.26	1346.27
573.61	1344.30
573.96	1342.80
574.31	1340.69
574.67	1338.20
575.02	1335.08
575.37	1331.76
575.72	1328.21
576.08	1325.57
576.43	1322.70
576.78	1319.68
577.13	1316.28
577.49	1313.06
577.84	1310.99
578.19	1308.10
578.54	1305.50
578.90	1302.70
579.25	1299.86
579.60	1296.87
579.95	1293.60
580.30	1290.61
580.66	1287.31
581.01	1283.69
581.36	1279.83
581.71	1276.75
582.06	1273.77
582.42	1270.28
582.77	1267.13
583.12	1264.24
583.47	1260.72
583.82	1257.24
584.17	1254.10
584.53	1251.38
584.88	1247.48
585.23	1243.40
585.58	1238.79
585.93	1234.30
586.28	1230.35
586.63	1225.78
586.98	1221.50
587.34	1217.29
587.69	1213.11
588.04	1209.40
588.39	1205.70
588.74	1201.70
589.09	1197.87
589.44	1192.92
589.79	1189.10
590.14	1185.01
590.49	1180.80
590.84	1176.51
591.19	1173.10
591.54	1168.84
591.89	1163.90
592.25	1161.00
592.60	1156.92
592.95	1153.08
593.30	1149.01
593.65	1144.57
594.00	1139.86
594.35	1138.41
594.70	1133.98
595.05	1129.66
595.40	1124.77
595.75	1119.94
596.10	1115.57
596.45	1110.85
596.80	1106.76
597.15	1102.02
597.50	1096.99
597.85	1092.69
598.19	1087.87
598.54	1082.68
598.89	1078.03
599.24	1074.02
599.59	1068.61
599.94	1064.06
600.29	1059.74
600.64	1055.29
600.99	1050.68
601.34	1046.80
601.69	1039.80
602.04	1035.76
602.39	1031.67
602.74	1027.69
603.08	1023.54
603.43	1019.62
603.78	1015.54
604.13	1011.01
604.48	1006.75
604.83	1002.49
605.18	997.67
605.53	993.45
605.87	989.42
606.22	985.62
606.57	981.19
606.92	976.80
607.27	972.78
607.62	968.45
607.96	964.40
608.31	960.84
608.66	956.77
609.01	952.44
609.36	948.24
609.70	943.54
610.05	939.12
610.40	935.24
610.75	930.80
611.10	926.24
611.44	921.81
611.79	917.46
612.14	913.62
612.49	909.47
612.83	905.66
613.18	901.39
613.53	896.75
613.88	892.16
614.22	887.72
614.57	883.05
614.92	878.72
615.27	874.38
615.61	869.54
615.96	865.42
616.31	861.14
616.65	856.92
617.00	852.92
617.35	848.73
617.70	844.30
618.04	839.92
618.39	835.51
618.74	832.09
619.08	827.85
619.43	823.70
619.78	819.06
620.12	814.20
620.47	809.67
620.82	805.24
621.16	801.26
621.51	797.47
621.85	793.49
622.20	789.41
622.55	785.23
622.89	781.29
623.24	777.38
623.59	773.20
623.93	769.21
624.28	765.09
624.62	762.28
624.97	758.90
625.32	755.19
625.66	751.30
626.01	746.76
626.35	743.01
626.70	738.88
627.04	735.90
627.39	732.39
627.73	729.14
628.08	725.67
628.43	721.73
628.77	717.86
629.12	714.07
629.46	710.82
629.81	707.74
630.15	704.42
630.50	700.47
630.84	696.90
631.19	693.42
631.53	690.19
631.88	685.62
632.22	681.74
632.57	678.65
632.91	675.38
633.26	672.31
633.60	668.90
633.95	665.52
634.29	661.48
634.64	658.05
634.98	654.09
635.32	650.76
635.67	647.97
636.01	644.69
636.36	641.37
636.70	637.98
637.05	634.40
637.39	631.10
637.73	628.27
638.08	625.54
638.42	622.03
638.77	618.83
639.11	615.30
639.45	611.74
639.80	608.02
640.14	604.72
640.49	601.41
640.83	598.30
641.17	595.34
641.52	592.53
641.86	589.62
642.20	587.36
642.55	584.24
642.89	581.06
643.23	578.13
643.58	575.57
643.92	572.32
644.26	569.44
644.61	566.75
644.95	563.67
645.29	560.42
645.64	557.70
645.98	554.69
646.32	552.20
646.66	549.31
647.01	546.43
647.35	543.94
647.69	541.45
648.04	538.75
648.38	536.02
648.72	533.33
649.06	530.42
649.41	527.27
649.75	524.34
650.09	521.63
650.43	518.92
650.78	515.86
651.12	513.49
651.46	510.79
651.80	507.99
652.14	505.34
652.49	503.05
652.83	500.48
653.17	497.78
653.51	495.24
653.85	493.26
654.20	491.07
654.54	488.47
654.88	485.67
655.22	483.78
655.56	481.52
655.90	479.29
656.25	477.13
656.59	475.08
656.93	473.04
657.27	471.06
657.61	468.60
657.95	466.47
658.29	464.03
658.64	461.87
658.98	459.61
659.32	457.19
659.66	454.88
660.00	452.88
660.34	450.94
660.68	448.68
661.02	446.31
661.36	444.15
661.70	442.13
662.05	440.28
662.39	438.10
662.73	436.10
663.07	434.64
663.41	432.77
663.75	430.62
664.09	428.73
664.43	426.53
664.77	424.62
665.11	422.80
665.45	421.16
665.79	419.35
666.13	417.36
666.47	415.64
666.81	413.69
667.15	411.68
667.49	410.02
667.83	408.65
668.17	407.10
668.51	405.58
668.85	404.01
669.19	402.94
669.53	401.19
669.87	399.37
670.21	397.27
670.55	395.64
670.89	394.42
671.23	392.82
671.57	391.33
671.91	389.81
672.25	388.20
672.58	386.72
672.92	385.05
673.26	383.65
673.60	382.24
673.94	380.92
674.28	379.61
674.62	378.24
674.96	376.66
675.30	375.27
675.64	373.77
675.97	372.29
676.31	370.37
676.65	368.70
676.99	367.71
677.33	366.20
677.67	364.89
678.01	363.08
678.34	361.80
678.68	360.58
679.02	359.28
679.36	357.93
679.70	356.61
680.04	355.43
680.37	354.25
680.71	353.08
681.05	351.93
681.39	350.60
681.73	349.27
682.06	348.06
682.40	346.73
682.74	345.60
683.08	344.80
683.42	343.68
683.75	342.72
684.09	341.39
684.43	340.52
684.77	339.37
685.10	338.38
685.44	337.31
685.78	336.02
686.12	334.89
686.45	333.82
686.79	332.76
687.13	331.94
687.46	330.80
687.80	329.84
688.14	328.74
688.48	327.81
688.81	326.83
689.15	326.09
689.49	325.07
689.82	324.08
690.16	322.62
690.50	321.73
690.83	320.76
691.17	319.71
691.51	318.59
691.84	317.63
692.18	316.70
692.52	315.74
692.85	315.10
693.19	314.66
693.52	313.78
693.86	312.85
694.20	311.77
694.53	311.07
694.87	310.07
695.21	309.09
695.54	308.36
695.88	307.48
696.21	306.24
696.55	305.56
696.88	304.81
697.22	304.03
697.56	303.17
697.89	302.20
698.23	301.47
698.56	300.66
698.90	300.01
699.23	299.15
699.57	298.56
699.90	297.60
700.24	296.59
700.58	295.88
700.91	295.28
701.25	295.41
701.58	295.39
701.92	295.05
702.25	294.51
702.59	293.55
702.92	292.95
703.26	292.50
703.59	291.85
703.93	291.93
704.26	291.40
704.60	290.82
704.93	290.20
705.26	289.50
705.60	289.05
705.93	288.16
706.27	287.95
706.60	287.54
706.94	287.45
707.27	286.89
707.61	286.50
707.94	285.75
708.27	284.40
708.61	282.99
708.94	282.33
709.28	281.66
709.61	281.09
709.94	280.60
710.28	279.98
710.61	279.30
710.95	278.00
711.28	278.17
711.61	277.54
711.95	277.28
712.28	276.64
712.61	275.99
712.95	275.96
713.28	275.59
713.61	274.73
713.95	273.87
714.28	273.32
714.61	272.67
714.95	272.20
715.28	271.60
715.61	271.20
715.95	270.73
716.28	270.26
716.61	270.00
716.95	269.32
717.28	268.90
717.61	268.46
717.94	267.97
718.28	266.77
718.61	266.37
718.94	265.75
719.27	265.41
719.61	265.20
719.94	264.60
720.27	263.74
720.60	263.39
720.94	262.95
721.27	262.70
721.60	262.46
721.93	262.10
722.27	262.13
722.60	261.93
722.93	261.37
723.26	261.14
723.59	260.75
723.93	260.69
724.26	260.41
724.59	260.13
724.92	259.81
725.25	259.73
725.59	259.40
725.92	259.28
726.25	259.03
726.58	258.72
726.91	258.46
727.24	258.40
727.57	258.08
727.91	257.69
728.24	257.49
728.57	257.20
728.90	257.03
729.23	256.44
729.56	256.62
729.89	256.46
730.22	256.10
730.55	255.82
730.89	255.42
731.22	255.07
731.55	254.69
731.88	254.50
732.21	254.13
732.54	253.83
732.87	253.44
733.20	253.22
733.53	252.99
733.86	252.90
734.19	252.50
734.52	252.40
734.85	252.84
735.18	252.45
735.51	252.46
735.84	252.26
736.17	252.31
736.50	251.56
736.83	252.48
737.16	252.24
737.49	252.07
737.82	251.82
738.15	251.80
738.48	251.71
738.81	251.41
739.14	251.06
739.47	250.87
739.80	250.70
740.13	250.49
740.46	250.05
740.79	249.60
741.12	249.31
741.45	248.95
741.78	248.18
742.11	248.17
742.44	247.76
742.77	247.65
743.10	247.27
743.43	246.99
743.75	245.70
744.08	246.88
744.41	246.65
744.74	246.42
745.07	245.95
745.40	245.84
745.73	246.08
746.06	245.95
746.39	245.92
746.71	245.66
747.04	245.43
747.37	245.25
747.70	245.32
748.03	245.28
748.36	245.28
748.68	245.18
749.01	244.80
749.34	244.60
749.67	244.50
750.00	244.38
750.33	244.93
750.65	244.89
750.98	243.36
751.31	243.14
751.64	243.13
751.97	243.59
752.29	243.31
752.62	242.70
752.95	242.45
753.28	242.08
753.60	241.99
753.93	242.00
754.26	241.93
754.59	241.50
754.91	241.21
755.24	240.90
755.57	240.76
755.90	240.68
756.22	240.48
756.55	240.12
756.88	239.92
757.20	239.13
757.53	238.73
757.86	238.70
758.19	238.74
758.51	238.56
758.84	237.93
759.17	237.90
759.49	237.85
759.82	238.29
760.15	238.38
760.47	238.28
760.80	237.99
761.13	238.14
761.45	238.05
761.78	238.02
762.11	238.06
762.43	237.93
762.76	237.84
763.08	237.74
763.41	237.86
763.74	237.81
764.06	237.73
764.39	237.66
764.71	237.61
765.04	237.42
765.37	237.24
765.69	237.19
766.02	237.09
766.34	237.00
766.67	236.64
767.00	236.68
767.32	237.12
767.65	237.63
767.97	237.45
768.30	237.43
768.62	237.38
768.95	237.28
769.27	237.22
769.60	237.17
769.92	237.09
770.25	236.84
770.57	236.66
770.90	236.61
771.22	236.53
771.55	236.50
771.87	236.43
772.20	236.38
772.52	237.02
772.85	238.12
773.17	238.13
773.50	237.87
773.82	237.61
774.15	237.06
774.47	236.32
774.80	236.05
775.12	236.00
775.45	235.84
775.77	235.86
776.09	235.88
776.42	235.82
776.74	236.02
777.07	235.88
777.39	235.78
777.72	235.66
778.04	235.71
778.36	235.49
778.69	235.50
779.01	235.53
779.33	234.70
779.66	233.50
779.98	233.33
780.31	233.30
780.63	233.67
780.95	233.70
781.28	233.78
781.60	233.73
781.92	233.60
782.25	233.56
782.57	233.43
782.89	233.23
783.22	233.12
783.54	232.85
783.86	232.85
784.19	232.75
784.51	232.84
784.83	232.71
785.16	232.55
785.48	232.43
785.80	232.34
786.12	232.44
786.45	232.41
786.77	232.39
787.09	232.29
787.42	231.86
787.74	231.88
788.06	231.81
788.38	231.71
788.71	231.56
789.03	231.50
789.35	231.57
789.67	231.41
789.99	231.48
790.32	231.33
790.64	231.34
790.96	232.19
791.28	231.88
791.61	231.81
791.93	231.88
792.25	231.81
792.57	232.50
792.89	232.23
793.21	232.18
793.54	232.11
793.86	231.94
794.18	231.99
794.50	231.73
794.82	231.65
795.14	231.74
795.47	231.94
795.79	232.01
796.11	231.68
796.43	231.69
796.75	231.51
797.07	231.60
797.39	231.65
797.71	230.81
798.04	230.89
798.36	230.89
798.68	230.89
799.00	230.95
799.32	230.27
799.64	230.50
799.96	230.53
800.28	230.63
800.60	230.80
800.92	230.83
801.24	230.89
801.56	231.00
801.89	231.02
802.21	231.03
802.53	230.84
802.85	231.14
803.17	231.50
803.49	231.33
803.81	231.24
804.13	231.08
804.45	231.15
804.77	231.21
805.09	231.20
805.41	231.07
805.73	230.92
806.05	230.85
806.37	230.67
806.69	230.58
807.01	230.57
807.33	230.55
807.65	230.11
807.97	230.46
808.28	230.37
808.60	230.34
808.92	230.39
809.24	231.02
809.56	230.91
809.88	230.70
810.20	230.86
810.52	231.07
810.84	230.98
811.16	230.75
811.48	230.73
811.80	231.01
812.12	231.10
812.43	231.28
812.75	231.35
813.07	231.35
813.39	231.37
813.71	231.23
814.03	231.12
814.35	231.25
814.67	230.99
814.98	230.88
815.30	230.78
815.62	230.50
815.94	229.87
816.26	230.29
816.58	230.01
816.89	230.04
817.21	229.82
817.53	229.89
817.85	229.97
818.17	229.92
818.48	229.57
818.80	229.74
819.12	229.63
819.44	229.45
819.76	229.26
820.07	229.34
820.39	229.29
820.71	229.36
821.03	229.44
821.34	229.37
821.66	229.43
821.98	229.51
822.30	229.40
822.61	229.98
822.93	229.41
823.25	229.49
823.57	229.40
823.88	229.53
824.20	229.49
824.52	229.63
824.83	229.69
825.15	229.52
825.47	229.41
825.79	229.48
826.10	229.40
826.42	229.41
826.74	229.30
827.05	229.37
827.37	229.38
827.69	229.24
828.00	229.20
828.32	229.19
828.64	229.06
828.95	229.58
829.27	229.29
829.58	229.32
829.90	229.42
830.22	229.44
830.53	229.25
830.85	229.19
831.17	229.01
831.48	228.91
831.80	229.02
832.11	228.92
832.43	228.72
832.75	228.72
833.06	229.29
833.38	229.10
833.69	228.94
834.01	228.91
834.32	228.94
834.64	228.77
834.96	228.72
835.27	228.71
835.59	228.43
835.90	228.27
836.22	228.17
836.53	227.96
836.85	227.97
837.16	228.79
837.48	228.75
837.79	229.02
838.11	229.11
838.42	229.02
838.74	229.15
839.05	229.17
839.37	229.16
839.68	228.60
840.00	228.63
840.31	228.78
840.63	228.65
840.94	228.49
841.26	228.53
841.57	228.50
841.88	228.69
842.20	228.59
842.51	228.46
842.83	228.58
843.14	229.40
843.46	229.38
843.77	228.96
844.08	228.88
844.40	228.55
844.71	228.43
845.03	228.36
845.34	228.37
845.65	228.26
845.97	228.32
846.28	228.40
846.60	228.46
846.91	228.28
847.22	228.34
847.54	228.64
847.85	228.59
848.16	228.67
848.48	228.37
848.79	228.83
849.10	229.06
849.42	229.05
849.73	228.24
850.04	228.19
850.36	227.86
850.67	228.03
850.98	228.06
851.30	228.09
851.61	228.12
851.92	228.02
852.23	228.41
852.55	228.48
852.86	228.44
853.17	228.50
853.49	228.73
853.80	228.83
854.11	228.89
854.42	229.05
854.74	228.91
855.05	228.97
855.36	228.35
855.67	228.22
855.99	228.30
856.30	229.44
856.61	229.35
856.92	229.38
857.23	229.40
857.55	229.23
857.86	229.27
858.17	229.41
858.48	229.27
858.79	229.02
859.11	229.13
859.42	229.07
859.73	228.94
860.04	228.84
860.35	228.61
860.66	228.26
860.98	228.19
861.29	228.30
861.60	228.26
861.91	228.52
862.22	228.43
862.53	228.20
862.84	227.03
863.16	227.29
863.47	227.06
863.78	226.99
864.09	227.20
864.40	227.19
864.71	227.18
865.02	227.30
865.33	227.26
865.64	227.00
865.95	227.07
866.27	227.64
866.58	227.53
866.89	227.74
867.20	227.74
867.51	227.51
867.82	227.48
868.13	227.88
868.44	227.68
868.75	227.87
869.06	228.01
869.37	228.13
869.68	227.87
869.99	228.19
870.30	228.23
870.61	228.29
870.92	228.12
871.23	228.16
871.54	228.24
871.85	228.39
872.16	228.50
872.47	228.53
872.78	228.01
873.09	228.19
873.40	228.10
873.71	228.24
874.02	228.39
874.33	228.27
874.64	228.08
874.95	228.34
875.26	228.10
875.56	228.02
875.87	227.94
876.18	228.03
876.49	228.84
876.80	228.65
877.11	228.50
877.42	228.60
877.73	228.60
878.04	228.54
878.35	228.63
878.66	228.67
878.96	228.52
879.27	228.53
879.58	228.54
879.89	228.45
880.20	228.79
880.51	228.83
880.82	228.90
881.12	228.94
881.43	228.65
881.74	228.61
882.05	228.60
882.36	228.61
882.67	228.65
882.97	227.65
883.28	227.73
883.59	227.74
883.90	227.80
884.21	227.80
884.51	227.68
884.82	227.44
885.13	227.41
885.44	227.48
885.74	227.54
886.05	227.44
886.36	227.45
886.67	227.08
886.98	227.44
887.28	227.52
887.59	227.44
887.90	227.58
888.20	227.58
888.51	227.73
888.82	227.64
889.13	227.71
889.43	228.48
889.74	228.42
890.05	228.45
890.35	228.29
890.66	228.22
890.97	228.25
891.28	228.20
891.58	228.33
891.89	228.25
892.20	228.11
892.50	228.03
892.81	228.00
893.12	227.96
893.42	227.60
893.73	227.71
894.04	227.75
894.34	227.73
894.65	227.70
894.95	227.54
895.26	227.57
895.57	228.07
895.87	227.22
896.18	227.41
896.48	227.36
896.79	227.41
897.10	227.48
897.40	227.47
897.71	227.45
898.01	227.26
898.32	227.35
898.63	227.31
898.93	227.43
899.24	227.47
899.54	227.44
899.85	227.32
900.15	227.21
900.46	227.22
900.76	227.36
901.07	227.37
901.38	227.27
901.68	227.43
901.99	226.88
902.29	227.03
902.60	226.84
902.90	226.81
903.21	226.84
903.51	226.82
903.82	227.01
904.12	227.07
904.43	227.10
904.73	227.13
905.03	227.14
905.34	228.00
905.64	227.97
905.95	228.03
906.25	228.03
906.56	227.94
906.86	227.82
907.17	227.68
907.47	227.73
907.77	227.87
908.08	227.64
908.38	227.63
908.69	227.56
908.99	227.73
909.30	227.79
909.60	227.81
909.90	227.78
910.21	227.50
910.51	227.32
910.81	227.32
911.12	227.40
911.42	227.34
911.73	226.38
912.03	226.47
912.33	226.55
912.64	226.54
912.94	226.50
913.24	226.35
913.55	226.30
913.85	226.23
914.15	226.35
914.46	226.43
914.76	226.30
915.06	226.27
915.37	226.06
915.67	225.96
915.97	225.94
916.27	225.73
916.58	225.80
916.88	225.85
917.18	225.79
917.49	226.27
917.79	226.38
918.09	226.49
918.39	226.60
918.70	226.60
919.00	226.66
919.30	227.07
919.60	227.07
919.91	226.95
920.21	226.99
920.51	226.80
920.81	226.77
921.12	226.97
921.42	226.92
921.72	227.14
922.02	227.26
922.32	227.42
922.63	227.50
922.93	227.93
923.23	228.04
923.53	227.96
923.83	227.38
924.13	227.49
924.44	227.50
924.74	227.65
925.04	227.95
925.34	227.94
925.64	227.51
925.94	227.60
926.24	228.19
926.55	228.16
926.85	228.30
927.15	228.30
927.45	228.27
927.75	228.36
928.05	228.38
928.35	228.30
928.65	228.43
928.95	228.67
929.26	228.29
929.56	228.52
929.86	228.73
930.16	228.73
930.46	228.68
930.76	228.71
931.06	228.41
931.36	228.10
931.66	228.30
931.96	228.42
932.26	228.50
932.56	228.01
932.86	228.08
933.16	227.98
933.46	227.86
933.76	227.77
934.06	227.89
934.36	228.26
934.66	228.14
934.96	228.01
935.26	228.00
935.56	228.12
935.86	227.90
936.16	227.72
936.46	227.60
936.76	227.55
937.06	227.46
937.36	227.40
937.66	227.40
937.96	227.27
938.26	227.09
938.56	227.03
938.86	227.19
939.16	227.37
939.46	227.51
939.76	227.70
940.06	227.66
940.35	227.47
940.65	226.93
940.95	227.15
941.25	226.84
941.55	226.72
941.85	226.66
942.15	226.77
942.45	227.04
942.75	227.10
943.04	227.15
943.34	227.24
943.64	227.31
943.94	227.20
944.24	227.24
944.54	227.40
944.84	227.23
945.13	227.08
945.43	226.93
945.73	226.96
946.03	226.85
946.33	226.79
946.62	226.76
946.92	226.75
947.22	226.75
947.52	226.90
947.82	227.04
948.11	227.05
948.41	226.72
948.71	226.47
949.01	226.59
949.31	226.57
949.60	226.50
949.90	226.59
950.20	226.54
950.50	226.53
950.79	226.40
951.09	226.65
951.39	226.64
951.69	226.55
951.98	226.71
952.28	226.72
952.58	226.74
952.87	226.72
953.17	226.85
953.47	226.76
953.76	226.75
954.06	226.56
954.36	226.40
954.66	226.53
954.95	226.73
955.25	226.78
955.55	226.89
955.84	226.85
956.14	226.97
956.44	226.99
956.73	226.87
957.03	227.00
957.32	226.97
957.62	226.90
957.92	227.13
958.21	226.99
958.51	228.00
958.81	228.15
959.10	228.32
959.40	228.52
959.69	228.61
959.99	228.74
960.29	228.69
960.58	228.70
960.88	229.15
961.17	229.06
961.47	229.13
961.76	229.03
962.06	229.13
962.36	228.97
962.65	229.13
962.95	229.15
963.24	229.05
963.54	229.11
963.83	229.34
964.13	229.25
964.42	229.01
964.72	228.35
965.01	228.36
965.31	228.23
965.60	228.10
965.90	228.64
966.19	228.42
966.49	228.58
966.78	228.56
967.08	228.45
967.37	228.47
967.67	228.29
967.96	228.40
968.26	228.37
968.55	228.50
968.85	228.43
969.14	228.44
969.43	228.48
969.73	228.35
970.02	228.21
970.32	228.16
970.61	228.23
970.91	227.92
971.20	227.78
971.49	227.75
971.79	227.79
972.08	227.16
972.38	227.34
972.67	227.30
972.96	227.38
973.26	227.09
973.55	227.45
973.85	227.38
974.14	227.23
974.43	227.26
974.73	227.14
975.02	227.05
975.31	227.00
975.61	226.98
975.90	226.92
976.19	226.90
976.49	226.90
976.78	226.87
977.07	226.90
977.37	227.05
977.66	227.10
977.95	226.95
978.24	227.06
978.54	227.20
978.83	227.14
979.12	227.09
979.42	227.14
979.71	226.77
980.00	226.82
980.29	226.91
980.59	226.75
980.88	226.92
981.17	226.77
981.46	226.80
981.76	226.76
982.05	227.13
982.34	227.13
982.63	227.20
982.93	227.18
983.22	227.41
983.51	227.38
983.80	227.57
984.09	227.64
984.39	227.55
984.68	227.30
984.97	227.35
985.26	227.27
985.55	227.32
985.85	227.22
986.14	227.28
986.43	227.30
986.72	227.31
987.01	227.06
987.30	227.17
987.59	227.09
987.89	227.10
988.18	226.75
988.47	226.64
988.76	226.56
989.05	226.55
989.34	226.38
989.63	226.58
989.92	226.42
990.22	226.38
990.51	226.27
990.80	226.30
991.09	226.39
991.38	226.53
991.67	226.44
991.96	226.38
992.25	226.33
992.54	226.18
992.83	226.19
993.12	226.21
993.41	226.43
993.70	226.89
993.99	227.08
994.28	227.29
994.58	227.56
994.87	227.44
995.16	227.39
995.45	227.35
995.74	227.03
996.03	227.19
996.32	227.32
996.61	227.60
996.90	227.51
997.19	227.49
997.48	227.54
997.77	227.50
998.06	227.57
998.34	227.55
998.63	227.50
998.92	227.56
999.21	227.71
999.50	227.71
999.79	227.36
1000.08	227.38
1000.37	227.35
1000.66	227.15
1000.95	227.44
1001.24	227.55
1001.53	227.70
1001.82	227.59
1002.11	227.33
1002.40	227.33
1002.68	227.55
1002.97	228.29
1003.26	228.10
1003.55	227.85
1003.84	227.90
1004.13	228.25
1004.42	228.15
1004.71	228.17
1004.99	228.12
1005.28	228.34
1005.57	228.19
1005.86	228.16
1006.15	228.06
1006.44	227.88
1006.72	228.02
1007.01	227.81
1007.30	227.76
1007.59	227.58
1007.88	227.70
1008.17	227.79
1008.45	227.71
1008.74	227.28
1009.03	226.82
1009.32	226.91
1009.60	226.99
1009.89	226.88
1010.18	226.48
1010.47	226.51
1010.76	226.58
1011.04	226.54
1011.33	226.52
1011.62	226.64
1011.91	226.73
1012.19	226.72
1012.48	226.66
1012.77	226.61
1013.05	227.04
1013.34	227.06
1013.63	227.05
1013.92	227.03
1014.20	226.97
1014.49	226.98
1014.78	227.14
1015.06	226.86
1015.35	226.87
1015.64	226.91
1015.92	227.16
1016.21	227.11
1016.50	227.11
1016.78	227.25
1017.07	227.32
1017.36	227.04
1017.64	226.90
1017.93	226.86
1018.22	226.70
1018.50	226.78
1018.79	226.85
1019.08	226.43
1019.36	226.57
1019.65	226.48
1019.93	226.81
1020.22	227.00
1020.51	227.46
1020.79	227.23
1021.08	223.60
1021.36	225.90
1021.65	228.70
1021.94	226.30
1022.22	229.00
1022.51	224.60
1022.79	232.00
1023.08	229.90
1023.36	238.00
1023.65	223.60
>>>>>End Processed Spectral Data<<<<<
