SpectraSuite Data File
++++++++++++++++++++++++++++++++++++
Date: Wed Sep 04 17:30:22 EDT 2013
User: lab3
Dark Spectrum Present: Yes
Reference Spectrum Present: No
Number of Sampled Component Spectra: 1
Spectrometers: USB2E7196
Integration Time (usec): 337000 (USB2E7196)
Spectra Averaged: 10 (USB2E7196)
Boxcar Smoothing: 10 (USB2E7196)
Correct for Electrical Dark: No (USB2E7196)
Strobe/Lamp Enabled: No (USB2E7196)
Correct for Detector Non-linearity: No (USB2E7196)
Correct for Stray Light: No (USB2E7196)
Number of Pixels in Processed Spectrum: 2048
>>>>>Begin Processed Spectral Data<<<<<
339.09	0.00
339.48	211.20
339.86	215.20
340.24	214.60
340.63	216.20
341.01	232.50
341.39	221.00
341.78	223.20
342.16	224.90
342.54	224.20
342.93	213.28
343.31	224.00
343.69	224.61
344.07	225.06
344.46	225.71
344.84	226.21
345.22	225.82
345.60	226.05
345.99	226.29
346.37	226.39
346.75	226.49
347.13	226.52
347.52	226.58
347.90	226.92
348.28	227.00
348.66	227.29
349.05	226.98
349.43	227.28
349.81	227.24
350.19	227.22
350.57	227.17
350.96	227.26
351.34	227.38
351.72	227.48
352.10	227.62
352.48	227.43
352.87	227.40
353.25	227.57
353.63	227.55
354.01	227.55
354.39	227.58
354.77	227.56
355.15	227.94
355.54	227.92
355.92	227.66
356.30	227.67
356.68	228.27
357.06	228.44
357.44	228.16
357.82	228.31
358.20	229.14
358.58	229.21
358.97	229.25
359.35	229.45
359.73	229.74
360.11	229.79
360.49	230.06
360.87	230.05
361.25	230.15
361.63	230.58
362.01	230.62
362.39	230.69
362.77	230.90
363.15	230.82
363.53	230.80
363.91	230.92
364.29	230.95
364.67	230.02
365.05	230.00
365.43	230.16
365.81	230.17
366.19	230.00
366.57	230.41
366.95	230.43
367.33	230.16
367.71	230.10
368.09	230.26
368.47	230.14
368.85	230.26
369.23	230.47
369.61	230.13
369.99	230.37
370.37	230.39
370.75	230.87
371.13	230.64
371.51	230.54
371.89	230.55
372.27	230.66
372.65	230.73
373.03	230.78
373.41	230.79
373.78	230.78
374.16	230.21
374.54	229.96
374.92	229.84
375.30	229.90
375.68	229.70
376.06	229.59
376.44	229.52
376.82	229.41
377.19	229.22
377.57	229.18
377.95	228.84
378.33	228.80
378.71	228.09
379.09	228.15
379.47	228.28
379.84	228.12
380.22	228.00
380.60	227.88
380.98	227.68
381.36	227.56
381.73	227.37
382.11	227.45
382.49	227.43
382.87	227.27
383.25	227.17
383.62	228.29
384.00	228.19
384.38	228.10
384.76	228.40
385.13	228.77
385.51	228.74
385.89	228.60
386.27	228.58
386.64	228.74
387.02	228.71
387.40	228.58
387.78	228.66
388.15	228.68
388.53	228.60
388.91	228.67
389.29	228.68
389.66	228.83
390.04	228.72
390.42	228.90
390.79	228.92
391.17	228.96
391.55	227.93
391.92	227.87
392.30	228.10
392.68	227.82
393.05	227.71
393.43	227.79
393.81	227.97
394.18	227.78
394.56	227.86
394.94	228.12
395.31	228.11
395.69	228.42
396.06	228.50
396.44	228.63
396.82	228.59
397.19	229.11
397.57	229.11
397.95	229.36
398.32	229.13
398.70	229.37
399.07	229.74
399.45	229.79
399.82	229.87
400.20	229.90
400.58	229.91
400.95	229.75
401.33	230.09
401.70	230.85
402.08	231.19
402.45	231.30
402.83	231.60
403.20	231.86
403.58	231.92
403.95	232.37
404.33	232.76
404.71	233.22
405.08	233.91
405.46	234.24
405.83	234.63
406.21	235.01
406.58	235.55
406.96	235.90
407.33	236.42
407.70	237.11
408.08	238.28
408.45	239.18
408.83	239.99
409.20	240.46
409.58	240.63
409.95	241.52
410.33	242.36
410.70	243.03
411.08	244.01
411.45	245.10
411.82	245.85
412.20	247.01
412.57	248.58
412.95	249.07
413.32	250.50
413.69	251.81
414.07	253.37
414.44	255.08
414.82	256.81
415.19	259.04
415.56	261.01
415.94	262.87
416.31	265.37
416.68	267.79
417.06	270.64
417.43	273.62
417.81	276.69
418.18	280.01
418.55	283.42
418.93	286.99
419.30	290.56
419.67	294.62
420.04	298.82
420.42	302.93
420.79	308.54
421.16	313.78
421.54	319.46
421.91	325.02
422.28	330.53
422.66	336.60
423.03	342.84
423.40	349.11
423.77	355.41
424.15	361.90
424.52	368.92
424.89	376.75
425.26	384.01
425.64	391.03
426.01	398.78
426.38	406.90
426.75	415.46
427.13	424.16
427.50	433.00
427.87	442.30
428.24	451.69
428.61	460.18
428.99	470.05
429.36	480.28
429.73	490.64
430.10	501.22
430.47	512.08
430.85	522.81
431.22	534.59
431.59	547.78
431.96	559.95
432.33	573.22
432.70	585.95
433.08	601.16
433.45	615.43
433.82	629.96
434.19	645.93
434.56	661.81
434.93	676.72
435.30	692.58
435.68	709.61
436.05	726.14
436.42	742.98
436.79	758.30
437.16	775.15
437.53	792.71
437.90	810.12
438.27	827.22
438.64	845.10
439.01	862.03
439.38	876.79
439.75	891.40
440.13	907.93
440.50	923.84
440.87	936.71
441.24	950.59
441.61	965.29
441.98	976.34
442.35	988.81
442.72	1002.14
443.09	1014.41
443.46	1022.30
443.83	1028.10
444.20	1032.94
444.57	1039.65
444.94	1042.86
445.31	1046.57
445.68	1050.28
446.05	1051.96
446.42	1050.71
446.79	1049.23
447.16	1047.52
447.53	1046.29
447.90	1040.49
448.27	1034.28
448.64	1025.68
449.01	1019.34
449.37	1007.94
449.74	997.11
450.11	984.74
450.48	970.12
450.85	955.32
451.22	942.49
451.59	930.40
451.96	918.89
452.33	903.40
452.70	889.94
453.07	873.34
453.43	856.29
453.80	840.26
454.17	824.84
454.54	810.00
454.91	794.07
455.28	778.73
455.65	764.22
456.02	751.00
456.38	738.91
456.75	723.60
457.12	710.93
457.49	698.57
457.86	685.87
458.23	675.88
458.59	664.44
458.96	653.28
459.33	643.16
459.70	633.00
460.07	625.09
460.43	615.61
460.80	606.89
461.17	599.55
461.54	591.63
461.91	584.13
462.27	576.23
462.64	569.50
463.01	562.26
463.38	555.70
463.74	547.59
464.11	541.38
464.48	536.29
464.85	530.70
465.21	526.54
465.58	521.92
465.95	516.22
466.32	511.99
466.68	507.19
467.05	502.73
467.42	498.27
467.78	493.51
468.15	489.09
468.52	486.05
468.88	481.27
469.25	477.40
469.62	474.54
469.98	471.55
470.35	468.70
470.72	465.81
471.08	462.32
471.45	459.69
471.82	457.30
472.18	454.21
472.55	452.19
472.92	449.25
473.28	446.99
473.65	444.67
474.02	442.20
474.38	440.49
474.75	438.96
475.11	436.93
475.48	435.62
475.85	434.31
476.21	432.89
476.58	432.04
476.94	431.19
477.31	429.99
477.67	428.85
478.04	428.13
478.41	427.69
478.77	428.11
479.14	427.73
479.50	427.31
479.87	427.42
480.23	427.25
480.60	427.11
480.96	426.98
481.33	427.64
481.69	427.92
482.06	428.13
482.42	428.25
482.79	428.76
483.15	429.34
483.52	430.34
483.88	431.02
484.25	431.60
484.61	432.45
484.98	433.46
485.34	435.03
485.71	436.34
486.07	437.61
486.44	437.99
486.80	439.49
487.17	440.99
487.53	442.81
487.90	444.60
488.26	447.05
488.62	449.57
488.99	451.49
489.35	453.92
489.72	456.45
490.08	459.12
490.44	461.83
490.81	464.71
491.17	467.43
491.54	470.51
491.90	474.07
492.26	477.56
492.63	480.91
492.99	484.27
493.36	487.94
493.72	491.99
494.08	496.31
494.45	500.52
494.81	505.04
495.17	509.46
495.54	514.22
495.90	518.71
496.26	523.31
496.63	528.09
496.99	532.94
497.35	537.90
497.72	543.10
498.08	548.45
498.44	553.78
498.80	559.39
499.17	565.00
499.53	570.40
499.89	576.04
500.26	582.04
500.62	587.90
500.98	594.02
501.34	599.71
501.71	605.82
502.07	611.51
502.43	617.23
502.79	623.26
503.16	629.33
503.52	635.61
503.88	641.78
504.24	648.33
504.60	654.97
504.97	661.90
505.33	668.38
505.69	675.24
506.05	681.62
506.41	688.25
506.78	694.70
507.14	701.07
507.50	707.60
507.86	714.08
508.22	720.42
508.59	726.53
508.95	733.08
509.31	739.81
509.67	746.67
510.03	752.81
510.39	758.93
510.75	765.13
511.12	771.18
511.48	776.87
511.84	782.75
512.20	788.31
512.56	793.66
512.92	799.24
513.28	804.47
513.64	809.91
514.00	814.93
514.37	820.16
514.73	825.69
515.09	830.80
515.45	835.57
515.81	840.37
516.17	845.07
516.53	849.83
516.89	853.83
517.25	858.13
517.61	863.29
517.97	868.29
518.33	872.73
518.69	877.21
519.05	881.81
519.41	885.98
519.77	890.44
520.13	894.59
520.49	898.11
520.85	904.57
521.21	908.93
521.57	912.93
521.93	916.60
522.29	920.18
522.65	923.41
523.01	926.66
523.37	929.70
523.73	932.90
524.09	935.80
524.45	938.52
524.81	941.32
525.17	944.09
525.53	946.56
525.89	949.31
526.25	951.74
526.61	954.01
526.97	956.83
527.33	959.50
527.68	963.07
528.04	966.25
528.40	966.42
528.76	968.99
529.12	971.82
529.48	974.65
529.84	977.10
530.20	980.37
530.56	983.44
530.91	986.82
531.27	989.83
531.63	992.92
531.99	996.27
532.35	999.23
532.71	1002.14
533.07	1005.48
533.42	1009.45
533.78	1012.51
534.14	1016.02
534.50	1019.24
534.86	1022.90
535.21	1025.14
535.57	1028.40
535.93	1031.45
536.29	1034.75
536.65	1037.72
537.00	1040.50
537.36	1043.61
537.72	1046.10
538.08	1049.18
538.44	1051.78
538.79	1055.06
539.15	1057.71
539.51	1060.94
539.87	1064.00
540.22	1066.44
540.58	1069.20
540.94	1070.68
541.29	1073.20
541.65	1075.30
542.01	1077.70
542.37	1079.25
542.72	1081.20
543.08	1083.18
543.44	1085.55
543.79	1087.22
544.15	1089.26
544.51	1091.84
544.87	1094.10
545.22	1096.40
545.58	1097.92
545.94	1099.84
546.29	1101.12
546.65	1102.78
547.01	1103.83
547.36	1105.34
547.72	1107.04
548.07	1108.12
548.43	1109.97
548.79	1111.52
549.14	1113.45
549.50	1114.92
549.86	1116.48
550.21	1117.98
550.57	1119.53
550.92	1120.70
551.28	1122.34
551.64	1123.94
551.99	1125.36
552.35	1126.29
552.70	1127.74
553.06	1129.80
553.41	1131.30
553.77	1133.67
554.13	1135.79
554.48	1137.80
554.84	1139.48
555.19	1141.13
555.55	1143.64
555.90	1144.59
556.26	1145.70
556.61	1146.69
556.97	1147.19
557.32	1148.27
557.68	1149.40
558.03	1150.64
558.39	1151.50
558.74	1152.32
559.10	1153.04
559.45	1153.60
559.81	1154.38
560.16	1154.60
560.52	1155.00
560.87	1155.81
561.23	1155.60
561.58	1156.65
561.94	1156.48
562.29	1156.48
562.64	1157.06
563.00	1156.01
563.35	1156.62
563.71	1157.33
564.06	1157.80
564.42	1158.59
564.77	1159.34
565.12	1160.06
565.48	1161.32
565.83	1162.50
566.19	1163.04
566.54	1163.40
566.89	1163.71
567.25	1164.70
567.60	1165.95
567.96	1166.92
568.31	1167.83
568.66	1168.56
569.02	1167.56
569.37	1167.78
569.72	1168.29
570.08	1167.70
570.43	1167.66
570.78	1167.48
571.14	1167.14
571.49	1166.40
571.84	1166.06
572.20	1164.99
572.55	1164.41
572.90	1162.46
573.26	1161.41
573.61	1159.80
573.96	1158.71
574.31	1157.29
574.67	1155.37
575.02	1153.07
575.37	1151.07
575.72	1148.30
576.08	1146.27
576.43	1144.46
576.78	1142.57
577.13	1140.21
577.49	1138.69
577.84	1137.26
578.19	1135.31
578.54	1133.50
578.90	1131.87
579.25	1130.01
579.60	1128.00
579.95	1125.50
580.30	1123.39
580.66	1120.50
581.01	1117.99
581.36	1115.45
581.71	1113.30
582.06	1111.43
582.42	1109.30
582.77	1106.68
583.12	1104.56
583.47	1102.19
583.82	1100.28
584.17	1098.30
584.53	1096.45
584.88	1093.25
585.23	1090.36
585.58	1087.24
585.93	1084.00
586.28	1081.33
586.63	1077.97
586.98	1074.98
587.34	1072.31
587.69	1069.24
588.04	1066.48
588.39	1064.28
588.74	1061.10
589.09	1058.59
589.44	1054.89
589.79	1052.07
590.14	1049.00
590.49	1046.18
590.84	1043.06
591.19	1039.89
591.54	1036.39
591.89	1032.87
592.25	1031.77
592.60	1028.76
592.95	1026.10
593.30	1023.15
593.65	1019.65
594.00	1016.22
594.35	1015.69
594.70	1012.00
595.05	1009.02
595.40	1005.49
595.75	1001.58
596.10	998.30
596.45	994.54
596.80	991.57
597.15	987.96
597.50	984.42
597.85	981.34
598.19	977.90
598.54	974.08
598.89	970.36
599.24	967.53
599.59	962.80
599.94	959.13
600.29	955.56
600.64	952.05
600.99	948.77
601.34	945.76
601.69	939.80
602.04	936.60
602.39	933.14
602.74	930.32
603.08	927.33
603.43	924.71
603.78	921.45
604.13	918.01
604.48	914.44
604.83	911.06
605.18	907.01
605.53	903.48
605.87	900.03
606.22	897.32
606.57	893.48
606.92	890.05
607.27	886.76
607.62	883.30
607.96	880.15
608.31	876.82
608.66	873.62
609.01	870.14
609.36	866.84
609.70	863.26
610.05	859.40
610.40	856.11
610.75	852.16
611.10	848.57
611.44	844.86
611.79	841.31
612.14	837.83
612.49	834.34
612.83	830.78
613.18	827.55
613.53	823.90
613.88	820.18
614.22	816.28
614.57	812.40
614.92	808.73
615.27	805.31
615.61	801.42
615.96	797.48
616.31	793.98
616.65	790.57
617.00	787.12
617.35	783.58
617.70	779.75
618.04	776.23
618.39	772.75
618.74	769.74
619.08	766.25
619.43	762.57
619.78	758.94
620.12	755.52
620.47	751.84
620.82	748.03
621.16	744.54
621.51	741.49
621.85	738.35
622.20	734.99
622.55	730.94
622.89	727.59
623.24	724.31
623.59	720.68
623.93	717.18
624.28	713.61
624.62	711.34
624.97	708.81
625.32	705.48
625.66	701.95
626.01	698.10
626.35	694.87
626.70	691.69
627.04	688.77
627.39	685.49
627.73	682.64
628.08	679.67
628.43	676.27
628.77	672.77
629.12	669.54
629.46	666.58
629.81	664.07
630.15	661.07
630.50	657.90
630.84	655.02
631.19	651.95
631.53	649.28
631.88	645.26
632.22	641.59
632.57	638.73
632.91	635.68
633.26	633.08
633.60	630.21
633.95	627.17
634.29	623.75
634.64	620.55
634.98	617.07
635.32	614.30
635.67	611.59
636.01	608.94
636.36	605.89
636.70	603.25
637.05	600.10
637.39	597.16
637.73	594.63
638.08	592.03
638.42	589.10
638.77	585.99
639.11	582.90
639.45	579.66
639.80	576.45
640.14	573.45
640.49	570.36
640.83	567.51
641.17	564.74
641.52	562.13
641.86	559.55
642.20	557.51
642.55	554.45
642.89	551.83
643.23	548.87
643.58	546.65
643.92	543.62
644.26	540.89
644.61	538.43
644.95	535.71
645.29	532.76
645.64	530.46
645.98	527.66
646.32	525.34
646.66	522.89
647.01	520.32
647.35	518.19
647.69	515.90
648.04	513.51
648.38	511.29
648.72	508.87
649.06	506.19
649.41	503.42
649.75	501.02
650.09	498.54
650.43	496.14
650.78	493.52
651.12	491.16
651.46	489.00
651.80	486.58
652.14	484.07
652.49	482.08
652.83	479.77
653.17	477.64
653.51	475.27
653.85	473.23
654.20	471.20
654.54	468.83
654.88	466.48
655.22	464.67
655.56	462.53
655.90	460.50
656.25	458.47
656.59	456.28
656.93	454.30
657.27	452.49
657.61	450.24
657.95	448.23
658.29	446.10
658.64	444.17
658.98	441.95
659.32	439.81
659.66	437.58
660.00	435.42
660.34	433.59
660.68	431.56
661.02	429.55
661.36	427.69
661.70	425.77
662.05	424.01
662.39	421.91
662.73	420.18
663.07	418.93
663.41	417.29
663.75	415.30
664.09	413.45
664.43	411.37
664.77	409.94
665.11	408.10
665.45	406.43
665.79	404.76
666.13	403.28
666.47	401.62
666.81	400.09
667.15	398.28
667.49	396.75
667.83	395.71
668.17	394.09
668.51	392.58
668.85	391.25
669.19	390.21
669.53	388.63
669.87	386.97
670.21	385.05
670.55	383.64
670.89	382.95
671.23	381.59
671.57	380.08
671.91	378.68
672.25	377.30
672.58	376.17
672.92	374.56
673.26	373.11
673.60	371.98
673.94	370.67
674.28	369.57
674.62	368.34
674.96	366.68
675.30	365.51
675.64	364.09
675.97	362.80
676.31	361.18
676.65	359.89
676.99	358.92
677.33	357.60
677.67	356.54
678.01	354.78
678.34	353.54
678.68	352.75
679.02	351.35
679.36	350.20
679.70	348.90
680.04	348.09
680.37	347.19
680.71	345.90
681.05	344.87
681.39	343.70
681.73	342.58
682.06	341.55
682.40	340.62
682.74	339.82
683.08	339.15
683.42	337.96
683.75	337.13
684.09	335.84
684.43	334.93
684.77	333.77
685.10	332.75
685.44	331.80
685.78	330.62
686.12	329.83
686.45	328.85
686.79	327.81
687.13	326.61
687.46	325.61
687.80	325.05
688.14	324.05
688.48	323.26
688.81	322.24
689.15	321.57
689.49	320.47
689.82	319.50
690.16	318.11
690.50	317.30
690.83	316.19
691.17	315.19
691.51	314.40
691.84	313.72
692.18	312.80
692.52	311.91
692.85	311.20
693.19	310.60
693.52	309.70
693.86	308.84
694.20	308.06
694.53	307.20
694.87	306.19
695.21	305.19
695.54	304.26
695.88	303.31
696.21	302.07
696.55	301.33
696.88	300.43
697.22	299.59
697.56	298.93
697.89	298.18
698.23	297.64
698.56	296.62
698.90	295.81
699.23	295.05
699.57	294.30
699.90	293.42
700.24	292.41
700.58	291.83
700.91	291.23
701.25	291.31
701.58	291.35
701.92	290.86
702.25	290.28
702.59	289.57
702.92	289.06
703.26	288.62
703.59	288.10
703.93	288.31
704.26	287.91
704.60	287.20
704.93	286.54
705.26	285.77
705.60	285.42
705.93	284.66
706.27	284.39
706.60	283.97
706.94	283.76
707.27	283.21
707.61	282.60
707.94	282.02
708.27	280.81
708.61	279.51
708.94	278.87
709.28	278.32
709.61	277.70
709.94	277.27
710.28	276.83
710.61	276.25
710.95	274.94
711.28	274.99
711.61	274.49
711.95	274.27
712.28	273.68
712.61	273.05
712.95	273.09
713.28	272.93
713.61	272.32
713.95	271.59
714.28	271.09
714.61	270.60
714.95	270.13
715.28	269.43
715.61	269.02
715.95	268.58
716.28	268.05
716.61	267.86
716.95	267.25
717.28	266.68
717.61	266.17
717.94	265.68
718.28	264.61
718.61	264.22
718.94	263.70
719.27	263.43
719.61	263.20
719.94	262.52
720.27	261.66
720.60	261.35
720.94	261.07
721.27	260.86
721.60	260.69
721.93	260.40
722.27	260.45
722.60	260.27
722.93	259.91
723.26	259.83
723.59	259.34
723.93	259.22
724.26	259.10
724.59	258.82
724.92	258.65
725.25	258.76
725.59	258.44
725.92	258.18
726.25	258.00
726.58	257.79
726.91	257.50
727.24	257.43
727.57	257.17
727.91	256.75
728.24	256.52
728.57	256.19
728.90	255.98
729.23	255.42
729.56	255.52
729.89	255.25
730.22	254.74
730.55	254.54
730.89	254.31
731.22	253.97
731.55	253.77
731.88	253.60
732.21	253.11
732.54	252.85
732.87	252.62
733.20	252.34
733.53	252.11
733.86	251.90
734.19	251.60
734.52	251.48
734.85	251.85
735.18	251.57
735.51	251.64
735.84	251.48
736.17	251.52
736.50	250.84
736.83	251.80
737.16	251.75
737.49	251.64
737.82	251.32
738.15	251.28
738.48	251.09
738.81	250.70
739.14	250.32
739.47	250.11
739.80	249.87
740.13	249.81
740.46	249.48
740.79	249.20
741.12	248.87
741.45	248.59
741.78	247.89
742.11	247.90
742.44	247.47
742.77	247.41
743.10	247.10
743.43	246.97
743.75	245.73
744.08	246.84
744.41	246.55
744.74	246.40
745.07	245.95
745.40	245.89
745.73	246.25
746.06	246.11
746.39	246.07
746.71	245.85
747.04	245.52
747.37	245.40
747.70	245.42
748.03	245.30
748.36	245.15
748.68	245.00
749.01	244.57
749.34	244.41
749.67	244.19
750.00	244.10
750.33	244.64
750.65	244.57
750.98	243.24
751.31	243.23
751.64	243.10
751.97	243.64
752.29	243.50
752.62	242.93
752.95	242.81
753.28	242.50
753.60	242.37
753.93	242.46
754.26	242.46
754.59	242.06
754.91	241.99
755.24	241.85
755.57	241.78
755.90	241.67
756.22	241.50
756.55	241.25
756.88	240.97
757.20	240.19
757.53	239.86
757.86	239.65
758.19	239.60
758.51	239.41
758.84	238.71
759.17	238.46
759.49	238.48
759.82	238.87
760.15	238.80
760.47	238.65
760.80	238.32
761.13	238.26
761.45	238.14
761.78	237.96
762.11	237.89
762.43	237.69
762.76	237.51
763.08	237.43
763.41	237.46
763.74	237.42
764.06	237.33
764.39	237.30
764.71	237.26
765.04	237.00
765.37	236.90
765.69	236.77
766.02	236.66
766.34	236.35
766.67	235.90
767.00	236.09
767.32	236.52
767.65	237.10
767.97	236.86
768.30	236.87
768.62	236.74
768.95	236.51
769.27	236.43
769.60	236.60
769.92	236.39
770.25	236.11
770.57	235.91
770.90	235.79
771.22	235.57
771.55	235.53
771.87	235.50
772.20	235.39
772.52	236.19
772.85	237.28
773.17	237.35
773.50	237.18
773.82	236.88
774.15	236.36
774.47	235.67
774.80	235.57
775.12	235.51
775.45	235.43
775.77	235.51
776.09	235.55
776.42	235.50
776.74	235.80
777.07	235.73
777.39	235.71
777.72	235.59
778.04	235.60
778.36	235.43
778.69	235.38
779.01	235.40
779.33	234.57
779.66	233.44
779.98	233.21
780.31	233.23
780.63	233.60
780.95	233.75
781.28	233.64
781.60	233.52
781.92	233.48
782.25	233.51
782.57	233.53
782.89	233.34
783.22	233.12
783.54	232.75
783.86	232.80
784.19	232.79
784.51	233.07
784.83	232.93
785.16	232.94
785.48	232.92
785.80	232.87
786.12	232.79
786.45	232.75
786.77	232.81
787.09	232.68
787.42	232.24
787.74	232.19
788.06	232.27
788.38	232.20
788.71	232.09
789.03	232.09
789.35	232.07
789.67	231.95
789.99	232.16
790.32	232.09
790.64	232.13
790.96	232.75
791.28	232.32
791.61	232.38
791.93	232.40
792.25	232.31
792.57	232.98
792.89	232.84
793.21	232.88
793.54	232.89
793.86	232.82
794.18	232.98
794.50	232.74
794.82	232.68
795.14	232.81
795.47	233.01
795.79	232.97
796.11	232.71
796.43	232.73
796.75	232.69
797.07	232.77
797.39	232.70
797.71	232.13
798.04	232.20
798.36	232.18
798.68	232.10
799.00	232.15
799.32	231.70
799.64	231.87
799.96	231.79
800.28	231.92
800.60	231.87
800.92	231.88
801.24	231.76
801.56	231.82
801.89	231.74
802.21	231.70
802.53	231.61
802.85	231.86
803.17	232.23
803.49	232.00
803.81	231.84
804.13	231.80
804.45	231.63
804.77	231.77
805.09	231.81
805.41	231.62
805.73	231.45
806.05	231.18
806.37	231.12
806.69	231.04
807.01	230.83
807.33	230.87
807.65	230.54
807.97	230.96
808.28	230.80
808.60	230.70
808.92	230.55
809.24	231.00
809.56	230.84
809.88	230.49
810.20	230.43
810.52	230.63
810.84	230.54
811.16	230.36
811.48	230.30
811.80	230.54
812.12	230.67
812.43	230.89
812.75	230.81
813.07	230.58
813.39	230.69
813.71	230.53
814.03	230.38
814.35	230.32
814.67	230.03
814.98	229.90
815.30	229.88
815.62	229.64
815.94	229.05
816.26	229.44
816.58	229.23
816.89	229.37
817.21	229.16
817.53	229.21
817.85	229.39
818.17	229.30
818.48	228.89
818.80	228.93
819.12	228.69
819.44	228.58
819.76	228.56
820.07	228.41
820.39	228.50
820.71	228.68
821.03	228.71
821.34	228.61
821.66	228.77
821.98	228.87
822.30	228.97
822.61	229.57
822.93	229.10
823.25	229.11
823.57	228.98
823.88	229.14
824.20	229.04
824.52	229.14
824.83	229.13
825.15	229.09
825.47	228.97
825.79	229.02
826.10	228.97
826.42	229.04
826.74	229.23
827.05	229.15
827.37	229.09
827.69	228.97
828.00	228.98
828.32	229.09
828.64	228.94
828.95	229.33
829.27	229.03
829.58	228.97
829.90	229.13
830.22	229.17
830.53	228.97
830.85	228.89
831.17	228.61
831.48	228.67
831.80	228.67
832.11	228.74
832.43	228.72
832.75	228.70
833.06	229.22
833.38	228.90
833.69	228.95
834.01	228.97
834.32	229.08
834.64	229.09
834.96	228.97
835.27	229.03
835.59	228.75
835.90	228.61
836.22	228.60
836.53	228.44
836.85	228.41
837.16	229.40
837.48	229.52
837.79	229.84
838.11	229.77
838.42	229.81
838.74	229.94
839.05	229.82
839.37	229.82
839.68	229.26
840.00	229.30
840.31	229.43
840.63	229.44
840.94	229.36
841.26	229.19
841.57	229.13
841.88	229.24
842.20	229.08
842.51	229.00
842.83	228.99
843.14	229.87
843.46	229.83
843.77	229.26
844.08	229.16
844.40	228.88
844.71	228.77
845.03	228.78
845.34	228.59
845.65	228.57
845.97	228.70
846.28	228.70
846.60	228.66
846.91	228.45
847.22	228.28
847.54	228.43
847.85	228.49
848.16	228.45
848.48	228.28
848.79	228.73
849.10	228.87
849.42	228.95
849.73	227.97
850.04	227.97
850.36	227.58
850.67	227.75
850.98	227.77
851.30	227.81
851.61	227.70
851.92	227.74
852.23	228.03
852.55	228.02
852.86	228.01
853.17	228.20
853.49	228.40
853.80	228.70
854.11	228.80
854.42	228.95
854.74	228.82
855.05	228.89
855.36	228.36
855.67	228.39
855.99	228.37
856.30	229.61
856.61	229.56
856.92	229.65
857.23	229.64
857.55	229.61
857.86	229.66
858.17	229.80
858.48	229.67
858.79	229.39
859.11	229.53
859.42	229.48
859.73	229.29
860.04	229.26
860.35	228.93
860.66	228.70
860.98	228.64
861.29	228.75
861.60	228.62
861.91	228.88
862.22	228.61
862.53	228.41
862.84	227.20
863.16	227.49
863.47	227.25
863.78	227.19
864.09	227.15
864.40	227.18
864.71	227.18
865.02	227.34
865.33	227.28
865.64	227.01
865.95	227.10
866.27	227.76
866.58	227.57
866.89	227.63
867.20	227.57
867.51	227.34
867.82	227.30
868.13	227.64
868.44	227.35
868.75	227.54
869.06	227.73
869.37	227.88
869.68	227.60
869.99	227.78
870.30	227.81
870.61	228.07
870.92	227.88
871.23	227.77
871.54	227.85
871.85	228.14
872.16	228.24
872.47	228.10
872.78	227.56
873.09	227.80
873.40	227.78
873.71	227.85
874.02	228.03
874.33	227.92
874.64	227.62
874.95	227.92
875.26	227.76
875.56	227.69
875.87	227.64
876.18	227.51
876.49	228.41
876.80	228.28
877.11	227.98
877.42	228.10
877.73	228.16
878.04	228.06
878.35	228.06
878.66	228.18
878.96	228.26
879.27	228.24
879.58	228.17
879.89	228.08
880.20	228.44
880.51	228.40
880.82	228.47
881.12	228.67
881.43	228.41
881.74	228.25
882.05	228.23
882.36	228.34
882.67	228.50
882.97	227.56
883.28	227.49
883.59	227.54
883.90	227.60
884.21	227.78
884.51	227.65
884.82	227.48
885.13	227.41
885.44	227.40
885.74	227.32
886.05	227.34
886.36	227.38
886.67	226.91
886.98	227.36
887.28	227.47
887.59	227.34
887.90	227.46
888.20	227.51
888.51	227.68
888.82	227.51
889.13	227.59
889.43	228.36
889.74	228.38
890.05	228.37
890.35	228.24
890.66	228.07
890.97	228.04
891.28	227.91
891.58	227.92
891.89	227.87
892.20	227.80
892.50	227.60
892.81	227.57
893.12	227.60
893.42	227.13
893.73	227.12
894.04	227.10
894.34	227.19
894.65	227.11
894.95	226.95
895.26	226.94
895.57	227.23
895.87	226.35
896.18	226.56
896.48	226.57
896.79	226.53
897.10	226.67
897.40	226.81
897.71	226.92
898.01	226.88
898.32	226.91
898.63	226.88
898.93	226.95
899.24	227.00
899.54	226.98
899.85	226.95
900.15	226.89
900.46	226.92
900.76	226.92
901.07	226.94
901.38	226.92
901.68	227.02
901.99	226.58
902.29	226.67
902.60	226.54
902.90	226.46
903.21	226.52
903.51	226.46
903.82	226.62
904.12	226.62
904.43	226.72
904.73	226.77
905.03	226.92
905.34	227.90
905.64	227.79
905.95	227.87
906.25	228.01
906.56	227.97
906.86	227.95
907.17	227.90
907.47	228.06
907.77	228.04
908.08	227.85
908.38	227.98
908.69	228.07
908.99	228.28
909.30	228.46
909.60	228.40
909.90	228.42
910.21	228.14
910.51	228.06
910.81	228.14
911.12	228.19
911.42	228.13
911.73	227.09
912.03	227.22
912.33	227.35
912.64	227.26
912.94	227.27
913.24	227.17
913.55	227.13
913.85	227.12
914.15	227.29
914.46	227.48
914.76	227.36
915.06	227.31
915.37	227.02
915.67	226.88
915.97	226.93
916.27	226.71
916.58	226.69
916.88	226.69
917.18	226.47
917.49	227.20
917.79	227.27
918.09	227.46
918.39	227.75
918.70	227.64
919.00	227.57
919.30	228.05
919.60	228.00
919.91	227.85
920.21	227.89
920.51	227.65
920.81	227.53
921.12	227.67
921.42	227.64
921.72	227.70
922.02	227.68
922.32	227.88
922.63	227.95
922.93	228.40
923.23	228.45
923.53	228.31
923.83	227.55
924.13	227.56
924.44	227.41
924.74	227.47
925.04	227.69
925.34	227.72
925.64	227.22
925.94	227.20
926.24	227.71
926.55	227.57
926.85	227.78
927.15	227.82
927.45	227.76
927.75	227.77
928.05	227.81
928.35	227.82
928.65	227.92
928.95	227.97
929.26	227.57
929.56	227.70
929.86	227.89
930.16	227.77
930.46	227.60
930.76	227.72
931.06	227.30
931.36	227.07
931.66	227.19
931.96	227.35
932.26	227.44
932.56	227.05
932.86	227.07
933.16	226.93
933.46	226.84
933.76	226.74
934.06	226.93
934.36	227.25
934.66	227.18
934.96	227.02
935.26	227.09
935.56	227.31
935.86	227.09
936.16	226.98
936.46	227.04
936.76	227.01
937.06	226.93
937.36	227.06
937.66	227.06
937.96	227.02
938.26	226.83
938.56	226.78
938.86	226.88
939.16	227.10
939.46	227.32
939.76	227.48
940.06	227.58
940.35	227.40
940.65	226.89
940.95	227.10
941.25	226.89
941.55	226.78
941.85	226.70
942.15	226.89
942.45	227.18
942.75	227.12
943.04	227.24
943.34	227.46
943.64	227.36
943.94	227.23
944.24	227.27
944.54	227.33
944.84	227.34
945.13	227.19
945.43	227.08
945.73	226.93
946.03	226.84
946.33	226.75
946.62	226.67
946.92	226.72
947.22	226.70
947.52	226.78
947.82	226.95
948.11	226.83
948.41	226.66
948.71	226.33
949.01	226.33
949.31	226.28
949.60	226.09
949.90	226.18
950.20	226.23
950.50	226.24
950.79	226.22
951.09	226.35
951.39	226.36
951.69	226.23
951.98	226.46
952.28	226.39
952.58	226.37
952.87	226.41
953.17	226.52
953.47	226.49
953.76	226.47
954.06	226.23
954.36	226.17
954.66	226.22
954.95	226.53
955.25	226.66
955.55	226.74
955.84	226.58
956.14	226.64
956.44	226.70
956.73	226.47
957.03	226.51
957.32	226.51
957.62	226.47
957.92	226.73
958.21	226.60
958.51	227.73
958.81	227.80
959.10	227.89
959.40	228.20
959.69	228.25
959.99	228.45
960.29	228.57
960.58	228.57
960.88	228.90
961.17	228.72
961.47	228.81
961.76	228.67
962.06	228.87
962.36	228.83
962.65	228.91
962.95	229.02
963.24	228.86
963.54	228.82
963.83	228.98
964.13	228.80
964.42	228.62
964.72	227.95
965.01	227.92
965.31	227.82
965.60	227.49
965.90	228.05
966.19	227.76
966.49	227.64
966.78	227.52
967.08	227.34
967.37	227.38
967.67	227.07
967.96	227.31
968.26	227.29
968.55	227.35
968.85	227.20
969.14	227.16
969.43	227.20
969.73	227.10
970.02	226.98
970.32	226.91
970.61	226.85
970.91	226.54
971.20	226.42
971.49	226.42
971.79	226.52
972.08	225.81
972.38	225.89
972.67	225.95
972.96	226.14
973.26	226.00
973.55	226.31
973.85	226.40
974.14	226.17
974.43	226.29
974.73	226.23
975.02	226.21
975.31	226.31
975.61	226.34
975.90	226.39
976.19	226.27
976.49	226.38
976.78	226.42
977.07	226.42
977.37	226.59
977.66	226.60
977.95	226.45
978.24	226.55
978.54	226.75
978.83	226.66
979.12	226.59
979.42	226.67
979.71	226.45
980.00	226.35
980.29	226.43
980.59	226.26
980.88	226.37
981.17	226.45
981.46	226.37
981.76	226.41
982.05	226.75
982.34	226.90
982.63	226.88
982.93	226.94
983.22	227.22
983.51	227.19
983.80	227.29
984.09	227.51
984.39	227.50
984.68	227.39
984.97	227.46
985.26	227.47
985.55	227.53
985.85	227.31
986.14	227.53
986.43	227.76
986.72	227.74
987.01	227.48
987.30	227.36
987.59	227.28
987.89	227.29
988.18	227.02
988.47	226.94
988.76	226.87
989.05	226.87
989.34	226.65
989.63	226.96
989.92	226.91
990.22	226.73
990.51	226.67
990.80	226.64
991.09	226.71
991.38	226.81
991.67	226.62
991.96	226.71
992.25	226.74
992.54	226.44
992.83	226.42
993.12	226.50
993.41	226.80
993.70	227.20
993.99	227.45
994.28	227.47
994.58	227.55
994.87	227.46
995.16	227.43
995.45	227.41
995.74	227.01
996.03	227.25
996.32	227.39
996.61	227.56
996.90	227.50
997.19	227.50
997.48	227.43
997.77	227.40
998.06	227.39
998.34	227.27
998.63	227.28
998.92	227.32
999.21	227.40
999.50	227.30
999.79	226.96
1000.08	226.80
1000.37	226.80
1000.66	226.69
1000.95	226.92
1001.24	227.02
1001.53	227.12
1001.82	227.17
1002.11	226.83
1002.40	227.00
1002.68	227.19
1002.97	227.83
1003.26	227.78
1003.55	227.67
1003.84	227.81
1004.13	228.18
1004.42	228.20
1004.71	228.29
1004.99	228.16
1005.28	228.33
1005.57	228.24
1005.86	228.27
1006.15	228.27
1006.44	228.07
1006.72	228.27
1007.01	228.06
1007.30	227.98
1007.59	227.90
1007.88	227.84
1008.17	227.78
1008.45	227.47
1008.74	227.04
1009.03	226.73
1009.32	226.69
1009.60	226.57
1009.89	226.53
1010.18	226.04
1010.47	225.91
1010.76	225.99
1011.04	226.03
1011.33	226.13
1011.62	226.14
1011.91	226.19
1012.19	226.19
1012.48	226.31
1012.77	226.28
1013.05	226.82
1013.34	226.80
1013.63	226.76
1013.92	226.84
1014.20	226.98
1014.49	226.99
1014.78	227.16
1015.06	226.83
1015.35	226.71
1015.64	226.96
1015.92	226.98
1016.21	227.10
1016.50	227.18
1016.78	227.10
1017.07	227.13
1017.36	226.91
1017.64	226.84
1017.93	226.84
1018.22	226.73
1018.50	226.75
1018.79	226.71
1019.08	226.33
1019.36	226.42
1019.65	226.29
1019.93	226.54
1020.22	226.69
1020.51	227.28
1020.79	227.10
1021.08	225.30
1021.36	226.10
1021.65	227.20
1021.94	228.00
1022.22	227.30
1022.51	224.90
1022.79	231.40
1023.08	229.80
1023.36	238.90
1023.65	223.50
>>>>>End Processed Spectral Data<<<<<
