SpectraSuite Data File
++++++++++++++++++++++++++++++++++++
Date: Wed Sep 04 17:28:49 EDT 2013
User: lab3
Dark Spectrum Present: Yes
Reference Spectrum Present: No
Number of Sampled Component Spectra: 1
Spectrometers: USB2E7196
Integration Time (usec): 337000 (USB2E7196)
Spectra Averaged: 10 (USB2E7196)
Boxcar Smoothing: 10 (USB2E7196)
Correct for Electrical Dark: No (USB2E7196)
Strobe/Lamp Enabled: No (USB2E7196)
Correct for Detector Non-linearity: No (USB2E7196)
Correct for Stray Light: No (USB2E7196)
Number of Pixels in Processed Spectrum: 2048
>>>>>Begin Processed Spectral Data<<<<<
339.09	0.00
339.48	211.40
339.86	212.70
340.24	216.30
340.63	216.20
341.01	232.60
341.39	220.40
341.78	224.60
342.16	225.10
342.54	224.20
342.93	212.97
343.31	223.71
343.69	224.36
344.07	224.93
344.46	225.46
344.84	225.97
345.22	225.67
345.60	225.91
345.99	226.02
346.37	226.11
346.75	226.23
347.13	226.24
347.52	226.32
347.90	226.74
348.28	226.80
348.66	227.12
349.05	226.93
349.43	227.10
349.81	227.34
350.19	227.45
350.57	227.60
350.96	227.73
351.34	227.84
351.72	227.94
352.10	227.98
352.48	227.95
352.87	228.01
353.25	228.04
353.63	228.01
354.01	228.07
354.39	228.27
354.77	228.29
355.15	228.62
355.54	228.64
355.92	228.30
356.30	228.46
356.68	229.10
357.06	229.05
357.44	229.02
357.82	228.98
358.20	229.84
358.58	229.80
358.97	229.95
359.35	230.22
359.73	230.45
360.11	230.61
360.49	230.72
360.87	230.77
361.25	231.01
361.63	231.50
362.01	231.59
362.39	231.44
362.77	231.66
363.15	231.60
363.53	231.62
363.91	231.88
364.29	231.85
364.67	231.02
365.05	231.14
365.43	231.28
365.81	231.33
366.19	230.98
366.57	231.30
366.95	231.20
367.33	230.93
367.71	230.88
368.09	231.06
368.47	231.08
368.85	231.05
369.23	231.12
369.61	230.73
369.99	230.97
370.37	231.19
370.75	231.57
371.13	231.39
371.51	231.18
371.89	231.10
372.27	231.07
372.65	231.11
373.03	231.03
373.41	230.98
373.78	230.98
374.16	230.50
374.54	230.24
374.92	230.19
375.30	230.14
375.68	229.97
376.06	229.98
376.44	229.79
376.82	229.70
377.19	229.63
377.57	229.65
377.95	229.31
378.33	229.01
378.71	228.43
379.09	228.65
379.47	228.84
379.84	228.72
380.22	228.54
380.60	228.31
380.98	228.20
381.36	228.07
381.73	227.95
382.11	228.07
382.49	227.94
382.87	227.77
383.25	227.77
383.62	228.88
384.00	228.52
384.38	228.56
384.76	228.72
385.13	229.03
385.51	228.99
385.89	228.89
386.27	228.91
386.64	228.93
387.02	228.70
387.40	228.50
387.78	228.48
388.15	228.50
388.53	228.47
388.91	228.51
389.29	228.34
389.66	228.35
390.04	228.20
390.42	228.47
390.79	228.58
391.17	228.50
391.55	227.32
391.92	227.39
392.30	227.36
392.68	227.28
393.05	227.17
393.43	227.20
393.81	227.18
394.18	227.03
394.56	227.13
394.94	227.37
395.31	227.35
395.69	227.71
396.06	227.98
396.44	228.08
396.82	228.06
397.19	228.77
397.57	228.76
397.95	228.88
398.32	228.71
398.70	228.77
399.07	229.11
399.45	229.19
399.82	229.24
400.20	229.46
400.58	229.60
400.95	229.40
401.33	229.76
401.70	230.68
402.08	231.01
402.45	231.20
402.83	231.52
403.20	231.88
403.58	232.04
403.95	232.50
404.33	232.97
404.71	233.40
405.08	234.15
405.46	234.55
405.83	235.12
406.21	235.47
406.58	236.07
406.96	236.60
407.33	237.31
407.70	238.12
408.08	239.47
408.45	240.27
408.83	241.18
409.20	241.87
409.58	242.18
409.95	243.28
410.33	244.38
410.70	245.14
411.08	246.39
411.45	247.62
411.82	248.74
412.20	250.28
412.57	252.26
412.95	253.01
413.32	254.84
413.69	256.49
414.07	258.48
414.44	260.47
414.82	262.57
415.19	265.20
415.56	267.67
415.94	269.90
416.31	272.93
416.68	275.98
417.06	279.43
417.43	282.93
417.81	286.73
418.18	290.56
418.55	294.77
418.93	299.16
419.30	303.75
419.67	308.60
420.04	313.60
420.42	318.63
420.79	325.31
421.16	331.53
421.54	338.35
421.91	344.87
422.28	351.65
422.66	358.99
423.03	366.45
423.40	373.90
423.77	381.77
424.15	389.73
424.52	398.24
424.89	407.68
425.26	416.48
425.64	424.94
426.01	434.48
426.38	444.42
426.75	454.65
427.13	465.00
427.50	475.66
427.87	486.76
428.24	497.95
428.61	508.26
428.99	520.51
429.36	533.06
429.73	545.87
430.10	558.66
430.47	571.58
430.85	584.53
431.22	598.98
431.59	614.63
431.96	629.29
432.33	645.45
432.70	660.91
433.08	679.61
433.45	697.09
433.82	714.33
434.19	733.95
434.56	752.91
434.93	771.24
435.30	790.10
435.68	811.03
436.05	831.43
436.42	851.52
436.79	869.99
437.16	890.66
437.53	912.17
437.90	933.60
438.27	954.73
438.64	976.93
439.01	997.46
439.38	1015.74
439.75	1033.95
440.13	1054.18
440.50	1073.60
440.87	1089.46
441.24	1105.98
441.61	1124.43
441.98	1137.84
442.35	1153.66
442.72	1170.04
443.09	1185.35
443.46	1194.99
443.83	1202.50
444.20	1208.78
444.57	1217.19
444.94	1221.44
445.31	1225.97
445.68	1230.81
446.05	1233.38
446.42	1232.08
446.79	1230.57
447.16	1228.50
447.53	1227.26
447.90	1220.14
448.27	1212.96
448.64	1202.29
449.01	1195.02
449.37	1181.34
449.74	1168.09
450.11	1152.44
450.48	1134.60
450.85	1116.53
451.22	1101.03
451.59	1085.89
451.96	1071.94
452.33	1052.94
452.70	1035.92
453.07	1015.83
453.43	994.49
453.80	974.59
454.17	955.82
454.54	937.80
454.91	918.50
455.28	899.46
455.65	881.92
456.02	865.09
456.38	850.65
456.75	832.00
457.12	816.45
457.49	801.49
457.86	786.70
458.23	774.49
458.59	761.00
458.96	747.34
459.33	735.11
459.70	722.97
460.07	713.41
460.43	702.12
460.80	691.65
461.17	682.82
461.54	673.30
461.91	663.89
462.27	654.48
462.64	646.77
463.01	637.99
463.38	629.88
463.74	620.68
464.11	613.24
464.48	607.06
464.85	600.28
465.21	595.20
465.58	589.49
465.95	582.40
466.32	576.94
466.68	571.30
467.05	565.96
467.42	560.36
467.78	554.76
468.15	549.58
468.52	545.65
468.88	540.36
469.25	535.76
469.62	532.47
469.98	528.43
470.35	524.48
470.72	521.16
471.08	517.08
471.45	514.01
471.82	510.70
472.18	507.09
472.55	504.70
472.92	501.58
473.28	498.99
473.65	496.52
474.02	493.95
474.38	492.04
474.75	490.26
475.11	488.15
475.48	486.58
475.85	484.90
476.21	483.47
476.58	482.32
476.94	481.41
477.31	480.02
477.67	479.28
478.04	478.55
478.41	477.84
478.77	478.47
479.14	477.76
479.50	477.63
479.87	477.82
480.23	477.80
480.60	477.63
480.96	477.59
481.33	478.52
481.69	478.85
482.06	479.24
482.42	479.41
482.79	480.35
483.15	481.24
483.52	482.63
483.88	483.60
484.25	484.79
484.61	485.96
484.98	487.36
485.34	489.16
485.71	491.08
486.07	493.05
486.44	494.04
486.80	496.21
487.17	498.55
487.53	501.31
487.90	503.92
488.26	507.19
488.62	510.39
488.99	513.17
489.35	516.62
489.72	520.06
490.08	523.99
490.44	527.66
490.81	531.71
491.17	535.60
491.54	540.00
491.90	544.41
492.26	549.14
492.63	554.06
492.99	558.74
493.36	564.02
493.72	569.72
494.08	575.59
494.45	581.69
494.81	587.87
495.17	593.94
495.54	600.95
495.90	607.52
496.26	614.32
496.63	621.24
496.99	628.46
497.35	635.99
497.72	643.66
498.08	651.62
498.44	659.67
498.80	668.31
499.17	676.79
499.53	685.17
499.89	694.04
500.26	703.05
500.62	711.94
500.98	720.93
501.34	729.98
501.71	739.24
502.07	748.39
502.43	757.64
502.79	767.13
503.16	776.38
503.52	786.13
503.88	795.84
504.24	806.11
504.60	816.35
504.97	826.91
505.33	837.02
505.69	847.92
506.05	858.38
506.41	868.30
506.78	878.64
507.14	889.45
507.50	900.09
507.86	910.79
508.22	921.54
508.59	931.96
508.95	942.72
509.31	953.98
509.67	964.65
510.03	975.29
510.39	985.91
510.75	996.19
511.12	1006.43
511.48	1016.73
511.84	1026.71
512.20	1036.78
512.56	1046.39
512.92	1056.50
513.28	1066.21
513.64	1076.00
514.00	1086.08
514.37	1095.71
514.73	1105.22
515.09	1114.86
515.45	1123.89
515.81	1132.71
516.17	1141.85
516.53	1150.27
516.89	1158.24
517.25	1167.17
517.61	1176.39
517.97	1184.95
518.33	1193.61
518.69	1202.14
519.05	1210.47
519.41	1218.88
519.77	1227.40
520.13	1235.37
520.49	1242.81
520.85	1249.94
521.21	1257.23
521.57	1264.59
521.93	1271.14
522.29	1277.83
522.65	1283.60
523.01	1289.77
523.37	1295.67
523.73	1301.80
524.09	1307.67
524.45	1312.75
524.81	1318.04
525.17	1322.80
525.53	1327.50
525.89	1332.39
526.25	1336.71
526.61	1341.00
526.97	1345.42
527.33	1350.09
527.68	1355.43
528.04	1360.27
528.40	1364.95
528.76	1369.60
529.12	1373.44
529.48	1377.96
529.84	1381.68
530.20	1386.26
530.56	1390.64
530.91	1395.40
531.27	1399.45
531.63	1403.29
531.99	1407.63
532.35	1411.55
532.71	1415.72
533.07	1420.04
533.42	1423.89
533.78	1428.07
534.14	1432.11
534.50	1435.50
534.86	1438.85
535.21	1440.95
535.57	1444.35
535.93	1446.70
536.29	1450.08
536.65	1453.35
537.00	1456.10
537.36	1458.87
537.72	1461.70
538.08	1464.63
538.44	1466.99
538.79	1469.67
539.15	1472.80
539.51	1475.81
539.87	1477.94
540.22	1479.31
540.58	1481.38
540.94	1482.87
541.29	1484.26
541.65	1485.75
542.01	1487.56
542.37	1487.91
542.72	1488.72
543.08	1488.99
543.44	1490.78
543.79	1490.10
544.15	1490.58
544.51	1491.61
544.87	1492.41
545.22	1492.22
545.58	1491.87
545.94	1491.54
546.29	1490.69
546.65	1489.63
547.01	1488.40
547.36	1487.96
547.72	1487.55
548.07	1486.55
548.43	1485.77
548.79	1485.10
549.14	1483.94
549.50	1483.14
549.86	1482.34
550.21	1481.50
550.57	1480.88
550.92	1479.01
551.28	1478.30
551.64	1477.50
551.99	1476.34
552.35	1475.12
552.70	1474.28
553.06	1473.75
553.41	1473.15
553.77	1473.05
554.13	1472.75
554.48	1472.46
554.84	1471.59
555.19	1471.16
555.55	1471.80
555.90	1470.97
556.26	1469.88
556.61	1468.80
556.97	1466.76
557.32	1466.30
557.68	1465.98
558.03	1465.24
558.39	1464.44
558.74	1463.69
559.10	1462.30
559.45	1461.15
559.81	1459.86
560.16	1458.20
560.52	1456.58
560.87	1455.06
561.23	1453.21
561.58	1452.15
561.94	1449.70
562.29	1447.81
562.64	1445.87
563.00	1442.29
563.35	1440.71
563.71	1439.30
564.06	1438.02
564.42	1436.97
564.77	1435.23
565.12	1433.62
565.48	1432.85
565.83	1431.66
566.19	1430.29
566.54	1428.81
566.89	1426.97
567.25	1425.71
567.60	1425.12
567.96	1424.58
568.31	1423.73
568.66	1422.20
569.02	1419.76
569.37	1418.59
569.72	1417.06
570.08	1414.95
570.43	1412.81
570.78	1410.86
571.14	1408.57
571.49	1405.78
571.84	1403.28
572.20	1400.34
572.55	1397.58
572.90	1393.47
573.26	1390.21
573.61	1387.00
573.96	1383.91
574.31	1380.65
574.67	1377.27
575.02	1373.04
575.37	1368.51
575.72	1364.17
576.08	1360.64
576.43	1356.60
576.78	1352.61
577.13	1348.41
577.49	1344.75
577.84	1341.96
578.19	1338.54
578.54	1334.87
578.90	1331.77
579.25	1328.38
579.60	1325.07
579.95	1321.17
580.30	1317.55
580.66	1313.95
581.01	1309.90
581.36	1305.29
581.71	1301.38
582.06	1297.59
582.42	1294.01
582.77	1289.76
583.12	1286.20
583.47	1282.35
583.82	1278.82
584.17	1275.20
584.53	1272.43
584.88	1268.11
585.23	1263.61
585.58	1258.73
585.93	1253.93
586.28	1249.48
586.63	1244.92
586.98	1239.79
587.34	1235.62
587.69	1230.95
588.04	1226.93
588.39	1223.01
588.74	1218.99
589.09	1215.19
589.44	1210.40
589.79	1206.20
590.14	1202.40
590.49	1197.86
590.84	1193.42
591.19	1189.57
591.54	1185.32
591.89	1179.96
592.25	1177.32
592.60	1173.07
592.95	1168.90
593.30	1165.18
593.65	1160.61
594.00	1155.70
594.35	1154.10
594.70	1149.16
595.05	1144.76
595.40	1139.91
595.75	1134.82
596.10	1130.52
596.45	1125.66
596.80	1121.36
597.15	1116.45
597.50	1111.50
597.85	1107.42
598.19	1102.75
598.54	1097.30
598.89	1092.24
599.24	1088.32
599.59	1082.68
599.94	1078.01
600.29	1073.60
600.64	1068.75
600.99	1064.17
601.34	1060.52
601.69	1053.70
602.04	1049.78
602.39	1045.79
602.74	1041.59
603.08	1037.58
603.43	1033.57
603.78	1029.30
604.13	1024.91
604.48	1020.88
604.83	1016.54
605.18	1011.57
605.53	1007.26
605.87	1003.40
606.22	999.56
606.57	995.22
606.92	990.86
607.27	986.90
607.62	983.05
607.96	979.46
608.31	975.90
608.66	971.65
609.01	967.67
609.36	963.41
609.70	959.11
610.05	954.91
610.40	951.09
610.75	946.51
611.10	942.26
611.44	937.91
611.79	933.27
612.14	929.20
612.49	924.84
612.83	920.46
613.18	916.03
613.53	911.81
613.88	907.10
614.22	902.61
614.57	897.72
614.92	892.82
615.27	888.27
615.61	883.40
615.96	878.82
616.31	874.20
616.65	869.93
617.00	865.46
617.35	861.08
617.70	856.12
618.04	851.76
618.39	847.00
618.74	843.30
619.08	838.71
619.43	834.48
619.78	830.18
620.12	825.84
620.47	821.67
620.82	817.05
621.16	812.63
621.51	808.78
621.85	804.61
622.20	800.55
622.55	796.08
622.89	791.89
623.24	787.91
623.59	783.67
623.93	779.49
624.28	774.99
624.62	771.67
624.97	768.49
625.32	764.55
625.66	760.76
626.01	756.12
626.35	752.71
626.70	748.58
627.04	745.15
627.39	741.01
627.73	737.40
628.08	733.75
628.43	729.94
628.77	725.75
629.12	721.89
629.46	718.41
629.81	715.10
630.15	711.52
630.50	707.67
630.84	704.06
631.19	700.38
631.53	697.27
631.88	692.50
632.22	688.21
632.57	684.86
632.91	681.28
633.26	678.27
633.60	674.60
633.95	671.00
634.29	667.00
634.64	663.74
634.98	659.86
635.32	656.62
635.67	653.59
636.01	650.23
636.36	646.93
636.70	643.74
637.05	640.22
637.39	637.32
637.73	634.07
638.08	631.09
638.42	627.56
638.77	624.33
639.11	620.94
639.45	617.42
639.80	613.63
640.14	610.24
640.49	606.63
640.83	603.37
641.17	600.50
641.52	597.32
641.86	594.16
642.20	591.64
642.55	588.25
642.89	585.06
643.23	582.27
643.58	579.84
643.92	576.30
644.26	573.11
644.61	570.17
644.95	567.09
645.29	564.12
645.64	561.38
645.98	558.19
646.32	555.67
646.66	552.83
647.01	550.10
647.35	547.64
647.69	545.06
648.04	542.46
648.38	539.48
648.72	536.93
649.06	534.19
649.41	530.98
649.75	528.30
650.09	525.58
650.43	522.74
650.78	519.75
651.12	517.11
651.46	514.61
651.80	511.74
652.14	509.21
652.49	506.86
652.83	504.45
653.17	502.03
653.51	499.44
653.85	497.30
654.20	495.01
654.54	492.38
654.88	489.67
655.22	487.70
655.56	485.42
655.90	483.23
656.25	480.96
656.59	478.85
656.93	476.66
657.27	474.85
657.61	472.25
657.95	469.84
658.29	467.85
658.64	465.77
658.98	463.48
659.32	461.10
659.66	458.67
660.00	456.44
660.34	454.47
660.68	452.23
661.02	449.95
661.36	447.78
661.70	445.64
662.05	443.68
662.39	441.33
662.73	439.57
663.07	437.68
663.41	435.64
663.75	433.46
664.09	431.53
664.43	429.16
664.77	427.26
665.11	425.41
665.45	423.39
665.79	421.44
666.13	419.45
666.47	417.61
666.81	415.80
667.15	413.70
667.49	411.64
667.83	410.33
668.17	408.60
668.51	406.87
668.85	405.31
669.19	404.21
669.53	402.34
669.87	400.36
670.21	398.44
670.55	396.82
670.89	395.58
671.23	393.81
671.57	392.15
671.91	390.85
672.25	389.41
672.58	388.21
672.92	386.53
673.26	385.15
673.60	383.66
673.94	382.17
674.28	380.80
674.62	379.65
674.96	377.93
675.30	376.59
675.64	375.12
675.97	373.75
676.31	371.98
676.65	370.51
676.99	369.49
677.33	368.01
677.67	366.81
678.01	365.07
678.34	363.91
678.68	362.80
679.02	361.30
679.36	359.86
679.70	358.25
680.04	357.08
680.37	355.86
680.71	354.69
681.05	353.50
681.39	352.39
681.73	351.21
682.06	350.09
682.40	348.81
682.74	347.86
683.08	346.93
683.42	345.62
683.75	344.71
684.09	343.27
684.43	342.28
684.77	341.00
685.10	340.11
685.44	338.96
685.78	337.69
686.12	336.75
686.45	335.70
686.79	334.51
687.13	333.63
687.46	332.48
687.80	331.73
688.14	330.52
688.48	329.57
688.81	328.45
689.15	327.70
689.49	326.71
689.82	325.75
690.16	324.42
690.50	323.45
690.83	322.33
691.17	321.25
691.51	320.22
691.84	319.42
692.18	318.36
692.52	317.35
692.85	316.47
693.19	315.79
693.52	315.02
693.86	314.18
694.20	313.12
694.53	312.28
694.87	311.13
695.21	310.24
695.54	309.31
695.88	308.17
696.21	306.82
696.55	305.92
696.88	304.88
697.22	303.84
697.56	303.20
697.89	302.25
698.23	301.51
698.56	300.64
698.90	299.80
699.23	298.84
699.57	298.07
699.90	297.20
700.24	296.25
700.58	295.47
700.91	294.84
701.25	294.78
701.58	294.73
701.92	294.33
702.25	293.70
702.59	292.98
702.92	292.58
703.26	292.00
703.59	291.19
703.93	291.44
704.26	291.07
704.60	290.41
704.93	289.81
705.26	289.13
705.60	288.88
705.93	288.05
706.27	287.87
706.60	287.62
706.94	287.60
707.27	286.91
707.61	286.29
707.94	285.77
708.27	284.55
708.61	283.28
708.94	282.64
709.28	282.10
709.61	281.57
709.94	280.94
710.28	280.47
710.61	280.10
710.95	278.81
711.28	278.93
711.61	278.33
711.95	278.00
712.28	277.46
712.61	276.64
712.95	276.69
713.28	276.45
713.61	275.66
713.95	274.60
714.28	274.25
714.61	273.71
714.95	273.12
715.28	272.44
715.61	272.07
715.95	271.59
716.28	271.03
716.61	270.66
716.95	270.11
717.28	269.72
717.61	269.28
717.94	268.76
718.28	267.58
718.61	267.18
718.94	266.69
719.27	266.29
719.61	266.01
719.94	265.35
720.27	264.60
720.60	264.23
720.94	263.99
721.27	263.66
721.60	263.57
721.93	263.23
722.27	263.33
722.60	263.14
722.93	262.76
723.26	262.73
723.59	262.30
723.93	262.20
724.26	261.99
724.59	261.59
724.92	261.34
725.25	261.38
725.59	261.00
725.92	260.69
726.25	260.48
726.58	260.30
726.91	259.96
727.24	259.70
727.57	259.39
727.91	258.94
728.24	258.56
728.57	258.07
728.90	257.92
729.23	257.32
729.56	257.30
729.89	257.08
730.22	256.60
730.55	256.30
730.89	256.00
731.22	255.50
731.55	255.29
731.88	255.05
732.21	254.50
732.54	254.18
732.87	254.10
733.20	253.84
733.53	253.48
733.86	253.45
734.19	252.99
734.52	252.88
734.85	253.34
735.18	253.08
735.51	253.21
735.84	253.04
736.17	253.03
736.50	252.36
736.83	253.14
737.16	252.89
737.49	252.77
737.82	252.36
738.15	252.33
738.48	252.10
738.81	251.70
739.14	251.46
739.47	251.20
739.80	250.86
740.13	250.71
740.46	250.35
740.79	249.92
741.12	249.85
741.45	249.55
741.78	248.73
742.11	248.79
742.44	248.32
742.77	248.19
743.10	247.79
743.43	247.59
743.75	246.36
744.08	247.44
744.41	247.17
744.74	247.00
745.07	246.66
745.40	246.61
745.73	246.96
746.06	246.80
746.39	246.73
746.71	246.46
747.04	246.15
747.37	246.07
747.70	245.97
748.03	245.80
748.36	245.80
748.68	245.69
749.01	245.18
749.34	245.02
749.67	244.85
750.00	244.82
750.33	245.37
750.65	245.39
750.98	244.00
751.31	243.92
751.64	243.94
751.97	244.30
752.29	244.10
752.62	243.44
752.95	243.34
753.28	243.08
753.60	242.97
753.93	243.06
754.26	243.10
754.59	242.87
754.91	242.63
755.24	242.30
755.57	242.30
755.90	242.21
756.22	241.97
756.55	241.61
756.88	241.40
757.20	240.65
757.53	240.21
757.86	240.05
758.19	240.00
758.51	239.73
758.84	239.07
759.17	238.84
759.49	238.89
759.82	239.13
760.15	239.16
760.47	239.05
760.80	238.67
761.13	238.54
761.45	238.36
761.78	238.30
762.11	238.24
762.43	237.96
762.76	237.85
763.08	237.89
763.41	238.00
763.74	237.92
764.06	237.85
764.39	237.87
764.71	237.86
765.04	237.62
765.37	237.57
765.69	237.48
766.02	237.43
766.34	237.20
766.67	236.82
767.00	236.97
767.32	237.36
767.65	237.81
767.97	237.74
768.30	237.69
768.62	237.64
768.95	237.49
769.27	237.37
769.60	237.50
769.92	237.26
770.25	236.91
770.57	236.69
770.90	236.62
771.22	236.37
771.55	236.25
771.87	236.21
772.20	236.16
772.52	236.96
772.85	238.04
773.17	238.08
773.50	237.91
773.82	237.62
774.15	237.18
774.47	236.60
774.80	236.41
775.12	236.39
775.45	236.25
775.77	236.29
776.09	236.45
776.42	236.30
776.74	236.58
777.07	236.50
777.39	236.55
777.72	236.29
778.04	236.38
778.36	236.32
778.69	236.36
779.01	236.36
779.33	235.48
779.66	234.32
779.98	234.17
780.31	234.18
780.63	234.59
780.95	234.61
781.28	234.51
781.60	234.38
781.92	234.35
782.25	234.38
782.57	234.30
782.89	234.12
783.22	234.01
783.54	233.75
783.86	233.79
784.19	233.70
784.51	234.02
784.83	233.89
785.16	233.84
785.48	233.74
785.80	233.70
786.12	233.68
786.45	233.71
786.77	233.75
787.09	233.65
787.42	233.13
787.74	233.24
788.06	233.26
788.38	233.25
788.71	233.12
789.03	232.97
789.35	233.04
789.67	232.83
789.99	232.88
790.32	232.69
790.64	232.79
790.96	233.48
791.28	233.19
791.61	233.12
791.93	233.11
792.25	232.99
792.57	233.64
792.89	233.52
793.21	233.49
793.54	233.33
793.86	233.10
794.18	233.25
794.50	232.93
794.82	232.91
795.14	232.93
795.47	233.04
795.79	233.08
796.11	232.88
796.43	232.80
796.75	232.70
797.07	232.70
797.39	232.52
797.71	231.91
798.04	231.94
798.36	232.00
798.68	231.86
799.00	231.93
799.32	231.33
799.64	231.45
799.96	231.36
800.28	231.54
800.60	231.56
800.92	231.48
801.24	231.40
801.56	231.43
801.89	231.40
802.21	231.34
802.53	231.22
802.85	231.46
803.17	231.91
803.49	231.82
803.81	231.81
804.13	231.79
804.45	231.64
804.77	231.61
805.09	231.59
805.41	231.53
805.73	231.32
806.05	231.00
806.37	230.94
806.69	230.76
807.01	230.60
807.33	230.69
807.65	230.38
807.97	230.86
808.28	230.70
808.60	230.63
808.92	230.58
809.24	231.11
809.56	230.84
809.88	230.50
810.20	230.52
810.52	230.58
810.84	230.46
811.16	230.27
811.48	230.12
811.80	230.52
812.12	230.47
812.43	230.66
812.75	230.78
813.07	230.69
813.39	230.82
813.71	230.84
814.03	230.74
814.35	230.77
814.67	230.38
814.98	230.34
815.30	230.27
815.62	229.99
815.94	229.34
816.26	229.78
816.58	229.66
816.89	229.70
817.21	229.56
817.53	229.62
817.85	229.76
818.17	229.78
818.48	229.25
818.80	229.51
819.12	229.33
819.44	229.37
819.76	229.20
820.07	229.20
820.39	229.09
820.71	229.16
821.03	229.12
821.34	229.01
821.66	229.07
821.98	229.12
822.30	229.26
822.61	229.82
822.93	229.27
823.25	229.15
823.57	229.04
823.88	229.23
824.20	229.21
824.52	229.24
824.83	229.29
825.15	229.34
825.47	229.16
825.79	229.22
826.10	229.12
826.42	229.20
826.74	229.32
827.05	229.39
827.37	229.42
827.69	229.44
828.00	229.53
828.32	229.65
828.64	229.59
828.95	230.04
829.27	229.84
829.58	229.94
829.90	230.15
830.22	230.19
830.53	230.01
830.85	229.99
831.17	229.77
831.48	229.76
831.80	229.75
832.11	229.72
832.43	229.65
832.75	229.63
833.06	230.17
833.38	229.90
833.69	229.83
834.01	229.92
834.32	230.00
834.64	229.92
834.96	229.90
835.27	229.95
835.59	229.61
835.90	229.45
836.22	229.39
836.53	229.15
836.85	228.95
837.16	229.84
837.48	229.89
837.79	230.22
838.11	230.23
838.42	230.24
838.74	230.41
839.05	230.30
839.37	230.20
839.68	229.57
840.00	229.59
840.31	229.68
840.63	229.58
840.94	229.48
841.26	229.53
841.57	229.45
841.88	229.48
842.20	229.33
842.51	229.20
842.83	229.23
843.14	230.11
843.46	230.22
843.77	229.58
844.08	229.47
844.40	229.22
844.71	229.07
845.03	229.02
845.34	228.91
845.65	228.89
845.97	228.93
846.28	229.04
846.60	229.03
846.91	228.79
847.22	228.67
847.54	228.79
847.85	228.65
848.16	228.63
848.48	228.43
848.79	228.91
849.10	229.04
849.42	229.14
849.73	228.30
850.04	228.29
850.36	228.11
850.67	228.25
850.98	228.23
851.30	228.36
851.61	228.20
851.92	228.20
852.23	228.44
852.55	228.56
852.86	228.48
853.17	228.52
853.49	228.75
853.80	228.97
854.11	229.01
854.42	229.17
854.74	228.99
855.05	229.07
855.36	228.47
855.67	228.42
855.99	228.35
856.30	229.47
856.61	229.36
856.92	229.32
857.23	229.29
857.55	229.21
857.86	229.15
858.17	229.34
858.48	229.15
858.79	229.04
859.11	228.99
859.42	229.04
859.73	228.89
860.04	228.87
860.35	228.51
860.66	228.28
860.98	228.31
861.29	228.49
861.60	228.42
861.91	228.60
862.22	228.38
862.53	228.20
862.84	227.04
863.16	227.41
863.47	227.15
863.78	226.99
864.09	227.13
864.40	227.12
864.71	227.17
865.02	227.13
865.33	227.04
865.64	226.88
865.95	226.89
866.27	227.52
866.58	227.39
866.89	227.57
867.20	227.51
867.51	227.23
867.82	227.22
868.13	227.50
868.44	227.47
868.75	227.76
869.06	227.86
869.37	228.09
869.68	227.66
869.99	227.86
870.30	227.99
870.61	228.09
870.92	227.97
871.23	227.85
871.54	228.07
871.85	228.34
872.16	228.50
872.47	228.34
872.78	227.85
873.09	227.91
873.40	227.79
873.71	227.89
874.02	227.96
874.33	227.79
874.64	227.63
874.95	227.75
875.26	227.47
875.56	227.42
875.87	227.25
876.18	227.36
876.49	228.31
876.80	228.27
877.11	228.00
877.42	228.16
877.73	228.16
878.04	228.12
878.35	228.05
878.66	228.03
878.96	228.10
879.27	228.10
879.58	228.21
879.89	228.29
880.20	228.58
880.51	228.51
880.82	228.51
881.12	228.62
881.43	228.37
881.74	228.40
882.05	228.36
882.36	228.51
882.67	228.64
882.97	227.60
883.28	227.58
883.59	227.58
883.90	227.60
884.21	227.73
884.51	227.62
884.82	227.46
885.13	227.43
885.44	227.39
885.74	227.39
886.05	227.25
886.36	227.12
886.67	226.80
886.98	227.32
887.28	227.50
887.59	227.40
887.90	227.56
888.20	227.47
888.51	227.67
888.82	227.46
889.13	227.52
889.43	228.35
889.74	228.16
890.05	228.09
890.35	228.00
890.66	227.82
890.97	227.79
891.28	227.77
891.58	227.83
891.89	227.88
892.20	227.76
892.50	227.63
892.81	227.66
893.12	227.63
893.42	227.16
893.73	227.21
894.04	227.29
894.34	227.22
894.65	227.27
894.95	227.06
895.26	227.13
895.57	227.49
895.87	226.70
896.18	226.96
896.48	227.09
896.79	227.12
897.10	227.36
897.40	227.40
897.71	227.51
898.01	227.46
898.32	227.56
898.63	227.65
898.93	227.79
899.24	227.87
899.54	227.85
899.85	227.91
900.15	227.85
900.46	227.80
900.76	228.01
901.07	228.06
901.38	228.25
901.68	228.36
901.99	227.79
902.29	227.80
902.60	227.74
902.90	227.67
903.21	227.66
903.51	227.52
903.82	227.79
904.12	227.74
904.43	227.74
904.73	227.62
905.03	227.68
905.34	228.60
905.64	228.54
905.95	228.53
906.25	228.56
906.56	228.50
906.86	228.49
907.17	228.37
907.47	228.41
907.77	228.28
908.08	228.12
908.38	228.23
908.69	228.36
908.99	228.53
909.30	228.64
909.60	228.61
909.90	228.70
910.21	228.39
910.51	228.28
910.81	228.42
911.12	228.60
911.42	228.58
911.73	227.64
912.03	227.64
912.33	227.91
912.64	227.81
912.94	227.74
913.24	227.61
913.55	227.43
913.85	227.32
914.15	227.53
914.46	227.61
914.76	227.63
915.06	227.51
915.37	227.44
915.67	227.32
915.97	227.46
916.27	227.20
916.58	227.23
916.88	227.25
917.18	227.15
917.49	227.72
917.79	227.70
918.09	227.87
918.39	228.08
918.70	227.96
919.00	228.09
919.30	228.52
919.60	228.52
919.91	228.50
920.21	228.73
920.51	228.43
920.81	228.40
921.12	228.52
921.42	228.39
921.72	228.34
922.02	228.43
922.32	228.34
922.63	228.41
922.93	228.84
923.23	228.89
923.53	228.73
923.83	228.11
924.13	228.07
924.44	227.99
924.74	228.20
925.04	228.42
925.34	228.31
925.64	227.81
925.94	227.81
926.24	228.44
926.55	228.25
926.85	228.48
927.15	228.39
927.45	228.37
927.75	228.36
928.05	228.36
928.35	228.34
928.65	228.60
928.95	228.73
929.26	228.39
929.56	228.56
929.86	228.62
930.16	228.52
930.46	228.47
930.76	228.47
931.06	228.03
931.36	227.73
931.66	227.95
931.96	228.16
932.26	228.19
932.56	227.74
932.86	227.75
933.16	227.65
933.46	227.69
933.76	227.59
934.06	227.85
934.36	228.15
934.66	228.03
934.96	227.86
935.26	227.90
935.56	228.05
935.86	227.76
936.16	227.65
936.46	227.65
936.76	227.64
937.06	227.51
937.36	227.56
937.66	227.75
937.96	227.60
938.26	227.44
938.56	227.41
938.86	227.46
939.16	227.67
939.46	227.86
939.76	228.00
940.06	227.95
940.35	227.88
940.65	227.46
940.95	227.53
941.25	227.27
941.55	227.11
941.85	227.04
942.15	227.24
942.45	227.61
942.75	227.54
943.04	227.60
943.34	227.92
943.64	227.83
943.94	227.64
944.24	227.70
944.54	227.78
944.84	227.78
945.13	227.58
945.43	227.43
945.73	227.29
946.03	227.06
946.33	226.90
946.62	226.79
946.92	226.77
947.22	226.94
947.52	227.04
947.82	227.22
948.11	227.09
948.41	226.97
948.71	226.62
949.01	226.71
949.31	226.56
949.60	226.50
949.90	226.64
950.20	226.55
950.50	226.42
950.79	226.21
951.09	226.38
951.39	226.43
951.69	226.28
951.98	226.43
952.28	226.53
952.58	226.60
952.87	226.61
953.17	226.77
953.47	226.48
953.76	226.50
954.06	226.33
954.36	226.14
954.66	226.17
954.95	226.47
955.25	226.56
955.55	226.69
955.84	226.38
956.14	226.49
956.44	226.49
956.73	226.34
957.03	226.55
957.32	226.46
957.62	226.42
957.92	226.66
958.21	226.53
958.51	227.62
958.81	227.79
959.10	227.81
959.40	227.96
959.69	228.10
959.99	228.23
960.29	228.27
960.58	228.34
960.88	228.68
961.17	228.61
961.47	228.62
961.76	228.67
962.06	228.87
962.36	228.73
962.65	228.75
962.95	228.96
963.24	228.77
963.54	228.78
963.83	228.88
964.13	228.85
964.42	228.60
964.72	227.84
965.01	227.79
965.31	227.74
965.60	227.49
965.90	228.15
966.19	227.96
966.49	227.96
966.78	227.90
967.08	227.87
967.37	227.77
967.67	227.58
967.96	227.70
968.26	227.72
968.55	227.91
968.85	228.02
969.14	227.91
969.43	228.00
969.73	227.88
970.02	227.72
970.32	227.60
970.61	227.67
970.91	227.39
971.20	227.19
971.49	227.17
971.79	227.30
972.08	226.62
972.38	226.72
972.67	226.68
972.96	226.90
973.26	226.66
973.55	226.98
973.85	226.97
974.14	226.81
974.43	226.81
974.73	226.52
975.02	226.30
975.31	226.37
975.61	226.34
975.90	226.33
976.19	226.30
976.49	226.39
976.78	226.53
977.07	226.49
977.37	226.58
977.66	226.62
977.95	226.51
978.24	226.61
978.54	226.65
978.83	226.57
979.12	226.52
979.42	226.39
979.71	226.18
980.00	226.23
980.29	226.34
980.59	226.21
980.88	226.44
981.17	226.50
981.46	226.50
981.76	226.47
982.05	226.85
982.34	227.01
982.63	227.07
982.93	226.91
983.22	227.25
983.51	227.24
983.80	227.42
984.09	227.60
984.39	227.50
984.68	227.41
984.97	227.42
985.26	227.32
985.55	227.37
985.85	227.22
986.14	227.21
986.43	227.23
986.72	227.19
987.01	226.90
987.30	226.97
987.59	226.87
987.89	226.89
988.18	226.46
988.47	226.31
988.76	226.18
989.05	226.22
989.34	225.99
989.63	226.29
989.92	226.07
990.22	225.86
990.51	225.81
990.80	225.74
991.09	225.89
991.38	225.96
991.67	226.01
991.96	225.94
992.25	226.03
992.54	225.89
992.83	225.93
993.12	225.98
993.41	226.02
993.70	226.51
993.99	226.68
994.28	226.89
994.58	227.03
994.87	226.93
995.16	226.86
995.45	226.73
995.74	226.50
996.03	226.69
996.32	226.79
996.61	227.01
996.90	226.97
997.19	226.96
997.48	227.05
997.77	226.87
998.06	226.91
998.34	226.83
998.63	226.85
998.92	226.90
999.21	227.14
999.50	227.27
999.79	226.93
1000.08	226.99
1000.37	226.88
1000.66	226.77
1000.95	227.12
1001.24	227.26
1001.53	227.51
1001.82	227.38
1002.11	227.11
1002.40	227.30
1002.68	227.51
1002.97	228.38
1003.26	228.24
1003.55	227.97
1003.84	228.10
1004.13	228.49
1004.42	228.43
1004.71	228.42
1004.99	228.24
1005.28	228.38
1005.57	228.25
1005.86	228.10
1006.15	227.98
1006.44	227.93
1006.72	228.09
1007.01	227.84
1007.30	227.85
1007.59	227.70
1007.88	227.77
1008.17	227.88
1008.45	227.53
1008.74	227.07
1009.03	226.50
1009.32	226.49
1009.60	226.63
1009.89	226.49
1010.18	226.18
1010.47	226.09
1010.76	226.05
1011.04	226.06
1011.33	226.02
1011.62	226.08
1011.91	226.13
1012.19	226.15
1012.48	226.15
1012.77	226.07
1013.05	226.50
1013.34	226.39
1013.63	226.34
1013.92	226.41
1014.20	226.30
1014.49	226.60
1014.78	226.74
1015.06	226.46
1015.35	226.58
1015.64	226.65
1015.92	226.91
1016.21	226.81
1016.50	227.01
1016.78	227.14
1017.07	227.16
1017.36	226.93
1017.64	226.83
1017.93	226.97
1018.22	226.85
1018.50	226.89
1018.79	226.85
1019.08	226.46
1019.36	226.60
1019.65	226.54
1019.93	226.75
1020.22	226.90
1020.51	227.29
1020.79	227.12
1021.08	224.30
1021.36	225.80
1021.65	225.70
1021.94	227.30
1022.22	227.70
1022.51	224.90
1022.79	231.40
1023.08	227.30
1023.36	239.10
1023.65	223.90
>>>>>End Processed Spectral Data<<<<<
