SpectraSuite Data File
++++++++++++++++++++++++++++++++++++
Date: Wed Sep 04 17:32:12 EDT 2013
User: lab3
Dark Spectrum Present: Yes
Reference Spectrum Present: No
Number of Sampled Component Spectra: 1
Spectrometers: USB2E7196
Integration Time (usec): 337000 (USB2E7196)
Spectra Averaged: 10 (USB2E7196)
Boxcar Smoothing: 10 (USB2E7196)
Correct for Electrical Dark: No (USB2E7196)
Strobe/Lamp Enabled: No (USB2E7196)
Correct for Detector Non-linearity: No (USB2E7196)
Correct for Stray Light: No (USB2E7196)
Number of Pixels in Processed Spectrum: 2048
>>>>>Begin Processed Spectral Data<<<<<
339.09	0.00
339.48	210.10
339.86	213.80
340.24	216.10
340.63	217.30
341.01	232.20
341.39	220.30
341.78	220.90
342.16	225.30
342.54	222.90
342.93	212.88
343.31	223.68
343.69	224.38
344.07	224.90
344.46	225.44
344.84	225.80
345.22	225.47
345.60	225.75
345.99	226.03
346.37	226.06
346.75	226.18
347.13	226.30
347.52	226.33
347.90	226.63
348.28	226.66
348.66	226.86
349.05	226.48
349.43	226.60
349.81	226.70
350.19	226.73
350.57	226.79
350.96	227.03
351.34	226.97
351.72	227.03
352.10	227.05
352.48	226.97
352.87	227.00
353.25	226.99
353.63	227.00
354.01	226.97
354.39	227.01
354.77	227.10
355.15	227.33
355.54	227.23
355.92	227.06
356.30	227.19
356.68	227.91
357.06	228.08
357.44	228.00
357.82	228.07
358.20	229.00
358.58	228.87
358.97	228.82
359.35	229.22
359.73	229.36
360.11	229.32
360.49	229.40
360.87	229.57
361.25	229.83
361.63	230.11
362.01	230.25
362.39	230.25
362.77	230.32
363.15	230.27
363.53	230.46
363.91	230.56
364.29	230.56
364.67	229.67
365.05	229.65
365.43	229.89
365.81	229.92
366.19	229.50
366.57	230.02
366.95	230.09
367.33	229.76
367.71	229.83
368.09	230.12
368.47	230.15
368.85	230.10
369.23	230.21
369.61	229.89
369.99	230.25
370.37	230.43
370.75	230.84
371.13	230.75
371.51	230.54
371.89	230.54
372.27	230.60
372.65	230.58
373.03	230.59
373.41	230.38
373.78	230.27
374.16	229.76
374.54	229.37
374.92	229.20
375.30	229.29
375.68	229.08
376.06	229.11
376.44	228.99
376.82	228.99
377.19	228.89
377.57	228.90
377.95	228.47
378.33	228.30
378.71	227.76
379.09	227.81
379.47	227.97
379.84	227.80
380.22	227.65
380.60	227.42
380.98	227.34
381.36	227.28
381.73	227.24
382.11	227.41
382.49	227.45
382.87	227.29
383.25	227.16
383.62	228.22
384.00	227.97
384.38	227.96
384.76	228.10
385.13	228.41
385.51	228.32
385.89	228.28
386.27	228.36
386.64	228.42
387.02	228.23
387.40	228.00
387.78	227.99
388.15	228.01
388.53	228.01
388.91	228.00
389.29	227.90
389.66	227.93
390.04	227.78
390.42	227.85
390.79	227.90
391.17	227.95
391.55	226.88
391.92	226.81
392.30	226.96
392.68	226.67
393.05	226.64
393.43	226.69
393.81	226.72
394.18	226.48
394.56	226.57
394.94	226.79
395.31	226.80
395.69	227.20
396.06	227.37
396.44	227.48
396.82	227.47
397.19	228.06
397.57	228.02
397.95	228.19
398.32	228.02
398.70	228.25
399.07	228.46
399.45	228.48
399.82	228.60
400.20	228.50
400.58	228.77
400.95	228.33
401.33	228.65
401.70	229.44
402.08	229.76
402.45	229.78
402.83	230.01
403.20	230.24
403.58	230.22
403.95	230.52
404.33	230.90
404.71	231.12
405.08	231.74
405.46	232.05
405.83	232.43
406.21	232.71
406.58	233.03
406.96	233.20
407.33	233.75
407.70	234.28
408.08	235.55
408.45	236.01
408.83	236.80
409.20	237.22
409.58	237.20
409.95	237.84
410.33	238.58
410.70	238.94
411.08	239.75
411.45	240.45
411.82	241.08
412.20	242.13
412.57	243.59
412.95	243.67
413.32	244.81
413.69	245.74
414.07	246.97
414.44	248.15
414.82	249.58
415.19	251.05
415.56	252.54
415.94	253.47
416.31	255.29
416.68	256.97
417.06	259.16
417.43	261.19
417.81	263.35
418.18	265.62
418.55	268.19
418.93	270.70
419.30	273.35
419.67	276.28
420.04	279.06
420.42	281.83
420.79	286.12
421.16	289.67
421.54	293.84
421.91	297.70
422.28	301.59
422.66	305.73
423.03	310.30
423.40	314.73
423.77	319.43
424.15	324.05
424.52	329.12
424.89	334.62
425.26	339.80
425.64	344.68
426.01	350.22
426.38	356.03
426.75	362.19
427.13	368.29
427.50	374.42
427.87	380.81
428.24	387.17
428.61	392.82
428.99	399.91
429.36	406.95
429.73	414.31
430.10	421.78
430.47	429.19
430.85	436.41
431.22	444.61
431.59	453.79
431.96	462.08
432.33	471.06
432.70	479.63
433.08	489.97
433.45	499.96
433.82	509.78
434.19	520.55
434.56	531.12
434.93	541.37
435.30	551.80
435.68	563.38
436.05	574.80
436.42	585.98
436.79	596.14
437.16	607.28
437.53	619.05
437.90	630.77
438.27	642.45
438.64	654.60
439.01	665.81
439.38	675.27
439.75	684.86
440.13	695.88
440.50	706.38
440.87	715.11
441.24	723.98
441.61	733.62
441.98	740.76
442.35	748.89
442.72	757.32
443.09	765.58
443.46	770.32
443.83	774.06
444.20	777.31
444.57	781.34
444.94	783.08
445.31	785.19
445.68	787.92
446.05	788.53
446.42	787.29
446.79	785.84
447.16	784.16
447.53	783.16
447.90	778.60
448.27	773.81
448.64	767.36
449.01	762.55
449.37	754.64
449.74	747.00
450.11	738.56
450.48	728.45
450.85	717.77
451.22	708.90
451.59	700.20
451.96	691.93
452.33	681.49
452.70	672.11
453.07	660.55
453.43	648.09
453.80	637.11
454.17	626.51
454.54	616.44
454.91	605.85
455.28	595.33
455.65	585.46
456.02	577.15
456.38	568.63
456.75	558.50
457.12	549.83
457.49	541.45
457.86	532.55
458.23	525.94
458.59	518.47
458.96	510.98
459.33	504.07
459.70	497.18
460.07	491.66
460.43	485.34
460.80	479.54
461.17	474.66
461.54	469.36
461.91	464.15
462.27	458.75
462.64	454.36
463.01	449.35
463.38	445.15
463.74	439.22
464.11	435.20
464.48	431.74
464.85	427.90
465.21	425.18
465.58	422.04
465.95	417.85
466.32	414.84
466.68	411.75
467.05	408.70
467.42	405.67
467.78	402.35
468.15	399.40
468.52	397.30
468.88	394.08
469.25	391.32
469.62	389.48
469.98	387.26
470.35	385.07
470.72	383.34
471.08	380.82
471.45	379.11
471.82	377.50
472.18	375.37
472.55	373.86
472.92	371.80
473.28	370.34
473.65	368.96
474.02	367.49
474.38	366.27
474.75	365.24
475.11	364.08
475.48	363.37
475.85	362.50
476.21	361.33
476.58	360.70
476.94	360.18
477.31	359.31
477.67	358.60
478.04	357.85
478.41	357.15
478.77	357.72
479.14	357.10
479.50	356.71
479.87	356.67
480.23	356.54
480.60	356.29
480.96	355.97
481.33	356.18
481.69	356.16
482.06	356.16
482.42	356.14
482.79	356.15
483.15	356.24
483.52	356.73
483.88	357.06
484.25	357.07
484.61	357.32
484.98	357.57
485.34	358.27
485.71	358.93
486.07	359.59
486.44	359.26
486.80	359.99
487.17	360.59
487.53	361.45
487.90	362.38
488.26	363.70
488.62	365.13
488.99	365.89
489.35	367.03
489.72	368.17
490.08	369.41
490.44	370.68
490.81	372.27
491.17	373.64
491.54	375.43
491.90	377.40
492.26	379.20
492.63	381.02
492.99	382.83
493.36	385.13
493.72	387.45
494.08	389.80
494.45	392.07
494.81	394.86
495.17	397.30
495.54	399.88
495.90	402.23
496.26	404.89
496.63	407.88
496.99	410.73
497.35	413.74
497.72	417.07
498.08	420.26
498.44	423.30
498.80	426.77
499.17	429.70
499.53	432.99
499.89	436.41
500.26	439.92
500.62	443.52
500.98	447.17
501.34	450.74
501.71	454.61
502.07	458.40
502.43	462.01
502.79	465.78
503.16	469.66
503.52	473.76
503.88	477.62
504.24	481.78
504.60	486.07
504.97	490.44
505.33	494.57
505.69	499.43
506.05	503.83
506.41	508.16
506.78	512.82
507.14	517.37
507.50	522.21
507.86	527.17
508.22	532.17
508.59	536.75
508.95	541.44
509.31	546.61
509.67	551.56
510.03	556.40
510.39	561.40
510.75	566.31
511.12	571.08
511.48	576.17
511.84	581.06
512.20	585.90
512.56	590.90
512.92	596.00
513.28	600.82
513.64	605.88
514.00	610.95
514.37	616.28
514.73	621.71
515.09	627.13
515.45	632.35
515.81	637.33
516.17	642.74
516.53	648.10
516.89	653.21
517.25	658.86
517.61	665.11
517.97	670.93
518.33	676.83
518.69	683.09
519.05	689.35
519.41	695.68
519.77	702.61
520.13	708.74
520.49	714.68
520.85	723.78
521.21	730.58
521.57	737.01
521.93	743.26
522.29	749.71
522.65	755.53
523.01	761.88
523.37	768.10
523.73	774.66
524.09	781.04
524.45	787.10
524.81	793.34
525.17	799.35
525.53	805.65
525.89	812.13
526.25	818.57
526.61	824.55
526.97	830.88
527.33	837.18
527.68	844.83
528.04	852.18
528.40	856.45
528.76	863.40
529.12	870.66
529.48	878.01
529.84	884.64
530.20	892.62
530.56	900.24
530.91	908.10
531.27	915.40
531.63	923.31
531.99	931.37
532.35	939.20
532.71	947.26
533.07	955.41
533.42	964.31
533.78	971.96
534.14	980.38
534.50	988.50
534.86	996.70
535.21	1003.52
535.57	1011.51
535.93	1018.94
536.29	1026.75
536.65	1034.79
537.00	1042.55
537.36	1050.61
537.72	1058.14
538.08	1066.04
538.44	1073.26
538.79	1080.95
539.15	1088.26
539.51	1095.64
539.87	1103.26
540.22	1109.75
540.58	1116.87
540.94	1122.92
541.29	1129.83
541.65	1136.47
542.01	1143.40
542.37	1149.28
542.72	1155.79
543.08	1161.66
543.44	1168.32
543.79	1173.94
544.15	1179.73
544.51	1186.01
544.87	1192.11
545.22	1197.74
545.58	1202.94
545.94	1208.36
546.29	1213.69
546.65	1218.59
547.01	1223.47
547.36	1228.13
547.72	1233.48
548.07	1238.10
548.43	1242.40
548.79	1247.36
549.14	1251.86
549.50	1256.44
549.86	1260.94
550.21	1265.58
550.57	1270.14
550.92	1273.92
551.28	1278.27
551.64	1282.37
551.99	1286.11
552.35	1289.89
552.70	1294.00
553.06	1297.87
553.41	1301.62
553.77	1305.89
554.13	1309.85
554.48	1313.80
554.84	1317.75
555.19	1321.54
555.55	1325.96
555.90	1329.29
556.26	1332.21
556.61	1334.45
556.97	1336.45
557.32	1339.43
557.68	1341.97
558.03	1344.73
558.39	1347.40
558.74	1349.92
559.10	1351.47
559.45	1353.40
559.81	1355.13
560.16	1356.30
560.52	1358.00
560.87	1359.97
561.23	1360.55
561.58	1362.52
561.94	1363.32
562.29	1363.85
562.64	1364.50
563.00	1363.90
563.35	1365.15
563.71	1365.81
564.06	1366.98
564.42	1367.93
564.77	1368.37
565.12	1369.36
565.48	1370.94
565.83	1371.54
566.19	1372.01
566.54	1373.03
566.89	1373.19
567.25	1373.73
567.60	1374.64
567.96	1376.00
568.31	1376.63
568.66	1377.14
569.02	1376.51
569.37	1376.61
569.72	1377.08
570.08	1376.46
570.43	1376.12
570.78	1375.17
571.14	1374.62
571.49	1373.90
571.84	1372.95
572.20	1371.52
572.55	1370.05
572.90	1367.48
573.26	1365.86
573.61	1363.59
573.96	1361.48
574.31	1359.49
574.67	1356.68
575.02	1353.80
575.37	1349.80
575.72	1346.18
576.08	1343.25
576.43	1339.88
576.78	1336.60
577.13	1332.93
577.49	1330.01
577.84	1327.18
578.19	1324.56
578.54	1321.61
578.90	1318.67
579.25	1316.06
579.60	1313.37
579.95	1309.71
580.30	1306.28
580.66	1302.48
581.01	1299.22
581.36	1295.38
581.71	1291.87
582.06	1289.31
582.42	1285.80
582.77	1282.44
583.12	1279.28
583.47	1276.16
583.82	1272.90
584.17	1269.67
584.53	1266.64
584.88	1262.61
585.23	1258.74
585.58	1254.17
585.93	1249.78
586.28	1245.59
586.63	1240.65
586.98	1236.21
587.34	1232.37
587.69	1227.71
588.04	1223.72
588.39	1219.80
588.74	1215.48
589.09	1211.54
589.44	1206.04
589.79	1201.91
590.14	1197.86
590.49	1193.61
590.84	1189.02
591.19	1185.26
591.54	1180.50
591.89	1175.64
592.25	1172.76
592.60	1168.86
592.95	1164.89
593.30	1160.62
593.65	1155.79
594.00	1151.33
594.35	1149.43
594.70	1144.45
595.05	1140.15
595.40	1135.39
595.75	1130.47
596.10	1126.21
596.45	1121.42
596.80	1117.49
597.15	1112.97
597.50	1108.10
597.85	1104.05
598.19	1099.05
598.54	1093.90
598.89	1089.01
599.24	1084.67
599.59	1079.18
599.94	1074.25
600.29	1069.66
600.64	1065.03
600.99	1060.64
601.34	1056.61
601.69	1049.59
602.04	1045.65
602.39	1041.50
602.74	1037.51
603.08	1033.23
603.43	1029.10
603.78	1024.54
604.13	1020.31
604.48	1015.74
604.83	1011.16
605.18	1006.03
605.53	1001.50
605.87	997.16
606.22	993.70
606.57	989.27
606.92	984.68
607.27	980.34
607.62	976.10
607.96	972.18
608.31	968.45
608.66	964.14
609.01	959.84
609.36	955.24
609.70	950.72
610.05	946.27
610.40	942.22
610.75	937.74
611.10	933.54
611.44	928.96
611.79	924.44
612.14	920.30
612.49	915.97
612.83	911.95
613.18	907.74
613.53	903.19
613.88	898.79
614.22	894.36
614.57	889.69
614.92	885.19
615.27	880.70
615.61	875.79
615.96	871.40
616.31	867.11
616.65	863.19
617.00	858.88
617.35	854.47
617.70	849.93
618.04	845.58
618.39	841.30
618.74	837.49
619.08	833.26
619.43	829.12
619.78	824.67
620.12	820.29
620.47	815.93
620.82	811.36
621.16	806.88
621.51	803.18
621.85	798.97
622.20	794.62
622.55	790.27
622.89	786.40
623.24	782.45
623.59	778.56
623.93	774.23
624.28	770.08
624.62	767.25
624.97	763.77
625.32	759.83
625.66	755.73
626.01	751.60
626.35	748.11
626.70	744.12
627.04	740.84
627.39	737.00
627.73	733.64
628.08	730.12
628.43	726.03
628.77	721.96
629.12	718.47
629.46	715.27
629.81	712.15
630.15	708.58
630.50	704.64
630.84	700.75
631.19	697.29
631.53	693.82
631.88	689.24
632.22	685.18
632.57	682.12
632.91	678.78
633.26	675.32
633.60	671.46
633.95	667.78
634.29	663.81
634.64	660.51
634.98	656.47
635.32	653.03
635.67	650.40
636.01	646.97
636.36	643.48
636.70	640.27
637.05	636.58
637.39	633.40
637.73	630.49
638.08	627.65
638.42	624.25
638.77	621.04
639.11	617.55
639.45	614.26
639.80	610.39
640.14	607.12
640.49	603.66
640.83	600.62
641.17	597.92
641.52	594.96
641.86	592.11
642.20	589.72
642.55	586.75
642.89	583.64
643.23	580.80
643.58	578.43
643.92	575.08
644.26	572.01
644.61	569.03
644.95	565.86
645.29	562.58
645.64	559.79
645.98	556.77
646.32	554.18
646.66	551.27
647.01	548.47
647.35	545.93
647.69	543.39
648.04	540.64
648.38	537.78
648.72	534.95
649.06	531.87
649.41	528.81
649.75	525.86
650.09	523.13
650.43	520.45
650.78	517.36
651.12	514.70
651.46	512.10
651.80	509.35
652.14	506.77
652.49	504.42
652.83	501.89
653.17	499.58
653.51	496.95
653.85	494.74
654.20	492.50
654.54	489.84
654.88	487.23
655.22	485.17
655.56	482.89
655.90	480.75
656.25	478.50
656.59	476.40
656.93	474.29
657.27	472.11
657.61	469.48
657.95	467.30
658.29	465.00
658.64	463.00
658.98	460.74
659.32	458.44
659.66	456.15
660.00	454.00
660.34	451.70
660.68	449.56
661.02	447.36
661.36	445.11
661.70	443.01
662.05	441.09
662.39	438.94
662.73	437.09
663.07	435.51
663.41	433.57
663.75	431.27
664.09	429.44
664.43	427.29
664.77	425.55
665.11	423.52
665.45	421.87
665.79	420.05
666.13	418.07
666.47	416.10
666.81	414.29
667.15	412.25
667.49	410.80
667.83	409.30
668.17	407.57
668.51	406.00
668.85	404.54
669.19	403.32
669.53	401.61
669.87	399.60
670.21	397.57
670.55	396.03
670.89	394.93
671.23	393.29
671.57	391.71
671.91	390.16
672.25	388.74
672.58	387.40
672.92	385.58
673.26	384.31
673.60	383.15
673.94	381.64
674.28	380.39
674.62	378.95
674.96	377.22
675.30	375.79
675.64	374.30
675.97	372.76
676.31	370.76
676.65	369.20
676.99	368.32
677.33	366.94
677.67	365.57
678.01	363.72
678.34	362.23
678.68	361.11
679.02	359.82
679.36	358.47
679.70	357.09
680.04	356.01
680.37	354.84
680.71	353.40
681.05	352.33
681.39	351.18
681.73	349.76
682.06	348.61
682.40	347.42
682.74	346.47
683.08	345.72
683.42	344.80
683.75	343.89
684.09	342.47
684.43	341.34
684.77	340.22
685.10	339.38
685.44	338.47
685.78	337.29
686.12	336.25
686.45	335.13
686.79	333.94
687.13	333.05
687.46	331.78
687.80	331.00
688.14	329.90
688.48	328.81
688.81	327.87
689.15	327.05
689.49	325.90
689.82	324.95
690.16	323.45
690.50	322.44
690.83	321.31
691.17	320.10
691.51	319.18
691.84	318.37
692.18	317.32
692.52	316.22
692.85	315.41
693.19	314.89
693.52	314.11
693.86	313.10
694.20	312.15
694.53	311.39
694.87	310.41
695.21	309.54
695.54	308.65
695.88	307.68
696.21	306.58
696.55	305.76
696.88	304.73
697.22	303.88
697.56	302.97
697.89	302.24
698.23	301.63
698.56	300.74
698.90	299.81
699.23	298.89
699.57	298.17
699.90	297.19
700.24	296.06
700.58	295.36
700.91	294.79
701.25	294.73
701.58	294.56
701.92	294.15
702.25	293.43
702.59	292.75
702.92	292.18
703.26	291.66
703.59	291.14
703.93	291.38
704.26	290.99
704.60	290.49
704.93	289.78
705.26	289.05
705.60	288.69
705.93	288.00
706.27	287.82
706.60	287.47
706.94	287.36
707.27	286.82
707.61	286.30
707.94	285.75
708.27	284.57
708.61	283.48
708.94	282.77
709.28	282.29
709.61	281.60
709.94	281.04
710.28	280.56
710.61	279.99
710.95	278.56
711.28	278.57
711.61	277.88
711.95	277.53
712.28	276.94
712.61	276.26
712.95	276.25
713.28	275.99
713.61	275.26
713.95	274.45
714.28	273.96
714.61	273.42
714.95	272.85
715.28	272.15
715.61	271.67
715.95	271.09
716.28	270.41
716.61	270.15
716.95	269.59
717.28	268.99
717.61	268.66
717.94	268.20
718.28	267.03
718.61	266.70
718.94	266.03
719.27	265.63
719.61	265.24
719.94	264.67
720.27	263.84
720.60	263.47
720.94	263.20
721.27	262.81
721.60	262.56
721.93	262.16
722.27	262.18
722.60	261.85
722.93	261.38
723.26	261.20
723.59	260.75
723.93	260.55
724.26	260.40
724.59	259.94
724.92	259.73
725.25	259.73
725.59	259.41
725.92	259.24
726.25	259.03
726.58	258.71
726.91	258.26
727.24	258.16
727.57	257.83
727.91	257.31
728.24	257.22
728.57	256.82
728.90	256.81
729.23	256.18
729.56	256.34
729.89	256.11
730.22	255.67
730.55	255.43
730.89	255.14
731.22	254.77
731.55	254.52
731.88	254.31
732.21	253.91
732.54	253.64
732.87	253.45
733.20	253.11
733.53	252.96
733.86	252.79
734.19	252.32
734.52	252.23
734.85	252.69
735.18	252.22
735.51	252.24
735.84	252.00
736.17	252.13
736.50	251.48
736.83	252.38
737.16	252.27
737.49	252.14
737.82	251.84
738.15	251.72
738.48	251.50
738.81	251.19
739.14	250.73
739.47	250.45
739.80	250.11
740.13	250.17
740.46	249.94
740.79	249.55
741.12	249.38
741.45	248.95
741.78	248.17
742.11	248.27
742.44	247.83
742.77	247.58
743.10	247.22
743.43	246.93
743.75	245.75
744.08	246.75
744.41	246.40
744.74	246.21
745.07	245.80
745.40	245.86
745.73	246.04
746.06	246.01
746.39	246.05
746.71	245.87
747.04	245.52
747.37	245.21
747.70	245.27
748.03	245.20
748.36	245.32
748.68	245.18
749.01	244.71
749.34	244.62
749.67	244.41
750.00	244.35
750.33	245.00
750.65	244.97
750.98	243.72
751.31	243.61
751.64	243.50
751.97	243.93
752.29	243.64
752.62	243.12
752.95	242.93
753.28	242.63
753.60	242.52
753.93	242.58
754.26	242.51
754.59	242.12
754.91	241.91
755.24	241.60
755.57	241.53
755.90	241.41
756.22	241.18
756.55	240.91
756.88	240.52
757.20	239.77
757.53	239.42
757.86	239.27
758.19	239.20
758.51	239.02
758.84	238.47
759.17	238.22
759.49	238.19
759.82	238.57
760.15	238.50
760.47	238.36
760.80	237.91
761.13	237.94
761.45	237.78
761.78	237.64
762.11	237.61
762.43	237.30
762.76	237.19
763.08	237.21
763.41	237.13
763.74	237.16
764.06	236.91
764.39	236.89
764.71	236.83
765.04	236.68
765.37	236.54
765.69	236.40
766.02	236.32
766.34	236.14
766.67	235.65
767.00	235.69
767.32	236.07
767.65	236.68
767.97	236.60
768.30	236.58
768.62	236.45
768.95	236.26
769.27	236.21
769.60	236.33
769.92	236.08
770.25	235.92
770.57	235.58
770.90	235.52
771.22	235.25
771.55	235.15
771.87	235.14
772.20	235.02
772.52	235.73
772.85	236.89
773.17	236.81
773.50	236.64
773.82	236.55
774.15	235.99
774.47	235.22
774.80	234.98
775.12	234.91
775.45	234.84
775.77	234.89
776.09	234.93
776.42	234.83
776.74	235.19
777.07	235.06
777.39	235.18
777.72	235.09
778.04	235.27
778.36	235.01
778.69	234.94
779.01	234.92
779.33	234.11
779.66	232.90
779.98	232.81
780.31	232.89
780.63	233.28
780.95	233.38
781.28	233.34
781.60	233.22
781.92	233.23
782.25	233.23
782.57	233.13
782.89	233.09
783.22	232.99
783.54	232.57
783.86	232.71
784.19	232.52
784.51	232.78
784.83	232.50
785.16	232.57
785.48	232.54
785.80	232.60
786.12	232.67
786.45	232.57
786.77	232.60
787.09	232.50
787.42	232.00
787.74	232.10
788.06	232.15
788.38	232.18
788.71	232.01
789.03	231.96
789.35	232.05
789.67	231.80
789.99	231.85
790.32	231.77
790.64	231.83
790.96	232.70
791.28	232.45
791.61	232.42
791.93	232.42
792.25	232.38
792.57	232.94
792.89	232.77
793.21	232.89
793.54	232.82
793.86	232.67
794.18	232.69
794.50	232.48
794.82	232.51
795.14	232.64
795.47	232.87
795.79	232.88
796.11	232.61
796.43	232.54
796.75	232.52
797.07	232.50
797.39	232.35
797.71	231.57
798.04	231.48
798.36	231.51
798.68	231.49
799.00	231.47
799.32	230.92
799.64	231.04
799.96	231.03
800.28	231.11
800.60	231.17
800.92	231.30
801.24	231.16
801.56	231.20
801.89	230.94
802.21	230.83
802.53	230.67
802.85	231.01
803.17	231.54
803.49	231.28
803.81	231.31
804.13	231.32
804.45	231.26
804.77	231.32
805.09	231.28
805.41	231.23
805.73	231.01
806.05	230.88
806.37	230.81
806.69	230.73
807.01	230.60
807.33	230.59
807.65	230.18
807.97	230.65
808.28	230.43
808.60	230.42
808.92	230.36
809.24	230.94
809.56	230.71
809.88	230.29
810.20	230.43
810.52	230.53
810.84	230.45
811.16	230.32
811.48	230.29
811.80	230.60
812.12	230.64
812.43	230.87
812.75	230.90
813.07	230.78
813.39	230.86
813.71	230.86
814.03	230.66
814.35	230.67
814.67	230.21
814.98	230.24
815.30	230.30
815.62	230.22
815.94	229.59
816.26	229.95
816.58	229.88
816.89	229.82
817.21	229.67
817.53	229.69
817.85	229.77
818.17	229.67
818.48	229.21
818.80	229.26
819.12	229.14
819.44	229.00
819.76	228.91
820.07	228.99
820.39	228.87
820.71	229.02
821.03	229.05
821.34	229.05
821.66	229.20
821.98	229.27
822.30	229.28
822.61	229.93
822.93	229.45
823.25	229.32
823.57	229.30
823.88	229.34
824.20	229.24
824.52	229.43
824.83	229.49
825.15	229.54
825.47	229.48
825.79	229.60
826.10	229.57
826.42	229.57
826.74	229.43
827.05	229.45
827.37	229.47
827.69	229.43
828.00	229.46
828.32	229.30
828.64	229.20
828.95	229.67
829.27	229.30
829.58	229.29
829.90	229.59
830.22	229.66
830.53	229.61
830.85	229.50
831.17	229.21
831.48	229.17
831.80	229.26
832.11	229.26
832.43	229.03
832.75	229.10
833.06	229.56
833.38	229.35
833.69	229.33
834.01	229.36
834.32	229.39
834.64	229.31
834.96	229.40
835.27	229.40
835.59	229.10
835.90	228.95
836.22	228.99
836.53	228.70
836.85	228.57
837.16	229.42
837.48	229.40
837.79	229.70
838.11	229.79
838.42	229.68
838.74	229.80
839.05	229.81
839.37	229.68
839.68	229.11
840.00	229.07
840.31	229.24
840.63	229.26
840.94	229.22
841.26	229.12
841.57	228.96
841.88	228.99
842.20	228.77
842.51	228.59
842.83	228.53
843.14	229.39
843.46	229.40
843.77	228.92
844.08	228.94
844.40	228.67
844.71	228.59
845.03	228.56
845.34	228.42
845.65	228.43
845.97	228.44
846.28	228.62
846.60	228.64
846.91	228.45
847.22	228.35
847.54	228.48
847.85	228.62
848.16	228.65
848.48	228.47
848.79	228.83
849.10	228.93
849.42	229.07
849.73	228.09
850.04	228.03
850.36	227.62
850.67	227.84
850.98	227.86
851.30	227.93
851.61	227.88
851.92	227.78
852.23	228.06
852.55	228.20
852.86	228.13
853.17	228.22
853.49	228.47
853.80	228.67
854.11	228.62
854.42	228.66
854.74	228.51
855.05	228.65
855.36	228.24
855.67	228.31
855.99	228.26
856.30	229.52
856.61	229.56
856.92	229.66
857.23	229.64
857.55	229.51
857.86	229.44
858.17	229.62
858.48	229.54
858.79	229.28
859.11	229.39
859.42	229.32
859.73	229.20
860.04	229.11
860.35	228.78
860.66	228.61
860.98	228.56
861.29	228.80
861.60	228.70
861.91	228.86
862.22	228.76
862.53	228.63
862.84	227.52
863.16	227.74
863.47	227.60
863.78	227.54
864.09	227.69
864.40	227.83
864.71	227.83
865.02	227.97
865.33	227.97
865.64	227.71
865.95	227.76
866.27	228.44
866.58	228.40
866.89	228.59
867.20	228.57
867.51	228.50
867.82	228.38
868.13	228.66
868.44	228.52
868.75	228.70
869.06	228.71
869.37	228.84
869.68	228.52
869.99	228.76
870.30	228.72
870.61	228.75
870.92	228.50
871.23	228.48
871.54	228.58
871.85	228.72
872.16	228.87
872.47	228.83
872.78	228.27
873.09	228.32
873.40	228.21
873.71	228.29
874.02	228.32
874.33	228.25
874.64	228.02
874.95	228.16
875.26	227.97
875.56	227.98
875.87	227.89
876.18	227.82
876.49	228.64
876.80	228.69
877.11	228.51
877.42	228.56
877.73	228.49
878.04	228.30
878.35	228.30
878.66	228.37
878.96	228.29
879.27	228.25
879.58	228.21
879.89	228.13
880.20	228.38
880.51	228.47
880.82	228.47
881.12	228.59
881.43	228.36
881.74	228.21
882.05	228.19
882.36	228.33
882.67	228.46
882.97	227.45
883.28	227.38
883.59	227.41
883.90	227.45
884.21	227.68
884.51	227.62
884.82	227.48
885.13	227.42
885.44	227.45
885.74	227.47
886.05	227.42
886.36	227.36
886.67	227.09
886.98	227.49
887.28	227.67
887.59	227.55
887.90	227.68
888.20	227.65
888.51	227.81
888.82	227.51
889.13	227.58
889.43	228.35
889.74	228.23
890.05	228.19
890.35	228.17
890.66	227.89
890.97	227.90
891.28	227.76
891.58	227.67
891.89	227.70
892.20	227.61
892.50	227.51
892.81	227.55
893.12	227.48
893.42	226.84
893.73	226.81
894.04	226.86
894.34	226.82
894.65	226.90
894.95	226.74
895.26	226.83
895.57	227.24
895.87	226.40
896.18	226.50
896.48	226.65
896.79	226.68
897.10	226.84
897.40	226.89
897.71	227.10
898.01	227.10
898.32	227.16
898.63	227.14
898.93	227.22
899.24	227.29
899.54	227.30
899.85	227.38
900.15	227.33
900.46	227.36
900.76	227.43
901.07	227.37
901.38	227.40
901.68	227.55
901.99	227.08
902.29	227.09
902.60	227.11
902.90	226.95
903.21	226.83
903.51	226.73
903.82	226.89
904.12	226.98
904.43	227.25
904.73	227.12
905.03	227.18
905.34	228.05
905.64	227.99
905.95	228.00
906.25	228.05
906.56	228.07
906.86	227.93
907.17	227.87
907.47	227.95
907.77	227.96
908.08	227.76
908.38	227.83
908.69	227.90
908.99	228.08
909.30	228.17
909.60	228.18
909.90	228.35
910.21	228.08
910.51	227.76
910.81	227.52
911.12	227.69
911.42	227.74
911.73	226.81
912.03	226.81
912.33	226.96
912.64	226.86
912.94	226.62
913.24	226.60
913.55	226.53
913.85	226.39
914.15	226.48
914.46	226.64
914.76	226.57
915.06	226.52
915.37	226.30
915.67	226.23
915.97	226.28
916.27	226.01
916.58	226.09
916.88	226.16
917.18	226.09
917.49	226.79
917.79	226.69
918.09	226.82
918.39	227.21
918.70	227.11
919.00	227.26
919.30	227.82
919.60	227.83
919.91	227.78
920.21	227.88
920.51	227.69
920.81	227.59
921.12	227.71
921.42	227.73
921.72	227.83
922.02	227.89
922.32	228.01
922.63	228.01
922.93	228.54
923.23	228.61
923.53	228.62
923.83	227.92
924.13	228.12
924.44	228.10
924.74	228.13
925.04	228.36
925.34	228.23
925.64	227.89
925.94	227.90
926.24	228.43
926.55	228.33
926.85	228.48
927.15	228.53
927.45	228.53
927.75	228.63
928.05	228.59
928.35	228.50
928.65	228.66
928.95	228.76
929.26	228.35
929.56	228.50
929.86	228.58
930.16	228.50
930.46	228.40
930.76	228.47
931.06	228.04
931.36	227.80
931.66	228.03
931.96	228.06
932.26	228.14
932.56	227.69
932.86	227.84
933.16	227.83
933.46	227.78
933.76	227.65
934.06	227.76
934.36	228.16
934.66	228.03
934.96	227.96
935.26	228.10
935.56	228.20
935.86	227.96
936.16	227.87
936.46	227.85
936.76	227.79
937.06	227.61
937.36	227.68
937.66	227.76
937.96	227.71
938.26	227.57
938.56	227.50
938.86	227.62
939.16	227.87
939.46	227.96
939.76	227.93
940.06	227.92
940.35	227.63
940.65	227.08
940.95	227.23
941.25	226.96
941.55	226.76
941.85	226.69
942.15	226.86
942.45	227.10
942.75	227.05
943.04	227.00
943.34	227.21
943.64	227.14
943.94	226.99
944.24	226.90
944.54	227.07
944.84	227.04
945.13	226.96
945.43	226.73
945.73	226.67
946.03	226.61
946.33	226.48
946.62	226.44
946.92	226.49
947.22	226.63
947.52	226.77
947.82	227.03
948.11	227.00
948.41	226.87
948.71	226.67
949.01	226.77
949.31	226.77
949.60	226.77
949.90	226.95
950.20	226.98
950.50	227.00
950.79	226.88
951.09	227.04
951.39	226.94
951.69	226.81
951.98	227.08
952.28	227.23
952.58	227.24
952.87	227.35
953.17	227.48
953.47	227.40
953.76	227.31
954.06	227.00
954.36	226.80
954.66	226.83
954.95	227.00
955.25	226.95
955.55	227.00
955.84	226.74
956.14	226.80
956.44	226.76
956.73	226.65
957.03	226.74
957.32	226.72
957.62	226.77
957.92	227.01
958.21	226.83
958.51	227.80
958.81	227.95
959.10	228.05
959.40	228.27
959.69	228.32
959.99	228.51
960.29	228.57
960.58	228.54
960.88	228.80
961.17	228.75
961.47	228.87
961.76	228.84
962.06	229.09
962.36	229.01
962.65	229.12
962.95	229.20
963.24	229.04
963.54	229.06
963.83	229.10
964.13	228.98
964.42	228.78
964.72	228.00
965.01	228.01
965.31	227.89
965.60	227.68
965.90	228.28
966.19	228.01
966.49	228.04
966.78	228.05
967.08	227.96
967.37	227.94
967.67	227.74
967.96	227.93
968.26	227.82
968.55	227.91
968.85	227.88
969.14	227.81
969.43	227.82
969.73	227.67
970.02	227.60
970.32	227.59
970.61	227.62
970.91	227.40
971.20	227.29
971.49	227.20
971.79	227.26
972.08	226.41
972.38	226.53
972.67	226.47
972.96	226.60
973.26	226.43
973.55	226.67
973.85	226.70
974.14	226.50
974.43	226.60
974.73	226.33
975.02	226.23
975.31	226.21
975.61	226.14
975.90	226.13
976.19	226.11
976.49	226.18
976.78	226.15
977.07	226.11
977.37	226.19
977.66	226.26
977.95	226.08
978.24	226.19
978.54	226.30
978.83	226.25
979.12	226.26
979.42	226.23
979.71	226.04
980.00	225.97
980.29	226.05
980.59	225.77
980.88	226.22
981.17	226.30
981.46	226.36
981.76	226.46
982.05	226.65
982.34	226.67
982.63	226.64
982.93	226.71
983.22	226.93
983.51	226.99
983.80	227.26
984.09	227.47
984.39	227.45
984.68	227.34
984.97	227.42
985.26	227.38
985.55	227.53
985.85	227.38
986.14	227.58
986.43	227.75
986.72	227.78
987.01	227.43
987.30	227.47
987.59	227.47
987.89	227.49
988.18	227.30
988.47	227.21
988.76	227.20
989.05	227.14
989.34	227.05
989.63	227.26
989.92	227.07
990.22	226.95
990.51	226.89
990.80	226.90
991.09	227.08
991.38	227.20
991.67	227.05
991.96	226.97
992.25	227.08
992.54	226.87
992.83	226.95
993.12	226.90
993.41	226.90
993.70	227.26
993.99	227.40
994.28	227.54
994.58	227.71
994.87	227.58
995.16	227.49
995.45	227.46
995.74	227.06
996.03	227.21
996.32	227.34
996.61	227.61
996.90	227.60
997.19	227.43
997.48	227.43
997.77	227.45
998.06	227.56
998.34	227.42
998.63	227.40
998.92	227.40
999.21	227.55
999.50	227.56
999.79	227.13
1000.08	227.05
1000.37	227.05
1000.66	227.03
1000.95	227.31
1001.24	227.40
1001.53	227.44
1001.82	227.44
1002.11	227.22
1002.40	227.32
1002.68	227.50
1002.97	228.11
1003.26	227.98
1003.55	227.77
1003.84	227.77
1004.13	228.00
1004.42	227.94
1004.71	227.99
1004.99	227.87
1005.28	227.98
1005.57	227.89
1005.86	227.92
1006.15	227.81
1006.44	227.61
1006.72	227.60
1007.01	227.30
1007.30	227.40
1007.59	227.20
1007.88	227.19
1008.17	227.14
1008.45	226.92
1008.74	226.57
1009.03	226.13
1009.32	226.08
1009.60	226.05
1009.89	225.94
1010.18	225.60
1010.47	225.54
1010.76	225.41
1011.04	225.48
1011.33	225.61
1011.62	225.65
1011.91	225.66
1012.19	225.80
1012.48	225.83
1012.77	225.90
1013.05	226.41
1013.34	226.30
1013.63	226.35
1013.92	226.47
1014.20	226.42
1014.49	226.49
1014.78	226.50
1015.06	226.24
1015.35	226.36
1015.64	226.59
1015.92	226.74
1016.21	226.70
1016.50	226.71
1016.78	226.91
1017.07	226.98
1017.36	226.71
1017.64	226.65
1017.93	226.70
1018.22	226.62
1018.50	226.69
1018.79	226.58
1019.08	226.22
1019.36	226.35
1019.65	226.30
1019.93	226.53
1020.22	226.75
1020.51	227.21
1020.79	227.15
1021.08	225.80
1021.36	226.20
1021.65	225.80
1021.94	227.60
1022.22	228.00
1022.51	225.40
1022.79	231.30
1023.08	228.30
1023.36	238.40
1023.65	224.50
>>>>>End Processed Spectral Data<<<<<
