SpectraSuite Data File
++++++++++++++++++++++++++++++++++++
Date: Wed Sep 04 17:30:15 EDT 2013
User: lab3
Dark Spectrum Present: Yes
Reference Spectrum Present: No
Number of Sampled Component Spectra: 1
Spectrometers: USB2E7196
Integration Time (usec): 337000 (USB2E7196)
Spectra Averaged: 10 (USB2E7196)
Boxcar Smoothing: 10 (USB2E7196)
Correct for Electrical Dark: No (USB2E7196)
Strobe/Lamp Enabled: No (USB2E7196)
Correct for Detector Non-linearity: No (USB2E7196)
Correct for Stray Light: No (USB2E7196)
Number of Pixels in Processed Spectrum: 2048
>>>>>Begin Processed Spectral Data<<<<<
339.09	0.00
339.48	212.90
339.86	213.80
340.24	216.40
340.63	217.40
341.01	234.30
341.39	220.80
341.78	223.40
342.16	226.90
342.54	223.80
342.93	213.44
343.31	224.19
343.69	224.70
344.07	225.14
344.46	225.75
344.84	226.17
345.22	225.68
345.60	225.98
345.99	226.18
346.37	226.06
346.75	226.18
347.13	226.30
347.52	226.44
347.90	226.88
348.28	226.97
348.66	227.14
349.05	226.84
349.43	226.94
349.81	227.02
350.19	227.09
350.57	227.16
350.96	227.31
351.34	227.38
351.72	227.48
352.10	227.61
352.48	227.46
352.87	227.46
353.25	227.63
353.63	227.58
354.01	227.52
354.39	227.69
354.77	227.75
355.15	227.95
355.54	227.90
355.92	227.65
356.30	227.79
356.68	228.48
357.06	228.54
357.44	228.45
357.82	228.56
358.20	229.49
358.58	229.50
358.97	229.60
359.35	229.85
359.73	230.11
360.11	230.17
360.49	230.32
360.87	230.30
361.25	230.46
361.63	230.79
362.01	230.93
362.39	230.84
362.77	230.93
363.15	230.91
363.53	230.84
363.91	230.89
364.29	230.84
364.67	230.01
365.05	230.10
365.43	230.19
365.81	230.26
366.19	229.82
366.57	230.27
366.95	230.25
367.33	230.08
367.71	230.13
368.09	230.30
368.47	230.28
368.85	230.39
369.23	230.55
369.61	230.31
369.99	230.68
370.37	230.98
370.75	231.40
371.13	231.16
371.51	231.19
371.89	231.28
372.27	231.44
372.65	231.53
373.03	231.48
373.41	231.49
373.78	231.38
374.16	230.91
374.54	230.49
374.92	230.29
375.30	230.20
375.68	229.92
376.06	229.94
376.44	229.83
376.82	229.85
377.19	229.69
377.57	229.51
377.95	228.99
378.33	228.74
378.71	228.07
379.09	228.28
379.47	228.25
379.84	228.06
380.22	227.72
380.60	227.47
380.98	227.33
381.36	227.05
381.73	226.90
382.11	226.99
382.49	226.92
382.87	226.87
383.25	226.86
383.62	227.88
384.00	227.66
384.38	227.66
384.76	227.76
385.13	228.07
385.51	228.08
385.89	228.00
386.27	227.93
386.64	228.10
387.02	227.90
387.40	227.74
387.78	227.71
388.15	227.79
388.53	227.65
388.91	227.57
389.29	227.68
389.66	227.69
390.04	227.59
390.42	227.79
390.79	227.83
391.17	227.78
391.55	226.71
391.92	226.67
392.30	226.84
392.68	226.58
393.05	226.45
393.43	226.52
393.81	226.64
394.18	226.54
394.56	226.59
394.94	226.85
395.31	226.92
395.69	227.18
396.06	227.37
396.44	227.59
396.82	227.61
397.19	228.15
397.57	228.22
397.95	228.37
398.32	228.10
398.70	228.30
399.07	228.64
399.45	228.76
399.82	228.85
400.20	228.78
400.58	228.93
400.95	228.73
401.33	229.00
401.70	229.80
402.08	230.14
402.45	230.33
402.83	230.67
403.20	230.91
403.58	231.13
403.95	231.54
404.33	231.91
404.71	232.28
405.08	233.02
405.46	233.37
405.83	233.85
406.21	234.33
406.58	234.83
406.96	235.18
407.33	235.79
407.70	236.40
408.08	237.80
408.45	238.57
408.83	239.55
409.20	240.22
409.58	240.40
409.95	241.21
410.33	242.12
410.70	242.78
411.08	243.93
411.45	244.94
411.82	245.80
412.20	247.16
412.57	248.96
412.95	249.39
413.32	251.00
413.69	252.32
414.07	253.96
414.44	255.52
414.82	257.50
415.19	259.71
415.56	261.91
415.94	263.68
416.31	266.27
416.68	268.70
417.06	271.62
417.43	274.67
417.81	277.86
418.18	281.13
418.55	284.63
418.93	288.31
419.30	292.11
419.67	296.20
420.04	300.37
420.42	304.58
420.79	310.27
421.16	315.49
421.54	321.30
421.91	326.84
422.28	332.76
422.66	338.77
423.03	345.26
423.40	351.50
423.77	358.05
424.15	364.84
424.52	372.08
424.89	379.95
425.26	387.30
425.64	394.61
426.01	402.54
426.38	411.09
426.75	419.75
427.13	428.61
427.50	437.91
427.87	447.33
428.24	456.88
428.61	465.56
428.99	475.97
429.36	486.69
429.73	497.60
430.10	508.26
430.47	519.40
430.85	530.42
431.22	542.61
431.59	556.03
431.96	568.44
432.33	582.11
432.70	595.35
433.08	611.04
433.45	625.88
433.82	640.80
434.19	657.30
434.56	673.50
434.93	688.91
435.30	704.53
435.68	722.07
436.05	738.84
436.42	756.02
436.79	771.55
437.16	788.51
437.53	806.50
437.90	824.61
438.27	842.47
438.64	860.96
439.01	878.10
439.38	893.34
439.75	908.49
440.13	925.40
440.50	941.19
440.87	954.57
441.24	968.33
441.61	983.50
441.98	994.61
442.35	1007.54
442.72	1021.10
443.09	1034.23
443.46	1042.17
443.83	1048.43
444.20	1053.67
444.57	1060.38
444.94	1064.05
445.31	1067.66
445.68	1071.44
446.05	1073.08
446.42	1071.66
446.79	1070.71
447.16	1068.90
447.53	1067.38
447.90	1061.48
448.27	1055.65
448.64	1046.65
449.01	1040.45
449.37	1028.83
449.74	1017.39
450.11	1004.49
450.48	989.70
450.85	974.21
451.22	961.23
451.59	948.70
451.96	936.77
452.33	921.18
452.70	906.85
453.07	889.81
453.43	872.02
453.80	855.53
454.17	839.88
454.54	824.35
454.91	807.99
455.28	792.28
455.65	777.23
456.02	763.48
456.38	750.90
456.75	735.27
457.12	722.38
457.49	709.87
457.86	697.17
458.23	686.54
458.59	675.08
458.96	663.45
459.33	653.04
459.70	642.61
460.07	634.21
460.43	624.67
460.80	615.86
461.17	608.36
461.54	600.37
461.91	592.39
462.27	584.37
462.64	577.67
463.01	570.48
463.38	563.71
463.74	555.50
464.11	549.42
464.48	544.00
464.85	538.09
465.21	533.95
465.58	529.18
465.95	523.47
466.32	518.98
466.68	514.30
467.05	509.62
467.42	505.31
467.78	500.48
468.15	496.24
468.52	493.10
468.88	488.43
469.25	484.19
469.62	481.22
469.98	477.82
470.35	474.63
470.72	471.58
471.08	468.20
471.45	465.75
471.82	463.15
472.18	460.17
472.55	458.01
472.92	455.16
473.28	452.89
473.65	450.70
474.02	448.48
474.38	446.82
474.75	445.46
475.11	443.44
475.48	442.23
475.85	440.70
476.21	439.26
476.58	438.25
476.94	437.41
477.31	436.45
477.67	435.59
478.04	434.85
478.41	434.22
478.77	434.44
479.14	433.72
479.50	433.33
479.87	433.36
480.23	433.29
480.60	433.06
480.96	432.70
481.33	433.17
481.69	433.26
482.06	433.41
482.42	433.51
482.79	433.88
483.15	434.40
483.52	435.50
483.88	436.14
484.25	436.94
484.61	437.91
484.98	438.56
485.34	440.11
485.71	441.52
486.07	442.88
486.44	443.51
486.80	444.84
487.17	446.47
487.53	448.37
487.90	450.27
488.26	452.93
488.62	455.54
488.99	457.74
489.35	460.21
489.72	462.68
490.08	465.52
490.44	468.33
490.81	471.36
491.17	474.06
491.54	477.43
491.90	480.79
492.26	484.29
492.63	487.93
492.99	491.29
493.36	495.03
493.72	499.12
494.08	503.39
494.45	508.03
494.81	512.76
495.17	517.37
495.54	522.26
495.90	526.68
496.26	531.63
496.63	536.55
496.99	541.53
497.35	547.00
497.72	552.54
498.08	558.04
498.44	563.63
498.80	569.69
499.17	575.33
499.53	581.14
499.89	587.51
500.26	593.71
500.62	599.94
500.98	606.70
501.34	612.98
501.71	619.52
502.07	625.87
502.43	632.27
502.79	638.61
503.16	645.04
503.52	651.65
503.88	657.90
504.24	664.84
504.60	671.75
504.97	678.89
505.33	685.70
505.69	693.06
506.05	700.12
506.41	706.52
506.78	713.40
507.14	720.31
507.50	726.99
507.86	733.96
508.22	740.95
508.59	747.43
508.95	754.13
509.31	761.44
509.67	768.36
510.03	774.60
510.39	780.90
510.75	787.58
511.12	794.00
511.48	800.49
511.84	806.38
512.20	812.35
512.56	818.38
512.92	824.51
513.28	830.07
513.64	835.84
514.00	842.14
514.37	847.90
514.73	853.71
515.09	859.37
515.45	864.74
515.81	869.93
516.17	875.06
516.53	880.23
516.89	884.63
517.25	889.50
517.61	894.92
517.97	900.21
518.33	905.15
518.69	910.00
519.05	914.98
519.41	919.67
519.77	925.22
520.13	929.42
520.49	933.43
520.85	940.65
521.21	944.93
521.57	948.91
521.93	952.60
522.29	956.51
522.65	959.76
523.01	963.36
523.37	966.41
523.73	969.58
524.09	972.63
524.45	975.45
524.81	978.37
525.17	981.37
525.53	984.03
525.89	986.59
526.25	989.51
526.61	991.77
526.97	994.98
527.33	997.31
527.68	1000.90
528.04	1004.05
528.40	1003.97
528.76	1006.80
529.12	1009.36
529.48	1012.28
529.84	1014.87
530.20	1018.10
530.56	1021.16
530.91	1024.75
531.27	1028.11
531.63	1031.60
531.99	1035.00
532.35	1038.15
532.71	1041.20
533.07	1044.39
533.42	1048.66
533.78	1051.78
534.14	1055.30
534.50	1057.84
534.86	1061.33
535.21	1063.20
535.57	1066.07
535.93	1068.99
536.29	1072.09
536.65	1075.52
537.00	1078.40
537.36	1081.29
537.72	1083.76
538.08	1086.95
538.44	1089.54
538.79	1092.24
539.15	1094.67
539.51	1097.31
539.87	1099.88
540.22	1101.76
540.58	1104.39
540.94	1105.58
541.29	1107.66
541.65	1109.70
542.01	1112.62
542.37	1113.95
542.72	1116.18
543.08	1117.91
543.44	1119.86
543.79	1121.59
544.15	1123.37
544.51	1125.51
544.87	1127.70
545.22	1129.61
545.58	1130.68
545.94	1131.87
546.29	1133.25
546.65	1134.70
547.01	1135.86
547.36	1137.49
547.72	1139.33
548.07	1140.53
548.43	1141.94
548.79	1143.45
549.14	1144.78
549.50	1146.05
549.86	1147.52
550.21	1148.80
550.57	1150.26
550.92	1151.38
551.28	1152.45
551.64	1153.76
551.99	1154.90
552.35	1155.66
552.70	1156.93
553.06	1158.55
553.41	1160.18
553.77	1162.22
554.13	1163.99
554.48	1166.00
554.84	1166.82
555.19	1168.49
555.55	1170.79
555.90	1171.87
556.26	1172.79
556.61	1173.17
556.97	1173.39
557.32	1174.40
557.68	1175.64
558.03	1176.74
558.39	1177.64
558.74	1178.41
559.10	1178.60
559.45	1179.22
559.81	1180.00
560.16	1180.21
560.52	1180.48
560.87	1181.33
561.23	1181.17
561.58	1181.88
561.94	1181.22
562.29	1181.36
562.64	1181.26
563.00	1180.27
563.35	1180.40
563.71	1181.04
564.06	1181.90
564.42	1182.18
564.77	1182.37
565.12	1182.73
565.48	1183.86
565.83	1184.54
566.19	1185.03
566.54	1185.59
566.89	1185.64
567.25	1186.01
567.60	1187.05
567.96	1188.36
568.31	1188.94
568.66	1189.26
569.02	1188.65
569.37	1189.10
569.72	1189.53
570.08	1188.94
570.43	1188.37
570.78	1188.29
571.14	1187.29
571.49	1186.20
571.84	1185.82
572.20	1185.09
572.55	1184.22
572.90	1182.39
573.26	1180.83
573.61	1179.29
573.96	1177.62
574.31	1175.96
574.67	1174.02
575.02	1171.15
575.37	1168.04
575.72	1165.29
576.08	1163.24
576.43	1160.75
576.78	1158.60
577.13	1156.23
577.49	1154.41
577.84	1152.99
578.19	1150.96
578.54	1148.96
578.90	1147.57
579.25	1145.59
579.60	1143.56
579.95	1140.90
580.30	1138.43
580.66	1136.15
581.01	1133.50
581.36	1130.68
581.71	1128.45
582.06	1126.27
582.42	1124.21
582.77	1121.91
583.12	1119.60
583.47	1116.89
583.82	1114.91
584.17	1112.60
584.53	1110.36
584.88	1107.53
585.23	1104.50
585.58	1101.25
585.93	1098.03
586.28	1094.60
586.63	1091.14
586.98	1087.43
587.34	1084.52
587.69	1081.06
588.04	1078.09
588.39	1075.63
588.74	1072.79
589.09	1070.25
589.44	1066.40
589.79	1063.43
590.14	1060.39
590.49	1057.43
590.84	1054.11
591.19	1050.86
591.54	1047.43
591.89	1044.01
592.25	1042.00
592.60	1038.83
592.95	1035.83
593.30	1032.74
593.65	1029.32
594.00	1025.79
594.35	1025.41
594.70	1021.87
595.05	1018.92
595.40	1015.18
595.75	1011.11
596.10	1007.90
596.45	1004.36
596.80	1001.39
597.15	998.20
597.50	994.47
597.85	990.93
598.19	987.36
598.54	983.85
598.89	980.34
599.24	977.10
599.59	972.79
599.94	969.16
600.29	965.74
600.64	962.08
600.99	958.73
601.34	955.90
601.69	950.01
602.04	946.55
602.39	943.12
602.74	940.12
603.08	937.21
603.43	934.16
603.78	930.42
604.13	926.92
604.48	922.91
604.83	919.18
605.18	915.60
605.53	912.11
605.87	908.54
606.22	905.26
606.57	901.51
606.92	897.82
607.27	894.46
607.62	891.20
607.96	888.34
608.31	885.10
608.66	881.62
609.01	878.28
609.36	874.92
609.70	871.19
610.05	867.28
610.40	863.93
610.75	860.04
611.10	856.64
611.44	853.07
611.79	849.78
612.14	846.51
612.49	842.66
612.83	839.44
613.18	836.02
613.53	832.28
613.88	828.39
614.22	824.65
614.57	820.81
614.92	816.44
615.27	812.80
615.61	809.22
615.96	805.49
616.31	801.25
616.65	797.95
617.00	794.31
617.35	790.91
617.70	786.83
618.04	783.21
618.39	779.63
618.74	776.57
619.08	772.82
619.43	768.92
619.78	765.01
620.12	761.20
620.47	757.36
620.82	753.50
621.16	749.88
621.51	747.10
621.85	743.70
622.20	740.54
622.55	736.63
622.89	733.03
623.24	729.70
623.59	726.33
623.93	722.78
624.28	719.30
624.62	716.78
624.97	713.89
625.32	710.45
625.66	706.95
626.01	702.91
626.35	699.78
626.70	696.88
627.04	694.18
627.39	690.59
627.73	687.50
628.08	684.48
628.43	681.23
628.77	677.36
629.12	674.06
629.46	671.00
629.81	668.19
630.15	665.17
630.50	661.77
630.84	658.75
631.19	655.55
631.53	652.78
631.88	648.57
632.22	645.15
632.57	642.43
632.91	639.39
633.26	636.82
633.60	633.58
633.95	630.29
634.29	626.68
634.64	623.88
634.98	620.76
635.32	618.03
635.67	615.52
636.01	612.58
636.36	609.48
636.70	606.90
637.05	603.78
637.39	600.73
637.73	598.01
638.08	595.33
638.42	592.22
638.77	589.08
639.11	586.01
639.45	582.57
639.80	579.30
640.14	576.31
640.49	572.99
640.83	570.33
641.17	567.76
641.52	565.16
641.86	562.42
642.20	560.07
642.55	557.14
642.89	554.12
643.23	551.50
643.58	549.36
643.92	546.02
644.26	543.34
644.61	540.95
644.95	538.14
645.29	535.21
645.64	532.87
645.98	530.29
646.32	528.07
646.66	525.58
647.01	523.13
647.35	521.03
647.69	518.78
648.04	516.31
648.38	513.78
648.72	511.33
649.06	508.60
649.41	505.79
649.75	503.13
650.09	500.94
650.43	498.43
650.78	495.92
651.12	493.70
651.46	491.37
651.80	488.91
652.14	486.52
652.49	484.60
652.83	482.18
653.17	479.95
653.51	477.49
653.85	475.53
654.20	473.31
654.54	470.73
654.88	468.46
655.22	466.60
655.56	464.45
655.90	462.32
656.25	460.56
656.59	458.46
656.93	456.51
657.27	454.71
657.61	452.38
657.95	450.24
658.29	448.13
658.64	446.25
658.98	444.13
659.32	442.01
659.66	439.79
660.00	437.78
660.34	435.70
660.68	433.65
661.02	431.78
661.36	429.90
661.70	427.81
662.05	425.95
662.39	424.15
662.73	422.60
663.07	421.40
663.41	419.63
663.75	417.85
664.09	416.03
664.43	413.87
664.77	412.46
665.11	410.60
665.45	409.18
665.79	407.68
666.13	405.88
666.47	404.14
666.81	402.42
667.15	400.55
667.49	399.00
667.83	397.95
668.17	396.43
668.51	394.85
668.85	393.53
669.19	392.66
669.53	390.77
669.87	388.99
670.21	387.10
670.55	385.47
670.89	384.40
671.23	382.92
671.57	381.55
671.91	380.08
672.25	378.66
672.58	377.19
672.92	375.29
673.26	373.94
673.60	372.82
673.94	371.53
674.28	370.52
674.62	369.33
674.96	367.77
675.30	366.38
675.64	365.00
675.97	363.69
676.31	361.82
676.65	360.44
676.99	359.38
677.33	357.89
677.67	356.74
678.01	354.91
678.34	353.80
678.68	352.73
679.02	351.39
679.36	350.35
679.70	349.07
680.04	348.13
680.37	346.86
680.71	345.61
681.05	344.68
681.39	343.48
681.73	342.39
682.06	341.17
682.40	340.05
682.74	339.26
683.08	338.65
683.42	337.60
683.75	336.74
684.09	335.57
684.43	334.65
684.77	333.63
685.10	332.82
685.44	331.74
685.78	330.76
686.12	329.82
686.45	328.68
686.79	327.51
687.13	326.65
687.46	325.88
687.80	325.19
688.14	324.02
688.48	323.10
688.81	322.10
689.15	321.61
689.49	320.64
689.82	319.65
690.16	318.17
690.50	317.26
690.83	316.32
691.17	315.26
691.51	314.48
691.84	313.64
692.18	312.78
692.52	311.91
692.85	311.07
693.19	310.62
693.52	309.68
693.86	308.96
694.20	308.05
694.53	307.31
694.87	306.35
695.21	305.49
695.54	304.80
695.88	303.77
696.21	302.60
696.55	301.83
696.88	300.96
697.22	300.19
697.56	299.54
697.89	298.64
698.23	298.13
698.56	297.26
698.90	296.70
699.23	295.83
699.57	295.20
699.90	294.24
700.24	293.22
700.58	292.75
700.91	292.31
701.25	292.38
701.58	292.30
701.92	291.86
702.25	291.38
702.59	290.64
702.92	290.24
703.26	289.74
703.59	289.20
703.93	289.47
704.26	289.14
704.60	288.60
704.93	288.02
705.26	287.28
705.60	286.84
705.93	286.07
706.27	285.88
706.60	285.45
706.94	285.45
707.27	284.89
707.61	284.43
707.94	283.80
708.27	282.62
708.61	281.44
708.94	280.77
709.28	280.24
709.61	279.59
709.94	279.05
710.28	278.54
710.61	278.07
710.95	276.63
711.28	276.71
711.61	276.06
711.95	275.86
712.28	275.37
712.61	274.82
712.95	274.81
713.28	274.69
713.61	274.03
713.95	273.20
714.28	272.78
714.61	272.17
714.95	271.62
715.28	271.01
715.61	270.50
715.95	270.16
716.28	269.54
716.61	269.33
716.95	268.72
717.28	268.23
717.61	267.74
717.94	267.38
718.28	266.13
718.61	265.78
718.94	265.22
719.27	264.86
719.61	264.54
719.94	263.96
720.27	263.02
720.60	262.57
720.94	262.28
721.27	261.95
721.60	261.74
721.93	261.29
722.27	261.30
722.60	261.20
722.93	260.69
723.26	260.50
723.59	260.09
723.93	259.93
724.26	259.77
724.59	259.36
724.92	259.16
725.25	259.25
725.59	258.91
725.92	258.69
726.25	258.32
726.58	258.12
726.91	257.67
727.24	257.49
727.57	257.22
727.91	256.81
728.24	256.64
728.57	256.32
728.90	256.29
729.23	255.55
729.56	255.67
729.89	255.46
730.22	255.16
730.55	254.84
730.89	254.62
731.22	254.20
731.55	254.09
731.88	253.81
732.21	253.31
732.54	253.00
732.87	252.68
733.20	252.50
733.53	252.19
733.86	251.98
734.19	251.75
734.52	251.73
734.85	252.07
735.18	251.70
735.51	251.78
735.84	251.49
736.17	251.69
736.50	250.90
736.83	251.80
737.16	251.58
737.49	251.40
737.82	251.16
738.15	251.13
738.48	250.90
738.81	250.61
739.14	250.35
739.47	250.09
739.80	249.90
740.13	249.77
740.46	249.42
740.79	249.22
741.12	248.90
741.45	248.50
741.78	247.79
742.11	247.82
742.44	247.36
742.77	247.28
743.10	246.96
743.43	246.71
743.75	245.47
744.08	246.51
744.41	246.23
744.74	245.97
745.07	245.55
745.40	245.54
745.73	245.77
746.06	245.65
746.39	245.73
746.71	245.47
747.04	245.28
747.37	245.04
747.70	245.02
748.03	244.95
748.36	245.04
748.68	244.92
749.01	244.50
749.34	244.31
749.67	244.24
750.00	244.23
750.33	244.87
750.65	244.73
750.98	243.40
751.31	243.31
751.64	243.22
751.97	243.64
752.29	243.31
752.62	242.79
752.95	242.70
753.28	242.40
753.60	242.30
753.93	242.32
754.26	242.45
754.59	242.01
754.91	241.84
755.24	241.51
755.57	241.38
755.90	241.27
756.22	241.00
756.55	240.79
756.88	240.39
757.20	239.65
757.53	239.33
757.86	239.19
758.19	239.10
758.51	238.98
758.84	238.38
759.17	238.23
759.49	238.10
759.82	238.39
760.15	238.29
760.47	238.13
760.80	237.79
761.13	237.71
761.45	237.60
761.78	237.53
762.11	237.44
762.43	237.22
762.76	237.11
763.08	237.30
763.41	237.19
763.74	237.20
764.06	237.07
764.39	237.07
764.71	237.02
765.04	236.90
765.37	236.70
765.69	236.65
766.02	236.59
766.34	236.51
766.67	235.98
767.00	236.07
767.32	236.44
767.65	236.86
767.97	236.66
768.30	236.69
768.62	236.65
768.95	236.50
769.27	236.39
769.60	236.40
769.92	236.10
770.25	235.87
770.57	235.68
770.90	235.69
771.22	235.51
771.55	235.45
771.87	235.45
772.20	235.45
772.52	236.24
772.85	237.34
773.17	237.30
773.50	237.19
773.82	236.99
774.15	236.47
774.47	235.88
774.80	235.80
775.12	235.76
775.45	235.52
775.77	235.48
776.09	235.60
776.42	235.55
776.74	235.79
777.07	235.71
777.39	235.67
777.72	235.49
778.04	235.59
778.36	235.42
778.69	235.35
779.01	235.38
779.33	234.42
779.66	233.30
779.98	233.29
780.31	233.25
780.63	233.63
780.95	233.81
781.28	233.83
781.60	233.72
781.92	233.57
782.25	233.58
782.57	233.53
782.89	233.34
783.22	233.24
783.54	233.01
783.86	233.06
784.19	232.92
784.51	233.10
784.83	232.94
785.16	232.89
785.48	232.76
785.80	232.79
786.12	232.76
786.45	232.60
786.77	232.60
787.09	232.67
787.42	232.21
787.74	232.13
788.06	232.14
788.38	232.15
788.71	232.08
789.03	232.02
789.35	232.17
789.67	232.01
789.99	231.97
790.32	231.83
790.64	231.88
790.96	232.73
791.28	232.39
791.61	232.34
791.93	232.43
792.25	232.55
792.57	233.17
792.89	233.06
793.21	233.19
793.54	233.12
793.86	232.86
794.18	233.05
794.50	232.86
794.82	232.75
795.14	232.77
795.47	232.97
795.79	233.03
796.11	232.74
796.43	232.74
796.75	232.75
797.07	232.80
797.39	232.76
797.71	232.02
798.04	232.15
798.36	232.10
798.68	231.99
799.00	231.92
799.32	231.32
799.64	231.49
799.96	231.48
800.28	231.56
800.60	231.59
800.92	231.56
801.24	231.54
801.56	231.68
801.89	231.60
802.21	231.61
802.53	231.50
802.85	231.72
803.17	232.33
803.49	232.16
803.81	232.07
804.13	231.91
804.45	231.78
804.77	231.80
805.09	231.80
805.41	231.75
805.73	231.51
806.05	231.33
806.37	231.32
806.69	231.16
807.01	231.03
807.33	231.24
807.65	230.96
807.97	231.46
808.28	231.30
808.60	231.31
808.92	231.18
809.24	231.69
809.56	231.57
809.88	231.02
810.20	231.13
810.52	231.37
810.84	231.25
811.16	231.19
811.48	231.04
811.80	231.40
812.12	231.36
812.43	231.63
812.75	231.64
813.07	231.48
813.39	231.58
813.71	231.45
814.03	231.22
814.35	231.14
814.67	230.69
814.98	230.46
815.30	230.46
815.62	230.21
815.94	229.62
816.26	229.94
816.58	229.78
816.89	229.74
817.21	229.39
817.53	229.50
817.85	229.50
818.17	229.47
818.48	229.05
818.80	229.19
819.12	228.93
819.44	228.75
819.76	228.60
820.07	228.57
820.39	228.55
820.71	228.61
821.03	228.64
821.34	228.57
821.66	228.79
821.98	228.78
822.30	228.82
822.61	229.37
822.93	228.92
823.25	228.89
823.57	228.88
823.88	229.01
824.20	228.98
824.52	229.09
824.83	229.21
825.15	229.15
825.47	229.03
825.79	229.16
826.10	229.13
826.42	229.11
826.74	229.23
827.05	229.16
827.37	229.19
827.69	229.07
828.00	229.07
828.32	229.03
828.64	228.83
828.95	229.30
829.27	229.00
829.58	229.04
829.90	229.26
830.22	229.23
830.53	228.94
830.85	228.85
831.17	228.63
831.48	228.46
831.80	228.51
832.11	228.48
832.43	228.29
832.75	228.29
833.06	228.92
833.38	228.55
833.69	228.57
834.01	228.60
834.32	228.63
834.64	228.56
834.96	228.54
835.27	228.60
835.59	228.24
835.90	228.08
836.22	227.98
836.53	227.84
836.85	227.70
837.16	228.79
837.48	228.93
837.79	229.20
838.11	229.35
838.42	229.29
838.74	229.46
839.05	229.34
839.37	229.33
839.68	228.67
840.00	228.74
840.31	228.81
840.63	228.76
840.94	228.74
841.26	228.70
841.57	228.72
841.88	228.78
842.20	228.58
842.51	228.44
842.83	228.51
843.14	229.33
843.46	229.40
843.77	228.85
844.08	228.65
844.40	228.31
844.71	228.10
845.03	228.03
845.34	227.86
845.65	227.99
845.97	228.00
846.28	228.18
846.60	228.18
846.91	228.03
847.22	227.93
847.54	228.16
847.85	228.19
848.16	228.11
848.48	227.99
848.79	228.51
849.10	228.62
849.42	228.66
849.73	227.73
850.04	227.62
850.36	227.19
850.67	227.50
850.98	227.66
851.30	227.80
851.61	227.84
851.92	227.94
852.23	228.24
852.55	228.36
852.86	228.25
853.17	228.37
853.49	228.70
853.80	228.95
854.11	228.91
854.42	229.08
854.74	228.99
855.05	229.07
855.36	228.52
855.67	228.61
855.99	228.60
856.30	229.75
856.61	229.75
856.92	229.91
857.23	229.76
857.55	229.69
857.86	229.57
858.17	229.65
858.48	229.47
858.79	229.24
859.11	229.30
859.42	229.35
859.73	229.14
860.04	228.98
860.35	228.64
860.66	228.38
860.98	228.23
861.29	228.41
861.60	228.26
861.91	228.45
862.22	228.31
862.53	228.09
862.84	226.97
863.16	227.22
863.47	227.06
863.78	226.95
864.09	227.00
864.40	227.10
864.71	227.07
865.02	227.17
865.33	227.08
865.64	226.85
865.95	226.75
866.27	227.25
866.58	227.20
866.89	227.34
867.20	227.32
867.51	227.23
867.82	227.19
868.13	227.54
868.44	227.32
868.75	227.49
869.06	227.60
869.37	227.66
869.68	227.36
869.99	227.44
870.30	227.47
870.61	227.62
870.92	227.46
871.23	227.48
871.54	227.56
871.85	227.80
872.16	227.95
872.47	227.89
872.78	227.51
873.09	227.52
873.40	227.38
873.71	227.50
874.02	227.61
874.33	227.50
874.64	227.29
874.95	227.51
875.26	227.33
875.56	227.30
875.87	227.25
876.18	227.34
876.49	228.28
876.80	228.26
877.11	227.99
877.42	228.12
877.73	228.09
878.04	228.01
878.35	227.98
878.66	227.90
878.96	227.87
879.27	227.80
879.58	227.90
879.89	227.90
880.20	228.17
880.51	228.07
880.82	228.00
881.12	227.99
881.43	227.83
881.74	227.81
882.05	227.80
882.36	227.92
882.67	227.93
882.97	226.91
883.28	226.86
883.59	226.86
883.90	226.92
884.21	227.09
884.51	227.02
884.82	226.86
885.13	226.85
885.44	226.88
885.74	226.90
886.05	226.79
886.36	226.86
886.67	226.51
886.98	227.00
887.28	227.19
887.59	227.29
887.90	227.28
888.20	227.06
888.51	227.22
888.82	227.04
889.13	227.19
889.43	228.04
889.74	228.04
890.05	227.97
890.35	227.90
890.66	227.64
890.97	227.53
891.28	227.44
891.58	227.52
891.89	227.53
892.20	227.40
892.50	227.27
892.81	227.19
893.12	227.23
893.42	226.83
893.73	226.92
894.04	226.85
894.34	226.97
894.65	227.12
894.95	227.00
895.26	227.05
895.57	227.51
895.87	226.63
896.18	226.82
896.48	226.86
896.79	226.80
897.10	227.03
897.40	227.09
897.71	227.20
898.01	227.05
898.32	227.20
898.63	227.27
898.93	227.32
899.24	227.45
899.54	227.40
899.85	227.34
900.15	227.26
900.46	227.27
900.76	227.25
901.07	227.20
901.38	227.28
901.68	227.37
901.99	226.86
902.29	226.87
902.60	226.76
902.90	226.78
903.21	226.87
903.51	226.83
903.82	227.08
904.12	227.11
904.43	227.36
904.73	227.25
905.03	227.30
905.34	228.33
905.64	228.20
905.95	228.15
906.25	228.16
906.56	228.08
906.86	228.15
907.17	228.14
907.47	228.24
907.77	228.18
908.08	227.98
908.38	228.06
908.69	228.29
908.99	228.43
909.30	228.50
909.60	228.49
909.90	228.55
910.21	228.31
910.51	228.23
910.81	228.15
911.12	228.28
911.42	228.27
911.73	227.20
912.03	227.30
912.33	227.58
912.64	227.58
912.94	227.44
913.24	227.25
913.55	227.26
913.85	227.20
914.15	227.39
914.46	227.56
914.76	227.41
915.06	227.20
915.37	227.02
915.67	226.96
915.97	226.92
916.27	226.73
916.58	226.82
916.88	226.74
917.18	226.68
917.49	227.35
917.79	227.35
918.09	227.60
918.39	227.87
918.70	227.80
919.00	227.80
919.30	228.35
919.60	228.32
919.91	228.11
920.21	228.09
920.51	227.87
920.81	227.83
921.12	227.90
921.42	227.94
921.72	228.06
922.02	228.12
922.32	228.22
922.63	228.24
922.93	228.68
923.23	228.81
923.53	228.71
923.83	228.04
924.13	228.14
924.44	228.15
924.74	228.27
925.04	228.50
925.34	228.47
925.64	228.05
925.94	228.04
926.24	228.70
926.55	228.59
926.85	228.68
927.15	228.56
927.45	228.58
927.75	228.53
928.05	228.54
928.35	228.49
928.65	228.65
928.95	228.69
929.26	228.29
929.56	228.41
929.86	228.49
930.16	228.42
930.46	228.31
930.76	228.25
931.06	227.76
931.36	227.40
931.66	227.55
931.96	227.62
932.26	227.61
932.56	227.00
932.86	227.10
933.16	227.13
933.46	227.13
933.76	227.06
934.06	227.34
934.36	227.53
934.66	227.51
934.96	227.36
935.26	227.36
935.56	227.46
935.86	227.10
936.16	226.96
936.46	226.85
936.76	226.74
937.06	226.56
937.36	226.57
937.66	226.65
937.96	226.68
938.26	226.45
938.56	226.50
938.86	226.65
939.16	226.86
939.46	226.94
939.76	227.06
940.06	227.03
940.35	226.78
940.65	226.30
940.95	226.28
941.25	226.04
941.55	225.96
941.85	225.82
942.15	226.15
942.45	226.37
942.75	226.34
943.04	226.40
943.34	226.70
943.64	226.54
943.94	226.38
944.24	226.35
944.54	226.51
944.84	226.49
945.13	226.43
945.43	226.30
945.73	226.14
946.03	226.03
946.33	225.86
946.62	225.87
946.92	225.97
947.22	226.05
947.52	226.13
947.82	226.31
948.11	226.21
948.41	225.97
948.71	225.80
949.01	225.89
949.31	225.86
949.60	225.67
949.90	225.92
950.20	226.00
950.50	225.90
950.79	225.80
951.09	225.95
951.39	225.99
951.69	225.91
951.98	226.19
952.28	226.36
952.58	226.41
952.87	226.43
953.17	226.58
953.47	226.55
953.76	226.58
954.06	226.44
954.36	226.47
954.66	226.45
954.95	226.66
955.25	226.78
955.55	226.86
955.84	226.85
956.14	226.87
956.44	226.87
956.73	226.78
957.03	226.85
957.32	226.83
957.62	226.76
957.92	226.93
958.21	226.80
958.51	227.80
958.81	227.94
959.10	228.00
959.40	228.16
959.69	228.27
959.99	228.45
960.29	228.41
960.58	228.36
960.88	228.91
961.17	228.87
961.47	228.82
961.76	228.76
962.06	228.90
962.36	228.87
962.65	228.90
962.95	228.96
963.24	228.82
963.54	228.89
963.83	228.97
964.13	228.96
964.42	228.72
964.72	227.95
965.01	227.91
965.31	227.80
965.60	227.64
965.90	228.21
966.19	227.90
966.49	227.94
966.78	228.03
967.08	227.78
967.37	227.74
967.67	227.63
967.96	227.87
968.26	227.69
968.55	227.87
968.85	227.83
969.14	227.80
969.43	227.89
969.73	227.77
970.02	227.72
970.32	227.66
970.61	227.75
970.91	227.51
971.20	227.42
971.49	227.48
971.79	227.48
972.08	226.75
972.38	226.88
972.67	226.88
972.96	226.90
973.26	226.80
973.55	227.08
973.85	227.01
974.14	226.74
974.43	226.91
974.73	226.69
975.02	226.53
975.31	226.60
975.61	226.56
975.90	226.46
976.19	226.36
976.49	226.40
976.78	226.42
977.07	226.37
977.37	226.51
977.66	226.51
977.95	226.40
978.24	226.51
978.54	226.71
978.83	226.69
979.12	226.65
979.42	226.62
979.71	226.39
980.00	226.45
980.29	226.57
980.59	226.38
980.88	226.58
981.17	226.72
981.46	226.62
981.76	226.55
982.05	226.77
982.34	226.82
982.63	226.84
982.93	226.76
983.22	227.04
983.51	226.92
983.80	227.06
984.09	227.20
984.39	227.15
984.68	226.98
984.97	226.97
985.26	226.83
985.55	226.84
985.85	226.65
986.14	226.76
986.43	226.86
986.72	226.89
987.01	226.65
987.30	226.64
987.59	226.59
987.89	226.69
988.18	226.52
988.47	226.43
988.76	226.34
989.05	226.35
989.34	226.13
989.63	226.50
989.92	226.32
990.22	226.11
990.51	226.12
990.80	226.19
991.09	226.25
991.38	226.50
991.67	226.49
991.96	226.51
992.25	226.46
992.54	226.31
992.83	226.33
993.12	226.37
993.41	226.54
993.70	227.04
993.99	227.33
994.28	227.50
994.58	227.71
994.87	227.69
995.16	227.67
995.45	227.69
995.74	227.28
996.03	227.51
996.32	227.74
996.61	228.04
996.90	227.97
997.19	227.99
997.48	228.00
997.77	227.95
998.06	228.02
998.34	228.01
998.63	228.05
998.92	228.07
999.21	228.21
999.50	228.22
999.79	227.90
1000.08	227.84
1000.37	227.81
1000.66	227.70
1000.95	227.85
1001.24	227.94
1001.53	228.01
1001.82	228.10
1002.11	227.80
1002.40	227.93
1002.68	228.05
1002.97	228.69
1003.26	228.58
1003.55	228.45
1003.84	228.48
1004.13	228.78
1004.42	228.73
1004.71	228.70
1004.99	228.63
1005.28	228.81
1005.57	228.71
1005.86	228.65
1006.15	228.49
1006.44	228.27
1006.72	228.42
1007.01	228.16
1007.30	228.07
1007.59	227.96
1007.88	227.87
1008.17	227.90
1008.45	227.69
1008.74	227.30
1009.03	226.84
1009.32	226.75
1009.60	226.64
1009.89	226.51
1010.18	226.05
1010.47	226.01
1010.76	226.00
1011.04	225.98
1011.33	225.97
1011.62	225.96
1011.91	225.92
1012.19	226.02
1012.48	226.05
1012.77	225.92
1013.05	226.41
1013.34	226.49
1013.63	226.43
1013.92	226.47
1014.20	226.43
1014.49	226.40
1014.78	226.46
1015.06	226.10
1015.35	226.13
1015.64	226.33
1015.92	226.51
1016.21	226.63
1016.50	226.61
1016.78	226.76
1017.07	226.84
1017.36	226.58
1017.64	226.46
1017.93	226.56
1018.22	226.42
1018.50	226.40
1018.79	226.40
1019.08	226.02
1019.36	226.01
1019.65	225.87
1019.93	226.13
1020.22	226.34
1020.51	226.82
1020.79	226.71
1021.08	225.20
1021.36	224.00
1021.65	226.80
1021.94	226.20
1022.22	226.40
1022.51	223.40
1022.79	230.30
1023.08	228.70
1023.36	237.20
1023.65	224.90
>>>>>End Processed Spectral Data<<<<<
