SpectraSuite Data File
++++++++++++++++++++++++++++++++++++
Date: Wed Sep 04 17:30:11 EDT 2013
User: lab3
Dark Spectrum Present: Yes
Reference Spectrum Present: No
Number of Sampled Component Spectra: 1
Spectrometers: USB2E7196
Integration Time (usec): 337000 (USB2E7196)
Spectra Averaged: 10 (USB2E7196)
Boxcar Smoothing: 10 (USB2E7196)
Correct for Electrical Dark: No (USB2E7196)
Strobe/Lamp Enabled: No (USB2E7196)
Correct for Detector Non-linearity: No (USB2E7196)
Correct for Stray Light: No (USB2E7196)
Number of Pixels in Processed Spectrum: 2048
>>>>>Begin Processed Spectral Data<<<<<
339.09	0.00
339.48	213.10
339.86	214.50
340.24	213.90
340.63	216.70
341.01	233.30
341.39	217.10
341.78	222.50
342.16	226.20
342.54	221.90
342.93	212.84
343.31	223.53
343.69	223.98
344.07	224.57
344.46	225.18
344.84	225.63
345.22	225.25
345.60	225.76
345.99	225.97
346.37	225.96
346.75	226.11
347.13	226.21
347.52	226.30
347.90	226.62
348.28	226.70
348.66	226.91
349.05	226.69
349.43	226.82
349.81	226.90
350.19	226.80
350.57	226.93
350.96	226.96
351.34	227.17
351.72	227.38
352.10	227.34
352.48	227.35
352.87	227.31
353.25	227.42
353.63	227.35
354.01	227.36
354.39	227.50
354.77	227.53
355.15	227.79
355.54	227.73
355.92	227.55
356.30	227.56
356.68	228.25
357.06	228.36
357.44	228.33
357.82	228.44
358.20	229.35
358.58	229.39
358.97	229.53
359.35	229.70
359.73	229.97
360.11	230.03
360.49	230.10
360.87	230.16
361.25	230.35
361.63	230.75
362.01	230.86
362.39	230.86
362.77	230.98
363.15	231.01
363.53	231.11
363.91	231.10
364.29	231.22
364.67	230.38
365.05	230.45
365.43	230.54
365.81	230.66
366.19	230.42
366.57	230.81
366.95	230.79
367.33	230.49
367.71	230.40
368.09	230.55
368.47	230.64
368.85	230.62
369.23	230.65
369.61	230.29
369.99	230.64
370.37	230.64
370.75	231.19
371.13	230.91
371.51	230.74
371.89	230.95
372.27	230.83
372.65	230.90
373.03	230.80
373.41	230.65
373.78	230.59
374.16	230.01
374.54	229.63
374.92	229.48
375.30	229.62
375.68	229.30
376.06	229.35
376.44	229.10
376.82	229.22
377.19	229.22
377.57	229.09
377.95	228.65
378.33	228.66
378.71	228.03
379.09	228.19
379.47	228.31
379.84	228.13
380.22	228.11
380.60	227.96
380.98	227.93
381.36	227.96
381.73	227.77
382.11	227.83
382.49	227.75
382.87	227.68
383.25	227.61
383.62	228.80
384.00	228.61
384.38	228.68
384.76	228.83
385.13	229.11
385.51	229.20
385.89	229.12
386.27	229.06
386.64	229.18
387.02	229.06
387.40	228.85
387.78	228.89
388.15	228.90
388.53	228.91
388.91	228.82
389.29	228.76
389.66	228.90
390.04	228.88
390.42	229.15
390.79	229.18
391.17	229.01
391.55	227.99
391.92	227.97
392.30	228.17
392.68	227.91
393.05	227.81
393.43	227.90
393.81	228.00
394.18	227.86
394.56	227.86
394.94	228.19
395.31	228.22
395.69	228.56
396.06	228.71
396.44	228.82
396.82	228.99
397.19	229.42
397.57	229.40
397.95	229.52
398.32	229.25
398.70	229.49
399.07	229.85
399.45	229.90
399.82	229.90
400.20	229.80
400.58	229.87
400.95	229.66
401.33	229.96
401.70	230.64
402.08	230.89
402.45	231.08
402.83	231.44
403.20	231.68
403.58	231.64
403.95	231.97
404.33	232.27
404.71	232.47
405.08	233.28
405.46	233.51
405.83	233.91
406.21	234.40
406.58	234.77
406.96	235.28
407.33	235.85
407.70	236.58
408.08	237.87
408.45	238.69
408.83	239.52
409.20	240.06
409.58	240.30
409.95	241.31
410.33	242.26
410.70	242.78
411.08	243.96
411.45	245.11
411.82	246.11
412.20	247.36
412.57	249.23
412.95	249.72
413.32	251.39
413.69	252.96
414.07	254.51
414.44	256.32
414.82	258.08
415.19	260.30
415.56	262.41
415.94	264.08
416.31	266.67
416.68	269.19
417.06	272.20
417.43	275.29
417.81	278.55
418.18	281.83
418.55	285.39
418.93	289.00
419.30	292.87
419.67	297.01
420.04	301.27
420.42	305.45
420.79	311.33
421.16	316.54
421.54	322.30
421.91	327.98
422.28	333.70
422.66	339.93
423.03	346.46
423.40	352.76
423.77	359.65
424.15	366.55
424.52	373.87
424.89	381.86
425.26	389.35
425.64	396.68
426.01	404.63
426.38	413.10
426.75	421.95
427.13	430.81
427.50	440.04
427.87	449.63
428.24	459.21
428.61	468.02
428.99	478.48
429.36	489.19
429.73	500.18
430.10	511.25
430.47	522.60
430.85	533.51
431.22	545.88
431.59	559.63
431.96	572.00
432.33	585.64
432.70	599.10
433.08	615.02
433.45	629.94
433.82	644.87
434.19	661.53
434.56	677.97
434.93	693.80
435.30	709.60
435.68	727.22
436.05	744.76
436.42	761.81
436.79	777.59
437.16	795.08
437.53	813.32
437.90	831.25
438.27	849.36
438.64	868.38
439.01	886.04
439.38	901.24
439.75	916.48
440.13	933.92
440.50	949.93
440.87	963.14
441.24	977.14
441.61	992.18
441.98	1003.75
442.35	1016.89
442.72	1030.30
443.09	1043.68
443.46	1051.91
443.83	1057.76
444.20	1063.06
444.57	1070.15
444.94	1073.44
445.31	1076.96
445.68	1081.24
446.05	1082.86
446.42	1081.44
446.79	1079.96
447.16	1078.21
447.53	1077.19
447.90	1070.94
448.27	1064.94
448.64	1055.94
449.01	1049.28
449.37	1038.06
449.74	1026.47
450.11	1013.26
450.48	998.09
450.85	982.30
451.22	969.23
451.59	956.63
451.96	944.51
452.33	928.34
452.70	913.85
453.07	896.67
453.43	878.70
453.80	861.80
454.17	845.66
454.54	830.12
454.91	813.23
455.28	797.20
455.65	782.11
456.02	767.96
456.38	755.59
456.75	739.88
457.12	726.59
457.49	713.83
457.86	700.91
458.23	690.73
458.59	679.06
458.96	667.31
459.33	656.80
459.70	646.40
460.07	638.16
460.43	628.70
460.80	619.91
461.17	612.19
461.54	604.01
461.91	596.42
462.27	588.44
462.64	581.94
463.01	574.51
463.38	567.64
463.74	559.46
464.11	553.09
464.48	547.83
464.85	542.01
465.21	537.78
465.58	533.04
465.95	526.97
466.32	522.63
466.68	517.82
467.05	513.28
467.42	508.78
467.78	503.88
468.15	499.54
468.52	496.16
468.88	491.35
469.25	487.35
469.62	484.39
469.98	480.91
470.35	477.80
470.72	474.65
471.08	471.29
471.45	468.75
471.82	466.14
472.18	462.99
472.55	461.04
472.92	458.28
473.28	455.96
473.65	453.74
474.02	451.50
474.38	449.84
474.75	448.06
475.11	446.16
475.48	445.02
475.85	443.55
476.21	442.38
476.58	441.49
476.94	440.58
477.31	439.36
477.67	438.50
478.04	437.80
478.41	437.44
478.77	437.93
479.14	437.30
479.50	437.00
479.87	437.25
480.23	437.06
480.60	436.80
480.96	436.67
481.33	437.36
481.69	437.44
482.06	437.61
482.42	437.93
482.79	438.56
483.15	438.85
483.52	439.91
483.88	440.58
484.25	441.24
484.61	442.10
484.98	443.00
485.34	444.54
485.71	445.70
486.07	447.08
486.44	447.78
486.80	449.38
487.17	450.91
487.53	452.79
487.90	454.82
488.26	457.40
488.62	460.05
488.99	461.94
489.35	464.51
489.72	467.13
490.08	469.90
490.44	472.64
490.81	476.00
491.17	478.86
491.54	482.24
491.90	485.83
492.26	489.50
492.63	493.35
492.99	496.89
493.36	501.00
493.72	505.19
494.08	509.39
494.45	514.04
494.81	518.78
495.17	523.34
495.54	528.26
495.90	533.02
496.26	537.86
496.63	543.28
496.99	548.50
497.35	553.74
497.72	559.38
498.08	564.88
498.44	570.47
498.80	576.61
499.17	582.38
499.53	588.33
499.89	594.70
500.26	600.60
500.62	606.94
500.98	613.59
501.34	619.82
501.71	626.29
502.07	632.64
502.43	639.17
502.79	645.70
503.16	652.38
503.52	659.01
503.88	665.46
504.24	672.36
504.60	679.65
504.97	686.97
505.33	693.80
505.69	701.39
506.05	708.44
506.41	715.29
506.78	722.45
507.14	729.66
507.50	736.86
507.86	744.38
508.22	751.26
508.59	758.00
508.95	765.31
509.31	773.01
509.67	780.02
510.03	786.64
510.39	793.49
510.75	800.31
511.12	807.01
511.48	813.75
511.84	819.97
512.20	826.05
512.56	832.19
512.92	838.64
513.28	844.64
513.64	850.79
514.00	857.01
514.37	862.83
514.73	868.80
515.09	874.12
515.45	879.49
515.81	884.95
516.17	890.13
516.53	895.26
516.89	899.83
517.25	905.24
517.61	911.12
517.97	916.18
518.33	921.07
518.69	926.11
519.05	931.36
519.41	936.42
519.77	941.83
520.13	946.67
520.49	950.99
520.85	956.60
521.21	961.23
521.57	965.81
521.93	969.63
522.29	973.59
522.65	977.38
523.01	981.13
523.37	984.59
523.73	988.42
524.09	991.46
524.45	994.37
524.81	997.48
525.17	1000.15
525.53	1003.36
525.89	1006.50
526.25	1009.29
526.61	1011.44
526.97	1013.90
527.33	1016.49
527.68	1020.09
528.04	1023.09
528.40	1024.33
528.76	1027.03
529.12	1029.09
529.48	1032.31
529.84	1034.88
530.20	1038.02
530.56	1041.26
530.91	1044.81
531.27	1047.86
531.63	1051.27
531.99	1054.78
532.35	1057.57
532.71	1060.56
533.07	1063.92
533.42	1067.60
533.78	1070.89
534.14	1074.31
534.50	1077.82
534.86	1081.15
535.21	1083.33
535.57	1086.74
535.93	1089.93
536.29	1093.54
536.65	1096.96
537.00	1099.79
537.36	1102.47
537.72	1105.17
538.08	1108.24
538.44	1110.82
538.79	1113.50
539.15	1115.90
539.51	1118.59
539.87	1121.04
540.22	1123.46
540.58	1125.67
540.94	1127.00
541.29	1129.27
541.65	1131.42
542.01	1133.60
542.37	1135.11
542.72	1136.75
543.08	1138.11
543.44	1140.35
543.79	1140.90
544.15	1142.79
544.51	1144.71
544.87	1146.92
545.22	1148.67
545.58	1149.73
545.94	1150.89
546.29	1152.18
546.65	1153.70
547.01	1154.47
547.36	1155.96
547.72	1157.20
548.07	1158.10
548.43	1159.16
548.79	1160.44
549.14	1161.54
549.50	1162.71
549.86	1163.92
550.21	1165.34
550.57	1166.64
550.92	1167.30
551.28	1168.82
551.64	1169.99
551.99	1171.36
552.35	1172.21
552.70	1173.27
553.06	1174.80
553.41	1176.22
553.77	1178.29
554.13	1179.60
554.48	1181.06
554.84	1182.40
555.19	1184.09
555.55	1186.59
555.90	1188.05
556.26	1188.58
556.61	1189.47
556.97	1189.80
557.32	1190.69
557.68	1191.44
558.03	1192.30
558.39	1193.01
558.74	1193.90
559.10	1193.91
559.45	1194.10
559.81	1194.46
560.16	1194.68
560.52	1194.36
560.87	1194.84
561.23	1194.43
561.58	1195.15
561.94	1195.06
562.29	1194.72
562.64	1194.50
563.00	1193.24
563.35	1193.46
563.71	1194.01
564.06	1194.41
564.42	1194.73
564.77	1195.12
565.12	1195.57
565.48	1196.55
565.83	1196.91
566.19	1197.03
566.54	1197.60
566.89	1197.80
567.25	1198.51
567.60	1199.10
567.96	1200.41
568.31	1200.90
568.66	1201.16
569.02	1200.38
569.37	1200.55
569.72	1200.82
570.08	1200.24
570.43	1199.70
570.78	1199.06
571.14	1198.04
571.49	1196.99
571.84	1196.57
572.20	1195.41
572.55	1194.31
572.90	1192.23
573.26	1190.81
573.61	1189.32
573.96	1187.51
574.31	1185.64
574.67	1183.25
575.02	1181.06
575.37	1178.15
575.72	1175.30
576.08	1173.00
576.43	1170.70
576.78	1168.39
577.13	1165.85
577.49	1163.67
577.84	1161.68
578.19	1159.84
578.54	1158.03
578.90	1156.26
579.25	1154.01
579.60	1151.73
579.95	1149.00
580.30	1146.50
580.66	1144.03
581.01	1141.26
581.36	1138.51
581.71	1136.06
582.06	1134.11
582.42	1131.36
582.77	1128.73
583.12	1126.57
583.47	1123.84
583.82	1121.83
584.17	1119.24
584.53	1117.24
584.88	1114.50
585.23	1111.98
585.58	1108.32
585.93	1105.03
586.28	1101.54
586.63	1098.07
586.98	1094.51
587.34	1091.80
587.69	1088.67
588.04	1085.89
588.39	1083.06
588.74	1080.00
589.09	1077.27
589.44	1073.36
589.79	1070.44
590.14	1067.67
590.49	1064.21
590.84	1061.18
591.19	1057.82
591.54	1054.80
591.89	1051.26
592.25	1049.33
592.60	1046.09
592.95	1043.61
593.30	1040.26
593.65	1037.00
594.00	1033.43
594.35	1032.83
594.70	1028.90
595.05	1025.59
595.40	1021.73
595.75	1018.14
596.10	1014.91
596.45	1011.10
596.80	1007.91
597.15	1004.34
597.50	1000.30
597.85	997.38
598.19	993.55
598.54	989.68
598.89	986.04
599.24	982.49
599.59	977.99
599.94	974.00
600.29	969.91
600.64	966.40
600.99	962.87
601.34	959.88
601.69	953.80
602.04	950.49
602.39	947.03
602.74	943.94
603.08	940.52
603.43	937.46
603.78	934.08
604.13	930.72
604.48	927.17
604.83	923.66
605.18	919.65
605.53	916.13
605.87	912.93
606.22	909.43
606.57	905.93
606.92	902.01
607.27	898.79
607.62	895.43
607.96	892.25
608.31	889.26
608.66	885.89
609.01	882.67
609.36	879.43
609.70	875.79
610.05	872.17
610.40	869.02
610.75	864.91
611.10	861.42
611.44	857.54
611.79	853.72
612.14	850.20
612.49	846.64
612.83	843.30
613.18	839.59
613.53	835.94
613.88	831.90
614.22	828.36
614.57	824.42
614.92	820.61
615.27	817.02
615.61	812.80
615.96	808.72
616.31	804.92
616.65	801.32
617.00	797.60
617.35	793.68
617.70	789.60
618.04	785.74
618.39	781.99
618.74	778.76
619.08	775.41
619.43	771.74
619.78	767.90
620.12	763.99
620.47	760.32
620.82	756.67
621.16	753.12
621.51	750.14
621.85	746.58
622.20	743.04
622.55	738.91
622.89	735.72
623.24	732.54
623.59	728.92
623.93	725.22
624.28	721.87
624.62	719.34
624.97	716.50
625.32	713.16
625.66	709.70
626.01	705.92
626.35	702.69
626.70	699.30
627.04	696.20
627.39	692.69
627.73	689.54
628.08	686.40
628.43	682.90
628.77	679.26
629.12	675.99
629.46	672.99
629.81	670.39
630.15	667.00
630.50	663.65
630.84	660.54
631.19	657.59
631.53	654.86
631.88	650.98
632.22	647.16
632.57	644.75
632.91	641.85
633.26	638.97
633.60	635.69
633.95	632.59
634.29	629.12
634.64	626.24
634.98	622.67
635.32	619.67
635.67	617.04
636.01	614.02
636.36	611.07
636.70	608.25
637.05	605.09
637.39	602.37
637.73	599.43
638.08	596.57
638.42	593.36
638.77	590.08
639.11	586.73
639.45	583.75
639.80	580.27
640.14	577.03
640.49	574.20
640.83	571.44
641.17	568.84
641.52	566.09
641.86	563.48
642.20	561.43
642.55	558.48
642.89	555.65
643.23	552.93
643.58	550.68
643.92	547.71
644.26	544.90
644.61	542.16
644.95	539.63
645.29	536.83
645.64	534.45
645.98	531.73
646.32	529.67
646.66	526.90
647.01	524.39
647.35	522.14
647.69	519.61
648.04	517.32
648.38	514.86
648.72	512.63
649.06	509.93
649.41	507.08
649.75	504.50
650.09	502.04
650.43	499.61
650.78	496.91
651.12	494.45
651.46	492.10
651.80	489.79
652.14	487.41
652.49	485.37
652.83	482.96
653.17	480.74
653.51	478.22
653.85	476.34
654.20	474.24
654.54	471.91
654.88	469.62
655.22	467.70
655.56	465.50
655.90	463.23
656.25	461.11
656.59	459.13
656.93	457.16
657.27	455.42
657.61	453.07
657.95	451.05
658.29	449.04
658.64	447.35
658.98	445.23
659.32	442.97
659.66	440.89
660.00	439.00
660.34	437.04
660.68	435.08
661.02	433.10
661.36	431.08
661.70	429.15
662.05	427.39
662.39	425.34
662.73	423.82
663.07	422.58
663.41	420.92
663.75	419.01
664.09	417.28
664.43	415.19
664.77	413.67
665.11	411.77
665.45	410.21
665.79	408.36
666.13	406.54
666.47	404.84
666.81	403.05
667.15	401.18
667.49	399.70
667.83	398.49
668.17	396.83
668.51	395.29
668.85	393.88
669.19	392.74
669.53	390.94
669.87	389.11
670.21	387.24
670.55	385.77
670.89	384.69
671.23	383.15
671.57	381.75
671.91	380.22
672.25	378.78
672.58	377.49
672.92	375.87
673.26	374.65
673.60	373.40
673.94	372.14
674.28	370.98
674.62	369.75
674.96	368.22
675.30	367.03
675.64	365.82
675.97	364.30
676.31	362.57
676.65	361.14
676.99	360.22
677.33	358.66
677.67	357.38
678.01	355.71
678.34	354.62
678.68	353.66
679.02	352.39
679.36	351.33
679.70	349.91
680.04	348.79
680.37	347.71
680.71	346.56
681.05	345.46
681.39	344.31
681.73	342.94
682.06	341.79
682.40	340.58
682.74	339.58
683.08	338.90
683.42	337.80
683.75	337.05
684.09	335.74
684.43	334.94
684.77	333.82
685.10	332.93
685.44	331.87
685.78	330.66
686.12	329.77
686.45	328.71
686.79	327.64
687.13	326.90
687.46	325.86
687.80	325.21
688.14	324.16
688.48	323.39
688.81	322.69
689.15	322.04
689.49	321.07
689.82	320.16
690.16	318.82
690.50	318.04
690.83	317.08
691.17	316.05
691.51	315.13
691.84	314.60
692.18	313.68
692.52	312.78
692.85	312.14
693.19	311.71
693.52	310.88
693.86	310.06
694.20	309.09
694.53	308.22
694.87	307.23
695.21	306.46
695.54	305.57
695.88	304.52
696.21	303.35
696.55	302.63
696.88	301.74
697.22	301.03
697.56	300.28
697.89	299.43
698.23	298.84
698.56	298.17
698.90	297.26
699.23	296.50
699.57	295.82
699.90	294.78
700.24	293.67
700.58	292.97
700.91	292.48
701.25	292.66
701.58	292.74
701.92	292.32
702.25	291.82
702.59	291.06
702.92	290.59
703.26	290.16
703.59	289.58
703.93	289.78
704.26	289.25
704.60	288.73
704.93	288.10
705.26	287.40
705.60	286.89
705.93	286.19
706.27	285.90
706.60	285.53
706.94	285.63
707.27	284.96
707.61	284.39
707.94	283.81
708.27	282.54
708.61	281.18
708.94	280.47
709.28	279.86
709.61	279.32
709.94	278.88
710.28	278.27
710.61	277.73
710.95	276.45
711.28	276.67
711.61	276.05
711.95	275.78
712.28	275.26
712.61	274.68
712.95	274.69
713.28	274.50
713.61	273.86
713.95	272.95
714.28	272.65
714.61	272.16
714.95	271.65
715.28	270.97
715.61	270.53
715.95	270.03
716.28	269.42
716.61	269.14
716.95	268.52
717.28	268.11
717.61	267.67
717.94	267.19
718.28	266.08
718.61	265.72
718.94	265.22
719.27	264.84
719.61	264.54
719.94	263.88
720.27	263.07
720.60	262.64
720.94	262.20
721.27	261.83
721.60	261.69
721.93	261.32
722.27	261.36
722.60	261.21
722.93	260.90
723.26	260.73
723.59	260.20
723.93	259.99
724.26	259.76
724.59	259.40
724.92	259.12
725.25	259.05
725.59	258.78
725.92	258.58
726.25	258.30
726.58	258.04
726.91	257.64
727.24	257.49
727.57	257.23
727.91	256.92
728.24	256.67
728.57	256.34
728.90	256.15
729.23	255.55
729.56	255.68
729.89	255.36
730.22	254.93
730.55	254.66
730.89	254.43
731.22	254.10
731.55	253.88
731.88	253.74
732.21	253.30
732.54	252.92
732.87	252.66
733.20	252.42
733.53	252.14
733.86	252.08
734.19	251.63
734.52	251.58
734.85	252.01
735.18	251.72
735.51	251.73
735.84	251.50
736.17	251.56
736.50	250.84
736.83	251.70
737.16	251.65
737.49	251.60
737.82	251.28
738.15	251.21
738.48	251.00
738.81	250.71
739.14	250.38
739.47	250.11
739.80	249.88
740.13	249.79
740.46	249.50
740.79	249.20
741.12	249.05
741.45	248.65
741.78	248.02
742.11	248.13
742.44	247.66
742.77	247.66
743.10	247.32
743.43	247.15
743.75	245.89
744.08	246.90
744.41	246.56
744.74	246.34
745.07	245.96
745.40	246.05
745.73	246.29
746.06	246.03
746.39	245.96
746.71	245.66
747.04	245.35
747.37	245.18
747.70	245.07
748.03	244.93
748.36	244.95
748.68	244.66
749.01	244.15
749.34	244.05
749.67	243.84
750.00	243.86
750.33	244.35
750.65	244.41
750.98	243.11
751.31	243.09
751.64	243.00
751.97	243.36
752.29	243.09
752.62	242.45
752.95	242.45
753.28	242.23
753.60	242.05
753.93	242.11
754.26	242.02
754.59	241.64
754.91	241.38
755.24	241.13
755.57	241.01
755.90	240.80
756.22	240.68
756.55	240.38
756.88	240.06
757.20	239.41
757.53	238.94
757.86	238.80
758.19	238.69
758.51	238.65
758.84	238.10
759.17	237.87
759.49	237.81
759.82	238.22
760.15	238.26
760.47	238.20
760.80	237.86
761.13	237.90
761.45	237.79
761.78	237.74
762.11	237.70
762.43	237.49
762.76	237.51
763.08	237.49
763.41	237.51
763.74	237.41
764.06	237.34
764.39	237.32
764.71	237.12
765.04	236.95
765.37	236.79
765.69	236.67
766.02	236.58
766.34	236.49
766.67	235.90
767.00	235.92
767.32	236.37
767.65	236.87
767.97	236.62
768.30	236.73
768.62	236.68
768.95	236.55
769.27	236.52
769.60	236.47
769.92	236.23
770.25	236.08
770.57	236.00
770.90	235.86
771.22	235.77
771.55	235.78
771.87	235.81
772.20	235.63
772.52	236.38
772.85	237.43
773.17	237.38
773.50	237.35
773.82	237.14
774.15	236.59
774.47	236.00
774.80	235.92
775.12	235.63
775.45	235.60
775.77	235.50
776.09	235.50
776.42	235.57
776.74	235.75
777.07	235.66
777.39	235.61
777.72	235.49
778.04	235.42
778.36	235.34
778.69	235.30
779.01	235.36
779.33	234.49
779.66	233.48
779.98	233.39
780.31	233.34
780.63	233.78
780.95	233.95
781.28	233.95
781.60	233.81
781.92	233.96
782.25	233.91
782.57	233.91
782.89	233.82
783.22	233.65
783.54	233.39
783.86	233.46
784.19	233.29
784.51	233.57
784.83	233.51
785.16	233.52
785.48	233.43
785.80	233.40
786.12	233.36
786.45	233.34
786.77	233.42
787.09	233.40
787.42	233.03
787.74	233.01
788.06	233.02
788.38	232.96
788.71	232.89
789.03	232.96
789.35	232.98
789.67	232.79
789.99	232.86
790.32	232.77
790.64	232.80
790.96	233.57
791.28	233.19
791.61	233.08
791.93	233.09
792.25	233.04
792.57	233.69
792.89	233.58
793.21	233.60
793.54	233.43
793.86	233.24
794.18	233.21
794.50	232.86
794.82	232.80
795.14	233.01
795.47	233.16
795.79	233.03
796.11	232.80
796.43	232.84
796.75	232.83
797.07	232.88
797.39	232.76
797.71	232.04
798.04	232.21
798.36	232.35
798.68	232.22
799.00	232.31
799.32	231.82
799.64	231.99
799.96	231.96
800.28	232.11
800.60	232.07
800.92	232.15
801.24	232.30
801.56	232.25
801.89	232.12
802.21	232.05
802.53	231.90
802.85	232.03
803.17	232.46
803.49	232.13
803.81	232.00
804.13	231.87
804.45	231.75
804.77	231.72
805.09	231.65
805.41	231.62
805.73	231.46
806.05	231.20
806.37	231.18
806.69	230.91
807.01	230.75
807.33	230.91
807.65	230.57
807.97	230.85
808.28	230.75
808.60	230.69
808.92	230.54
809.24	231.19
809.56	231.10
809.88	230.65
810.20	230.74
810.52	230.96
810.84	230.90
811.16	230.85
811.48	230.78
811.80	231.09
812.12	230.99
812.43	231.21
812.75	231.21
813.07	231.10
813.39	231.21
813.71	231.11
814.03	230.97
814.35	230.96
814.67	230.56
814.98	230.52
815.30	230.54
815.62	230.40
815.94	229.61
816.26	229.98
816.58	229.84
816.89	229.95
817.21	229.75
817.53	229.81
817.85	229.87
818.17	229.69
818.48	229.32
818.80	229.57
819.12	229.34
819.44	229.14
819.76	228.96
820.07	228.98
820.39	229.02
820.71	229.04
821.03	229.01
821.34	228.96
821.66	229.05
821.98	229.04
822.30	229.06
822.61	229.73
822.93	229.22
823.25	229.23
823.57	229.12
823.88	229.22
824.20	229.16
824.52	229.28
824.83	229.32
825.15	229.20
825.47	228.96
825.79	228.99
826.10	229.05
826.42	229.13
826.74	229.18
827.05	229.01
827.37	229.00
827.69	228.98
828.00	228.91
828.32	228.87
828.64	228.63
828.95	229.10
829.27	228.83
829.58	228.86
829.90	229.00
830.22	229.07
830.53	228.75
830.85	228.67
831.17	228.33
831.48	228.28
831.80	228.32
832.11	228.22
832.43	228.09
832.75	228.03
833.06	228.52
833.38	228.24
833.69	228.27
834.01	228.28
834.32	228.26
834.64	228.21
834.96	228.21
835.27	228.33
835.59	228.03
835.90	227.82
836.22	227.78
836.53	227.43
836.85	227.31
837.16	228.38
837.48	228.40
837.79	228.71
838.11	228.81
838.42	228.87
838.74	229.18
839.05	229.02
839.37	229.01
839.68	228.46
840.00	228.48
840.31	228.66
840.63	228.57
840.94	228.50
841.26	228.55
841.57	228.55
841.88	228.60
842.20	228.39
842.51	228.26
842.83	228.35
843.14	229.39
843.46	229.50
843.77	228.95
844.08	228.84
844.40	228.63
844.71	228.58
845.03	228.49
845.34	228.32
845.65	228.54
845.97	228.55
846.28	228.60
846.60	228.54
846.91	228.39
847.22	228.32
847.54	228.51
847.85	228.59
848.16	228.58
848.48	228.50
848.79	228.94
849.10	229.10
849.42	229.14
849.73	228.22
850.04	228.28
850.36	227.93
850.67	228.26
850.98	228.33
851.30	228.41
851.61	228.42
851.92	228.41
852.23	228.64
852.55	228.79
852.86	228.76
853.17	228.98
853.49	229.19
853.80	229.58
854.11	229.69
854.42	229.75
854.74	229.62
855.05	229.60
855.36	229.20
855.67	229.32
855.99	229.37
856.30	230.62
856.61	230.56
856.92	230.63
857.23	230.53
857.55	230.38
857.86	230.32
858.17	230.44
858.48	230.27
858.79	230.03
859.11	230.05
859.42	230.03
859.73	229.89
860.04	229.80
860.35	229.46
860.66	229.16
860.98	229.09
861.29	229.16
861.60	229.11
861.91	229.28
862.22	228.94
862.53	228.78
862.84	227.60
863.16	227.82
863.47	227.61
863.78	227.53
864.09	227.55
864.40	227.63
864.71	227.63
865.02	227.85
865.33	227.72
865.64	227.58
865.95	227.59
866.27	228.13
866.58	228.10
866.89	228.19
867.20	228.14
867.51	227.95
867.82	227.98
868.13	228.38
868.44	228.17
868.75	228.36
869.06	228.37
869.37	228.48
869.68	228.13
869.99	228.34
870.30	228.31
870.61	228.50
870.92	228.36
871.23	228.30
871.54	228.37
871.85	228.57
872.16	228.69
872.47	228.61
872.78	228.06
873.09	228.09
873.40	228.00
873.71	228.18
874.02	228.37
874.33	228.17
874.64	227.78
874.95	227.94
875.26	227.72
875.56	227.62
875.87	227.48
876.18	227.38
876.49	228.26
876.80	228.33
877.11	228.11
877.42	228.14
877.73	228.13
878.04	227.95
878.35	227.96
878.66	227.89
878.96	227.79
879.27	227.81
879.58	227.66
879.89	227.60
880.20	227.75
880.51	227.64
880.82	227.80
881.12	227.97
881.43	227.70
881.74	227.69
882.05	227.75
882.36	227.86
882.67	227.98
882.97	227.07
883.28	226.95
883.59	226.90
883.90	226.96
884.21	227.00
884.51	227.08
884.82	226.89
885.13	226.96
885.44	227.09
885.74	227.13
886.05	227.19
886.36	227.35
886.67	227.01
886.98	227.47
887.28	227.53
887.59	227.45
887.90	227.49
888.20	227.51
888.51	227.71
888.82	227.58
889.13	227.71
889.43	228.36
889.74	228.34
890.05	228.30
890.35	228.21
890.66	228.15
890.97	228.03
891.28	228.01
891.58	228.07
891.89	228.07
892.20	227.99
892.50	227.87
892.81	227.78
893.12	227.82
893.42	227.45
893.73	227.49
894.04	227.49
894.34	227.71
894.65	227.68
894.95	227.56
895.26	227.53
895.57	227.92
895.87	227.09
896.18	227.29
896.48	227.47
896.79	227.49
897.10	227.56
897.40	227.60
897.71	227.76
898.01	227.58
898.32	227.67
898.63	227.70
898.93	227.73
899.24	227.63
899.54	227.71
899.85	227.67
900.15	227.49
900.46	227.54
900.76	227.60
901.07	227.57
901.38	227.57
901.68	227.84
901.99	227.43
902.29	227.59
902.60	227.34
902.90	227.23
903.21	227.18
903.51	227.08
903.82	227.32
904.12	227.41
904.43	227.49
904.73	227.51
905.03	227.52
905.34	228.61
905.64	228.71
905.95	228.61
906.25	228.61
906.56	228.70
906.86	228.68
907.17	228.48
907.47	228.54
907.77	228.55
908.08	228.34
908.38	228.30
908.69	228.23
908.99	228.50
909.30	228.65
909.60	228.70
909.90	228.92
910.21	228.62
910.51	228.30
910.81	228.33
911.12	228.28
911.42	228.30
911.73	227.16
912.03	227.12
912.33	227.35
912.64	227.27
912.94	227.10
913.24	226.92
913.55	226.93
913.85	226.93
914.15	227.05
914.46	227.14
914.76	227.08
915.06	227.06
915.37	226.89
915.67	226.79
915.97	226.78
916.27	226.50
916.58	226.58
916.88	226.65
917.18	226.61
917.49	227.18
917.79	227.15
918.09	227.32
918.39	227.60
918.70	227.47
919.00	227.46
919.30	228.01
919.60	228.05
919.91	227.90
920.21	227.93
920.51	227.73
920.81	227.58
921.12	227.79
921.42	227.73
921.72	227.78
922.02	227.93
922.32	228.01
922.63	228.08
922.93	228.44
923.23	228.36
923.53	228.18
923.83	227.61
924.13	227.58
924.44	227.63
924.74	227.73
925.04	227.97
925.34	227.98
925.64	227.51
925.94	227.48
926.24	228.10
926.55	228.08
926.85	228.23
927.15	228.30
927.45	228.20
927.75	228.19
928.05	228.16
928.35	228.03
928.65	228.18
928.95	228.18
929.26	227.80
929.56	228.00
929.86	228.17
930.16	228.02
930.46	228.00
930.76	227.99
931.06	227.47
931.36	227.26
931.66	227.40
931.96	227.50
932.26	227.47
932.56	226.99
932.86	227.01
933.16	226.90
933.46	226.84
933.76	226.61
934.06	226.97
934.36	227.28
934.66	227.23
934.96	227.03
935.26	227.05
935.56	227.19
935.86	227.04
936.16	226.97
936.46	227.08
936.76	227.10
937.06	227.00
937.36	227.18
937.66	227.19
937.96	227.16
938.26	227.10
938.56	227.20
938.86	227.36
939.16	227.52
939.46	227.75
939.76	227.77
940.06	227.91
940.35	227.60
940.65	227.14
940.95	227.23
941.25	227.08
941.55	227.05
941.85	227.00
942.15	227.19
942.45	227.41
942.75	227.31
943.04	227.34
943.34	227.47
943.64	227.50
943.94	227.37
944.24	227.46
944.54	227.38
944.84	227.40
945.13	227.26
945.43	227.11
945.73	227.00
946.03	226.96
946.33	226.84
946.62	226.84
946.92	226.88
947.22	226.86
947.52	226.98
947.82	227.12
948.11	227.17
948.41	226.94
948.71	226.65
949.01	226.71
949.31	226.63
949.60	226.61
949.90	226.70
950.20	226.68
950.50	226.67
950.79	226.67
951.09	226.79
951.39	226.82
951.69	226.71
951.98	226.95
952.28	227.00
952.58	227.04
952.87	227.04
953.17	227.17
953.47	227.06
953.76	227.10
954.06	226.84
954.36	226.68
954.66	226.72
954.95	227.02
955.25	227.12
955.55	227.17
955.84	226.95
956.14	227.01
956.44	227.15
956.73	226.98
957.03	227.04
957.32	227.02
957.62	226.92
957.92	227.18
958.21	227.01
958.51	228.04
958.81	228.14
959.10	228.26
959.40	228.45
959.69	228.67
959.99	228.74
960.29	228.83
960.58	228.81
960.88	229.11
961.17	228.95
961.47	229.02
961.76	229.00
962.06	229.22
962.36	229.02
962.65	229.01
962.95	229.07
963.24	228.99
963.54	229.07
963.83	229.15
964.13	229.11
964.42	228.88
964.72	228.17
965.01	228.18
965.31	228.08
965.60	227.78
965.90	228.30
966.19	228.06
966.49	228.06
966.78	227.92
967.08	227.72
967.37	227.80
967.67	227.50
967.96	227.65
968.26	227.53
968.55	227.73
968.85	227.72
969.14	227.60
969.43	227.56
969.73	227.33
970.02	227.31
970.32	227.24
970.61	227.22
970.91	226.85
971.20	226.71
971.49	226.60
971.79	226.70
972.08	225.99
972.38	226.17
972.67	226.21
972.96	226.47
973.26	226.40
973.55	226.61
973.85	226.71
974.14	226.62
974.43	226.81
974.73	226.62
975.02	226.50
975.31	226.53
975.61	226.66
975.90	226.62
976.19	226.49
976.49	226.58
976.78	226.59
977.07	226.68
977.37	226.70
977.66	226.96
977.95	226.88
978.24	226.96
978.54	227.26
978.83	227.18
979.12	227.11
979.42	227.01
979.71	226.85
980.00	226.89
980.29	226.94
980.59	226.75
980.88	226.89
981.17	226.93
981.46	227.00
981.76	226.98
982.05	227.28
982.34	227.48
982.63	227.40
982.93	227.47
983.22	227.76
983.51	227.88
983.80	227.90
984.09	228.06
984.39	228.04
984.68	227.78
984.97	227.76
985.26	227.70
985.55	227.89
985.85	227.71
986.14	227.87
986.43	227.98
986.72	227.91
987.01	227.71
987.30	227.64
987.59	227.65
987.89	227.63
988.18	227.40
988.47	227.31
988.76	227.24
989.05	227.16
989.34	226.97
989.63	227.20
989.92	227.12
990.22	227.09
990.51	227.05
990.80	226.97
991.09	227.14
991.38	227.22
991.67	227.23
991.96	227.16
992.25	227.09
992.54	226.84
992.83	226.87
993.12	226.86
993.41	227.07
993.70	227.33
993.99	227.58
994.28	227.60
994.58	227.65
994.87	227.57
995.16	227.70
995.45	227.60
995.74	227.25
996.03	227.28
996.32	227.36
996.61	227.56
996.90	227.56
997.19	227.51
997.48	227.52
997.77	227.37
998.06	227.44
998.34	227.34
998.63	227.41
998.92	227.47
999.21	227.64
999.50	227.70
999.79	227.40
1000.08	227.29
1000.37	227.30
1000.66	227.11
1000.95	227.41
1001.24	227.29
1001.53	227.41
1001.82	227.44
1002.11	227.30
1002.40	227.26
1002.68	227.63
1002.97	228.31
1003.26	228.20
1003.55	228.05
1003.84	228.11
1004.13	228.43
1004.42	228.38
1004.71	228.30
1004.99	228.22
1005.28	228.39
1005.57	228.24
1005.86	228.19
1006.15	227.97
1006.44	227.77
1006.72	227.91
1007.01	227.71
1007.30	227.72
1007.59	227.54
1007.88	227.40
1008.17	227.46
1008.45	227.33
1008.74	226.77
1009.03	226.34
1009.32	226.38
1009.60	226.36
1009.89	226.20
1010.18	225.83
1010.47	225.85
1010.76	225.98
1011.04	225.90
1011.33	225.91
1011.62	225.97
1011.91	225.97
1012.19	226.20
1012.48	226.40
1012.77	226.41
1013.05	226.74
1013.34	226.77
1013.63	226.84
1013.92	227.07
1014.20	227.01
1014.49	227.04
1014.78	227.14
1015.06	226.83
1015.35	226.83
1015.64	227.05
1015.92	227.29
1016.21	227.29
1016.50	227.32
1016.78	227.38
1017.07	227.55
1017.36	227.24
1017.64	227.16
1017.93	227.21
1018.22	227.07
1018.50	226.96
1018.79	227.01
1019.08	226.69
1019.36	226.73
1019.65	226.67
1019.93	226.90
1020.22	227.08
1020.51	227.50
1020.79	227.39
1021.08	225.90
1021.36	224.60
1021.65	228.50
1021.94	226.60
1022.22	227.00
1022.51	225.70
1022.79	232.60
1023.08	229.30
1023.36	236.20
1023.65	225.20
>>>>>End Processed Spectral Data<<<<<
