SpectraSuite Data File
++++++++++++++++++++++++++++++++++++
Date: Wed Sep 04 17:32:54 EDT 2013
User: lab3
Dark Spectrum Present: Yes
Reference Spectrum Present: No
Number of Sampled Component Spectra: 1
Spectrometers: USB2E7196
Integration Time (usec): 337000 (USB2E7196)
Spectra Averaged: 10 (USB2E7196)
Boxcar Smoothing: 10 (USB2E7196)
Correct for Electrical Dark: No (USB2E7196)
Strobe/Lamp Enabled: No (USB2E7196)
Correct for Detector Non-linearity: No (USB2E7196)
Correct for Stray Light: No (USB2E7196)
Number of Pixels in Processed Spectrum: 2048
>>>>>Begin Processed Spectral Data<<<<<
339.09	0.00
339.48	212.40
339.86	215.70
340.24	216.00
340.63	215.20
341.01	229.80
341.39	219.60
341.78	221.90
342.16	224.20
342.54	223.90
342.93	212.56
343.31	223.32
343.69	223.92
344.07	224.35
344.46	224.92
344.84	225.51
345.22	225.28
345.60	225.61
345.99	225.81
346.37	225.90
346.75	225.98
347.13	225.99
347.52	226.18
347.90	226.61
348.28	226.48
348.66	226.72
349.05	226.53
349.43	226.71
349.81	226.84
350.19	226.88
350.57	226.94
350.96	227.07
351.34	227.12
351.72	227.16
352.10	227.20
352.48	227.09
352.87	227.08
353.25	227.05
353.63	227.12
354.01	227.13
354.39	227.29
354.77	227.38
355.15	227.70
355.54	227.62
355.92	227.33
356.30	227.53
356.68	228.24
357.06	228.35
357.44	228.33
357.82	228.30
358.20	229.17
358.58	229.27
358.97	229.39
359.35	229.61
359.73	229.91
360.11	229.92
360.49	230.09
360.87	230.11
361.25	230.42
361.63	230.79
362.01	230.88
362.39	230.79
362.77	230.88
363.15	230.83
363.53	230.90
363.91	230.97
364.29	230.91
364.67	230.10
365.05	230.20
365.43	230.27
365.81	230.40
366.19	230.09
366.57	230.45
366.95	230.34
367.33	230.15
367.71	230.19
368.09	230.47
368.47	230.34
368.85	230.36
369.23	230.47
369.61	230.04
369.99	230.36
370.37	230.59
370.75	231.07
371.13	230.90
371.51	230.69
371.89	230.63
372.27	230.77
372.65	230.72
373.03	230.73
373.41	230.65
373.78	230.60
374.16	230.06
374.54	229.66
374.92	229.61
375.30	229.73
375.68	229.43
376.06	229.40
376.44	229.35
376.82	229.27
377.19	229.17
377.57	229.09
377.95	228.72
378.33	228.50
378.71	227.85
379.09	227.97
379.47	228.15
379.84	228.10
380.22	227.97
380.60	227.80
380.98	227.69
381.36	227.62
381.73	227.41
382.11	227.52
382.49	227.51
382.87	227.42
383.25	227.21
383.62	228.21
384.00	228.00
384.38	228.02
384.76	228.26
385.13	228.62
385.51	228.60
385.89	228.52
386.27	228.54
386.64	228.58
387.02	228.40
387.40	228.30
387.78	228.33
388.15	228.33
388.53	228.27
388.91	228.19
389.29	228.12
389.66	228.27
390.04	228.23
390.42	228.38
390.79	228.34
391.17	228.27
391.55	227.23
391.92	227.20
392.30	227.32
392.68	227.11
393.05	226.94
393.43	226.92
393.81	226.95
394.18	226.82
394.56	226.92
394.94	227.21
395.31	227.10
395.69	227.47
396.06	227.63
396.44	227.85
396.82	227.77
397.19	228.35
397.57	228.30
397.95	228.45
398.32	228.31
398.70	228.58
399.07	228.97
399.45	229.02
399.82	229.15
400.20	229.12
400.58	229.13
400.95	228.93
401.33	229.27
401.70	230.10
402.08	230.35
402.45	230.52
402.83	230.84
403.20	231.06
403.58	231.03
403.95	231.32
404.33	231.52
404.71	231.83
405.08	232.51
405.46	232.82
405.83	233.18
406.21	233.44
406.58	233.71
406.96	233.95
407.33	234.42
407.70	234.88
408.08	235.98
408.45	236.61
408.83	237.25
409.20	237.67
409.58	237.65
409.95	238.39
410.33	239.09
410.70	239.40
411.08	240.23
411.45	240.99
411.82	241.61
412.20	242.73
412.57	244.22
412.95	244.36
413.32	245.47
413.69	246.42
414.07	247.59
414.44	248.73
414.82	249.90
415.19	251.50
415.56	253.05
415.94	254.21
416.31	256.09
416.68	257.77
417.06	259.87
417.43	261.89
417.81	263.94
418.18	266.14
418.55	268.55
418.93	271.01
419.30	273.53
419.67	276.37
420.04	279.05
420.42	281.76
420.79	285.93
421.16	289.44
421.54	293.47
421.91	297.14
422.28	301.01
422.66	305.26
423.03	309.75
423.40	313.94
423.77	318.38
424.15	322.74
424.52	327.48
424.89	332.86
425.26	337.72
425.64	342.42
426.01	347.69
426.38	353.20
426.75	359.12
427.13	365.05
427.50	371.03
427.87	377.20
428.24	383.63
428.61	388.97
428.99	395.77
429.36	402.37
429.73	409.39
430.10	416.51
430.47	423.69
430.85	430.60
431.22	438.43
431.59	447.43
431.96	455.42
432.33	464.29
432.70	472.71
433.08	482.91
433.45	492.11
433.82	501.50
434.19	512.08
434.56	522.43
434.93	532.07
435.30	541.82
435.68	553.03
436.05	563.72
436.42	574.67
436.79	584.60
437.16	595.57
437.53	606.90
437.90	617.97
438.27	629.03
438.64	640.50
439.01	651.43
439.38	660.34
439.75	669.60
440.13	680.14
440.50	689.65
440.87	697.51
441.24	705.95
441.61	715.07
441.98	721.69
442.35	729.34
442.72	737.39
443.09	745.32
443.46	749.65
443.83	752.88
444.20	755.46
444.57	758.88
444.94	760.44
445.31	762.09
445.68	764.65
446.05	765.26
446.42	763.77
446.79	762.28
447.16	760.40
447.53	759.24
447.90	754.72
448.27	750.41
448.64	744.33
449.01	740.03
449.37	732.27
449.74	724.80
450.11	716.49
450.48	706.71
450.85	696.52
451.22	688.15
451.59	679.80
451.96	671.77
452.33	661.70
452.70	652.20
453.07	641.17
453.43	629.32
453.80	618.49
454.17	608.37
454.54	598.39
454.91	588.09
455.28	577.68
455.65	568.09
456.02	559.93
456.38	552.05
456.75	542.10
457.12	533.89
457.49	525.80
457.86	517.25
458.23	510.84
458.59	503.53
458.96	496.09
459.33	489.41
459.70	483.00
460.07	477.73
460.43	471.96
460.80	466.64
461.17	461.98
461.54	457.01
461.91	452.18
462.27	447.14
462.64	442.90
463.01	438.39
463.38	434.35
463.74	428.54
464.11	424.54
464.48	421.31
464.85	417.69
465.21	415.05
465.58	412.13
465.95	408.31
466.32	405.45
466.68	402.50
467.05	399.62
467.42	396.81
467.78	393.74
468.15	391.03
468.52	389.00
468.88	385.80
469.25	383.28
469.62	381.46
469.98	379.23
470.35	377.17
470.72	375.30
471.08	372.91
471.45	371.59
471.82	370.04
472.18	368.14
472.55	366.90
472.92	365.20
473.28	363.70
473.65	362.32
474.02	360.93
474.38	359.85
474.75	358.98
475.11	357.71
475.48	356.95
475.85	355.94
476.21	354.89
476.58	354.33
476.94	353.77
477.31	352.90
477.67	352.41
478.04	351.89
478.41	351.46
478.77	352.17
479.14	351.25
479.50	350.88
479.87	350.76
480.23	350.35
480.60	349.95
480.96	349.75
481.33	350.08
481.69	350.17
482.06	350.09
482.42	350.22
482.79	350.49
483.15	350.62
483.52	351.10
483.88	351.31
484.25	351.49
484.61	351.71
484.98	352.07
485.34	352.91
485.71	353.58
486.07	354.18
486.44	353.93
486.80	354.97
487.17	355.72
487.53	356.91
487.90	358.23
488.26	359.69
488.62	361.05
488.99	362.07
489.35	363.40
489.72	364.97
490.08	366.42
490.44	367.96
490.81	369.84
491.17	371.50
491.54	373.60
491.90	375.76
492.26	377.90
492.63	380.15
492.99	382.25
493.36	384.69
493.72	387.50
494.08	390.09
494.45	392.92
494.81	396.05
495.17	398.79
495.54	401.94
495.90	404.90
496.26	408.17
496.63	411.76
496.99	415.14
497.35	418.69
497.72	422.43
498.08	426.19
498.44	430.10
498.80	434.52
499.17	438.65
499.53	442.87
499.89	447.50
500.26	452.10
500.62	456.82
500.98	461.76
501.34	466.64
501.71	471.81
502.07	477.04
502.43	482.27
502.79	487.83
503.16	493.22
503.52	498.98
503.88	504.63
504.24	510.61
504.60	517.07
504.97	523.59
505.33	530.01
505.69	537.24
506.05	544.15
506.41	551.00
506.78	558.15
507.14	565.46
507.50	572.69
507.86	580.26
508.22	587.92
508.59	595.64
508.95	603.40
509.31	612.07
509.67	620.24
510.03	628.32
510.39	636.55
510.75	645.31
511.12	653.93
511.48	662.79
511.84	671.60
512.20	680.39
512.56	689.38
512.92	698.65
513.28	707.80
513.64	716.91
514.00	726.37
514.37	736.10
514.73	745.84
515.09	756.05
515.45	766.32
515.81	776.44
516.17	786.60
516.53	796.91
516.89	806.45
517.25	817.26
517.61	828.66
517.97	840.05
518.33	850.96
518.69	862.67
519.05	874.44
519.41	886.05
519.77	898.21
520.13	909.80
520.49	921.28
520.85	932.84
521.21	945.27
521.57	957.49
521.93	969.28
522.29	981.34
522.65	993.03
523.01	1004.77
523.37	1016.63
523.73	1028.64
524.09	1040.40
524.45	1052.75
524.81	1064.63
525.17	1076.26
525.53	1088.26
525.89	1100.31
526.25	1112.02
526.61	1123.50
526.97	1135.56
527.33	1147.63
527.68	1160.98
528.04	1173.74
528.40	1186.52
528.76	1199.30
529.12	1211.49
529.48	1224.34
529.84	1236.57
530.20	1249.97
530.56	1262.77
530.91	1275.84
531.27	1288.72
531.63	1301.74
531.99	1314.60
532.35	1327.83
532.71	1341.18
533.07	1354.51
533.42	1368.09
533.78	1381.32
534.14	1394.41
534.50	1407.27
534.86	1420.16
535.21	1431.64
535.57	1444.56
535.93	1455.95
536.29	1468.47
536.65	1481.41
537.00	1493.21
537.36	1505.94
537.72	1517.08
538.08	1529.31
538.44	1540.63
538.79	1552.17
539.15	1563.76
539.51	1575.04
539.87	1585.59
540.22	1595.55
540.58	1605.75
540.94	1615.45
541.29	1624.85
541.65	1634.13
542.01	1643.67
542.37	1652.18
542.72	1660.71
543.08	1668.40
543.44	1677.78
543.79	1684.98
544.15	1692.71
544.51	1701.27
544.87	1709.06
545.22	1716.90
545.58	1723.63
545.94	1730.37
546.29	1736.67
546.65	1742.90
547.01	1748.91
547.36	1754.48
547.72	1760.57
548.07	1765.51
548.43	1770.81
548.79	1776.20
549.14	1781.84
549.50	1786.76
549.86	1791.85
550.21	1796.83
550.57	1802.06
550.92	1805.80
551.28	1809.95
551.64	1813.78
551.99	1817.70
552.35	1820.94
552.70	1824.21
553.06	1828.13
553.41	1831.41
553.77	1835.80
554.13	1839.60
554.48	1843.20
554.84	1847.04
555.19	1850.32
555.55	1854.89
555.90	1857.39
556.26	1859.73
556.61	1861.36
556.97	1862.56
557.32	1864.77
557.68	1867.13
558.03	1868.51
558.39	1870.70
558.74	1872.47
559.10	1873.43
559.45	1873.86
559.81	1874.03
560.16	1874.08
560.52	1873.73
560.87	1874.10
561.23	1873.28
561.58	1873.24
561.94	1871.83
562.29	1870.25
562.64	1868.81
563.00	1866.08
563.35	1864.79
563.71	1863.63
564.06	1862.50
564.42	1861.37
564.77	1860.05
565.12	1858.79
565.48	1858.42
565.83	1856.60
566.19	1854.92
566.54	1853.34
566.89	1851.72
567.25	1850.49
567.60	1849.60
567.96	1848.97
568.31	1847.54
568.66	1845.93
569.02	1842.81
569.37	1841.10
569.72	1839.58
570.08	1836.99
570.43	1833.75
570.78	1831.09
571.14	1828.05
571.49	1824.53
571.84	1821.66
572.20	1817.96
572.55	1813.84
572.90	1808.72
573.26	1804.83
573.61	1800.46
573.96	1795.69
574.31	1790.33
574.67	1784.98
575.02	1779.33
575.37	1772.87
575.72	1766.74
576.08	1760.52
576.43	1754.65
576.78	1748.40
577.13	1741.87
577.49	1735.80
577.84	1730.85
578.19	1725.31
578.54	1719.55
578.90	1714.57
579.25	1709.24
579.60	1703.20
579.95	1697.09
580.30	1690.90
580.66	1683.92
581.01	1677.35
581.36	1670.61
581.71	1664.37
582.06	1658.51
582.42	1652.14
582.77	1645.67
583.12	1639.99
583.47	1633.98
583.82	1628.25
584.17	1621.83
584.53	1616.30
584.88	1609.68
585.23	1602.79
585.58	1595.18
585.93	1587.99
586.28	1580.73
586.63	1572.73
586.98	1565.05
587.34	1557.98
587.69	1550.92
588.04	1544.49
588.39	1538.18
588.74	1531.25
589.09	1524.89
589.44	1517.42
589.79	1510.90
590.14	1504.48
590.49	1497.36
590.84	1490.58
591.19	1484.20
591.54	1477.61
591.89	1470.26
592.25	1465.63
592.60	1459.20
592.95	1452.88
593.30	1446.29
593.65	1439.33
594.00	1432.35
594.35	1428.37
594.70	1421.11
595.05	1414.52
595.40	1407.07
595.75	1399.49
596.10	1393.26
596.45	1386.48
596.80	1379.93
597.15	1372.76
597.50	1365.80
597.85	1358.94
598.19	1352.04
598.54	1344.57
598.89	1337.53
599.24	1330.92
599.59	1322.74
599.94	1315.66
600.29	1308.74
600.64	1301.60
600.99	1294.79
601.34	1288.75
601.69	1279.73
602.04	1273.28
602.39	1266.51
602.74	1260.77
603.08	1254.80
603.43	1248.55
603.78	1241.70
604.13	1235.46
604.48	1228.61
604.83	1221.67
605.18	1215.26
605.53	1208.66
605.87	1202.55
606.22	1196.90
606.57	1190.22
606.92	1183.39
607.27	1177.30
607.62	1171.40
607.96	1165.91
608.31	1160.37
608.66	1154.61
609.01	1148.67
609.36	1142.91
609.70	1137.08
610.05	1130.81
610.40	1124.65
610.75	1118.28
611.10	1112.53
611.44	1106.00
611.79	1099.78
612.14	1094.13
612.49	1087.84
612.83	1082.13
613.18	1075.96
613.53	1069.93
613.88	1063.97
614.22	1058.03
614.57	1051.62
614.92	1045.37
615.27	1039.23
615.61	1032.90
615.96	1026.83
616.31	1020.80
616.65	1015.20
617.00	1009.10
617.35	1003.24
617.70	997.30
618.04	991.55
618.39	985.36
618.74	980.51
619.08	975.35
619.43	969.36
619.78	963.72
620.12	957.62
620.47	951.86
620.82	945.83
621.16	940.14
621.51	935.35
621.85	930.14
622.20	924.70
622.55	919.10
622.89	913.90
623.24	908.42
623.59	903.08
623.93	897.61
624.28	892.45
624.62	888.08
624.97	883.35
625.32	878.21
625.66	873.26
626.01	867.57
626.35	862.64
626.70	857.58
627.04	852.85
627.39	847.88
627.73	843.28
628.08	838.77
628.43	833.87
628.77	828.53
629.12	823.72
629.46	819.26
629.81	815.06
630.15	810.33
630.50	805.47
630.84	800.61
631.19	795.96
631.53	791.53
631.88	786.04
632.22	781.26
632.57	777.16
632.91	772.59
633.26	768.54
633.60	763.85
633.95	759.48
634.29	754.59
634.64	750.23
634.98	745.21
635.32	740.89
635.67	736.96
636.01	732.76
636.36	728.33
636.70	724.26
637.05	719.95
637.39	715.78
637.73	712.00
638.08	708.33
638.42	703.90
638.77	699.53
639.11	695.18
639.45	690.44
639.80	685.40
640.14	681.34
640.49	676.71
640.83	672.83
641.17	669.32
641.52	665.51
641.86	661.80
642.20	658.43
642.55	654.60
642.89	650.53
643.23	646.98
643.58	643.79
643.92	639.78
644.26	635.92
644.61	632.50
644.95	628.58
645.29	624.51
645.64	621.31
645.98	617.82
646.32	614.74
646.66	611.38
647.01	608.27
647.35	604.99
647.69	601.83
648.04	598.63
648.38	595.09
648.72	591.74
649.06	588.36
649.41	584.90
649.75	581.21
650.09	578.01
650.43	574.39
650.78	570.60
651.12	567.32
651.46	564.05
651.80	560.72
652.14	557.54
652.49	554.64
652.83	551.46
653.17	548.28
653.51	544.80
653.85	542.19
654.20	539.20
654.54	536.21
654.88	533.16
655.22	530.48
655.56	527.54
655.90	524.88
656.25	521.90
656.59	519.09
656.93	516.41
657.27	513.92
657.61	511.03
657.95	508.38
658.29	505.82
658.64	503.40
658.98	500.42
659.32	497.51
659.66	494.80
660.00	492.21
660.34	489.77
660.68	487.32
661.02	484.54
661.36	481.87
661.70	479.19
662.05	476.67
662.39	474.14
662.73	471.99
663.07	470.09
663.41	467.93
663.75	465.36
664.09	463.03
664.43	460.40
664.77	458.32
665.11	455.93
665.45	453.51
665.79	451.02
666.13	448.85
666.47	446.65
666.81	444.48
667.15	442.16
667.49	440.05
667.83	438.21
668.17	436.07
668.51	434.16
668.85	432.43
669.19	431.01
669.53	428.74
669.87	426.45
670.21	424.12
670.55	422.12
670.89	420.86
671.23	418.95
671.57	417.05
671.91	415.07
672.25	413.30
672.58	411.86
672.92	409.94
673.26	408.06
673.60	406.48
673.94	404.68
674.28	403.00
674.62	401.24
674.96	399.37
675.30	397.68
675.64	395.94
675.97	394.03
676.31	391.92
676.65	390.06
676.99	388.65
677.33	386.78
677.67	385.22
678.01	383.21
678.34	381.66
678.68	380.31
679.02	378.62
679.36	377.10
679.70	375.28
680.04	373.85
680.37	372.52
680.71	370.97
681.05	369.63
681.39	368.31
681.73	366.92
682.06	365.39
682.40	364.05
682.74	362.83
683.08	361.84
683.42	360.51
683.75	359.48
684.09	358.10
684.43	356.94
684.77	355.60
685.10	354.27
685.44	352.85
685.78	351.41
686.12	350.33
686.45	349.05
686.79	347.79
687.13	346.74
687.46	345.53
687.80	344.60
688.14	343.14
688.48	341.87
688.81	340.66
689.15	339.88
689.49	338.60
689.82	337.54
690.16	335.95
690.50	334.85
690.83	333.76
691.17	332.31
691.51	331.17
691.84	330.10
692.18	328.99
692.52	327.92
692.85	326.97
693.19	326.29
693.52	325.31
693.86	324.30
694.20	323.16
694.53	322.19
694.87	320.93
695.21	319.86
695.54	318.98
695.88	317.84
696.21	316.54
696.55	315.67
696.88	314.51
697.22	313.50
697.56	312.67
697.89	311.51
698.23	310.82
698.56	309.70
698.90	308.90
699.23	307.93
699.57	307.15
699.90	306.11
700.24	304.97
700.58	304.27
700.91	303.58
701.25	303.50
701.58	303.40
701.92	302.99
702.25	302.36
702.59	301.51
702.92	300.87
703.26	300.20
703.59	299.45
703.93	299.45
704.26	299.01
704.60	298.22
704.93	297.50
705.26	296.67
705.60	296.29
705.93	295.32
706.27	294.94
706.60	294.49
706.94	294.30
707.27	293.53
707.61	292.74
707.94	292.08
708.27	290.74
708.61	289.46
708.94	288.60
709.28	287.98
709.61	287.14
709.94	286.56
710.28	285.74
710.61	285.18
710.95	283.91
711.28	283.91
711.61	283.32
711.95	282.92
712.28	282.21
712.61	281.50
712.95	281.41
713.28	281.19
713.61	280.47
713.95	279.54
714.28	279.03
714.61	278.42
714.95	277.67
715.28	277.03
715.61	276.34
715.95	275.78
716.28	275.10
716.61	274.69
716.95	273.97
717.28	273.49
717.61	272.99
717.94	272.52
718.28	271.22
718.61	270.63
718.94	270.11
719.27	269.80
719.61	269.37
719.94	268.56
720.27	267.55
720.60	266.97
720.94	266.48
721.27	266.21
721.60	266.00
721.93	265.66
722.27	265.64
722.60	265.39
722.93	264.87
723.26	264.69
723.59	264.22
723.93	264.06
724.26	263.85
724.59	263.42
724.92	263.04
725.25	262.97
725.59	262.67
725.92	262.32
726.25	261.98
726.58	261.74
726.91	261.53
727.24	261.35
727.57	260.96
727.91	260.57
728.24	260.21
728.57	259.68
728.90	259.54
729.23	258.89
729.56	259.02
729.89	258.80
730.22	258.39
730.55	258.05
730.89	257.73
731.22	257.39
731.55	257.10
731.88	256.68
732.21	256.22
732.54	255.97
732.87	255.64
733.20	255.37
733.53	255.04
733.86	254.82
734.19	254.43
734.52	254.46
734.85	254.86
735.18	254.39
735.51	254.50
735.84	254.26
736.17	254.28
736.50	253.53
736.83	254.36
737.16	254.16
737.49	254.06
737.82	253.66
738.15	253.55
738.48	253.38
738.81	253.23
739.14	252.91
739.47	252.49
739.80	252.20
740.13	252.10
740.46	251.65
740.79	251.39
741.12	251.20
741.45	250.79
741.78	250.07
742.11	250.22
742.44	249.72
742.77	249.62
743.10	249.27
743.43	249.10
743.75	247.92
744.08	248.96
744.41	248.68
744.74	248.60
745.07	248.29
745.40	248.18
745.73	248.39
746.06	248.36
746.39	248.44
746.71	248.23
747.04	247.82
747.37	247.76
747.70	247.65
748.03	247.49
748.36	247.50
748.68	247.24
749.01	246.79
749.34	246.78
749.67	246.60
750.00	246.57
750.33	247.08
750.65	247.04
750.98	245.57
751.31	245.44
751.64	245.35
751.97	245.63
752.29	245.50
752.62	244.88
752.95	244.60
753.28	244.24
753.60	244.20
753.93	244.34
754.26	244.27
754.59	243.86
754.91	243.61
755.24	243.26
755.57	243.20
755.90	243.08
756.22	242.85
756.55	242.53
756.88	242.17
757.20	241.41
757.53	240.97
757.86	241.01
758.19	240.84
758.51	240.56
758.84	239.89
759.17	239.52
759.49	239.52
759.82	239.82
760.15	239.83
760.47	239.57
760.80	239.12
761.13	239.10
761.45	238.95
761.78	238.79
762.11	238.78
762.43	238.46
762.76	238.26
763.08	238.10
763.41	237.98
763.74	237.91
764.06	237.77
764.39	237.71
764.71	237.55
765.04	237.40
765.37	237.35
765.69	237.29
766.02	237.24
766.34	237.02
766.67	236.63
767.00	236.63
767.32	237.07
767.65	237.61
767.97	237.46
768.30	237.46
768.62	237.46
768.95	237.32
769.27	237.22
769.60	237.36
769.92	237.05
770.25	236.82
770.57	236.53
770.90	236.39
771.22	236.11
771.55	236.02
771.87	236.01
772.20	235.83
772.52	236.50
772.85	237.58
773.17	237.50
773.50	237.37
773.82	237.18
774.15	236.67
774.47	235.95
774.80	235.70
775.12	235.60
775.45	235.47
775.77	235.36
776.09	235.40
776.42	235.23
776.74	235.65
777.07	235.58
777.39	235.55
777.72	235.41
778.04	235.62
778.36	235.39
778.69	235.28
779.01	235.22
779.33	234.40
779.66	233.29
779.98	233.30
780.31	233.24
780.63	233.60
780.95	233.73
781.28	233.79
781.60	233.73
781.92	233.61
782.25	233.52
782.57	233.54
782.89	233.52
783.22	233.48
783.54	233.20
783.86	233.32
784.19	233.30
784.51	233.61
784.83	233.42
785.16	233.37
785.48	233.42
785.80	233.42
786.12	233.49
786.45	233.44
786.77	233.45
787.09	233.34
787.42	232.88
787.74	232.73
788.06	232.65
788.38	232.60
788.71	232.60
789.03	232.69
789.35	232.69
789.67	232.45
789.99	232.52
790.32	232.32
790.64	232.41
790.96	233.12
791.28	232.75
791.61	232.68
791.93	232.80
792.25	232.75
792.57	233.41
792.89	233.20
793.21	233.21
793.54	233.06
793.86	232.90
794.18	232.92
794.50	232.74
794.82	232.78
795.14	232.78
795.47	232.88
795.79	232.90
796.11	232.66
796.43	232.60
796.75	232.50
797.07	232.57
797.39	232.47
797.71	231.78
798.04	231.78
798.36	231.80
798.68	231.71
799.00	231.70
799.32	231.15
799.64	231.27
799.96	231.23
800.28	231.35
800.60	231.34
800.92	231.42
801.24	231.40
801.56	231.50
801.89	231.51
802.21	231.58
802.53	231.39
802.85	231.67
803.17	232.22
803.49	232.03
803.81	232.01
804.13	231.86
804.45	231.83
804.77	231.89
805.09	231.95
805.41	231.90
805.73	231.71
806.05	231.51
806.37	231.43
806.69	231.27
807.01	231.24
807.33	231.34
807.65	230.97
807.97	231.42
808.28	231.25
808.60	231.15
808.92	230.88
809.24	231.50
809.56	231.43
809.88	231.07
810.20	231.12
810.52	231.19
810.84	231.05
811.16	230.91
811.48	230.81
811.80	231.05
812.12	230.97
812.43	231.08
812.75	231.21
813.07	231.23
813.39	231.38
813.71	231.12
814.03	231.04
814.35	231.05
814.67	230.60
814.98	230.53
815.30	230.52
815.62	230.40
815.94	229.77
816.26	230.04
816.58	229.79
816.89	229.91
817.21	229.73
817.53	229.84
817.85	229.89
818.17	229.92
818.48	229.60
818.80	229.86
819.12	229.81
819.44	229.52
819.76	229.35
820.07	229.32
820.39	229.38
820.71	229.42
821.03	229.48
821.34	229.43
821.66	229.66
821.98	229.80
822.30	229.89
822.61	230.36
822.93	229.83
823.25	229.91
823.57	229.74
823.88	229.87
824.20	229.87
824.52	230.08
824.83	229.99
825.15	229.85
825.47	229.62
825.79	229.66
826.10	229.70
826.42	229.66
826.74	229.61
827.05	229.59
827.37	229.66
827.69	229.64
828.00	229.74
828.32	229.56
828.64	229.45
828.95	229.85
829.27	229.60
829.58	229.68
829.90	229.71
830.22	229.82
830.53	229.52
830.85	229.33
831.17	229.05
831.48	229.08
831.80	229.21
832.11	229.30
832.43	229.11
832.75	229.13
833.06	229.75
833.38	229.52
833.69	229.52
834.01	229.50
834.32	229.46
834.64	229.33
834.96	229.42
835.27	229.37
835.59	229.13
835.90	229.04
836.22	229.00
836.53	228.85
836.85	228.73
837.16	229.73
837.48	229.79
837.79	230.03
838.11	230.09
838.42	230.02
838.74	230.13
839.05	230.13
839.37	230.04
839.68	229.35
840.00	229.42
840.31	229.54
840.63	229.35
840.94	229.22
841.26	229.20
841.57	229.15
841.88	229.20
842.20	229.01
842.51	228.83
842.83	228.78
843.14	229.58
843.46	229.52
843.77	228.95
844.08	228.88
844.40	228.67
844.71	228.51
845.03	228.46
845.34	228.23
845.65	228.15
845.97	228.23
846.28	228.36
846.60	228.39
846.91	228.25
847.22	228.33
847.54	228.59
847.85	228.59
848.16	228.45
848.48	228.27
848.79	228.63
849.10	228.78
849.42	228.86
849.73	228.16
850.04	228.10
850.36	227.79
850.67	227.99
850.98	227.95
851.30	228.09
851.61	228.00
851.92	228.06
852.23	228.42
852.55	228.39
852.86	228.40
853.17	228.45
853.49	228.51
853.80	228.73
854.11	228.66
854.42	228.77
854.74	228.65
855.05	228.74
855.36	228.25
855.67	228.12
855.99	228.14
856.30	229.19
856.61	229.26
856.92	229.31
857.23	229.20
857.55	229.09
857.86	228.92
858.17	229.17
858.48	229.01
858.79	228.82
859.11	228.93
859.42	228.85
859.73	228.65
860.04	228.64
860.35	228.24
860.66	228.10
860.98	227.96
861.29	228.13
861.60	228.08
861.91	228.36
862.22	228.36
862.53	228.17
862.84	227.00
863.16	227.21
863.47	227.09
863.78	227.12
864.09	227.26
864.40	227.33
864.71	227.22
865.02	227.39
865.33	227.23
865.64	227.00
865.95	226.97
866.27	227.63
866.58	227.46
866.89	227.62
867.20	227.52
867.51	227.50
867.82	227.51
868.13	227.80
868.44	227.51
868.75	227.70
869.06	227.85
869.37	227.99
869.68	227.64
869.99	227.80
870.30	227.67
870.61	227.70
870.92	227.57
871.23	227.46
871.54	227.60
871.85	227.84
872.16	227.97
872.47	228.03
872.78	227.48
873.09	227.62
873.40	227.44
873.71	227.57
874.02	227.70
874.33	227.48
874.64	227.26
874.95	227.53
875.26	227.27
875.56	227.18
875.87	227.09
876.18	227.10
876.49	228.09
876.80	228.07
877.11	227.93
877.42	228.09
877.73	228.14
878.04	227.88
878.35	227.78
878.66	227.86
878.96	227.73
879.27	227.71
879.58	227.76
879.89	227.73
880.20	227.97
880.51	227.84
880.82	227.98
881.12	227.98
881.43	227.72
881.74	227.73
882.05	227.70
882.36	227.71
882.67	227.84
882.97	226.82
883.28	226.74
883.59	226.71
883.90	226.83
884.21	226.97
884.51	226.99
884.82	226.91
885.13	226.88
885.44	227.00
885.74	227.01
886.05	227.00
886.36	227.08
886.67	226.77
886.98	227.24
887.28	227.30
887.59	227.35
887.90	227.56
888.20	227.47
888.51	227.66
888.82	227.63
889.13	227.67
889.43	228.40
889.74	228.49
890.05	228.53
890.35	228.36
890.66	228.20
890.97	228.18
891.28	228.18
891.58	228.25
891.89	228.25
892.20	228.20
892.50	228.09
892.81	228.14
893.12	228.20
893.42	227.83
893.73	227.79
894.04	227.83
894.34	227.71
894.65	227.79
894.95	227.75
895.26	227.82
895.57	228.30
895.87	227.50
896.18	227.64
896.48	227.63
896.79	227.57
897.10	227.75
897.40	227.87
897.71	227.90
898.01	227.82
898.32	227.95
898.63	228.00
898.93	228.11
899.24	228.04
899.54	227.92
899.85	227.79
900.15	227.87
900.46	227.77
900.76	227.95
901.07	227.98
901.38	227.86
901.68	227.93
901.99	227.42
902.29	227.39
902.60	227.36
902.90	227.26
903.21	227.26
903.51	227.17
903.82	227.21
904.12	227.25
904.43	227.26
904.73	227.12
905.03	227.20
905.34	228.03
905.64	228.02
905.95	228.10
906.25	228.12
906.56	228.00
906.86	228.06
907.17	227.85
907.47	227.87
907.77	227.79
908.08	227.58
908.38	227.60
908.69	227.69
908.99	227.74
909.30	227.83
909.60	227.87
909.90	227.93
910.21	227.57
910.51	227.43
910.81	227.39
911.12	227.43
911.42	227.35
911.73	226.31
912.03	226.40
912.33	226.50
912.64	226.40
912.94	226.24
913.24	226.04
913.55	225.99
913.85	225.85
914.15	226.00
914.46	226.09
914.76	225.99
915.06	225.96
915.37	225.74
915.67	225.79
915.97	225.76
916.27	225.54
916.58	225.67
916.88	225.59
917.18	225.54
917.49	226.14
917.79	226.08
918.09	226.28
918.39	226.52
918.70	226.50
919.00	226.52
919.30	227.08
919.60	227.03
919.91	227.02
920.21	227.17
920.51	226.97
920.81	226.90
921.12	227.11
921.42	227.01
921.72	227.21
922.02	227.26
922.32	227.47
922.63	227.48
922.93	228.03
923.23	228.12
923.53	228.15
923.83	227.66
924.13	227.83
924.44	227.78
924.74	227.90
925.04	228.13
925.34	228.19
925.64	227.82
925.94	227.90
926.24	228.47
926.55	228.39
926.85	228.57
927.15	228.63
927.45	228.70
927.75	228.83
928.05	228.82
928.35	228.74
928.65	228.85
928.95	228.97
929.26	228.50
929.56	228.72
929.86	228.82
930.16	228.67
930.46	228.63
930.76	228.80
931.06	228.40
931.36	228.09
931.66	228.24
931.96	228.33
932.26	228.48
932.56	227.98
932.86	228.12
933.16	228.13
933.46	228.08
933.76	227.93
934.06	228.20
934.36	228.39
934.66	228.33
934.96	228.24
935.26	228.29
935.56	228.52
935.86	228.25
936.16	228.10
936.46	228.07
936.76	227.98
937.06	227.80
937.36	227.94
937.66	228.04
937.96	228.05
938.26	227.90
938.56	227.78
938.86	227.97
939.16	228.04
939.46	228.11
939.76	228.19
940.06	228.22
940.35	227.89
940.65	227.60
940.95	227.77
941.25	227.57
941.55	227.46
941.85	227.52
942.15	227.80
942.45	228.17
942.75	228.17
943.04	228.19
943.34	228.43
943.64	228.31
943.94	228.27
944.24	228.26
944.54	228.38
944.84	228.38
945.13	228.12
945.43	228.04
945.73	228.03
946.03	227.99
946.33	227.89
946.62	227.91
946.92	227.86
947.22	227.79
947.52	227.89
947.82	228.00
948.11	227.86
948.41	227.66
948.71	227.33
949.01	227.43
949.31	227.30
949.60	227.26
949.90	227.37
950.20	227.33
950.50	227.32
950.79	227.23
951.09	227.40
951.39	227.48
951.69	227.35
951.98	227.51
952.28	227.55
952.58	227.56
952.87	227.50
953.17	227.69
953.47	227.63
953.76	227.61
954.06	227.40
954.36	227.26
954.66	227.27
954.95	227.49
955.25	227.51
955.55	227.62
955.84	227.35
956.14	227.40
956.44	227.44
956.73	227.30
957.03	227.35
957.32	227.27
957.62	227.21
957.92	227.40
958.21	227.33
958.51	228.37
958.81	228.46
959.10	228.58
959.40	228.69
959.69	228.77
959.99	228.82
960.29	228.85
960.58	228.77
960.88	229.10
961.17	229.02
961.47	229.15
961.76	229.11
962.06	229.36
962.36	229.25
962.65	229.30
962.95	229.38
963.24	229.23
963.54	229.31
963.83	229.38
964.13	229.29
964.42	229.04
964.72	228.31
965.01	228.35
965.31	228.20
965.60	227.97
965.90	228.54
966.19	228.33
966.49	228.45
966.78	228.34
967.08	228.26
967.37	228.26
967.67	228.02
967.96	228.11
968.26	228.01
968.55	228.13
968.85	228.09
969.14	228.03
969.43	228.08
969.73	228.04
970.02	228.12
970.32	228.05
970.61	228.04
970.91	227.63
971.20	227.40
971.49	227.42
971.79	227.50
972.08	226.83
972.38	226.93
972.67	226.88
972.96	227.07
973.26	226.89
973.55	227.13
973.85	227.05
974.14	227.00
974.43	227.08
974.73	226.95
975.02	226.80
975.31	226.78
975.61	226.80
975.90	226.59
976.19	226.43
976.49	226.53
976.78	226.51
977.07	226.55
977.37	226.70
977.66	226.71
977.95	226.65
978.24	226.75
978.54	227.03
978.83	227.00
979.12	226.93
979.42	226.90
979.71	226.69
980.00	226.74
980.29	226.82
980.59	226.59
980.88	226.75
981.17	226.79
981.46	226.82
981.76	226.78
982.05	227.26
982.34	227.24
982.63	227.27
982.93	227.33
983.22	227.67
983.51	227.68
983.80	227.89
984.09	227.96
984.39	227.86
984.68	227.64
984.97	227.66
985.26	227.65
985.55	227.73
985.85	227.53
986.14	227.62
986.43	227.70
986.72	227.70
987.01	227.39
987.30	227.41
987.59	227.42
987.89	227.42
988.18	227.03
988.47	227.07
988.76	227.00
989.05	227.03
989.34	226.86
989.63	227.15
989.92	227.09
990.22	226.98
990.51	226.96
990.80	227.00
991.09	227.14
991.38	227.31
991.67	227.10
991.96	227.13
992.25	227.14
992.54	226.91
992.83	226.89
993.12	226.95
993.41	227.16
993.70	227.49
993.99	227.66
994.28	227.82
994.58	227.92
994.87	227.83
995.16	227.81
995.45	227.74
995.74	227.30
996.03	227.42
996.32	227.56
996.61	227.88
996.90	227.82
997.19	227.65
997.48	227.64
997.77	227.71
998.06	227.77
998.34	227.74
998.63	227.80
998.92	227.98
999.21	228.18
999.50	228.10
999.79	227.88
1000.08	227.89
1000.37	227.85
1000.66	227.74
1000.95	227.96
1001.24	227.97
1001.53	228.04
1001.82	228.00
1002.11	227.71
1002.40	227.70
1002.68	227.90
1002.97	228.55
1003.26	228.49
1003.55	228.23
1003.84	228.23
1004.13	228.48
1004.42	228.47
1004.71	228.39
1004.99	228.20
1005.28	228.35
1005.57	228.28
1005.86	228.01
1006.15	227.84
1006.44	227.63
1006.72	227.74
1007.01	227.49
1007.30	227.43
1007.59	227.37
1007.88	227.43
1008.17	227.48
1008.45	227.30
1008.74	226.75
1009.03	226.24
1009.32	226.21
1009.60	226.31
1009.89	226.28
1010.18	225.92
1010.47	225.89
1010.76	225.95
1011.04	226.02
1011.33	226.08
1011.62	226.12
1011.91	226.30
1012.19	226.44
1012.48	226.47
1012.77	226.49
1013.05	227.01
1013.34	227.07
1013.63	226.96
1013.92	227.07
1014.20	227.02
1014.49	227.07
1014.78	227.16
1015.06	226.81
1015.35	226.82
1015.64	226.89
1015.92	226.98
1016.21	227.07
1016.50	227.15
1016.78	227.19
1017.07	227.23
1017.36	226.94
1017.64	226.86
1017.93	226.88
1018.22	226.79
1018.50	226.84
1018.79	226.71
1019.08	226.25
1019.36	226.26
1019.65	226.26
1019.93	226.48
1020.22	226.61
1020.51	227.19
1020.79	227.13
1021.08	226.50
1021.36	225.20
1021.65	225.40
1021.94	226.70
1022.22	227.60
1022.51	225.60
1022.79	232.10
1023.08	227.80
1023.36	238.90
1023.65	224.50
>>>>>End Processed Spectral Data<<<<<
