SpectraSuite Data File
++++++++++++++++++++++++++++++++++++
Date: Wed Sep 04 17:31:03 EDT 2013
User: lab3
Dark Spectrum Present: Yes
Reference Spectrum Present: No
Number of Sampled Component Spectra: 1
Spectrometers: USB2E7196
Integration Time (usec): 337000 (USB2E7196)
Spectra Averaged: 10 (USB2E7196)
Boxcar Smoothing: 10 (USB2E7196)
Correct for Electrical Dark: No (USB2E7196)
Strobe/Lamp Enabled: No (USB2E7196)
Correct for Detector Non-linearity: No (USB2E7196)
Correct for Stray Light: No (USB2E7196)
Number of Pixels in Processed Spectrum: 2048
>>>>>Begin Processed Spectral Data<<<<<
339.09	0.00
339.48	212.60
339.86	213.40
340.24	216.10
340.63	216.50
341.01	232.90
341.39	219.20
341.78	223.70
342.16	225.00
342.54	223.60
342.93	212.87
343.31	223.53
343.69	224.08
344.07	224.60
344.46	225.15
344.84	225.64
345.22	225.21
345.60	225.59
345.99	225.70
346.37	225.84
346.75	225.95
347.13	226.06
347.52	226.19
347.90	226.58
348.28	226.73
348.66	226.92
349.05	226.63
349.43	226.82
349.81	226.84
350.19	226.89
350.57	227.02
350.96	227.15
351.34	227.33
351.72	227.46
352.10	227.59
352.48	227.48
352.87	227.48
353.25	227.70
353.63	227.73
354.01	227.76
354.39	227.78
354.77	227.83
355.15	228.07
355.54	228.03
355.92	227.85
356.30	227.97
356.68	228.64
357.06	228.71
357.44	228.55
357.82	228.59
358.20	229.30
358.58	229.31
358.97	229.40
359.35	229.54
359.73	229.72
360.11	229.74
360.49	229.90
360.87	229.90
361.25	229.96
361.63	230.26
362.01	230.44
362.39	230.37
362.77	230.51
363.15	230.56
363.53	230.65
363.91	230.66
364.29	230.58
364.67	229.73
365.05	229.80
365.43	230.03
365.81	230.21
366.19	230.03
366.57	230.43
366.95	230.37
367.33	230.21
367.71	230.14
368.09	230.41
368.47	230.44
368.85	230.47
369.23	230.69
369.61	230.33
369.99	230.56
370.37	230.76
370.75	231.19
371.13	230.98
371.51	230.83
371.89	230.89
372.27	230.97
372.65	231.05
373.03	231.05
373.41	230.97
373.78	230.81
374.16	230.29
374.54	229.86
374.92	229.80
375.30	229.76
375.68	229.59
376.06	229.40
376.44	229.28
376.82	229.28
377.19	229.10
377.57	229.03
377.95	228.71
378.33	228.50
378.71	227.80
379.09	227.85
379.47	227.85
379.84	227.71
380.22	227.57
380.60	227.35
380.98	227.26
381.36	227.13
381.73	227.00
382.11	227.24
382.49	227.31
382.87	227.11
383.25	227.11
383.62	228.20
384.00	228.06
384.38	228.07
384.76	228.21
385.13	228.64
385.51	228.57
385.89	228.42
386.27	228.51
386.64	228.72
387.02	228.52
387.40	228.45
387.78	228.43
388.15	228.40
388.53	228.32
388.91	228.26
389.29	228.23
389.66	228.33
390.04	228.09
390.42	228.21
390.79	228.31
391.17	228.27
391.55	227.23
391.92	227.25
392.30	227.30
392.68	226.98
393.05	226.81
393.43	226.94
393.81	226.87
394.18	226.70
394.56	226.77
394.94	226.97
395.31	227.00
395.69	227.42
396.06	227.60
396.44	227.68
396.82	227.69
397.19	228.31
397.57	228.37
397.95	228.62
398.32	228.44
398.70	228.50
399.07	228.82
399.45	228.83
399.82	228.86
400.20	228.74
400.58	229.00
400.95	228.69
401.33	229.04
401.70	229.99
402.08	230.25
402.45	230.42
402.83	230.85
403.20	231.03
403.58	230.96
403.95	231.20
404.33	231.56
404.71	231.89
405.08	232.52
405.46	232.67
405.83	232.99
406.21	233.31
406.58	233.80
406.96	234.09
407.33	234.55
407.70	235.12
408.08	236.55
408.45	237.15
408.83	237.93
409.20	238.37
409.58	238.45
409.95	239.17
410.33	239.94
410.70	240.40
411.08	241.25
411.45	242.23
411.82	243.10
412.20	244.29
412.57	245.90
412.95	246.26
413.32	247.67
413.69	248.86
414.07	250.33
414.44	251.80
414.82	253.30
415.19	255.13
415.56	256.90
415.94	258.29
416.31	260.42
416.68	262.54
417.06	265.06
417.43	267.47
417.81	270.29
418.18	273.00
418.55	276.00
418.93	279.20
419.30	282.34
419.67	285.75
420.04	289.33
420.42	292.66
420.79	297.65
421.16	301.92
421.54	306.80
421.91	311.52
422.28	316.33
422.66	321.55
423.03	327.26
423.40	332.59
423.77	338.10
424.15	343.66
424.52	349.74
424.89	356.51
425.26	362.80
425.64	368.74
426.01	375.34
426.38	382.33
426.75	389.58
427.13	396.80
427.50	404.52
427.87	412.28
428.24	420.19
428.61	427.09
428.99	435.74
429.36	444.53
429.73	453.47
430.10	462.26
430.47	471.43
430.85	480.22
431.22	490.24
431.59	501.40
431.96	511.66
432.33	523.00
432.70	533.61
433.08	546.56
433.45	558.68
433.82	570.94
434.19	584.55
434.56	598.10
434.93	611.01
435.30	623.75
435.68	638.04
436.05	652.12
436.42	666.03
436.79	679.07
437.16	692.87
437.53	707.65
437.90	722.63
438.27	737.12
438.64	752.44
439.01	766.36
439.38	778.71
439.75	791.20
440.13	804.90
440.50	817.94
440.87	828.82
441.24	840.20
441.61	852.40
441.98	861.17
442.35	871.63
442.72	882.55
443.09	893.04
443.46	899.62
443.83	904.27
444.20	908.55
444.57	913.87
444.94	916.75
445.31	919.64
445.68	922.86
446.05	924.34
446.42	922.95
446.79	921.75
447.16	920.21
447.53	919.03
447.90	913.75
448.27	908.78
448.64	901.35
449.01	896.04
449.37	886.63
449.74	877.34
450.11	866.61
450.48	854.16
450.85	841.59
451.22	830.79
451.59	820.67
451.96	810.78
452.33	797.62
452.70	785.97
453.07	771.65
453.43	756.38
453.80	742.62
454.17	729.83
454.54	717.29
454.91	703.50
455.28	690.11
455.65	677.91
456.02	666.76
456.38	656.21
456.75	643.24
457.12	632.32
457.49	622.10
457.86	611.42
458.23	602.94
458.59	593.42
458.96	583.85
459.33	575.11
459.70	566.50
460.07	559.69
460.43	551.90
460.80	544.92
461.17	539.03
461.54	532.50
461.91	525.86
462.27	519.46
462.64	513.91
463.01	508.20
463.38	502.75
463.74	495.90
464.11	490.95
464.48	486.56
464.85	481.81
465.21	478.30
465.58	474.34
465.95	469.50
466.32	465.74
466.68	461.82
467.05	458.09
467.42	454.38
467.78	450.51
468.15	446.65
468.52	444.03
468.88	440.08
469.25	436.53
469.62	434.14
469.98	431.27
470.35	428.76
470.72	426.23
471.08	423.36
471.45	421.10
471.82	418.73
472.18	416.32
472.55	414.67
472.92	412.36
473.28	410.53
473.65	408.56
474.02	406.54
474.38	405.10
474.75	403.79
475.11	402.28
475.48	401.18
475.85	400.28
476.21	398.80
476.58	398.04
476.94	397.35
477.31	396.42
477.67	395.50
478.04	394.93
478.41	394.41
478.77	394.81
479.14	394.19
479.50	393.97
479.87	393.76
480.23	393.42
480.60	393.06
480.96	392.73
481.33	393.14
481.69	393.24
482.06	393.20
482.42	393.19
482.79	393.37
483.15	393.45
483.52	393.93
483.88	394.41
484.25	394.84
484.61	395.32
484.98	395.69
485.34	396.87
485.71	397.66
486.07	398.41
486.44	398.46
486.80	399.41
487.17	400.34
487.53	401.89
487.90	403.12
488.26	405.03
488.62	406.73
488.99	408.16
489.35	409.98
489.72	411.75
490.08	413.80
490.44	415.63
490.81	417.96
491.17	419.77
491.54	422.12
491.90	424.47
492.26	426.91
492.63	429.59
492.99	431.94
493.36	434.63
493.72	437.74
494.08	440.67
494.45	443.76
494.81	447.30
495.17	450.01
495.54	453.60
495.90	456.40
496.26	459.70
496.63	463.06
496.99	466.73
497.35	470.29
497.72	473.99
498.08	477.67
498.44	481.20
498.80	485.33
499.17	489.07
499.53	492.99
499.89	497.07
500.26	501.02
500.62	505.22
500.98	509.68
501.34	513.69
501.71	517.98
502.07	522.11
502.43	526.03
502.79	530.37
503.16	534.61
503.52	539.26
503.88	543.49
504.24	548.26
504.60	552.59
504.97	557.41
505.33	561.52
505.69	566.69
506.05	571.27
506.41	575.57
506.78	579.93
507.14	584.41
507.50	588.81
507.86	593.33
508.22	597.51
508.59	601.51
508.95	605.91
509.31	610.70
509.67	615.01
510.03	619.17
510.39	623.28
510.75	627.33
511.12	631.20
511.48	635.22
511.84	638.85
512.20	642.43
512.56	645.96
512.92	650.01
513.28	653.24
513.64	656.64
514.00	660.14
514.37	663.73
514.73	667.11
515.09	670.50
515.45	673.72
515.81	677.07
516.17	680.44
516.53	683.29
516.89	685.75
517.25	688.82
517.61	692.38
517.97	695.65
518.33	698.72
518.69	701.95
519.05	705.08
519.41	708.21
519.77	711.89
520.13	714.81
520.49	717.40
520.85	723.02
521.21	726.63
521.57	729.60
521.93	732.09
522.29	734.82
522.65	737.11
523.01	739.54
523.37	741.82
523.73	744.10
524.09	746.43
524.45	749.15
524.81	751.58
525.17	754.05
525.53	756.64
525.89	758.96
526.25	761.47
526.61	763.55
526.97	765.87
527.33	768.27
527.68	771.76
528.04	774.91
528.40	774.74
528.76	777.19
529.12	780.20
529.48	783.56
529.84	786.29
530.20	789.90
530.56	793.41
530.91	797.10
531.27	800.62
531.63	804.59
531.99	807.58
532.35	811.20
532.71	814.10
533.07	817.80
533.42	822.38
533.78	825.81
534.14	830.00
534.50	833.77
534.86	837.75
535.21	840.85
535.57	844.83
535.93	848.53
536.29	852.76
536.65	856.35
537.00	860.34
537.36	864.60
537.72	868.16
538.08	872.00
538.44	875.57
538.79	879.69
539.15	883.22
539.51	887.61
539.87	891.33
540.22	895.66
540.58	899.08
540.94	902.25
541.29	905.98
541.65	909.22
542.01	912.91
542.37	916.03
542.72	919.34
543.08	922.22
543.44	926.10
543.79	928.69
544.15	932.30
544.51	935.53
544.87	938.85
545.22	942.13
545.58	945.23
545.94	948.31
546.29	951.22
546.65	954.38
547.01	956.98
547.36	960.01
547.72	962.72
548.07	965.72
548.43	968.26
548.79	971.27
549.14	974.37
549.50	977.54
549.86	980.24
550.21	983.38
550.57	986.95
550.92	989.72
551.28	992.95
551.64	995.95
551.99	999.37
552.35	1001.92
552.70	1005.01
553.06	1008.17
553.41	1010.96
553.77	1014.23
554.13	1017.31
554.48	1020.80
554.84	1023.57
555.19	1026.67
555.55	1030.58
555.90	1033.33
556.26	1035.96
556.61	1038.26
556.97	1039.84
557.32	1042.34
557.68	1044.46
558.03	1046.37
558.39	1048.46
558.74	1050.53
559.10	1052.22
559.45	1053.71
559.81	1055.45
560.16	1056.79
560.52	1058.36
560.87	1060.53
561.23	1061.83
561.58	1063.82
561.94	1064.52
562.29	1066.20
562.64	1067.17
563.00	1067.53
563.35	1068.96
563.71	1070.44
564.06	1072.14
564.42	1073.94
564.77	1075.57
565.12	1077.10
565.48	1079.43
565.83	1080.98
566.19	1082.13
566.54	1083.48
566.89	1084.40
567.25	1086.12
567.60	1088.02
567.96	1089.95
568.31	1091.52
568.66	1092.76
569.02	1092.84
569.37	1093.85
569.72	1094.78
570.08	1095.50
570.43	1095.43
570.78	1095.93
571.14	1096.31
571.49	1096.15
571.84	1096.55
572.20	1096.44
572.55	1096.30
572.90	1095.26
573.26	1094.97
573.61	1094.55
573.96	1094.15
574.31	1093.50
574.67	1092.54
575.02	1091.28
575.37	1089.13
575.72	1087.36
576.08	1085.86
576.43	1084.71
576.78	1083.43
577.13	1081.65
577.49	1080.30
577.84	1079.80
578.19	1078.21
578.54	1076.51
578.90	1075.74
579.25	1074.36
579.60	1072.77
579.95	1071.10
580.30	1069.10
580.66	1067.03
581.01	1065.17
581.36	1062.82
581.71	1061.37
582.06	1059.61
582.42	1057.65
582.77	1056.24
583.12	1054.62
583.47	1052.79
583.82	1051.43
584.17	1049.68
584.53	1048.16
584.88	1045.71
585.23	1043.13
585.58	1041.00
585.93	1038.37
586.28	1035.60
586.63	1032.67
586.98	1029.90
587.34	1027.41
587.69	1024.81
588.04	1022.60
588.39	1020.47
588.74	1017.99
589.09	1015.31
589.44	1012.45
589.79	1009.97
590.14	1007.10
590.49	1004.20
590.84	1001.41
591.19	998.31
591.54	995.23
591.89	992.31
592.25	991.04
592.60	988.53
592.95	985.64
593.30	983.02
593.65	980.15
594.00	977.11
594.35	977.08
594.70	973.86
595.05	970.90
595.40	967.74
595.75	964.43
596.10	961.60
596.45	958.50
596.80	955.66
597.15	952.44
597.50	949.13
597.85	946.19
598.19	942.93
598.54	939.78
598.89	936.64
599.24	933.76
599.59	929.70
599.94	925.95
600.29	922.87
600.64	919.73
600.99	916.37
601.34	913.62
601.69	907.78
602.04	904.43
602.39	901.56
602.74	898.78
603.08	895.90
603.43	893.45
603.78	890.38
604.13	887.15
604.48	883.98
604.83	880.98
605.18	877.38
605.53	874.39
605.87	871.14
606.22	868.22
606.57	864.59
606.92	861.19
607.27	858.15
607.62	855.09
607.96	852.26
608.31	849.68
608.66	846.76
609.01	843.79
609.36	840.90
609.70	837.41
610.05	833.68
610.40	830.37
610.75	826.40
611.10	823.04
611.44	819.67
611.79	816.41
612.14	813.31
612.49	810.11
612.83	806.77
613.18	803.52
613.53	800.40
613.88	796.94
614.22	793.44
614.57	789.93
614.92	786.19
615.27	782.67
615.61	778.76
615.96	775.24
616.31	771.67
616.65	768.70
617.00	765.36
617.35	761.98
617.70	758.18
618.04	754.92
618.39	751.51
618.74	748.60
619.08	745.08
619.43	741.80
619.78	738.18
620.12	734.85
620.47	731.35
620.82	727.69
621.16	724.55
621.51	721.95
621.85	718.88
622.20	715.90
622.55	712.42
622.89	709.14
623.24	705.94
623.59	702.74
623.93	699.30
624.28	696.21
624.62	694.21
624.97	691.70
625.32	688.49
625.66	685.21
626.01	681.58
626.35	678.62
626.70	675.31
627.04	672.65
627.39	669.30
627.73	666.52
628.08	663.40
628.43	660.15
628.77	656.28
629.12	653.24
629.46	650.21
629.81	647.61
630.15	644.78
630.50	641.54
630.84	638.47
631.19	635.48
631.53	632.66
631.88	628.53
632.22	625.16
632.57	622.61
632.91	619.90
633.26	617.35
633.60	614.35
633.95	611.44
634.29	608.30
634.64	605.58
634.98	602.32
635.32	599.67
635.67	597.28
636.01	594.94
636.36	592.05
636.70	589.65
637.05	586.78
637.39	584.36
637.73	581.96
638.08	579.57
638.42	576.80
638.77	573.94
639.11	571.10
639.45	568.13
639.80	564.97
640.14	562.11
640.49	559.26
640.83	556.72
641.17	554.20
641.52	551.62
641.86	548.99
642.20	547.00
642.55	544.20
642.89	541.46
643.23	538.80
643.58	536.64
643.92	533.60
644.26	531.10
644.61	528.55
644.95	525.90
645.29	523.11
645.64	520.80
645.98	518.36
646.32	516.38
646.66	514.00
647.01	511.54
647.35	509.46
647.69	507.07
648.04	504.91
648.38	502.60
648.72	500.24
649.06	497.81
649.41	495.03
649.75	492.86
650.09	490.64
650.43	488.52
650.78	486.05
651.12	483.93
651.46	481.49
651.80	479.14
652.14	476.82
652.49	475.01
652.83	472.72
653.17	470.56
653.51	468.07
653.85	466.27
654.20	464.35
654.54	462.01
654.88	459.81
655.22	457.96
655.56	455.78
655.90	453.75
656.25	451.94
656.59	450.21
656.93	448.40
657.27	446.56
657.61	444.22
657.95	442.26
658.29	440.20
658.64	438.47
658.98	436.42
659.32	434.40
659.66	432.21
660.00	430.35
660.34	428.42
660.68	426.49
661.02	424.61
661.36	422.60
661.70	420.75
662.05	419.13
662.39	417.45
662.73	416.11
663.07	414.97
663.41	413.17
663.75	411.24
664.09	409.57
664.43	407.57
664.77	406.13
665.11	404.40
665.45	402.86
665.79	401.24
666.13	399.42
666.47	397.71
666.81	396.10
667.15	394.36
667.49	393.05
667.83	392.07
668.17	390.43
668.51	389.07
668.85	387.72
669.19	386.70
669.53	384.86
669.87	383.16
670.21	381.30
670.55	379.90
670.89	379.00
671.23	377.41
671.57	376.03
671.91	374.62
672.25	373.27
672.58	372.18
672.92	370.62
673.26	369.53
673.60	368.42
673.94	367.19
674.28	366.12
674.62	364.90
674.96	363.38
675.30	362.33
675.64	361.10
675.97	359.80
676.31	358.22
676.65	356.78
676.99	355.85
677.33	354.47
677.67	353.35
678.01	351.63
678.34	350.52
678.68	349.57
679.02	348.22
679.36	347.12
679.70	345.84
680.04	344.83
680.37	343.67
680.71	342.56
681.05	341.70
681.39	340.60
681.73	339.40
682.06	338.29
682.40	337.10
682.74	336.24
683.08	335.56
683.42	334.31
683.75	333.66
684.09	332.44
684.43	331.68
684.77	330.49
685.10	329.63
685.44	328.68
685.78	327.50
686.12	326.68
686.45	325.76
686.79	324.60
687.13	323.78
687.46	322.87
687.80	322.23
688.14	321.07
688.48	320.32
688.81	319.30
689.15	318.62
689.49	317.63
689.82	316.80
690.16	315.56
690.50	314.91
690.83	313.83
691.17	312.86
691.51	312.02
691.84	311.37
692.18	310.49
692.52	309.61
692.85	308.98
693.19	308.57
693.52	307.76
693.86	307.05
694.20	306.16
694.53	305.42
694.87	304.47
695.21	303.73
695.54	302.82
695.88	302.03
696.21	300.94
696.55	300.30
696.88	299.35
697.22	298.49
697.56	297.72
697.89	297.02
698.23	296.29
698.56	295.46
698.90	294.85
699.23	294.02
699.57	293.50
699.90	292.72
700.24	291.66
700.58	291.07
700.91	290.50
701.25	290.60
701.58	290.58
701.92	290.12
702.25	289.38
702.59	288.75
702.92	288.30
703.26	287.91
703.59	287.31
703.93	287.47
704.26	287.11
704.60	286.60
704.93	286.02
705.26	285.48
705.60	285.07
705.93	284.18
706.27	284.04
706.60	283.58
706.94	283.43
707.27	282.95
707.61	282.51
707.94	281.95
708.27	280.74
708.61	279.46
708.94	278.77
709.28	278.35
709.61	277.59
709.94	277.00
710.28	276.47
710.61	276.06
710.95	274.78
711.28	274.76
711.61	274.18
711.95	273.80
712.28	273.21
712.61	272.59
712.95	272.72
713.28	272.62
713.61	271.95
713.95	271.16
714.28	270.69
714.61	270.01
714.95	269.50
715.28	268.95
715.61	268.51
715.95	268.14
716.28	267.54
716.61	267.43
716.95	267.01
717.28	266.53
717.61	265.99
717.94	265.59
718.28	264.59
718.61	264.20
718.94	263.79
719.27	263.36
719.61	263.10
719.94	262.46
720.27	261.48
720.60	261.06
720.94	260.75
721.27	260.35
721.60	260.28
721.93	259.85
722.27	259.87
722.60	259.78
722.93	259.34
723.26	259.23
723.59	258.77
723.93	258.55
724.26	258.30
724.59	258.02
724.92	257.75
725.25	257.71
725.59	257.36
725.92	257.20
726.25	257.07
726.58	256.83
726.91	256.55
727.24	256.46
727.57	256.25
727.91	255.77
728.24	255.74
728.57	255.26
728.90	255.28
729.23	254.67
729.56	254.81
729.89	254.66
730.22	254.25
730.55	254.02
730.89	253.73
731.22	253.36
731.55	253.09
731.88	252.90
732.21	252.48
732.54	252.21
732.87	251.90
733.20	251.53
733.53	251.27
733.86	250.98
734.19	250.63
734.52	250.50
734.85	251.04
735.18	250.56
735.51	250.70
735.84	250.35
736.17	250.50
736.50	249.68
736.83	250.58
737.16	250.39
737.49	250.25
737.82	250.00
738.15	250.03
738.48	249.90
738.81	249.65
739.14	249.32
739.47	249.13
739.80	248.99
740.13	249.01
740.46	248.67
740.79	248.44
741.12	248.22
741.45	247.86
741.78	247.01
742.11	247.17
742.44	246.73
742.77	246.78
743.10	246.42
743.43	246.28
743.75	245.02
744.08	246.12
744.41	245.84
744.74	245.68
745.07	245.24
745.40	245.25
745.73	245.54
746.06	245.51
746.39	245.43
746.71	245.00
747.04	244.63
747.37	244.54
747.70	244.52
748.03	244.50
748.36	244.68
748.68	244.51
749.01	244.02
749.34	243.89
749.67	243.59
750.00	243.46
750.33	244.15
750.65	244.21
750.98	242.86
751.31	242.73
751.64	242.66
751.97	243.12
752.29	242.90
752.62	242.21
752.95	241.96
753.28	241.71
753.60	241.70
753.93	241.90
754.26	241.94
754.59	241.63
754.91	241.40
755.24	241.08
755.57	241.08
755.90	240.96
756.22	240.74
756.55	240.63
756.88	240.34
757.20	239.52
757.53	239.10
757.86	239.04
758.19	239.07
758.51	238.89
758.84	238.30
759.17	238.10
759.49	238.19
759.82	238.58
760.15	238.74
760.47	238.64
760.80	238.22
761.13	238.10
761.45	237.93
761.78	237.83
762.11	237.75
762.43	237.49
762.76	237.43
763.08	237.38
763.41	237.43
763.74	237.40
764.06	237.28
764.39	237.24
764.71	237.00
765.04	236.77
765.37	236.70
765.69	236.63
766.02	236.59
766.34	236.44
766.67	236.04
767.00	236.00
767.32	236.45
767.65	237.02
767.97	236.88
768.30	236.94
768.62	236.94
768.95	236.76
769.27	236.72
769.60	236.89
769.92	236.76
770.25	236.46
770.57	236.31
770.90	236.24
771.22	236.12
771.55	236.20
771.87	236.19
772.20	236.03
772.52	236.72
772.85	237.75
773.17	237.66
773.50	237.51
773.82	237.23
774.15	236.63
774.47	235.85
774.80	235.75
775.12	235.70
775.45	235.54
775.77	235.58
776.09	235.57
776.42	235.33
776.74	235.51
777.07	235.42
777.39	235.45
777.72	235.31
778.04	235.36
778.36	235.24
778.69	235.24
779.01	235.25
779.33	234.43
779.66	233.22
779.98	233.11
780.31	233.05
780.63	233.41
780.95	233.57
781.28	233.64
781.60	233.53
781.92	233.40
782.25	233.43
782.57	233.33
782.89	233.20
783.22	233.13
783.54	232.81
783.86	232.79
784.19	232.65
784.51	232.94
784.83	232.66
785.16	232.50
785.48	232.41
785.80	232.34
786.12	232.39
786.45	232.40
786.77	232.46
787.09	232.43
787.42	232.06
787.74	231.97
788.06	231.93
788.38	231.80
788.71	231.59
789.03	231.48
789.35	231.64
789.67	231.50
789.99	231.54
790.32	231.55
790.64	231.57
790.96	232.20
791.28	231.87
791.61	231.90
791.93	231.94
792.25	231.90
792.57	232.54
792.89	232.26
793.21	232.24
793.54	232.09
793.86	231.98
794.18	232.11
794.50	231.93
794.82	231.88
795.14	231.96
795.47	232.28
795.79	232.32
796.11	232.02
796.43	231.98
796.75	231.89
797.07	231.89
797.39	231.82
797.71	231.20
798.04	231.16
798.36	231.16
798.68	231.21
799.00	231.22
799.32	230.70
799.64	231.00
799.96	231.04
800.28	231.22
800.60	231.17
800.92	231.14
801.24	231.18
801.56	231.37
801.89	231.26
802.21	231.29
802.53	231.20
802.85	231.46
803.17	232.00
803.49	231.91
803.81	231.86
804.13	231.91
804.45	231.81
804.77	231.88
805.09	231.83
805.41	231.74
805.73	231.61
806.05	231.50
806.37	231.43
806.69	231.34
807.01	231.31
807.33	231.38
807.65	231.02
807.97	231.49
808.28	231.33
808.60	231.46
808.92	231.26
809.24	231.77
809.56	231.68
809.88	231.28
810.20	231.31
810.52	231.45
810.84	231.27
811.16	231.15
811.48	231.14
811.80	231.47
812.12	231.44
812.43	231.61
812.75	231.57
813.07	231.38
813.39	231.47
813.71	231.24
814.03	231.21
814.35	231.22
814.67	230.71
814.98	230.65
815.30	230.59
815.62	230.46
815.94	229.86
816.26	230.22
816.58	230.04
816.89	230.07
817.21	229.91
817.53	230.06
817.85	230.07
818.17	230.01
818.48	229.66
818.80	229.81
819.12	229.67
819.44	229.52
819.76	229.51
820.07	229.42
820.39	229.41
820.71	229.36
821.03	229.30
821.34	229.20
821.66	229.33
821.98	229.37
822.30	229.39
822.61	230.00
822.93	229.43
823.25	229.46
823.57	229.44
823.88	229.56
824.20	229.46
824.52	229.66
824.83	229.52
825.15	229.44
825.47	229.37
825.79	229.40
826.10	229.29
826.42	229.18
826.74	229.27
827.05	229.27
827.37	229.30
827.69	229.35
828.00	229.47
828.32	229.40
828.64	229.13
828.95	229.61
829.27	229.18
829.58	229.23
829.90	229.32
830.22	229.36
830.53	229.06
830.85	228.91
831.17	228.67
831.48	228.72
831.80	228.78
832.11	228.63
832.43	228.54
832.75	228.60
833.06	229.19
833.38	228.83
833.69	228.83
834.01	228.87
834.32	228.68
834.64	228.51
834.96	228.40
835.27	228.49
835.59	228.03
835.90	227.97
836.22	227.86
836.53	227.76
836.85	227.58
837.16	228.60
837.48	228.65
837.79	228.90
838.11	228.95
838.42	228.97
838.74	229.15
839.05	229.09
839.37	229.01
839.68	228.45
840.00	228.49
840.31	228.57
840.63	228.43
840.94	228.61
841.26	228.58
841.57	228.56
841.88	228.69
842.20	228.68
842.51	228.58
842.83	228.61
843.14	229.50
843.46	229.47
843.77	228.93
844.08	228.87
844.40	228.63
844.71	228.55
845.03	228.42
845.34	228.34
845.65	228.29
845.97	228.36
846.28	228.38
846.60	228.47
846.91	228.34
847.22	228.41
847.54	228.51
847.85	228.60
848.16	228.60
848.48	228.34
848.79	228.65
849.10	228.75
849.42	228.72
849.73	227.81
850.04	227.86
850.36	227.54
850.67	227.69
850.98	227.75
851.30	227.91
851.61	227.94
851.92	227.96
852.23	228.24
852.55	228.35
852.86	228.41
853.17	228.53
853.49	228.75
853.80	228.86
854.11	228.94
854.42	229.02
854.74	228.83
855.05	228.98
855.36	228.55
855.67	228.59
855.99	228.60
856.30	229.65
856.61	229.65
856.92	229.66
857.23	229.66
857.55	229.53
857.86	229.41
858.17	229.58
858.48	229.43
858.79	229.32
859.11	229.43
859.42	229.30
859.73	229.14
860.04	229.09
860.35	228.84
860.66	228.53
860.98	228.48
861.29	228.73
861.60	228.60
861.91	228.82
862.22	228.61
862.53	228.48
862.84	227.40
863.16	227.55
863.47	227.39
863.78	227.42
864.09	227.43
864.40	227.47
864.71	227.40
865.02	227.48
865.33	227.32
865.64	227.04
865.95	227.09
866.27	227.64
866.58	227.50
866.89	227.60
867.20	227.51
867.51	227.46
867.82	227.35
868.13	227.76
868.44	227.55
868.75	227.73
869.06	227.85
869.37	227.96
869.68	227.66
869.99	227.78
870.30	227.90
870.61	228.06
870.92	227.79
871.23	227.74
871.54	227.79
871.85	227.92
872.16	228.18
872.47	228.00
872.78	227.48
873.09	227.58
873.40	227.44
873.71	227.60
874.02	227.63
874.33	227.50
874.64	227.21
874.95	227.37
875.26	227.18
875.56	227.14
875.87	227.12
876.18	227.19
876.49	228.17
876.80	227.90
877.11	227.70
877.42	227.83
877.73	227.79
878.04	227.71
878.35	227.90
878.66	227.87
878.96	228.00
879.27	228.00
879.58	227.93
879.89	227.92
880.20	228.20
880.51	228.17
880.82	228.18
881.12	228.17
881.43	228.09
881.74	228.02
882.05	228.03
882.36	228.15
882.67	228.18
882.97	227.19
883.28	227.10
883.59	227.15
883.90	227.26
884.21	227.50
884.51	227.40
884.82	227.12
885.13	227.01
885.44	226.95
885.74	227.00
886.05	227.03
886.36	227.13
886.67	226.80
886.98	227.30
887.28	227.43
887.59	227.50
887.90	227.48
888.20	227.51
888.51	227.64
888.82	227.42
889.13	227.63
889.43	228.40
889.74	228.51
890.05	228.52
890.35	228.43
890.66	228.21
890.97	228.21
891.28	228.21
891.58	228.31
891.89	228.30
892.20	228.11
892.50	228.04
892.81	227.98
893.12	227.95
893.42	227.46
893.73	227.50
894.04	227.49
894.34	227.50
894.65	227.52
894.95	227.40
895.26	227.53
895.57	227.95
895.87	227.01
896.18	227.15
896.48	227.13
896.79	227.11
897.10	227.29
897.40	227.30
897.71	227.39
898.01	227.27
898.32	227.49
898.63	227.55
898.93	227.57
899.24	227.62
899.54	227.66
899.85	227.69
900.15	227.62
900.46	227.54
900.76	227.69
901.07	227.64
901.38	227.69
901.68	227.70
901.99	227.04
902.29	227.14
902.60	227.05
902.90	227.00
903.21	226.98
903.51	226.95
903.82	227.11
904.12	227.10
904.43	227.08
904.73	226.99
905.03	227.11
905.34	228.01
905.64	228.00
905.95	228.00
906.25	227.92
906.56	227.86
906.86	227.80
907.17	227.71
907.47	227.78
907.77	227.65
908.08	227.47
908.38	227.45
908.69	227.61
908.99	227.73
909.30	227.83
909.60	227.88
909.90	227.82
910.21	227.59
910.51	227.41
910.81	227.47
911.12	227.44
911.42	227.35
911.73	226.42
912.03	226.34
912.33	226.48
912.64	226.48
912.94	226.40
913.24	226.36
913.55	226.22
913.85	226.17
914.15	226.46
914.46	226.57
914.76	226.65
915.06	226.45
915.37	226.23
915.67	226.24
915.97	226.25
916.27	226.03
916.58	226.01
916.88	226.06
917.18	226.01
917.49	226.70
917.79	226.70
918.09	226.79
918.39	227.07
918.70	227.01
919.00	227.03
919.30	227.50
919.60	227.59
919.91	227.48
920.21	227.46
920.51	227.10
920.81	227.10
921.12	227.21
921.42	227.24
921.72	227.35
922.02	227.41
922.32	227.60
922.63	227.67
922.93	228.26
923.23	228.33
923.53	228.34
923.83	227.76
924.13	227.90
924.44	227.90
924.74	228.10
925.04	228.27
925.34	228.30
925.64	227.98
925.94	227.96
926.24	228.63
926.55	228.54
926.85	228.76
927.15	228.72
927.45	228.73
927.75	228.78
928.05	228.78
928.35	228.68
928.65	228.80
928.95	228.96
929.26	228.51
929.56	228.78
929.86	228.90
930.16	228.78
930.46	228.67
930.76	228.80
931.06	228.29
931.36	228.05
931.66	228.22
931.96	228.38
932.26	228.36
932.56	227.90
932.86	228.12
933.16	228.11
933.46	227.97
933.76	227.80
934.06	228.08
934.36	228.50
934.66	228.37
934.96	228.25
935.26	228.22
935.56	228.46
935.86	228.09
936.16	227.89
936.46	227.79
936.76	227.77
937.06	227.52
937.36	227.70
937.66	227.78
937.96	227.69
938.26	227.43
938.56	227.41
938.86	227.44
939.16	227.59
939.46	227.63
939.76	227.74
940.06	227.74
940.35	227.44
940.65	226.89
940.95	227.04
941.25	226.75
941.55	226.65
941.85	226.49
942.15	226.77
942.45	226.96
942.75	227.00
943.04	226.95
943.34	227.18
943.64	227.05
943.94	226.88
944.24	226.88
944.54	226.95
944.84	226.94
945.13	226.85
945.43	226.68
945.73	226.65
946.03	226.69
946.33	226.70
946.62	226.67
946.92	226.71
947.22	226.72
947.52	226.83
947.82	226.94
948.11	226.91
948.41	226.71
948.71	226.59
949.01	226.71
949.31	226.65
949.60	226.50
949.90	226.64
950.20	226.66
950.50	226.57
950.79	226.47
951.09	226.64
951.39	226.60
951.69	226.50
951.98	226.67
952.28	226.75
952.58	226.67
952.87	226.66
953.17	226.72
953.47	226.59
953.76	226.55
954.06	226.36
954.36	226.20
954.66	226.08
954.95	226.31
955.25	226.25
955.55	226.34
955.84	226.30
956.14	226.46
956.44	226.50
956.73	226.48
957.03	226.63
957.32	226.65
957.62	226.70
957.92	226.94
958.21	226.79
958.51	227.70
958.81	227.87
959.10	227.99
959.40	228.10
959.69	228.19
959.99	228.34
960.29	228.42
960.58	228.43
960.88	228.92
961.17	228.81
961.47	228.86
961.76	228.78
962.06	228.90
962.36	228.80
962.65	228.83
962.95	228.75
963.24	228.63
963.54	228.51
963.83	228.53
964.13	228.35
964.42	228.20
964.72	227.50
965.01	227.53
965.31	227.39
965.60	227.21
965.90	227.86
966.19	227.67
966.49	227.74
966.78	227.74
967.08	227.62
967.37	227.64
967.67	227.52
967.96	227.75
968.26	227.74
968.55	227.82
968.85	227.83
969.14	227.88
969.43	227.99
969.73	227.93
970.02	227.87
970.32	228.00
970.61	228.03
970.91	227.84
971.20	227.75
971.49	227.71
971.79	227.94
972.08	227.35
972.38	227.43
972.67	227.38
972.96	227.50
973.26	227.29
973.55	227.55
973.85	227.60
974.14	227.49
974.43	227.69
974.73	227.36
975.02	227.22
975.31	227.27
975.61	227.27
975.90	227.26
976.19	227.22
976.49	227.18
976.78	227.30
977.07	227.06
977.37	227.04
977.66	227.11
977.95	227.01
978.24	227.06
978.54	227.29
978.83	227.16
979.12	227.06
979.42	227.10
979.71	226.84
980.00	226.88
980.29	226.92
980.59	226.59
980.88	226.85
981.17	226.85
981.46	226.79
981.76	226.79
982.05	227.07
982.34	227.10
982.63	227.13
982.93	227.06
983.22	227.59
983.51	227.64
983.80	227.84
984.09	227.83
984.39	227.58
984.68	227.32
984.97	227.45
985.26	227.31
985.55	227.36
985.85	227.20
986.14	227.21
986.43	227.33
986.72	227.29
987.01	227.03
987.30	227.04
987.59	227.04
987.89	226.93
988.18	226.66
988.47	226.64
988.76	226.55
989.05	226.51
989.34	226.27
989.63	226.52
989.92	226.35
990.22	226.30
990.51	226.43
990.80	226.52
991.09	226.51
991.38	226.72
991.67	226.60
991.96	226.55
992.25	226.58
992.54	226.38
992.83	226.41
993.12	226.47
993.41	226.67
993.70	227.01
993.99	227.33
994.28	227.44
994.58	227.61
994.87	227.51
995.16	227.42
995.45	227.32
995.74	226.95
996.03	227.00
996.32	227.14
996.61	227.42
996.90	227.27
997.19	227.27
997.48	227.32
997.77	227.23
998.06	227.31
998.34	227.30
998.63	227.27
998.92	227.36
999.21	227.49
999.50	227.52
999.79	227.14
1000.08	227.00
1000.37	227.01
1000.66	226.83
1000.95	227.06
1001.24	227.09
1001.53	227.17
1001.82	227.24
1002.11	227.09
1002.40	227.22
1002.68	227.36
1002.97	228.14
1003.26	228.00
1003.55	227.85
1003.84	228.03
1004.13	228.39
1004.42	228.30
1004.71	228.38
1004.99	228.38
1005.28	228.53
1005.57	228.35
1005.86	228.26
1006.15	228.17
1006.44	228.04
1006.72	228.15
1007.01	227.97
1007.30	228.10
1007.59	227.99
1007.88	227.97
1008.17	228.07
1008.45	227.66
1008.74	227.31
1009.03	226.80
1009.32	226.83
1009.60	226.92
1009.89	226.68
1010.18	226.28
1010.47	226.20
1010.76	226.13
1011.04	225.98
1011.33	225.95
1011.62	226.04
1011.91	226.22
1012.19	226.20
1012.48	226.17
1012.77	226.10
1013.05	226.56
1013.34	226.51
1013.63	226.52
1013.92	226.56
1014.20	226.39
1014.49	226.52
1014.78	226.56
1015.06	226.32
1015.35	226.32
1015.64	226.35
1015.92	226.61
1016.21	226.69
1016.50	226.69
1016.78	226.89
1017.07	226.95
1017.36	226.80
1017.64	226.76
1017.93	226.90
1018.22	226.86
1018.50	226.90
1018.79	226.90
1019.08	226.48
1019.36	226.55
1019.65	226.44
1019.93	226.68
1020.22	226.92
1020.51	227.45
1020.79	227.32
1021.08	224.60
1021.36	225.40
1021.65	226.50
1021.94	226.60
1022.22	228.40
1022.51	224.80
1022.79	231.00
1023.08	228.50
1023.36	238.50
1023.65	224.40
>>>>>End Processed Spectral Data<<<<<
