SpectraSuite Data File
++++++++++++++++++++++++++++++++++++
Date: Wed Sep 04 17:31:10 EDT 2013
User: lab3
Dark Spectrum Present: Yes
Reference Spectrum Present: No
Number of Sampled Component Spectra: 1
Spectrometers: USB2E7196
Integration Time (usec): 337000 (USB2E7196)
Spectra Averaged: 10 (USB2E7196)
Boxcar Smoothing: 10 (USB2E7196)
Correct for Electrical Dark: No (USB2E7196)
Strobe/Lamp Enabled: No (USB2E7196)
Correct for Detector Non-linearity: No (USB2E7196)
Correct for Stray Light: No (USB2E7196)
Number of Pixels in Processed Spectrum: 2048
>>>>>Begin Processed Spectral Data<<<<<
339.09	0.00
339.48	213.50
339.86	214.60
340.24	215.00
340.63	218.40
341.01	232.80
341.39	221.50
341.78	223.10
342.16	225.80
342.54	223.30
342.93	213.68
343.31	224.50
343.69	224.99
344.07	225.50
344.46	226.08
344.84	226.53
345.22	226.14
345.60	226.40
345.99	226.54
346.37	226.57
346.75	226.64
347.13	226.59
347.52	226.63
347.90	227.11
348.28	227.07
348.66	227.17
349.05	226.91
349.43	227.10
349.81	227.14
350.19	227.11
350.57	227.14
350.96	227.30
351.34	227.38
351.72	227.47
352.10	227.44
352.48	227.44
352.87	227.34
353.25	227.39
353.63	227.39
354.01	227.34
354.39	227.47
354.77	227.61
355.15	227.90
355.54	227.73
355.92	227.46
356.30	227.62
356.68	228.32
357.06	228.36
357.44	228.12
357.82	228.21
358.20	229.11
358.58	229.14
358.97	229.20
359.35	229.30
359.73	229.60
360.11	229.75
360.49	229.80
360.87	229.90
361.25	230.12
361.63	230.49
362.01	230.66
362.39	230.59
362.77	230.75
363.15	230.80
363.53	230.90
363.91	230.91
364.29	230.89
364.67	230.06
365.05	230.10
365.43	230.32
365.81	230.50
366.19	230.08
366.57	230.48
366.95	230.48
367.33	230.37
367.71	230.38
368.09	230.57
368.47	230.53
368.85	230.49
369.23	230.69
369.61	230.28
369.99	230.59
370.37	230.63
370.75	231.02
371.13	230.76
371.51	230.65
371.89	230.74
372.27	230.71
372.65	230.72
373.03	230.80
373.41	230.75
373.78	230.58
374.16	230.13
374.54	229.75
374.92	229.69
375.30	229.71
375.68	229.40
376.06	229.32
376.44	229.14
376.82	229.21
377.19	229.11
377.57	229.02
377.95	228.61
378.33	228.64
378.71	227.97
379.09	228.09
379.47	228.23
379.84	227.99
380.22	227.89
380.60	227.60
380.98	227.33
381.36	227.16
381.73	227.03
382.11	227.08
382.49	227.12
382.87	226.86
383.25	226.70
383.62	227.82
384.00	227.63
384.38	227.71
384.76	227.81
385.13	228.07
385.51	228.15
385.89	228.05
386.27	227.90
386.64	227.99
387.02	227.90
387.40	227.66
387.78	227.74
388.15	227.77
388.53	227.81
388.91	227.98
389.29	227.90
389.66	228.04
390.04	227.97
390.42	228.04
390.79	228.10
391.17	228.14
391.55	226.94
391.92	226.87
392.30	226.94
392.68	226.66
393.05	226.59
393.43	226.65
393.81	226.73
394.18	226.63
394.56	226.67
394.94	226.77
395.31	226.81
395.69	227.07
396.06	227.21
396.44	227.33
396.82	227.25
397.19	227.80
397.57	227.67
397.95	227.88
398.32	227.69
398.70	227.92
399.07	228.13
399.45	228.27
399.82	228.37
400.20	228.37
400.58	228.50
400.95	228.21
401.33	228.42
401.70	229.12
402.08	229.34
402.45	229.54
402.83	230.02
403.20	230.35
403.58	230.49
403.95	230.81
404.33	231.17
404.71	231.48
405.08	232.19
405.46	232.51
405.83	232.84
406.21	233.22
406.58	233.65
406.96	234.00
407.33	234.58
407.70	235.20
408.08	236.48
408.45	237.16
408.83	237.87
409.20	238.31
409.58	238.41
409.95	239.25
410.33	240.08
410.70	240.51
411.08	241.40
411.45	242.24
411.82	243.01
412.20	244.08
412.57	245.63
412.95	245.90
413.32	247.25
413.69	248.40
414.07	249.83
414.44	251.22
414.82	252.80
415.19	254.48
415.56	256.18
415.94	257.54
416.31	259.60
416.68	261.68
417.06	264.25
417.43	266.76
417.81	269.37
418.18	272.04
418.55	274.84
418.93	277.83
419.30	281.07
419.67	284.45
420.04	287.84
420.42	291.25
420.79	296.20
421.16	300.36
421.54	305.01
421.91	309.50
422.28	314.25
422.66	319.19
423.03	324.71
423.40	329.89
423.77	335.24
424.15	340.68
424.52	346.50
424.89	352.94
425.26	359.04
425.64	364.81
426.01	371.11
426.38	377.87
426.75	384.90
427.13	391.97
427.50	399.33
427.87	406.96
428.24	414.69
428.61	421.47
428.99	429.99
429.36	438.59
429.73	447.26
430.10	455.74
430.47	464.78
430.85	473.52
431.22	483.14
431.59	494.21
431.96	504.19
432.33	515.31
432.70	525.80
433.08	538.33
433.45	550.17
433.82	562.20
434.19	575.60
434.56	588.48
434.93	600.68
435.30	613.30
435.68	627.28
436.05	640.68
436.42	654.14
436.79	666.71
437.16	680.25
437.53	694.58
437.90	709.04
438.27	723.04
438.64	737.81
439.01	751.61
439.38	763.19
439.75	775.12
440.13	788.48
440.50	801.12
440.87	811.40
441.24	822.29
441.61	833.86
441.98	842.54
442.35	852.84
442.72	863.51
443.09	873.93
443.46	880.10
443.83	884.75
444.20	888.79
444.57	893.75
444.94	896.31
445.31	898.76
445.68	902.20
446.05	903.06
446.42	901.69
446.79	900.42
447.16	898.81
447.53	897.67
447.90	892.42
448.27	887.26
448.64	880.38
449.01	875.26
449.37	866.10
449.74	857.06
450.11	846.72
450.48	834.58
450.85	821.80
451.22	811.26
451.59	801.31
451.96	791.65
452.33	779.20
452.70	767.94
453.07	754.57
453.43	739.62
453.80	726.58
454.17	713.70
454.54	701.28
454.91	688.29
455.28	675.54
455.65	663.79
456.02	653.21
456.38	642.85
456.75	630.55
457.12	620.13
457.49	610.03
457.86	599.72
458.23	591.63
458.59	582.47
458.96	573.29
459.33	564.84
459.70	556.58
460.07	549.95
460.43	542.29
460.80	535.32
461.17	529.71
461.54	523.28
461.91	517.19
462.27	510.95
462.64	505.58
463.01	499.90
463.38	494.53
463.74	487.61
464.11	482.68
464.48	478.28
464.85	473.57
465.21	470.15
465.58	466.29
465.95	461.57
466.32	457.94
466.68	454.26
467.05	450.60
467.42	447.00
467.78	443.00
468.15	439.44
468.52	436.81
468.88	432.72
469.25	429.57
469.62	427.32
469.98	424.62
470.35	422.25
470.72	419.74
471.08	416.80
471.45	414.96
471.82	413.06
472.18	410.56
472.55	408.91
472.92	406.69
473.28	404.71
473.65	402.74
474.02	400.96
474.38	399.44
474.75	398.31
475.11	396.76
475.48	395.55
475.85	394.35
476.21	393.15
476.58	392.38
476.94	391.52
477.31	390.50
477.67	389.68
478.04	388.92
478.41	388.47
478.77	388.93
479.14	388.02
479.50	387.55
479.87	387.36
480.23	387.23
480.60	386.71
480.96	386.51
481.33	387.03
481.69	387.11
482.06	387.00
482.42	387.00
482.79	387.19
483.15	387.51
483.52	388.04
483.88	388.20
484.25	388.44
484.61	388.93
484.98	389.42
485.34	390.52
485.71	391.41
486.07	392.22
486.44	392.28
486.80	393.33
487.17	394.17
487.53	395.60
487.90	396.85
488.26	398.77
488.62	400.38
488.99	401.55
489.35	403.12
489.72	405.10
490.08	406.75
490.44	408.58
490.81	410.79
491.17	412.56
491.54	414.92
491.90	417.38
492.26	419.62
492.63	421.98
492.99	424.06
493.36	426.44
493.72	429.29
494.08	432.11
494.45	435.07
494.81	438.35
495.17	441.15
495.54	444.28
495.90	447.31
496.26	450.50
496.63	453.91
496.99	457.38
497.35	460.51
497.72	464.20
498.08	467.78
498.44	471.07
498.80	475.25
499.17	478.74
499.53	482.42
499.89	486.72
500.26	490.61
500.62	494.49
500.98	498.73
501.34	502.55
501.71	506.78
502.07	510.77
502.43	514.67
502.79	518.72
503.16	522.83
503.52	526.77
503.88	530.64
504.24	534.80
504.60	538.97
504.97	543.68
505.33	547.68
505.69	552.33
506.05	556.82
506.41	560.85
506.78	565.21
507.14	569.45
507.50	573.57
507.86	577.92
508.22	582.21
508.59	586.13
508.95	590.20
509.31	594.57
509.67	598.54
510.03	602.31
510.39	606.44
510.75	610.32
511.12	614.14
511.48	618.22
511.84	621.54
512.20	624.95
512.56	628.20
512.92	632.05
513.28	635.15
513.64	638.28
514.00	641.62
514.37	645.05
514.73	648.48
515.09	651.74
515.45	654.54
515.81	657.74
516.17	660.86
516.53	663.99
516.89	666.56
517.25	669.82
517.61	673.45
517.97	676.23
518.33	679.44
518.69	682.46
519.05	685.60
519.41	688.84
519.77	692.53
520.13	695.51
520.49	698.23
520.85	704.00
521.21	707.26
521.57	710.45
521.93	712.90
522.29	715.74
522.65	718.36
523.01	721.38
523.37	723.85
523.73	726.49
524.09	729.06
524.45	731.27
524.81	733.78
525.17	736.26
525.53	739.09
525.89	741.54
526.25	744.40
526.61	746.77
526.97	749.54
527.33	752.05
527.68	755.71
528.04	758.54
528.40	758.65
528.76	761.74
529.12	764.46
529.48	767.97
529.84	770.99
530.20	774.41
530.56	778.01
530.91	781.74
531.27	785.38
531.63	789.28
531.99	793.22
532.35	797.10
532.71	800.61
533.07	804.65
533.42	809.37
533.78	812.92
534.14	816.95
534.50	820.73
534.86	824.95
535.21	828.19
535.57	832.70
535.93	836.60
536.29	840.97
536.65	845.50
537.00	849.39
537.36	853.55
537.72	857.38
538.08	861.64
538.44	865.85
538.79	870.11
539.15	874.01
539.51	878.47
539.87	882.50
540.22	886.39
540.58	890.20
540.94	893.24
541.29	897.35
541.65	900.93
542.01	905.37
542.37	909.03
542.72	912.74
543.08	915.96
543.44	919.79
543.79	922.79
544.15	926.35
544.51	930.30
544.87	933.84
545.22	937.52
545.58	940.78
545.94	943.80
546.29	947.05
546.65	950.44
547.01	953.49
547.36	956.93
547.72	960.38
548.07	963.80
548.43	967.01
548.79	970.16
549.14	973.78
549.50	976.95
549.86	979.90
550.21	983.10
550.57	986.56
550.92	989.60
551.28	992.90
551.64	996.04
551.99	999.25
552.35	1002.02
552.70	1005.06
553.06	1008.33
553.41	1011.60
553.77	1015.10
554.13	1018.25
554.48	1021.51
554.84	1024.60
555.19	1027.73
555.55	1031.53
555.90	1034.18
556.26	1036.88
556.61	1039.11
556.97	1041.08
557.32	1043.63
557.68	1046.13
558.03	1048.47
558.39	1050.72
558.74	1053.07
559.10	1054.90
559.45	1056.90
559.81	1059.06
560.16	1060.59
560.52	1062.04
560.87	1063.90
561.23	1065.15
561.58	1067.15
561.94	1068.46
562.29	1069.73
562.64	1071.10
563.00	1071.07
563.35	1072.87
563.71	1074.36
564.06	1075.86
564.42	1077.70
564.77	1079.26
565.12	1080.77
565.48	1083.10
565.83	1084.94
566.19	1086.51
566.54	1087.86
566.89	1089.08
567.25	1090.82
567.60	1093.08
567.96	1095.45
568.31	1097.13
568.66	1098.49
569.02	1098.90
569.37	1099.74
569.72	1100.53
570.08	1101.03
570.43	1101.60
570.78	1101.90
571.14	1102.39
571.49	1102.63
571.84	1102.64
572.20	1102.59
572.55	1102.55
572.90	1101.07
573.26	1100.48
573.61	1099.71
573.96	1099.07
574.31	1098.33
574.67	1097.13
575.02	1095.42
575.37	1093.43
575.72	1091.56
576.08	1090.22
576.43	1088.90
576.78	1087.56
577.13	1085.77
577.49	1084.59
577.84	1083.40
578.19	1082.24
578.54	1080.73
578.90	1079.74
579.25	1078.36
579.60	1076.97
579.95	1074.96
580.30	1073.52
580.66	1071.79
581.01	1069.94
581.36	1067.84
581.71	1065.81
582.06	1064.17
582.42	1062.45
582.77	1060.18
583.12	1058.52
583.47	1056.70
583.82	1055.01
584.17	1053.10
584.53	1051.67
584.88	1048.97
585.23	1046.66
585.58	1043.69
585.93	1040.89
586.28	1038.00
586.63	1035.27
586.98	1032.16
587.34	1030.06
587.69	1027.31
588.04	1024.74
588.39	1022.42
588.74	1019.84
589.09	1017.62
589.44	1014.67
589.79	1011.84
590.14	1009.49
590.49	1006.74
590.84	1003.67
591.19	1000.99
591.54	998.20
591.89	995.11
592.25	993.90
592.60	991.31
592.95	989.13
593.30	986.47
593.65	983.59
594.00	980.21
594.35	980.29
594.70	976.69
595.05	974.09
595.40	970.90
595.75	967.36
596.10	964.72
596.45	961.31
596.80	958.21
597.15	955.22
597.50	951.83
597.85	948.84
598.19	945.94
598.54	942.60
598.89	939.34
599.24	936.66
599.59	932.48
599.94	929.05
600.29	925.53
600.64	922.42
600.99	919.05
601.34	916.52
601.69	910.44
602.04	907.58
602.39	904.23
602.74	901.80
603.08	899.00
603.43	896.07
603.78	892.97
604.13	889.92
604.48	886.50
604.83	883.26
605.18	879.78
605.53	876.23
605.87	872.76
606.22	869.96
606.57	866.44
606.92	863.03
607.27	860.00
607.62	856.91
607.96	853.84
608.31	851.14
608.66	848.20
609.01	845.17
609.36	841.91
609.70	838.90
610.05	835.10
610.40	831.90
610.75	828.36
611.10	824.92
611.44	821.55
611.79	818.45
612.14	815.36
612.49	812.01
612.83	809.04
613.18	805.92
613.53	802.40
613.88	798.91
614.22	795.55
614.57	791.98
614.92	788.47
615.27	785.15
615.61	781.50
615.96	777.56
616.31	774.06
616.65	771.12
617.00	767.43
617.35	763.96
617.70	760.35
618.04	757.02
618.39	753.87
618.74	750.78
619.08	747.31
619.43	743.83
619.78	740.27
620.12	736.55
620.47	733.15
620.82	729.48
621.16	725.89
621.51	723.20
621.85	720.06
622.20	716.69
622.55	713.16
622.89	709.91
623.24	706.85
623.59	703.72
623.93	700.25
624.28	697.06
624.62	694.95
624.97	692.34
625.32	688.95
625.66	685.65
626.01	682.23
626.35	679.05
626.70	675.96
627.04	673.14
627.39	669.84
627.73	666.99
628.08	664.06
628.43	660.98
628.77	657.16
629.12	654.00
629.46	651.13
629.81	648.60
630.15	645.71
630.50	642.63
630.84	639.50
631.19	636.51
631.53	633.77
631.88	629.85
632.22	626.24
632.57	623.67
632.91	620.78
633.26	618.15
633.60	615.21
633.95	612.24
634.29	609.18
634.64	606.61
634.98	603.10
635.32	600.46
635.67	597.97
636.01	595.45
636.36	592.73
636.70	590.30
637.05	587.37
637.39	584.66
637.73	582.17
638.08	579.54
638.42	576.70
638.77	573.72
639.11	570.70
639.45	567.86
639.80	564.60
640.14	561.85
640.49	558.74
640.83	556.21
641.17	553.79
641.52	551.26
641.86	548.80
642.20	546.98
642.55	544.07
642.89	541.40
643.23	538.80
643.58	536.70
643.92	533.69
644.26	531.05
644.61	528.74
644.95	526.09
645.29	523.63
645.64	521.27
645.98	518.84
646.32	517.02
646.66	514.72
647.01	512.50
647.35	510.38
647.69	508.50
648.04	506.40
648.38	503.99
648.72	501.67
649.06	498.98
649.41	496.18
649.75	494.02
650.09	491.70
650.43	489.45
650.78	486.77
651.12	484.65
651.46	482.42
651.80	480.01
652.14	477.76
652.49	475.82
652.83	473.67
653.17	471.34
653.51	468.78
653.85	466.86
654.20	464.90
654.54	462.58
654.88	460.19
655.22	458.28
655.56	456.26
655.90	454.23
656.25	452.42
656.59	450.69
656.93	448.78
657.27	447.09
657.61	444.90
657.95	443.14
658.29	441.08
658.64	439.15
658.98	437.12
659.32	435.11
659.66	433.05
660.00	431.17
660.34	429.50
660.68	427.63
661.02	425.75
661.36	423.88
661.70	422.10
662.05	420.27
662.39	418.38
662.73	416.98
663.07	415.69
663.41	413.92
663.75	412.01
664.09	410.13
664.43	408.19
664.77	406.73
665.11	404.92
665.45	403.46
665.79	402.05
666.13	400.43
666.47	398.74
666.81	396.93
667.15	395.11
667.49	393.59
667.83	392.37
668.17	390.77
668.51	389.26
668.85	387.96
669.19	386.98
669.53	385.37
669.87	383.63
670.21	381.80
670.55	380.46
670.89	379.46
671.23	378.20
671.57	376.72
671.91	375.37
672.25	374.05
672.58	372.99
672.92	371.38
673.26	370.11
673.60	368.84
673.94	367.70
674.28	366.60
674.62	365.54
674.96	364.16
675.30	362.99
675.64	361.74
675.97	360.43
676.31	358.91
676.65	357.52
676.99	356.60
677.33	355.26
677.67	354.12
678.01	352.50
678.34	351.34
678.68	350.37
679.02	349.10
679.36	347.92
679.70	346.45
680.04	345.31
680.37	344.17
680.71	343.17
681.05	342.12
681.39	341.02
681.73	339.79
682.06	338.69
682.40	337.69
682.74	336.81
683.08	336.05
683.42	334.84
683.75	334.18
684.09	332.82
684.43	331.98
684.77	330.87
685.10	330.00
685.44	329.06
685.78	328.15
686.12	327.17
686.45	326.11
686.79	325.08
687.13	324.35
687.46	323.59
687.80	322.85
688.14	322.04
688.48	321.24
688.81	320.30
689.15	319.66
689.49	318.72
689.82	317.84
690.16	316.52
690.50	315.77
690.83	314.81
691.17	313.78
691.51	312.96
691.84	312.31
692.18	311.47
692.52	310.54
692.85	309.71
693.19	309.31
693.52	308.60
693.86	307.92
694.20	307.16
694.53	306.40
694.87	305.44
695.21	304.33
695.54	303.57
695.88	302.68
696.21	301.61
696.55	300.80
696.88	299.98
697.22	299.25
697.56	298.62
697.89	297.68
698.23	297.24
698.56	296.40
698.90	295.71
699.23	294.94
699.57	294.24
699.90	293.44
700.24	292.50
700.58	291.88
700.91	291.32
701.25	291.24
701.58	291.10
701.92	290.77
702.25	290.42
702.59	289.74
702.92	289.18
703.26	288.66
703.59	288.13
703.93	288.41
704.26	287.86
704.60	287.30
704.93	286.81
705.26	285.99
705.60	285.54
705.93	284.65
706.27	284.31
706.60	284.08
706.94	283.93
707.27	283.26
707.61	282.84
707.94	282.31
708.27	281.03
708.61	279.79
708.94	279.17
709.28	278.55
709.61	278.01
709.94	277.53
710.28	277.01
710.61	276.40
710.95	274.87
711.28	275.10
711.61	274.41
711.95	274.12
712.28	273.57
712.61	272.94
712.95	273.08
713.28	272.95
713.61	272.18
713.95	271.27
714.28	270.80
714.61	270.08
714.95	269.50
715.28	269.03
715.61	268.58
715.95	268.17
716.28	267.59
716.61	267.24
716.95	266.62
717.28	266.06
717.61	265.57
717.94	265.26
718.28	264.08
718.61	263.62
718.94	263.01
719.27	262.71
719.61	262.41
719.94	261.75
720.27	260.93
720.60	260.52
720.94	260.25
721.27	260.02
721.60	259.88
721.93	259.45
722.27	259.41
722.60	259.22
722.93	258.65
723.26	258.52
723.59	258.15
723.93	258.14
724.26	257.95
724.59	257.68
724.92	257.42
725.25	257.45
725.59	257.27
725.92	257.16
726.25	256.88
726.58	256.66
726.91	256.32
727.24	256.20
727.57	255.95
727.91	255.58
728.24	255.33
728.57	254.89
728.90	254.74
729.23	254.29
729.56	254.49
729.89	254.37
730.22	254.07
730.55	253.72
730.89	253.34
731.22	253.04
731.55	252.86
731.88	252.67
732.21	252.30
732.54	251.97
732.87	251.74
733.20	251.68
733.53	251.43
733.86	251.37
734.19	251.05
734.52	251.02
734.85	251.46
735.18	251.14
735.51	251.40
735.84	251.38
736.17	251.37
736.50	250.68
736.83	251.70
737.16	251.53
737.49	251.41
737.82	251.23
738.15	251.18
738.48	251.02
738.81	250.80
739.14	250.49
739.47	250.30
739.80	249.96
740.13	249.85
740.46	249.61
740.79	249.19
741.12	248.94
741.45	248.64
741.78	248.02
742.11	248.10
742.44	247.67
742.77	247.59
743.10	247.26
743.43	246.99
743.75	245.63
744.08	246.70
744.41	246.33
744.74	246.14
745.07	245.81
745.40	245.74
745.73	245.85
746.06	245.73
746.39	245.69
746.71	245.53
747.04	245.20
747.37	244.90
747.70	245.01
748.03	244.88
748.36	244.80
748.68	244.50
749.01	244.10
749.34	243.97
749.67	243.75
750.00	243.68
750.33	244.30
750.65	244.26
750.98	242.90
751.31	242.95
751.64	242.76
751.97	243.15
752.29	242.89
752.62	242.40
752.95	242.25
753.28	242.00
753.60	241.81
753.93	241.92
754.26	241.95
754.59	241.45
754.91	241.30
755.24	241.10
755.57	241.06
755.90	240.85
756.22	240.60
756.55	240.28
756.88	239.99
757.20	239.24
757.53	238.85
757.86	238.68
758.19	238.58
758.51	238.49
758.84	237.88
759.17	237.69
759.49	237.69
759.82	238.00
760.15	237.90
760.47	237.79
760.80	237.33
761.13	237.45
761.45	237.28
761.78	237.16
762.11	237.01
762.43	236.78
762.76	236.69
763.08	236.70
763.41	236.76
763.74	236.70
764.06	236.54
764.39	236.47
764.71	236.39
765.04	236.23
765.37	236.13
765.69	236.06
766.02	236.02
766.34	235.75
766.67	235.24
767.00	235.36
767.32	235.89
767.65	236.50
767.97	236.22
768.30	236.34
768.62	236.24
768.95	236.10
769.27	236.11
769.60	236.21
769.92	236.01
770.25	235.78
770.57	235.51
770.90	235.39
771.22	235.37
771.55	235.37
771.87	235.31
772.20	235.19
772.52	235.94
772.85	237.09
773.17	237.14
773.50	237.05
773.82	236.86
774.15	236.34
774.47	235.58
774.80	235.46
775.12	235.37
775.45	235.46
775.77	235.58
776.09	235.57
776.42	235.49
776.74	235.78
777.07	235.60
777.39	235.71
777.72	235.64
778.04	235.68
778.36	235.56
778.69	235.51
779.01	235.61
779.33	234.74
779.66	233.46
779.98	233.37
780.31	233.47
780.63	233.79
780.95	233.91
781.28	233.90
781.60	233.80
781.92	233.79
782.25	233.70
782.57	233.64
782.89	233.50
783.22	233.46
783.54	233.25
783.86	233.37
784.19	233.20
784.51	233.56
784.83	233.47
785.16	233.48
785.48	233.49
785.80	233.49
786.12	233.57
786.45	233.67
786.77	233.77
787.09	233.59
787.42	233.31
787.74	233.23
788.06	233.27
788.38	233.10
788.71	232.96
789.03	232.89
789.35	232.92
789.67	232.79
789.99	232.62
790.32	232.44
790.64	232.57
790.96	233.37
791.28	232.99
791.61	232.90
791.93	232.83
792.25	232.74
792.57	233.30
792.89	233.04
793.21	233.01
793.54	232.77
793.86	232.68
794.18	232.59
794.50	232.37
794.82	232.31
795.14	232.62
795.47	232.84
795.79	232.84
796.11	232.56
796.43	232.56
796.75	232.70
797.07	232.64
797.39	232.60
797.71	231.89
798.04	231.89
798.36	231.90
798.68	231.83
799.00	231.92
799.32	231.45
799.64	231.71
799.96	231.72
800.28	231.93
800.60	231.89
800.92	231.95
801.24	231.90
801.56	232.04
801.89	231.78
802.21	231.72
802.53	231.56
802.85	231.75
803.17	232.11
803.49	231.85
803.81	231.84
804.13	231.63
804.45	231.47
804.77	231.53
805.09	231.47
805.41	231.34
805.73	231.14
806.05	230.86
806.37	230.74
806.69	230.66
807.01	230.61
807.33	230.69
807.65	230.40
807.97	230.82
808.28	230.61
808.60	230.57
808.92	230.40
809.24	231.00
809.56	230.82
809.88	230.51
810.20	230.58
810.52	230.80
810.84	230.71
811.16	230.66
811.48	230.57
811.80	230.87
812.12	230.83
812.43	230.97
812.75	231.01
813.07	230.78
813.39	230.75
813.71	230.53
814.03	230.40
814.35	230.39
814.67	229.96
814.98	229.86
815.30	229.82
815.62	229.62
815.94	229.02
816.26	229.53
816.58	229.32
816.89	229.36
817.21	229.16
817.53	229.09
817.85	229.13
818.17	229.07
818.48	228.70
818.80	228.86
819.12	228.80
819.44	228.68
819.76	228.60
820.07	228.61
820.39	228.63
820.71	228.72
821.03	228.75
821.34	228.69
821.66	228.82
821.98	228.99
822.30	228.97
822.61	229.46
822.93	228.90
823.25	228.84
823.57	228.77
823.88	228.86
824.20	228.90
824.52	229.08
824.83	229.04
825.15	228.88
825.47	228.90
825.79	228.90
826.10	228.88
826.42	228.91
826.74	229.00
827.05	229.04
827.37	229.04
827.69	228.98
828.00	229.02
828.32	229.03
828.64	228.84
828.95	229.44
829.27	229.20
829.58	229.24
829.90	229.42
830.22	229.52
830.53	229.31
830.85	229.17
831.17	228.90
831.48	228.99
831.80	229.13
832.11	229.08
832.43	228.93
832.75	228.87
833.06	229.43
833.38	229.12
833.69	229.03
834.01	229.11
834.32	229.13
834.64	229.01
834.96	229.01
835.27	229.05
835.59	228.66
835.90	228.52
836.22	228.55
836.53	228.41
836.85	228.29
837.16	229.18
837.48	229.30
837.79	229.52
838.11	229.52
838.42	229.46
838.74	229.49
839.05	229.42
839.37	229.48
839.68	228.95
840.00	229.06
840.31	229.30
840.63	229.08
840.94	229.01
841.26	229.09
841.57	229.01
841.88	229.12
842.20	229.00
842.51	228.83
842.83	228.69
843.14	229.53
843.46	229.58
843.77	229.04
844.08	228.94
844.40	228.70
844.71	228.70
845.03	228.62
845.34	228.60
845.65	228.57
845.97	228.56
846.28	228.61
846.60	228.58
846.91	228.33
847.22	228.45
847.54	228.63
847.85	228.62
848.16	228.56
848.48	228.43
848.79	228.80
849.10	228.86
849.42	229.04
849.73	228.10
850.04	228.04
850.36	227.69
850.67	227.99
850.98	228.19
851.30	228.19
851.61	228.18
851.92	228.03
852.23	228.38
852.55	228.43
852.86	228.53
853.17	228.42
853.49	228.61
853.80	228.70
854.11	228.78
854.42	228.86
854.74	228.80
855.05	228.71
855.36	228.26
855.67	228.33
855.99	228.25
856.30	229.54
856.61	229.51
856.92	229.62
857.23	229.50
857.55	229.30
857.86	229.24
858.17	229.48
858.48	229.48
858.79	229.23
859.11	229.30
859.42	229.07
859.73	229.12
860.04	229.10
860.35	228.94
860.66	228.62
860.98	228.52
861.29	228.69
861.60	228.70
861.91	228.93
862.22	228.79
862.53	228.62
862.84	227.46
863.16	227.74
863.47	227.59
863.78	227.57
864.09	227.55
864.40	227.61
864.71	227.49
865.02	227.53
865.33	227.46
865.64	227.29
865.95	227.35
866.27	227.88
866.58	227.67
866.89	227.70
867.20	227.76
867.51	227.70
867.82	227.60
868.13	228.00
868.44	227.73
868.75	227.96
869.06	228.09
869.37	228.05
869.68	227.71
869.99	227.91
870.30	227.96
870.61	227.99
870.92	227.87
871.23	227.79
871.54	227.91
871.85	228.14
872.16	228.31
872.47	228.19
872.78	227.68
873.09	227.78
873.40	227.68
873.71	227.72
874.02	227.77
874.33	227.73
874.64	227.46
874.95	227.73
875.26	227.53
875.56	227.46
875.87	227.47
876.18	227.56
876.49	228.39
876.80	228.25
877.11	228.17
877.42	228.19
877.73	228.31
878.04	228.24
878.35	228.25
878.66	228.25
878.96	228.35
879.27	228.44
879.58	228.40
879.89	228.41
880.20	228.61
880.51	228.59
880.82	228.61
881.12	228.60
881.43	228.29
881.74	228.15
882.05	228.20
882.36	228.23
882.67	228.24
882.97	227.18
883.28	227.10
883.59	227.20
883.90	227.36
884.21	227.47
884.51	227.38
884.82	227.26
885.13	227.12
885.44	227.02
885.74	226.95
886.05	226.91
886.36	226.98
886.67	226.70
886.98	227.19
887.28	227.25
887.59	227.30
887.90	227.40
888.20	227.42
888.51	227.56
888.82	227.45
889.13	227.48
889.43	228.26
889.74	228.28
890.05	228.18
890.35	227.98
890.66	227.79
890.97	227.78
891.28	227.70
891.58	227.77
891.89	227.84
892.20	227.79
892.50	227.65
892.81	227.56
893.12	227.57
893.42	227.04
893.73	227.00
894.04	227.03
894.34	227.08
894.65	227.07
894.95	227.06
895.26	227.11
895.57	227.61
895.87	226.89
896.18	227.01
896.48	227.07
896.79	227.12
897.10	227.39
897.40	227.50
897.71	227.54
898.01	227.51
898.32	227.67
898.63	227.56
898.93	227.78
899.24	227.74
899.54	227.74
899.85	227.71
900.15	227.66
900.46	227.63
900.76	227.76
901.07	227.72
901.38	227.56
901.68	227.66
901.99	227.19
902.29	227.23
902.60	227.21
902.90	227.19
903.21	227.25
903.51	227.05
903.82	227.22
904.12	227.20
904.43	227.19
904.73	227.18
905.03	227.25
905.34	228.07
905.64	228.10
905.95	228.03
906.25	228.04
906.56	228.13
906.86	228.06
907.17	228.05
907.47	228.19
907.77	228.13
908.08	227.97
908.38	227.99
908.69	228.17
908.99	228.21
909.30	228.29
909.60	228.19
909.90	228.34
910.21	228.13
910.51	227.97
910.81	228.05
911.12	228.03
911.42	228.17
911.73	227.22
912.03	227.42
912.33	227.68
912.64	227.71
912.94	227.68
913.24	227.54
913.55	227.47
913.85	227.47
914.15	227.73
914.46	227.93
914.76	227.79
915.06	227.60
915.37	227.50
915.67	227.53
915.97	227.55
916.27	227.41
916.58	227.40
916.88	227.51
917.18	227.43
917.49	228.13
917.79	228.14
918.09	228.40
918.39	228.57
918.70	228.43
919.00	228.43
919.30	228.82
919.60	228.86
919.91	228.70
920.21	228.64
920.51	228.44
920.81	228.33
921.12	228.43
921.42	228.45
921.72	228.50
922.02	228.47
922.32	228.66
922.63	228.53
922.93	228.91
923.23	228.95
923.53	228.87
923.83	228.05
924.13	228.06
924.44	227.96
924.74	228.01
925.04	228.26
925.34	228.23
925.64	227.90
925.94	227.80
926.24	228.31
926.55	228.28
926.85	228.34
927.15	228.37
927.45	228.53
927.75	228.49
928.05	228.55
928.35	228.50
928.65	228.68
928.95	228.82
929.26	228.50
929.56	228.65
929.86	228.80
930.16	228.75
930.46	228.66
930.76	228.63
931.06	228.18
931.36	227.92
931.66	228.07
931.96	228.10
932.26	228.15
932.56	227.77
932.86	227.80
933.16	227.85
933.46	227.71
933.76	227.50
934.06	227.62
934.36	227.83
934.66	227.75
934.96	227.47
935.26	227.45
935.56	227.60
935.86	227.25
936.16	226.96
936.46	226.88
936.76	226.77
937.06	226.66
937.36	226.80
937.66	226.91
937.96	226.80
938.26	226.59
938.56	226.61
938.86	226.59
939.16	226.78
939.46	226.85
939.76	226.93
940.06	226.86
940.35	226.66
940.65	226.28
940.95	226.35
941.25	226.18
941.55	226.07
941.85	226.01
942.15	226.28
942.45	226.63
942.75	226.78
943.04	226.83
943.34	227.07
943.64	226.96
943.94	226.79
944.24	226.80
944.54	226.80
944.84	226.75
945.13	226.65
945.43	226.45
945.73	226.28
946.03	226.16
946.33	226.20
946.62	226.11
946.92	226.03
947.22	226.11
947.52	226.13
947.82	226.21
948.11	226.02
948.41	225.87
948.71	225.50
949.01	225.56
949.31	225.57
949.60	225.41
949.90	225.53
950.20	225.47
950.50	225.46
950.79	225.44
951.09	225.58
951.39	225.65
951.69	225.53
951.98	225.82
952.28	225.88
952.58	225.79
952.87	225.88
953.17	226.13
953.47	226.01
953.76	226.10
954.06	226.06
954.36	226.02
954.66	225.89
954.95	226.29
955.25	226.32
955.55	226.39
955.84	226.27
956.14	226.46
956.44	226.54
956.73	226.52
957.03	226.56
957.32	226.61
957.62	226.51
957.92	226.73
958.21	226.63
958.51	227.70
958.81	227.91
959.10	228.10
959.40	228.21
959.69	228.30
959.99	228.40
960.29	228.44
960.58	228.44
960.88	228.89
961.17	228.92
961.47	228.98
961.76	228.84
962.06	229.09
962.36	228.89
962.65	228.97
962.95	228.93
963.24	228.94
963.54	229.00
963.83	229.11
964.13	229.18
964.42	228.93
964.72	228.23
965.01	228.21
965.31	228.19
965.60	228.05
965.90	228.61
966.19	228.56
966.49	228.55
966.78	228.58
967.08	228.45
967.37	228.39
967.67	228.18
967.96	228.42
968.26	228.32
968.55	228.45
968.85	228.40
969.14	228.46
969.43	228.39
969.73	228.26
970.02	228.23
970.32	228.01
970.61	227.98
970.91	227.58
971.20	227.40
971.49	227.28
971.79	227.35
972.08	226.69
972.38	226.64
972.67	226.55
972.96	226.64
973.26	226.51
973.55	226.73
973.85	226.69
974.14	226.49
974.43	226.62
974.73	226.38
975.02	226.36
975.31	226.35
975.61	226.37
975.90	226.28
976.19	226.17
976.49	226.37
976.78	226.49
977.07	226.64
977.37	226.76
977.66	226.76
977.95	226.62
978.24	226.67
978.54	226.89
978.83	226.82
979.12	226.78
979.42	226.78
979.71	226.55
980.00	226.56
980.29	226.70
980.59	226.46
980.88	226.68
981.17	226.70
981.46	226.70
981.76	226.70
982.05	226.94
982.34	227.02
982.63	226.97
982.93	226.88
983.22	227.14
983.51	227.18
983.80	227.37
984.09	227.47
984.39	227.43
984.68	227.26
984.97	227.31
985.26	227.15
985.55	227.17
985.85	227.00
986.14	227.16
986.43	227.17
986.72	227.12
987.01	226.87
987.30	226.79
987.59	226.75
987.89	226.80
988.18	226.61
988.47	226.54
988.76	226.39
989.05	226.35
989.34	225.99
989.63	226.16
989.92	225.98
990.22	225.88
990.51	225.84
990.80	225.79
991.09	225.95
991.38	226.20
991.67	226.00
991.96	225.92
992.25	225.96
992.54	225.77
992.83	225.76
993.12	225.76
993.41	225.92
993.70	226.28
993.99	226.43
994.28	226.49
994.58	226.65
994.87	226.66
995.16	226.60
995.45	226.60
995.74	226.45
996.03	226.60
996.32	226.71
996.61	226.94
996.90	227.01
997.19	226.91
997.48	226.94
997.77	226.92
998.06	227.02
998.34	226.88
998.63	226.88
998.92	226.94
999.21	227.13
999.50	227.10
999.79	226.81
1000.08	226.75
1000.37	226.76
1000.66	226.55
1000.95	226.81
1001.24	226.97
1001.53	227.14
1001.82	227.02
1002.11	226.91
1002.40	226.93
1002.68	227.20
1002.97	227.70
1003.26	227.54
1003.55	227.36
1003.84	227.57
1004.13	227.97
1004.42	227.83
1004.71	227.93
1004.99	227.90
1005.28	228.06
1005.57	227.99
1005.86	227.94
1006.15	227.89
1006.44	227.84
1006.72	228.08
1007.01	227.95
1007.30	227.94
1007.59	227.84
1007.88	227.83
1008.17	227.82
1008.45	227.69
1008.74	227.26
1009.03	227.01
1009.32	227.11
1009.60	227.07
1009.89	227.06
1010.18	226.60
1010.47	226.70
1010.76	226.81
1011.04	226.86
1011.33	226.92
1011.62	227.00
1011.91	227.06
1012.19	227.08
1012.48	227.15
1012.77	227.01
1013.05	227.42
1013.34	227.51
1013.63	227.61
1013.92	227.70
1014.20	227.74
1014.49	227.76
1014.78	227.87
1015.06	227.48
1015.35	227.50
1015.64	227.59
1015.92	227.61
1016.21	227.70
1016.50	227.74
1016.78	227.79
1017.07	227.88
1017.36	227.68
1017.64	227.62
1017.93	227.70
1018.22	227.71
1018.50	227.67
1018.79	227.72
1019.08	227.29
1019.36	227.23
1019.65	227.02
1019.93	227.22
1020.22	227.30
1020.51	227.84
1020.79	227.75
1021.08	226.70
1021.36	226.50
1021.65	227.50
1021.94	227.00
1022.22	226.80
1022.51	225.20
1022.79	230.90
1023.08	229.30
1023.36	238.70
1023.65	226.20
>>>>>End Processed Spectral Data<<<<<
