SpectraSuite Data File
++++++++++++++++++++++++++++++++++++
Date: Wed Sep 04 17:29:37 EDT 2013
User: lab3
Dark Spectrum Present: Yes
Reference Spectrum Present: No
Number of Sampled Component Spectra: 1
Spectrometers: USB2E7196
Integration Time (usec): 337000 (USB2E7196)
Spectra Averaged: 10 (USB2E7196)
Boxcar Smoothing: 10 (USB2E7196)
Correct for Electrical Dark: No (USB2E7196)
Strobe/Lamp Enabled: No (USB2E7196)
Correct for Detector Non-linearity: No (USB2E7196)
Correct for Stray Light: No (USB2E7196)
Number of Pixels in Processed Spectrum: 2048
>>>>>Begin Processed Spectral Data<<<<<
339.09	0.00
339.48	214.10
339.86	214.80
340.24	217.10
340.63	217.30
341.01	233.20
341.39	219.90
341.78	223.90
342.16	224.50
342.54	224.70
342.93	213.46
343.31	224.09
343.69	224.49
344.07	224.85
344.46	225.35
344.84	225.82
345.22	225.46
345.60	225.76
345.99	225.94
346.37	226.02
346.75	226.02
347.13	226.11
347.52	226.32
347.90	226.64
348.28	226.62
348.66	226.80
349.05	226.58
349.43	226.73
349.81	226.86
350.19	226.99
350.57	227.05
350.96	227.26
351.34	227.42
351.72	227.53
352.10	227.74
352.48	227.68
352.87	227.69
353.25	227.75
353.63	227.71
354.01	227.81
354.39	227.97
354.77	228.08
355.15	228.35
355.54	228.24
355.92	227.95
356.30	227.95
356.68	228.55
357.06	228.59
357.44	228.53
357.82	228.54
358.20	229.27
358.58	229.25
358.97	229.21
359.35	229.45
359.73	229.72
360.11	229.81
360.49	229.85
360.87	229.80
361.25	229.99
361.63	230.29
362.01	230.34
362.39	230.31
362.77	230.39
363.15	230.26
363.53	230.26
363.91	230.53
364.29	230.60
364.67	229.88
365.05	230.00
365.43	230.14
365.81	230.26
366.19	229.97
366.57	230.40
366.95	230.50
367.33	230.29
367.71	230.35
368.09	230.55
368.47	230.65
368.85	230.69
369.23	230.81
369.61	230.71
369.99	230.90
370.37	231.13
370.75	231.66
371.13	231.65
371.51	231.63
371.89	231.57
372.27	231.62
372.65	231.66
373.03	231.69
373.41	231.66
373.78	231.56
374.16	231.12
374.54	230.86
374.92	230.79
375.30	230.92
375.68	230.69
376.06	230.75
376.44	230.67
376.82	230.74
377.19	230.68
377.57	230.56
377.95	230.23
378.33	229.97
378.71	229.37
379.09	229.47
379.47	229.51
379.84	229.39
380.22	229.18
380.60	229.10
380.98	229.03
381.36	228.88
381.73	228.78
382.11	228.95
382.49	228.96
382.87	228.74
383.25	228.62
383.62	229.78
384.00	229.45
384.38	229.52
384.76	229.64
385.13	230.02
385.51	229.98
385.89	229.92
386.27	229.95
386.64	230.08
387.02	229.92
387.40	229.83
387.78	229.83
388.15	229.98
388.53	229.80
388.91	229.82
389.29	229.72
389.66	229.88
390.04	229.72
390.42	229.75
390.79	229.83
391.17	229.91
391.55	228.72
391.92	228.83
392.30	228.92
392.68	228.69
393.05	228.53
393.43	228.69
393.81	228.67
394.18	228.50
394.56	228.58
394.94	228.90
395.31	228.84
395.69	229.20
396.06	229.35
396.44	229.48
396.82	229.44
397.19	230.08
397.57	229.97
397.95	230.17
398.32	229.96
398.70	230.16
399.07	230.36
399.45	230.47
399.82	230.61
400.20	230.56
400.58	230.80
400.95	230.60
401.33	230.83
401.70	231.78
402.08	232.15
402.45	232.35
402.83	232.66
403.20	232.91
403.58	233.04
403.95	233.38
404.33	233.72
404.71	234.02
405.08	234.75
405.46	235.10
405.83	235.50
406.21	236.04
406.58	236.60
406.96	237.05
407.33	237.79
407.70	238.39
408.08	239.81
408.45	240.60
408.83	241.54
409.20	242.27
409.58	242.51
409.95	243.54
410.33	244.60
410.70	245.38
411.08	246.68
411.45	247.87
411.82	249.04
412.20	250.62
412.57	252.67
412.95	253.51
413.32	255.44
413.69	257.23
414.07	259.14
414.44	261.13
414.82	263.38
415.19	265.74
415.56	268.19
415.94	270.35
416.31	273.33
416.68	276.28
417.06	279.75
417.43	283.25
417.81	286.99
418.18	290.86
418.55	294.95
418.93	299.27
419.30	303.80
419.67	308.56
420.04	313.63
420.42	318.64
420.79	325.21
421.16	331.17
421.54	337.65
421.91	344.27
422.28	350.89
422.66	357.97
423.03	365.61
423.40	373.01
423.77	380.73
424.15	388.73
424.52	397.25
424.89	406.52
425.26	415.51
425.64	424.01
426.01	433.40
426.38	443.27
426.75	453.60
427.13	463.76
427.50	474.35
427.87	485.41
428.24	496.59
428.61	506.83
428.99	519.02
429.36	531.90
429.73	544.53
430.10	557.48
430.47	570.73
430.85	584.13
431.22	598.61
431.59	614.29
431.96	629.07
432.33	645.25
432.70	660.81
433.08	679.38
433.45	696.88
433.82	714.42
434.19	734.26
434.56	753.40
434.93	772.01
435.30	791.00
435.68	811.47
436.05	832.01
436.42	852.24
436.79	870.87
437.16	891.17
437.53	912.80
437.90	934.02
438.27	955.16
438.64	977.08
439.01	997.65
439.38	1015.90
439.75	1033.83
440.13	1054.16
440.50	1073.49
440.87	1089.22
441.24	1105.88
441.61	1123.91
441.98	1137.29
442.35	1152.72
442.72	1168.75
443.09	1184.16
443.46	1193.97
443.83	1201.18
444.20	1207.74
444.57	1216.01
444.94	1220.39
445.31	1224.73
445.68	1229.73
446.05	1232.03
446.42	1230.80
446.79	1229.15
447.16	1227.36
447.53	1226.06
447.90	1219.02
448.27	1211.88
448.64	1201.60
449.01	1194.35
449.37	1181.16
449.74	1167.72
450.11	1152.54
450.48	1135.00
450.85	1116.88
451.22	1101.61
451.59	1086.60
451.96	1072.41
452.33	1053.83
452.70	1037.12
453.07	1017.00
453.43	995.79
453.80	976.16
454.17	956.90
454.54	939.06
454.91	919.45
455.28	900.43
455.65	882.70
456.02	866.14
456.38	851.20
456.75	832.44
457.12	816.67
457.49	801.80
457.86	786.64
458.23	774.63
458.59	760.91
458.96	747.09
459.33	734.99
459.70	722.72
460.07	712.92
460.43	701.42
460.80	691.14
461.17	681.99
461.54	672.30
461.91	663.43
462.27	653.87
462.64	646.13
463.01	637.61
463.38	629.54
463.74	620.11
464.11	612.92
464.48	606.70
464.85	599.73
465.21	594.70
465.58	589.25
465.95	582.04
466.32	576.92
466.68	571.56
467.05	566.05
467.42	560.60
467.78	554.95
468.15	549.76
468.52	545.64
468.88	540.45
469.25	535.74
469.62	532.20
469.98	528.13
470.35	524.45
470.72	520.91
471.08	516.91
471.45	513.77
471.82	510.44
472.18	506.78
472.55	504.37
472.92	501.05
473.28	498.28
473.65	495.71
474.02	492.84
474.38	490.79
474.75	488.99
475.11	486.93
475.48	485.52
475.85	484.16
476.21	482.72
476.58	481.61
476.94	480.56
477.31	479.18
477.67	478.28
478.04	477.50
478.41	477.14
478.77	477.62
479.14	476.95
479.50	476.74
479.87	476.88
480.23	476.94
480.60	476.91
480.96	476.76
481.33	477.67
481.69	478.28
482.06	478.54
482.42	479.08
482.79	479.81
483.15	480.53
483.52	481.70
483.88	482.78
484.25	483.93
484.61	485.46
484.98	486.98
485.34	488.94
485.71	490.75
486.07	492.63
486.44	493.72
486.80	495.76
487.17	497.89
487.53	500.67
487.90	503.37
488.26	506.78
488.62	510.09
488.99	512.79
489.35	515.89
489.72	519.53
490.08	523.18
490.44	527.00
490.81	531.32
491.17	535.34
491.54	539.85
491.90	544.33
492.26	548.95
492.63	553.97
492.99	558.69
493.36	564.04
493.72	569.66
494.08	575.30
494.45	581.50
494.81	588.14
495.17	594.30
495.54	600.84
495.90	607.29
496.26	614.21
496.63	621.32
496.99	628.76
497.35	636.33
497.72	643.90
498.08	651.64
498.44	659.44
498.80	668.00
499.17	676.05
499.53	684.26
499.89	693.03
500.26	701.54
500.62	710.43
500.98	719.70
501.34	728.60
501.71	738.06
502.07	747.32
502.43	756.33
502.79	765.55
503.16	775.09
503.52	784.61
503.88	794.00
504.24	804.02
504.60	814.27
504.97	824.38
505.33	834.65
505.69	845.64
506.05	855.88
506.41	865.93
506.78	876.44
507.14	887.31
507.50	898.18
507.86	908.86
508.22	919.68
508.59	930.09
508.95	940.90
509.31	951.97
509.67	962.65
510.03	973.02
510.39	983.68
510.75	994.40
511.12	1004.90
511.48	1015.50
511.84	1026.00
512.20	1035.78
512.56	1045.89
512.92	1056.08
513.28	1065.51
513.64	1075.22
514.00	1084.92
514.37	1094.41
514.73	1103.93
515.09	1113.11
515.45	1122.12
515.81	1131.13
516.17	1139.98
516.53	1148.27
516.89	1156.45
517.25	1165.42
517.61	1174.79
517.97	1183.56
518.33	1191.89
518.69	1200.47
519.05	1208.85
519.41	1216.87
519.77	1225.51
520.13	1233.28
520.49	1240.56
520.85	1248.02
521.21	1255.64
521.57	1262.90
521.93	1269.89
522.29	1276.68
522.65	1282.70
523.01	1288.83
523.37	1294.56
523.73	1300.56
524.09	1306.47
524.45	1311.55
524.81	1316.36
525.17	1321.21
525.53	1325.91
525.89	1330.65
526.25	1335.15
526.61	1339.08
526.97	1343.42
527.33	1348.25
527.68	1353.81
528.04	1358.37
528.40	1362.86
528.76	1367.18
529.12	1371.19
529.48	1375.88
529.84	1379.52
530.20	1384.16
530.56	1388.64
530.91	1393.31
531.27	1397.20
531.63	1401.41
531.99	1405.97
532.35	1410.28
532.71	1414.33
533.07	1418.70
533.42	1423.67
533.78	1427.30
534.14	1431.82
534.50	1435.46
534.86	1439.05
535.21	1441.28
535.57	1444.31
535.93	1447.10
536.29	1450.35
536.65	1453.67
537.00	1456.31
537.36	1459.68
537.72	1462.13
538.08	1465.24
538.44	1468.03
538.79	1471.07
539.15	1473.84
539.51	1476.69
539.87	1479.13
540.22	1480.89
540.58	1483.03
540.94	1483.75
541.29	1485.47
541.65	1486.76
542.01	1488.28
542.37	1488.85
542.72	1489.77
543.08	1490.83
543.44	1491.80
543.79	1492.10
544.15	1493.01
544.51	1494.00
544.87	1494.28
545.22	1494.43
545.58	1493.99
545.94	1493.14
546.29	1492.32
546.65	1491.54
547.01	1490.47
547.36	1489.50
547.72	1488.90
548.07	1487.48
548.43	1486.49
548.79	1485.72
549.14	1484.62
549.50	1484.13
549.86	1482.86
550.21	1482.16
550.57	1481.77
550.92	1480.46
551.28	1479.59
551.64	1478.47
551.99	1477.34
552.35	1476.47
552.70	1475.74
553.06	1475.36
553.41	1474.81
553.77	1474.71
554.13	1474.50
554.48	1474.01
554.84	1473.61
555.19	1473.30
555.55	1474.20
555.90	1473.44
556.26	1472.47
556.61	1470.99
556.97	1468.97
557.32	1468.14
557.68	1466.89
558.03	1465.94
558.39	1464.93
558.74	1463.89
559.10	1462.52
559.45	1461.04
559.81	1459.49
560.16	1457.54
560.52	1455.64
560.87	1454.37
561.23	1452.42
561.58	1451.15
561.94	1448.54
562.29	1446.51
562.64	1444.42
563.00	1441.08
563.35	1439.43
563.71	1437.62
564.06	1436.52
564.42	1435.20
564.77	1433.95
565.12	1432.65
565.48	1432.05
565.83	1431.18
566.19	1430.09
566.54	1428.16
566.89	1426.55
567.25	1425.20
567.60	1424.99
567.96	1424.64
568.31	1423.66
568.66	1422.29
569.02	1419.72
569.37	1418.62
569.72	1417.36
570.08	1415.07
570.43	1412.67
570.78	1410.75
571.14	1408.87
571.49	1406.11
571.84	1403.95
572.20	1401.54
572.55	1399.09
572.90	1394.93
573.26	1391.71
573.61	1387.99
573.96	1385.20
574.31	1381.44
574.67	1378.05
575.02	1373.53
575.37	1368.90
575.72	1364.29
576.08	1360.43
576.43	1356.68
576.78	1352.41
577.13	1347.95
577.49	1344.50
577.84	1341.36
578.19	1337.82
578.54	1334.34
578.90	1331.40
579.25	1328.12
579.60	1324.17
579.95	1320.15
580.30	1316.14
580.66	1312.30
581.01	1308.38
581.36	1303.82
581.71	1300.11
582.06	1296.39
582.42	1292.77
582.77	1288.63
583.12	1285.19
583.47	1281.57
583.82	1278.05
584.17	1274.79
584.53	1271.69
584.88	1267.26
585.23	1263.32
585.58	1258.45
585.93	1253.60
586.28	1249.16
586.63	1244.18
586.98	1239.37
587.34	1235.34
587.69	1231.16
588.04	1227.04
588.39	1223.09
588.74	1219.00
589.09	1215.11
589.44	1210.19
589.79	1206.14
590.14	1202.20
590.49	1197.91
590.84	1193.44
591.19	1189.39
591.54	1185.15
591.89	1180.30
592.25	1177.68
592.60	1173.60
592.95	1169.80
593.30	1165.81
593.65	1161.08
594.00	1156.46
594.35	1155.00
594.70	1149.94
595.05	1145.41
595.40	1140.78
595.75	1135.94
596.10	1131.77
596.45	1127.22
596.80	1123.07
597.15	1118.07
597.50	1113.21
597.85	1109.11
598.19	1104.22
598.54	1099.09
598.89	1094.04
599.24	1090.01
599.59	1084.59
599.94	1079.52
600.29	1074.75
600.64	1069.94
600.99	1065.50
601.34	1061.55
601.69	1054.59
602.04	1050.36
602.39	1046.00
602.74	1042.04
603.08	1037.88
603.43	1033.93
603.78	1029.62
604.13	1025.51
604.48	1021.40
604.83	1017.03
605.18	1012.03
605.53	1007.81
605.87	1003.63
606.22	999.98
606.57	995.54
606.92	991.22
607.27	987.55
607.62	983.83
607.96	980.26
608.31	976.68
608.66	972.84
609.01	968.68
609.36	964.72
609.70	960.67
610.05	956.11
610.40	952.06
610.75	947.51
611.10	943.18
611.44	938.33
611.79	933.82
612.14	929.87
612.49	925.68
612.83	921.72
613.18	917.53
613.53	912.81
613.88	907.96
614.22	903.15
614.57	898.18
614.92	893.25
615.27	888.71
615.61	883.79
615.96	879.19
616.31	874.48
616.65	870.10
617.00	865.73
617.35	861.33
617.70	856.91
618.04	852.49
618.39	848.20
618.74	844.63
619.08	840.34
619.43	835.67
619.78	831.03
620.12	826.17
620.47	821.60
620.82	816.96
621.16	812.73
621.51	809.10
621.85	804.83
622.20	800.67
622.55	796.06
622.89	792.01
623.24	787.63
623.59	783.23
623.93	779.01
624.28	774.55
624.62	771.43
624.97	767.91
625.32	763.72
625.66	759.50
626.01	754.96
626.35	751.14
626.70	747.28
627.04	744.12
627.39	740.49
627.73	737.08
628.08	733.82
628.43	729.84
628.77	725.54
629.12	721.75
629.46	718.46
629.81	715.60
630.15	712.05
630.50	708.36
630.84	705.11
631.19	701.54
631.53	698.45
631.88	693.72
632.22	689.60
632.57	686.48
632.91	683.14
633.26	679.91
633.60	676.28
633.95	672.83
634.29	668.73
634.64	665.33
634.98	661.35
635.32	658.10
635.67	655.18
636.01	651.93
636.36	648.63
636.70	645.32
637.05	641.46
637.39	638.14
637.73	634.97
638.08	631.84
638.42	628.34
638.77	624.78
639.11	621.42
639.45	617.59
639.80	613.81
640.14	610.45
640.49	607.10
640.83	604.21
641.17	601.23
641.52	598.20
641.86	595.23
642.20	592.90
642.55	589.60
642.89	586.38
643.23	583.37
643.58	580.84
643.92	577.21
644.26	574.13
644.61	571.29
644.95	568.25
645.29	564.90
645.64	562.26
645.98	559.30
646.32	556.58
646.66	553.93
647.01	551.09
647.35	548.59
647.69	546.01
648.04	543.13
648.38	540.50
648.72	537.76
649.06	534.57
649.41	531.34
649.75	528.19
650.09	525.48
650.43	522.76
650.78	519.59
651.12	517.12
651.46	514.53
651.80	511.63
652.14	508.93
652.49	506.77
652.83	504.08
653.17	501.65
653.51	498.94
653.85	496.61
654.20	494.42
654.54	491.63
654.88	488.92
655.22	486.78
655.56	484.25
655.90	481.84
656.25	479.61
656.59	477.38
656.93	475.32
657.27	473.22
657.61	470.68
657.95	468.62
658.29	466.36
658.64	464.14
658.98	461.98
659.32	459.65
659.66	457.28
660.00	455.05
660.34	452.85
660.68	450.78
661.02	448.66
661.36	446.34
661.70	444.12
662.05	441.96
662.39	439.88
662.73	438.13
663.07	436.45
663.41	434.51
663.75	432.45
664.09	430.63
664.43	428.28
664.77	426.52
665.11	424.56
665.45	422.84
665.79	421.19
666.13	419.25
666.47	417.37
666.81	415.35
667.15	413.33
667.49	411.70
667.83	410.37
668.17	408.63
668.51	407.09
668.85	405.82
669.19	404.80
669.53	402.81
669.87	400.93
670.21	399.06
670.55	397.52
670.89	396.37
671.23	394.80
671.57	393.35
671.91	391.79
672.25	390.18
672.58	388.81
672.92	387.05
673.26	385.65
673.60	384.37
673.94	383.09
674.28	381.92
674.62	380.60
674.96	378.81
675.30	377.47
675.64	375.96
675.97	374.45
676.31	372.61
676.65	371.26
676.99	370.21
677.33	368.81
677.67	367.56
678.01	365.77
678.34	364.33
678.68	363.08
679.02	361.68
679.36	360.31
679.70	358.82
680.04	357.65
680.37	356.45
680.71	355.16
681.05	354.03
681.39	352.84
681.73	351.47
682.06	350.38
682.40	349.14
682.74	348.17
683.08	347.34
683.42	346.18
683.75	345.24
684.09	343.89
684.43	342.83
684.77	341.53
685.10	340.52
685.44	339.53
685.78	338.50
686.12	337.48
686.45	336.42
686.79	335.27
687.13	334.16
687.46	333.05
687.80	332.21
688.14	331.01
688.48	329.91
688.81	328.83
689.15	327.90
689.49	326.92
689.82	325.86
690.16	324.29
690.50	323.36
690.83	322.21
691.17	320.98
691.51	320.00
691.84	319.10
692.18	318.08
692.52	317.01
692.85	315.99
693.19	315.41
693.52	314.67
693.86	313.78
694.20	312.91
694.53	312.04
694.87	311.02
695.21	310.02
695.54	309.25
695.88	308.19
696.21	307.08
696.55	306.14
696.88	305.25
697.22	304.44
697.56	303.64
697.89	302.70
698.23	302.00
698.56	301.10
698.90	300.36
699.23	299.46
699.57	298.74
699.90	298.01
700.24	296.91
700.58	296.00
700.91	295.34
701.25	295.35
701.58	295.29
701.92	294.80
702.25	294.33
702.59	293.56
702.92	293.16
703.26	292.65
703.59	292.08
703.93	292.29
704.26	291.80
704.60	291.19
704.93	290.56
705.26	289.78
705.60	289.38
705.93	288.56
706.27	288.25
706.60	287.79
706.94	287.65
707.27	287.10
707.61	286.70
707.94	286.14
708.27	284.85
708.61	283.64
708.94	283.02
709.28	282.42
709.61	281.79
709.94	281.30
710.28	280.80
710.61	280.26
710.95	278.83
711.28	278.90
711.61	278.28
711.95	278.05
712.28	277.59
712.61	276.94
712.95	276.99
713.28	276.80
713.61	276.23
713.95	275.26
714.28	274.78
714.61	274.10
714.95	273.59
715.28	272.91
715.61	272.38
715.95	271.94
716.28	271.40
716.61	271.13
716.95	270.36
717.28	269.79
717.61	269.20
717.94	268.87
718.28	267.76
718.61	267.32
718.94	266.75
719.27	266.31
719.61	266.03
719.94	265.30
720.27	264.51
720.60	264.15
720.94	263.82
721.27	263.42
721.60	263.31
721.93	262.83
722.27	262.79
722.60	262.61
722.93	262.08
723.26	261.81
723.59	261.25
723.93	261.20
724.26	260.99
724.59	260.73
724.92	260.39
725.25	260.35
725.59	260.05
725.92	259.76
726.25	259.41
726.58	259.18
726.91	258.84
727.24	258.63
727.57	258.29
727.91	257.83
728.24	257.71
728.57	257.16
728.90	257.11
729.23	256.70
729.56	256.74
729.89	256.61
730.22	256.26
730.55	256.12
730.89	255.69
731.22	255.47
731.55	255.23
731.88	255.00
732.21	254.52
732.54	254.16
732.87	253.85
733.20	253.77
733.53	253.38
733.86	253.34
734.19	253.01
734.52	252.87
734.85	253.23
735.18	252.85
735.51	253.01
735.84	252.76
736.17	252.68
736.50	252.05
736.83	252.83
737.16	252.60
737.49	252.39
737.82	252.17
738.15	251.96
738.48	251.78
738.81	251.50
739.14	251.17
739.47	250.98
739.80	250.80
740.13	250.63
740.46	250.36
740.79	250.05
741.12	249.81
741.45	249.45
741.78	248.89
742.11	248.93
742.44	248.48
742.77	248.44
743.10	248.18
743.43	247.90
743.75	246.61
744.08	247.72
744.41	247.54
744.74	247.39
745.07	247.03
745.40	247.00
745.73	247.16
746.06	247.12
746.39	247.10
746.71	246.81
747.04	246.52
747.37	246.37
747.70	246.36
748.03	246.19
748.36	246.20
748.68	245.90
749.01	245.43
749.34	245.31
749.67	245.05
750.00	245.01
750.33	245.54
750.65	245.60
750.98	244.22
751.31	243.98
751.64	243.91
751.97	244.22
752.29	243.88
752.62	243.31
752.95	243.07
753.28	242.78
753.60	242.64
753.93	242.77
754.26	242.77
754.59	242.16
754.91	241.94
755.24	241.76
755.57	241.77
755.90	241.68
756.22	241.52
756.55	241.31
756.88	240.91
757.20	240.25
757.53	239.75
757.86	239.59
758.19	239.58
758.51	239.44
758.84	238.98
759.17	238.89
759.49	238.90
759.82	239.22
760.15	239.24
760.47	239.10
760.80	238.73
761.13	238.65
761.45	238.70
761.78	238.60
762.11	238.47
762.43	238.20
762.76	238.11
763.08	238.07
763.41	237.97
763.74	237.99
764.06	237.82
764.39	237.80
764.71	237.69
765.04	237.46
765.37	237.10
765.69	236.89
766.02	236.71
766.34	236.50
766.67	236.08
767.00	236.10
767.32	236.57
767.65	237.09
767.97	236.91
768.30	236.97
768.62	236.91
768.95	236.77
769.27	236.73
769.60	236.84
769.92	236.67
770.25	236.34
770.57	236.17
770.90	236.10
771.22	235.97
771.55	235.89
771.87	235.80
772.20	235.86
772.52	236.70
772.85	237.87
773.17	237.89
773.50	237.76
773.82	237.52
774.15	237.04
774.47	236.31
774.80	236.14
775.12	235.87
775.45	235.79
775.77	235.76
776.09	235.63
776.42	235.52
776.74	235.73
777.07	235.71
777.39	235.56
777.72	235.36
778.04	235.40
778.36	235.30
778.69	235.38
779.01	235.42
779.33	234.47
779.66	233.15
779.98	232.99
780.31	232.96
780.63	233.29
780.95	233.34
781.28	233.32
781.60	233.21
781.92	233.29
782.25	233.21
782.57	233.17
782.89	233.10
783.22	232.85
783.54	232.58
783.86	232.78
784.19	232.76
784.51	233.16
784.83	233.10
785.16	232.96
785.48	232.93
785.80	232.79
786.12	232.93
786.45	233.01
786.77	233.10
787.09	232.96
787.42	232.50
787.74	232.55
788.06	232.54
788.38	232.50
788.71	232.29
789.03	232.39
789.35	232.41
789.67	232.35
789.99	232.42
790.32	232.28
790.64	232.32
790.96	233.12
791.28	232.69
791.61	232.55
791.93	232.66
792.25	232.56
792.57	233.30
792.89	232.97
793.21	232.96
793.54	232.80
793.86	232.79
794.18	232.82
794.50	232.59
794.82	232.59
795.14	232.73
795.47	232.90
795.79	232.88
796.11	232.72
796.43	232.68
796.75	232.73
797.07	232.84
797.39	232.69
797.71	231.91
798.04	231.93
798.36	231.99
798.68	232.01
799.00	232.06
799.32	231.52
799.64	231.77
799.96	231.78
800.28	231.96
800.60	231.87
800.92	232.00
801.24	232.02
801.56	232.03
801.89	231.92
802.21	231.92
802.53	231.73
802.85	231.91
803.17	232.36
803.49	232.09
803.81	231.81
804.13	231.76
804.45	231.77
804.77	231.87
805.09	231.95
805.41	231.87
805.73	231.66
806.05	231.37
806.37	231.24
806.69	231.25
807.01	231.11
807.33	231.22
807.65	230.93
807.97	231.21
808.28	231.11
808.60	231.08
808.92	230.94
809.24	231.52
809.56	231.31
809.88	230.92
810.20	231.02
810.52	231.30
810.84	231.27
811.16	231.08
811.48	230.97
811.80	231.22
812.12	231.15
812.43	231.29
812.75	231.31
813.07	231.24
813.39	231.17
813.71	231.12
814.03	231.01
814.35	231.03
814.67	230.70
814.98	230.65
815.30	230.61
815.62	230.49
815.94	229.84
816.26	230.25
816.58	230.15
816.89	230.21
817.21	230.00
817.53	229.96
817.85	229.99
818.17	229.93
818.48	229.50
818.80	229.75
819.12	229.63
819.44	229.56
819.76	229.45
820.07	229.33
820.39	229.31
820.71	229.42
821.03	229.43
821.34	229.33
821.66	229.48
821.98	229.64
822.30	229.68
822.61	230.25
822.93	229.93
823.25	229.82
823.57	229.70
823.88	229.85
824.20	229.83
824.52	229.91
824.83	229.89
825.15	229.78
825.47	229.53
825.79	229.63
826.10	229.54
826.42	229.53
826.74	229.69
827.05	229.63
827.37	229.59
827.69	229.55
828.00	229.60
828.32	229.52
828.64	229.25
828.95	229.71
829.27	229.50
829.58	229.40
829.90	229.66
830.22	229.73
830.53	229.47
830.85	229.42
831.17	229.30
831.48	229.20
831.80	229.31
832.11	229.35
832.43	229.18
832.75	229.18
833.06	229.73
833.38	229.39
833.69	229.34
834.01	229.40
834.32	229.29
834.64	229.20
834.96	229.18
835.27	229.28
835.59	228.95
835.90	228.85
836.22	228.87
836.53	228.60
836.85	228.50
837.16	229.44
837.48	229.50
837.79	229.79
838.11	229.90
838.42	229.82
838.74	229.86
839.05	229.84
839.37	229.91
839.68	229.33
840.00	229.44
840.31	229.51
840.63	229.42
840.94	229.50
841.26	229.40
841.57	229.44
841.88	229.51
842.20	229.32
842.51	229.18
842.83	229.13
843.14	229.95
843.46	229.97
843.77	229.49
844.08	229.39
844.40	229.12
844.71	229.03
845.03	228.96
845.34	228.88
845.65	228.92
845.97	228.93
846.28	229.01
846.60	228.98
846.91	228.92
847.22	228.83
847.54	228.94
847.85	229.01
848.16	228.99
848.48	228.80
848.79	229.26
849.10	229.40
849.42	229.46
849.73	228.65
850.04	228.74
850.36	228.37
850.67	228.61
850.98	228.63
851.30	228.82
851.61	228.87
851.92	228.97
852.23	229.19
852.55	229.17
852.86	229.14
853.17	229.34
853.49	229.51
853.80	229.70
854.11	229.83
854.42	229.98
854.74	229.90
855.05	229.96
855.36	229.40
855.67	229.31
855.99	229.34
856.30	230.50
856.61	230.39
856.92	230.38
857.23	230.30
857.55	230.20
857.86	230.10
858.17	230.34
858.48	230.16
858.79	229.96
859.11	230.07
859.42	229.93
859.73	229.70
860.04	229.63
860.35	229.36
860.66	229.05
860.98	228.93
861.29	228.93
861.60	228.85
861.91	229.08
862.22	228.84
862.53	228.72
862.84	227.53
863.16	227.79
863.47	227.66
863.78	227.54
864.09	227.55
864.40	227.47
864.71	227.37
865.02	227.44
865.33	227.24
865.64	227.03
865.95	227.10
866.27	227.80
866.58	227.73
866.89	227.95
867.20	227.89
867.51	227.81
867.82	227.74
868.13	228.06
868.44	227.84
868.75	228.07
869.06	228.02
869.37	228.14
869.68	227.93
869.99	228.15
870.30	228.28
870.61	228.33
870.92	228.28
871.23	228.17
871.54	228.33
871.85	228.66
872.16	228.82
872.47	228.83
872.78	228.24
873.09	228.28
873.40	228.15
873.71	228.29
874.02	228.33
874.33	228.32
874.64	228.10
874.95	228.30
875.26	228.12
875.56	228.11
875.87	228.10
876.18	227.98
876.49	228.97
876.80	228.82
877.11	228.69
877.42	228.80
877.73	228.80
878.04	228.64
878.35	228.62
878.66	228.59
878.96	228.51
879.27	228.47
879.58	228.46
879.89	228.41
880.20	228.58
880.51	228.53
880.82	228.56
881.12	228.59
881.43	228.44
881.74	228.43
882.05	228.43
882.36	228.45
882.67	228.50
882.97	227.39
883.28	227.36
883.59	227.45
883.90	227.45
884.21	227.64
884.51	227.61
884.82	227.53
885.13	227.53
885.44	227.61
885.74	227.58
886.05	227.52
886.36	227.57
886.67	227.23
886.98	227.75
887.28	227.86
887.59	227.80
887.90	227.80
888.20	227.63
888.51	227.80
888.82	227.70
889.13	227.70
889.43	228.46
889.74	228.42
890.05	228.41
890.35	228.32
890.66	228.14
890.97	228.02
891.28	227.82
891.58	227.89
891.89	227.86
892.20	227.83
892.50	227.80
892.81	227.77
893.12	227.82
893.42	227.32
893.73	227.31
894.04	227.37
894.34	227.48
894.65	227.52
894.95	227.40
895.26	227.46
895.57	227.90
895.87	227.05
896.18	227.23
896.48	227.25
896.79	227.31
897.10	227.43
897.40	227.47
897.71	227.63
898.01	227.47
898.32	227.57
898.63	227.52
898.93	227.55
899.24	227.56
899.54	227.43
899.85	227.35
900.15	227.28
900.46	227.15
900.76	227.17
901.07	227.16
901.38	227.20
901.68	227.15
901.99	226.63
902.29	226.78
902.60	226.60
902.90	226.47
903.21	226.41
903.51	226.35
903.82	226.63
904.12	226.57
904.43	226.64
904.73	226.63
905.03	226.76
905.34	227.67
905.64	227.62
905.95	227.75
906.25	227.85
906.56	227.80
906.86	227.94
907.17	227.92
907.47	228.00
907.77	227.89
908.08	227.74
908.38	227.91
908.69	227.84
908.99	228.11
909.30	228.23
909.60	228.30
909.90	228.32
910.21	228.04
910.51	227.97
910.81	228.04
911.12	227.97
911.42	227.94
911.73	226.94
912.03	227.02
912.33	227.14
912.64	227.20
912.94	227.12
913.24	226.93
913.55	226.92
913.85	226.86
914.15	227.10
914.46	227.31
914.76	227.24
915.06	227.26
915.37	227.10
915.67	227.02
915.97	226.99
916.27	226.79
916.58	226.80
916.88	226.74
917.18	226.57
917.49	227.26
917.79	227.20
918.09	227.40
918.39	227.59
918.70	227.61
919.00	227.60
919.30	228.01
919.60	227.94
919.91	227.70
920.21	227.82
920.51	227.57
920.81	227.42
921.12	227.56
921.42	227.47
921.72	227.58
922.02	227.73
922.32	227.81
922.63	227.93
922.93	228.39
923.23	228.56
923.53	228.54
923.83	227.96
924.13	228.12
924.44	228.07
924.74	228.28
925.04	228.48
925.34	228.39
925.64	228.10
925.94	228.14
926.24	228.75
926.55	228.62
926.85	228.73
927.15	228.68
927.45	228.66
927.75	228.76
928.05	228.71
928.35	228.60
928.65	228.84
928.95	228.88
929.26	228.52
929.56	228.64
929.86	228.75
930.16	228.61
930.46	228.54
930.76	228.57
931.06	228.00
931.36	227.70
931.66	227.81
931.96	227.89
932.26	228.11
932.56	227.78
932.86	227.80
933.16	227.80
933.46	227.83
933.76	227.72
934.06	227.93
934.36	228.15
934.66	228.10
934.96	227.87
935.26	227.89
935.56	228.07
935.86	227.77
936.16	227.68
936.46	227.67
936.76	227.53
937.06	227.35
937.36	227.48
937.66	227.49
937.96	227.46
938.26	227.25
938.56	227.07
938.86	227.18
939.16	227.40
939.46	227.46
939.76	227.57
940.06	227.46
940.35	227.20
940.65	226.76
940.95	226.84
941.25	226.61
941.55	226.42
941.85	226.32
942.15	226.49
942.45	226.67
942.75	226.57
943.04	226.57
943.34	226.80
943.64	226.64
943.94	226.44
944.24	226.38
944.54	226.45
944.84	226.43
945.13	226.26
945.43	226.11
945.73	226.07
946.03	225.96
946.33	225.86
946.62	225.77
946.92	225.75
947.22	225.84
947.52	225.90
947.82	226.05
948.11	225.93
948.41	225.79
948.71	225.61
949.01	225.68
949.31	225.71
949.60	225.58
949.90	225.77
950.20	225.76
950.50	225.79
950.79	225.72
951.09	225.88
951.39	225.90
951.69	225.88
951.98	226.08
952.28	226.16
952.58	226.20
952.87	226.27
953.17	226.49
953.47	226.26
953.76	226.28
954.06	226.17
954.36	226.05
954.66	226.09
954.95	226.29
955.25	226.33
955.55	226.47
955.84	226.31
956.14	226.38
956.44	226.54
956.73	226.50
957.03	226.50
957.32	226.42
957.62	226.27
957.92	226.48
958.21	226.29
958.51	227.23
958.81	227.33
959.10	227.41
959.40	227.57
959.69	227.67
959.99	227.80
960.29	227.84
960.58	227.82
960.88	228.13
961.17	228.06
961.47	228.24
961.76	228.10
962.06	228.36
962.36	228.28
962.65	228.31
962.95	228.30
963.24	228.24
963.54	228.30
963.83	228.34
964.13	228.21
964.42	228.04
964.72	227.48
965.01	227.50
965.31	227.42
965.60	227.11
965.90	227.85
966.19	227.67
966.49	227.65
966.78	227.71
967.08	227.63
967.37	227.64
967.67	227.43
967.96	227.67
968.26	227.61
968.55	227.88
968.85	227.86
969.14	227.93
969.43	227.88
969.73	227.79
970.02	227.87
970.32	227.86
970.61	227.83
970.91	227.49
971.20	227.37
971.49	227.40
971.79	227.55
972.08	226.82
972.38	226.92
972.67	226.96
972.96	227.06
973.26	226.93
973.55	227.24
973.85	227.29
974.14	227.09
974.43	227.20
974.73	226.80
975.02	226.75
975.31	226.69
975.61	226.83
975.90	226.84
976.19	226.84
976.49	226.95
976.78	227.12
977.07	227.09
977.37	227.16
977.66	227.19
977.95	227.13
978.24	227.23
978.54	227.42
978.83	227.34
979.12	227.29
979.42	227.35
979.71	227.08
980.00	227.02
980.29	227.07
980.59	226.90
980.88	227.27
981.17	227.18
981.46	227.20
981.76	227.17
982.05	227.48
982.34	227.45
982.63	227.39
982.93	227.31
983.22	227.54
983.51	227.71
983.80	227.88
984.09	227.93
984.39	227.81
984.68	227.66
984.97	227.69
985.26	227.63
985.55	227.58
985.85	227.41
986.14	227.62
986.43	227.77
986.72	227.73
987.01	227.43
987.30	227.55
987.59	227.55
987.89	227.51
988.18	227.16
988.47	227.04
988.76	226.94
989.05	226.95
989.34	226.82
989.63	226.99
989.92	226.82
990.22	226.71
990.51	226.70
990.80	226.64
991.09	226.81
991.38	226.93
991.67	226.91
991.96	226.82
992.25	226.73
992.54	226.50
992.83	226.45
993.12	226.40
993.41	226.43
993.70	226.83
993.99	227.01
994.28	227.18
994.58	227.38
994.87	227.30
995.16	227.25
995.45	227.16
995.74	226.84
996.03	226.99
996.32	227.17
996.61	227.38
996.90	227.39
997.19	227.37
997.48	227.31
997.77	227.20
998.06	227.31
998.34	227.23
998.63	227.25
998.92	227.40
999.21	227.57
999.50	227.58
999.79	227.20
1000.08	227.21
1000.37	227.29
1000.66	227.16
1000.95	227.37
1001.24	227.42
1001.53	227.51
1001.82	227.47
1002.11	227.22
1002.40	227.33
1002.68	227.60
1002.97	228.26
1003.26	228.04
1003.55	227.99
1003.84	228.12
1004.13	228.41
1004.42	228.34
1004.71	228.38
1004.99	228.28
1005.28	228.52
1005.57	228.41
1005.86	228.32
1006.15	228.28
1006.44	228.08
1006.72	228.14
1007.01	227.96
1007.30	227.99
1007.59	227.85
1007.88	227.88
1008.17	228.01
1008.45	227.70
1008.74	227.22
1009.03	226.70
1009.32	226.70
1009.60	226.75
1009.89	226.66
1010.18	226.30
1010.47	226.29
1010.76	226.29
1011.04	226.27
1011.33	226.27
1011.62	226.46
1011.91	226.63
1012.19	226.63
1012.48	226.68
1012.77	226.76
1013.05	227.25
1013.34	227.22
1013.63	227.26
1013.92	227.29
1014.20	227.16
1014.49	227.25
1014.78	227.32
1015.06	227.11
1015.35	227.20
1015.64	227.27
1015.92	227.41
1016.21	227.46
1016.50	227.53
1016.78	227.60
1017.07	227.67
1017.36	227.40
1017.64	227.10
1017.93	227.04
1018.22	226.98
1018.50	226.90
1018.79	226.88
1019.08	226.49
1019.36	226.63
1019.65	226.52
1019.93	226.72
1020.22	226.81
1020.51	227.27
1020.79	227.20
1021.08	226.20
1021.36	224.90
1021.65	228.20
1021.94	228.20
1022.22	228.40
1022.51	224.50
1022.79	230.30
1023.08	227.20
1023.36	237.50
1023.65	224.40
>>>>>End Processed Spectral Data<<<<<
