SpectraSuite Data File
++++++++++++++++++++++++++++++++++++
Date: Wed Sep 04 17:32:36 EDT 2013
User: lab3
Dark Spectrum Present: Yes
Reference Spectrum Present: No
Number of Sampled Component Spectra: 1
Spectrometers: USB2E7196
Integration Time (usec): 337000 (USB2E7196)
Spectra Averaged: 10 (USB2E7196)
Boxcar Smoothing: 10 (USB2E7196)
Correct for Electrical Dark: No (USB2E7196)
Strobe/Lamp Enabled: No (USB2E7196)
Correct for Detector Non-linearity: No (USB2E7196)
Correct for Stray Light: No (USB2E7196)
Number of Pixels in Processed Spectrum: 2048
>>>>>Begin Processed Spectral Data<<<<<
339.09	0.00
339.48	211.50
339.86	213.70
340.24	216.30
340.63	216.10
341.01	231.90
341.39	222.20
341.78	222.60
342.16	226.00
342.54	224.00
342.93	213.08
343.31	223.78
343.69	224.44
344.07	224.95
344.46	225.44
344.84	225.96
345.22	225.57
345.60	225.73
345.99	225.92
346.37	225.92
346.75	225.95
347.13	226.01
347.52	226.15
347.90	226.50
348.28	226.59
348.66	226.89
349.05	226.64
349.43	226.77
349.81	226.91
350.19	227.03
350.57	227.03
350.96	227.20
351.34	227.34
351.72	227.47
352.10	227.55
352.48	227.57
352.87	227.55
353.25	227.65
353.63	227.66
354.01	227.65
354.39	227.70
354.77	227.88
355.15	228.27
355.54	228.13
355.92	227.98
356.30	228.09
356.68	228.75
357.06	228.79
357.44	228.60
357.82	228.56
358.20	229.43
358.58	229.47
358.97	229.45
359.35	229.77
359.73	229.90
360.11	229.94
360.49	229.98
360.87	230.06
361.25	230.22
361.63	230.74
362.01	230.91
362.39	230.91
362.77	230.93
363.15	230.83
363.53	231.00
363.91	231.04
364.29	231.05
364.67	230.11
365.05	230.22
365.43	230.45
365.81	230.60
366.19	230.20
366.57	230.59
366.95	230.53
367.33	230.23
367.71	230.25
368.09	230.43
368.47	230.49
368.85	230.42
369.23	230.65
369.61	230.20
369.99	230.43
370.37	230.56
370.75	230.94
371.13	230.77
371.51	230.62
371.89	230.69
372.27	230.72
372.65	230.86
373.03	230.80
373.41	230.67
373.78	230.61
374.16	230.19
374.54	229.78
374.92	229.77
375.30	229.78
375.68	229.53
376.06	229.44
376.44	229.29
376.82	229.29
377.19	229.13
377.57	229.05
377.95	228.65
378.33	228.57
378.71	228.05
379.09	228.10
379.47	228.08
379.84	227.84
380.22	227.66
380.60	227.33
380.98	227.23
381.36	227.12
381.73	226.93
382.11	226.94
382.49	226.89
382.87	226.63
383.25	226.54
383.62	227.53
384.00	227.35
384.38	227.35
384.76	227.63
385.13	227.86
385.51	227.86
385.89	227.77
386.27	227.70
386.64	227.76
387.02	227.58
387.40	227.45
387.78	227.48
388.15	227.44
388.53	227.36
388.91	227.39
389.29	227.30
389.66	227.44
390.04	227.32
390.42	227.57
390.79	227.58
391.17	227.55
391.55	226.56
391.92	226.55
392.30	226.64
392.68	226.29
393.05	226.24
393.43	226.28
393.81	226.32
394.18	226.26
394.56	226.26
394.94	226.50
395.31	226.51
395.69	226.88
396.06	227.03
396.44	227.21
396.82	227.18
397.19	227.76
397.57	227.63
397.95	227.90
398.32	227.72
398.70	227.97
399.07	228.26
399.45	228.30
399.82	228.40
400.20	228.40
400.58	228.52
400.95	228.29
401.33	228.60
401.70	229.45
402.08	229.65
402.45	229.83
402.83	230.18
403.20	230.46
403.58	230.40
403.95	230.92
404.33	231.24
404.71	231.39
405.08	232.13
405.46	232.48
405.83	232.76
406.21	232.94
406.58	233.30
406.96	233.55
407.33	234.10
407.70	234.60
408.08	235.79
408.45	236.40
408.83	237.06
409.20	237.40
409.58	237.33
409.95	238.02
410.33	238.75
410.70	239.03
411.08	239.79
411.45	240.72
411.82	241.04
412.20	242.06
412.57	243.59
412.95	243.62
413.32	244.76
413.69	245.83
414.07	247.10
414.44	248.24
414.82	249.60
415.19	251.10
415.56	252.55
415.94	253.57
416.31	255.26
416.68	257.00
417.06	259.09
417.43	261.16
417.81	263.35
418.18	265.61
418.55	268.10
418.93	270.61
419.30	273.04
419.67	276.01
420.04	278.80
420.42	281.44
420.79	285.65
421.16	289.03
421.54	293.03
421.91	296.81
422.28	300.73
422.66	304.76
423.03	309.23
423.40	313.45
423.77	317.94
424.15	322.49
424.52	327.30
424.89	332.61
425.26	337.59
425.64	342.30
426.01	347.53
426.38	353.07
426.75	359.02
427.13	364.86
427.50	370.87
427.87	377.06
428.24	383.33
428.61	388.58
428.99	395.60
429.36	402.23
429.73	409.16
430.10	416.20
430.47	423.58
430.85	430.51
431.22	438.45
431.59	447.34
431.96	455.46
432.33	464.40
432.70	472.90
433.08	482.86
433.45	492.48
433.82	502.13
434.19	512.68
434.56	522.79
434.93	532.51
435.30	542.58
435.68	553.77
436.05	564.54
436.42	575.39
436.79	585.41
437.16	596.33
437.53	607.71
437.90	619.08
438.27	630.35
438.64	642.03
439.01	652.75
439.38	661.93
439.75	671.07
440.13	681.45
440.50	691.43
440.87	699.74
441.24	708.18
441.61	717.24
441.98	724.08
442.35	731.98
442.72	740.25
443.09	748.25
443.46	752.84
443.83	756.31
444.20	759.20
444.57	762.64
444.94	764.35
445.31	766.23
445.68	768.91
446.05	769.25
446.42	767.82
446.79	766.70
447.16	764.89
447.53	763.85
447.90	759.47
448.27	754.80
448.64	748.63
449.01	744.09
449.37	736.58
449.74	729.20
450.11	720.93
450.48	711.09
450.85	700.60
451.22	691.92
451.59	683.60
451.96	675.93
452.33	665.83
452.70	656.47
453.07	645.34
453.43	633.18
453.80	622.51
454.17	612.34
454.54	602.21
454.91	591.70
455.28	581.45
455.65	571.92
456.02	563.76
456.38	555.77
456.75	545.91
457.12	537.37
457.49	529.20
457.86	520.77
458.23	514.33
458.59	507.12
458.96	499.81
459.33	493.24
459.70	486.46
460.07	481.15
460.43	475.07
460.80	469.57
461.17	464.66
461.54	459.48
461.91	454.60
462.27	449.59
462.64	445.36
463.01	440.78
463.38	436.56
463.74	430.95
464.11	426.97
464.48	423.47
464.85	419.85
465.21	417.04
465.58	413.99
465.95	410.24
466.32	407.30
466.68	404.28
467.05	401.39
467.42	398.42
467.78	395.37
468.15	392.76
468.52	390.67
468.88	387.82
469.25	385.27
469.62	383.25
469.98	381.20
470.35	379.32
470.72	377.24
471.08	374.88
471.45	373.24
471.82	371.66
472.18	369.76
472.55	368.31
472.92	366.54
473.28	364.95
473.65	363.47
474.02	362.04
474.38	360.93
474.75	359.92
475.11	358.69
475.48	357.84
475.85	356.93
476.21	355.89
476.58	355.14
476.94	354.54
477.31	353.74
477.67	353.05
478.04	352.35
478.41	352.14
478.77	352.66
479.14	352.00
479.50	351.50
479.87	351.29
480.23	351.02
480.60	350.66
480.96	350.44
481.33	350.67
481.69	350.59
482.06	350.55
482.42	350.52
482.79	350.89
483.15	350.92
483.52	351.28
483.88	351.58
484.25	351.79
484.61	352.18
484.98	352.60
485.34	353.40
485.71	354.23
486.07	354.76
486.44	354.58
486.80	355.31
487.17	356.01
487.53	357.08
487.90	358.10
488.26	359.71
488.62	361.10
488.99	361.92
489.35	363.29
489.72	364.56
490.08	365.98
490.44	367.07
490.81	368.84
491.17	370.36
491.54	372.27
491.90	374.22
492.26	376.10
492.63	378.02
492.99	379.81
493.36	381.82
493.72	384.21
494.08	386.63
494.45	389.22
494.81	391.98
495.17	394.45
495.54	397.47
495.90	399.96
496.26	402.90
496.63	405.94
496.99	408.96
497.35	412.20
497.72	415.74
498.08	419.23
498.44	422.57
498.80	426.29
499.17	429.72
499.53	433.30
499.89	437.27
500.26	441.31
500.62	445.38
500.98	449.79
501.34	453.80
501.71	458.15
502.07	462.39
502.43	466.73
502.79	471.39
503.16	475.89
503.52	480.68
503.88	485.43
504.24	490.56
504.60	495.76
504.97	501.28
505.33	506.34
505.69	512.50
506.05	518.12
506.41	523.51
506.78	529.29
507.14	535.10
507.50	540.91
507.86	546.99
508.22	553.05
508.59	558.79
508.95	565.29
509.31	571.97
509.67	578.65
510.03	584.95
510.39	591.59
510.75	598.34
511.12	604.86
511.48	611.36
511.84	618.08
512.20	624.77
512.56	631.40
512.92	638.54
513.28	645.32
513.64	652.35
514.00	659.76
514.37	667.20
514.73	674.71
515.09	682.46
515.45	689.99
515.81	697.53
516.17	705.55
516.53	713.15
516.89	720.48
517.25	728.41
517.61	737.03
517.97	745.58
518.33	753.91
518.69	762.80
519.05	771.93
519.41	780.82
519.77	790.39
520.13	799.26
520.49	807.89
520.85	816.78
521.21	826.43
521.57	835.51
521.93	844.40
522.29	853.54
522.65	862.34
523.01	871.56
523.37	880.45
523.73	889.48
524.09	898.56
524.45	907.70
524.81	916.85
525.17	926.05
525.53	935.10
525.89	944.32
526.25	953.37
526.61	962.00
526.97	971.21
527.33	980.61
527.68	991.08
528.04	1001.14
528.40	1010.52
528.76	1020.12
529.12	1030.18
529.48	1040.26
529.84	1050.10
530.20	1060.64
530.56	1070.95
530.91	1081.70
531.27	1091.95
531.63	1102.09
531.99	1112.66
532.35	1122.95
532.71	1133.50
533.07	1144.28
533.42	1155.48
533.78	1166.14
534.14	1177.00
534.50	1187.50
534.86	1197.67
535.21	1206.87
535.57	1217.11
535.93	1227.09
536.29	1237.38
536.65	1247.38
537.00	1257.43
537.36	1267.18
537.72	1276.29
538.08	1285.98
538.44	1295.37
538.79	1305.32
539.15	1314.95
539.51	1324.48
539.87	1333.69
540.22	1342.20
540.58	1350.79
540.94	1358.39
541.29	1366.29
541.65	1374.45
542.01	1382.76
542.37	1390.19
542.72	1397.86
543.08	1404.84
543.44	1412.64
543.79	1419.15
544.15	1426.58
544.51	1433.70
544.87	1440.89
545.22	1447.75
545.58	1453.84
545.94	1460.08
546.29	1465.59
546.65	1471.31
547.01	1476.50
547.36	1482.00
547.72	1487.36
548.07	1492.18
548.43	1497.35
548.79	1502.48
549.14	1507.24
549.50	1512.08
549.86	1516.68
550.21	1521.45
550.57	1526.35
550.92	1530.65
551.28	1534.68
551.64	1538.20
551.99	1541.62
552.35	1545.35
552.70	1549.20
553.06	1553.08
553.41	1556.70
553.77	1560.88
554.13	1564.65
554.48	1568.65
554.84	1572.13
555.19	1575.77
555.55	1579.99
555.90	1582.84
556.26	1585.95
556.61	1588.26
556.97	1589.95
557.32	1592.64
557.68	1595.38
558.03	1597.80
558.39	1599.92
558.74	1602.60
559.10	1604.01
559.45	1605.80
559.81	1606.89
560.16	1607.80
560.52	1608.84
560.87	1609.80
561.23	1610.03
561.58	1611.22
561.94	1611.02
562.29	1610.42
562.64	1610.17
563.00	1608.74
563.35	1608.74
563.71	1608.51
564.06	1608.98
564.42	1608.94
564.77	1609.00
565.12	1608.30
565.48	1608.63
565.83	1608.36
566.19	1607.60
566.54	1607.55
566.89	1606.83
567.25	1606.62
567.60	1606.71
567.96	1606.91
568.31	1606.50
568.66	1605.88
569.02	1603.86
569.37	1602.86
569.72	1602.63
570.08	1601.41
570.43	1599.73
570.78	1598.04
571.14	1595.99
571.49	1593.36
571.84	1591.39
572.20	1588.68
572.55	1586.01
572.90	1581.70
573.26	1578.70
573.61	1575.37
573.96	1571.91
574.31	1568.44
574.67	1564.44
575.02	1559.70
575.37	1554.70
575.72	1549.81
576.08	1545.47
576.43	1541.07
576.78	1536.25
577.13	1531.25
577.49	1526.81
577.84	1523.13
578.19	1519.22
578.54	1515.04
578.90	1511.24
579.25	1507.21
579.60	1502.65
579.95	1497.96
580.30	1493.78
580.66	1488.71
581.01	1483.60
581.36	1478.21
581.71	1473.26
582.06	1468.93
582.42	1464.39
582.77	1459.61
583.12	1455.37
583.47	1450.63
583.82	1446.30
584.17	1441.95
584.53	1437.49
584.88	1431.64
585.23	1426.47
585.58	1420.14
585.93	1414.20
586.28	1408.37
586.63	1402.08
586.98	1395.93
587.34	1390.26
587.69	1384.32
588.04	1379.38
588.39	1374.44
588.74	1369.03
589.09	1364.16
589.44	1357.60
589.79	1352.00
590.14	1346.40
590.49	1340.17
590.84	1334.59
591.19	1329.14
591.54	1323.32
591.89	1317.52
592.25	1313.72
592.60	1308.20
592.95	1303.20
593.30	1297.94
593.65	1292.26
594.00	1286.10
594.35	1283.58
594.70	1277.92
595.05	1272.37
595.40	1265.90
595.75	1259.87
596.10	1254.33
596.45	1248.31
596.80	1243.06
597.15	1237.67
597.50	1231.77
597.85	1226.50
598.19	1220.51
598.54	1214.02
598.89	1207.95
599.24	1202.48
599.59	1195.89
599.94	1189.92
600.29	1184.52
600.64	1178.80
600.99	1173.09
601.34	1168.83
601.69	1160.61
602.04	1155.35
602.39	1150.08
602.74	1145.30
603.08	1140.18
603.43	1135.33
603.78	1129.82
604.13	1124.59
604.48	1118.84
604.83	1113.47
605.18	1108.09
605.53	1102.70
605.87	1098.02
606.22	1093.51
606.57	1088.15
606.92	1082.64
607.27	1077.59
607.62	1072.52
607.96	1067.66
608.31	1062.84
608.66	1057.53
609.01	1052.45
609.36	1047.52
609.70	1042.20
610.05	1036.94
610.40	1031.95
610.75	1026.40
611.10	1021.54
611.44	1016.14
611.79	1010.86
612.14	1005.77
612.49	1000.53
612.83	996.04
613.18	990.71
613.53	985.47
613.88	980.30
614.22	975.26
614.57	969.78
614.92	964.04
615.27	959.17
615.61	953.58
615.96	948.08
616.31	943.11
616.65	938.15
617.00	933.11
617.35	927.98
617.70	922.62
618.04	917.34
618.39	912.45
618.74	908.09
619.08	903.20
619.43	898.27
619.78	893.07
620.12	887.54
620.47	882.81
620.82	877.64
621.16	872.47
621.51	868.09
621.85	863.29
622.20	858.62
622.55	853.18
622.89	848.76
623.24	844.23
623.59	839.23
623.93	834.30
624.28	829.59
624.62	825.81
624.97	821.83
625.32	817.67
625.66	812.69
626.01	807.50
626.35	803.23
626.70	798.80
627.04	794.79
627.39	790.33
627.73	785.94
628.08	781.86
628.43	777.57
628.77	772.84
629.12	768.97
629.46	765.16
629.81	761.57
630.15	757.65
630.50	753.34
630.84	749.38
631.19	745.44
631.53	741.68
631.88	736.54
632.22	732.03
632.57	728.44
632.91	724.48
633.26	721.09
633.60	716.94
633.95	712.92
634.29	708.73
634.64	704.89
634.98	700.54
635.32	696.70
635.67	693.28
636.01	689.57
636.36	685.42
636.70	681.69
637.05	677.79
637.39	673.95
637.73	670.50
638.08	667.22
638.42	663.17
638.77	659.51
639.11	655.67
639.45	651.62
639.80	647.18
640.14	643.37
640.49	639.48
640.83	636.11
641.17	632.61
641.52	629.02
641.86	625.56
642.20	622.74
642.55	619.06
642.89	615.45
643.23	611.93
643.58	609.10
643.92	605.36
644.26	601.90
644.61	598.77
644.95	595.45
645.29	591.79
645.64	588.88
645.98	585.51
646.32	582.80
646.66	579.77
647.01	576.64
647.35	573.98
647.69	571.12
648.04	568.38
648.38	565.60
648.72	562.68
649.06	559.55
649.41	556.17
649.75	553.14
650.09	550.30
650.43	547.36
650.78	544.17
651.12	541.34
651.46	538.50
651.80	535.50
652.14	532.71
652.49	530.26
652.83	527.43
653.17	524.70
653.51	521.56
653.85	518.98
654.20	516.50
654.54	513.76
654.88	510.88
655.22	508.67
655.56	505.97
655.90	503.68
656.25	501.22
656.59	498.88
656.93	496.54
657.27	494.46
657.61	492.00
657.95	489.37
658.29	487.06
658.64	484.68
658.98	482.05
659.32	479.52
659.66	476.99
660.00	474.71
660.34	472.32
660.68	470.02
661.02	467.41
661.36	465.09
661.70	462.40
662.05	460.17
662.39	457.50
662.73	455.37
663.07	453.50
663.41	451.47
663.75	449.11
664.09	446.97
664.43	444.32
664.77	442.14
665.11	440.07
665.45	437.90
665.79	435.85
666.13	433.99
666.47	431.87
666.81	429.70
667.15	427.37
667.49	425.42
667.83	423.95
668.17	422.09
668.51	420.30
668.85	418.87
669.19	417.61
669.53	415.56
669.87	413.51
670.21	411.27
670.55	409.41
670.89	408.18
671.23	406.31
671.57	404.47
671.91	402.82
672.25	401.13
672.58	399.70
672.92	397.73
673.26	395.95
673.60	394.42
673.94	392.90
674.28	391.60
674.62	390.17
674.96	388.27
675.30	386.85
675.64	385.17
675.97	383.42
676.31	381.38
676.65	379.66
676.99	378.73
677.33	377.06
677.67	375.60
678.01	373.71
678.34	372.26
678.68	371.15
679.02	369.64
679.36	368.25
679.70	366.58
680.04	365.49
680.37	364.22
680.71	362.70
681.05	361.38
681.39	359.95
681.73	358.56
682.06	357.22
682.40	355.91
682.74	354.96
683.08	354.22
683.42	352.91
683.75	351.79
684.09	350.03
684.43	348.96
684.77	347.66
685.10	346.38
685.44	345.39
685.78	344.06
686.12	342.97
686.45	341.77
686.79	340.53
687.13	339.51
687.46	338.36
687.80	337.50
688.14	336.18
688.48	335.09
688.81	333.89
689.15	333.14
689.49	332.05
689.82	330.93
690.16	329.41
690.50	328.40
690.83	327.45
691.17	326.30
691.51	325.30
691.84	324.37
692.18	323.35
692.52	322.24
692.85	321.23
693.19	320.61
693.52	319.80
693.86	318.90
694.20	317.75
694.53	316.91
694.87	315.79
695.21	314.77
695.54	313.93
695.88	312.96
696.21	311.69
696.55	310.72
696.88	309.77
697.22	308.70
697.56	307.95
697.89	306.93
698.23	306.33
698.56	305.24
698.90	304.43
699.23	303.52
699.57	302.71
699.90	301.81
700.24	300.63
700.58	299.84
700.91	299.19
701.25	299.30
701.58	299.26
701.92	298.85
702.25	298.40
702.59	297.63
702.92	297.02
703.26	296.41
703.59	295.84
703.93	295.90
704.26	295.48
704.60	294.84
704.93	294.13
705.26	293.24
705.60	292.94
705.93	292.17
706.27	291.87
706.60	291.49
706.94	291.33
707.27	290.77
707.61	290.12
707.94	289.55
708.27	288.11
708.61	286.71
708.94	286.04
709.28	285.48
709.61	284.80
709.94	284.29
710.28	283.83
710.61	283.30
710.95	281.81
711.28	281.83
711.61	281.06
711.95	280.81
712.28	280.20
712.61	279.52
712.95	279.40
713.28	279.10
713.61	278.26
713.95	277.36
714.28	276.89
714.61	276.35
714.95	275.72
715.28	275.11
715.61	274.53
715.95	273.95
716.28	273.26
716.61	272.90
716.95	272.30
717.28	271.62
717.61	271.07
717.94	270.65
718.28	269.38
718.61	268.98
718.94	268.27
719.27	267.95
719.61	267.59
719.94	266.97
720.27	266.08
720.60	265.59
720.94	265.22
721.27	264.70
721.60	264.42
721.93	264.09
722.27	264.05
722.60	263.89
722.93	263.46
723.26	263.24
723.59	262.77
723.93	262.51
724.26	262.30
724.59	261.97
724.92	261.62
725.25	261.70
725.59	261.47
725.92	261.18
726.25	260.91
726.58	260.48
726.91	260.10
727.24	259.99
727.57	259.80
727.91	259.32
728.24	259.15
728.57	258.71
728.90	258.46
729.23	257.77
729.56	257.85
729.89	257.47
730.22	257.09
730.55	256.79
730.89	256.51
731.22	256.09
731.55	255.75
731.88	255.62
732.21	255.13
732.54	254.66
732.87	254.45
733.20	254.14
733.53	254.04
733.86	253.79
734.19	253.30
734.52	253.18
734.85	253.60
735.18	253.20
735.51	253.24
735.84	253.06
736.17	253.20
736.50	252.38
736.83	253.26
737.16	253.01
737.49	252.73
737.82	252.42
738.15	252.45
738.48	252.21
738.81	251.85
739.14	251.51
739.47	251.38
739.80	251.22
740.13	251.19
740.46	250.88
740.79	250.56
741.12	250.38
741.45	250.10
741.78	249.50
742.11	249.62
742.44	249.21
742.77	249.16
743.10	248.85
743.43	248.72
743.75	247.60
744.08	248.62
744.41	248.55
744.74	248.33
745.07	247.90
745.40	247.89
745.73	248.24
746.06	248.12
746.39	248.01
746.71	247.70
747.04	247.34
747.37	247.13
747.70	247.11
748.03	247.09
748.36	247.07
748.68	246.91
749.01	246.47
749.34	246.33
749.67	246.15
750.00	246.09
750.33	246.67
750.65	246.60
750.98	245.36
751.31	245.03
751.64	244.95
751.97	245.44
752.29	245.27
752.62	244.61
752.95	244.43
753.28	244.12
753.60	244.01
753.93	244.11
754.26	244.03
754.59	243.75
754.91	243.44
755.24	243.08
755.57	242.90
755.90	242.71
756.22	242.47
756.55	242.16
756.88	241.76
757.20	240.95
757.53	240.46
757.86	240.32
758.19	240.40
758.51	240.27
758.84	239.61
759.17	239.40
759.49	239.30
759.82	239.71
760.15	239.74
760.47	239.56
760.80	239.11
761.13	239.10
761.45	238.93
761.78	238.80
762.11	238.76
762.43	238.48
762.76	238.34
763.08	238.39
763.41	238.29
763.74	238.26
764.06	238.10
764.39	238.06
764.71	237.85
765.04	237.61
765.37	237.41
765.69	237.16
766.02	236.95
766.34	236.77
766.67	236.23
767.00	236.25
767.32	236.71
767.65	237.33
767.97	237.16
768.30	237.07
768.62	236.92
768.95	236.69
769.27	236.62
769.60	236.73
769.92	236.45
770.25	236.26
770.57	236.12
770.90	236.08
771.22	235.99
771.55	235.95
771.87	235.95
772.20	235.88
772.52	236.77
772.85	237.94
773.17	237.91
773.50	237.79
773.82	237.64
774.15	237.09
774.47	236.30
774.80	236.18
775.12	236.10
775.45	236.17
775.77	236.18
776.09	236.23
776.42	236.09
776.74	236.45
777.07	236.32
777.39	236.22
777.72	236.17
778.04	236.20
778.36	236.08
778.69	236.05
779.01	236.18
779.33	235.22
779.66	234.09
779.98	233.99
780.31	233.93
780.63	234.24
780.95	234.30
781.28	234.27
781.60	234.13
781.92	234.14
782.25	234.02
782.57	234.00
782.89	233.89
783.22	233.77
783.54	233.50
783.86	233.50
784.19	233.44
784.51	233.57
784.83	233.43
785.16	233.27
785.48	233.22
785.80	233.00
786.12	233.06
786.45	232.93
786.77	232.96
787.09	232.98
787.42	232.59
787.74	232.59
788.06	232.57
788.38	232.56
788.71	232.50
789.03	232.58
789.35	232.66
789.67	232.45
789.99	232.46
790.32	232.19
790.64	232.30
790.96	233.06
791.28	232.76
791.61	232.80
791.93	232.84
792.25	232.79
792.57	233.41
792.89	233.12
793.21	233.19
793.54	233.15
793.86	232.85
794.18	232.83
794.50	232.63
794.82	232.62
795.14	232.63
795.47	232.65
795.79	232.52
796.11	232.23
796.43	232.16
796.75	232.27
797.07	232.37
797.39	232.30
797.71	231.51
798.04	231.56
798.36	231.43
798.68	231.39
799.00	231.35
799.32	230.82
799.64	231.16
799.96	231.12
800.28	231.14
800.60	231.20
800.92	231.17
801.24	231.10
801.56	231.17
801.89	231.12
802.21	231.19
802.53	231.04
802.85	231.34
803.17	231.82
803.49	231.48
803.81	231.37
804.13	231.30
804.45	231.33
804.77	231.33
805.09	231.30
805.41	231.25
805.73	231.01
806.05	230.74
806.37	230.40
806.69	230.24
807.01	230.20
807.33	230.30
807.65	229.94
807.97	230.37
808.28	230.26
808.60	230.22
808.92	230.07
809.24	230.63
809.56	230.34
809.88	230.00
810.20	230.00
810.52	230.06
810.84	229.87
811.16	229.68
811.48	229.54
811.80	229.90
812.12	229.84
812.43	230.05
812.75	230.20
813.07	230.19
813.39	230.28
813.71	230.13
814.03	229.98
814.35	230.06
814.67	229.63
814.98	229.50
815.30	229.44
815.62	229.27
815.94	228.71
816.26	229.11
816.58	228.90
816.89	229.10
817.21	228.94
817.53	229.02
817.85	229.07
818.17	228.92
818.48	228.59
818.80	228.81
819.12	228.70
819.44	228.49
819.76	228.40
820.07	228.43
820.39	228.49
820.71	228.56
821.03	228.53
821.34	228.43
821.66	228.53
821.98	228.63
822.30	228.64
822.61	229.12
822.93	228.75
823.25	228.87
823.57	228.73
823.88	228.98
824.20	228.85
824.52	229.08
824.83	229.25
825.15	229.23
825.47	229.14
825.79	229.21
826.10	229.20
826.42	229.23
826.74	229.22
827.05	229.23
827.37	229.31
827.69	229.34
828.00	229.47
828.32	229.48
828.64	229.46
828.95	229.92
829.27	229.72
829.58	229.68
829.90	229.80
830.22	229.87
830.53	229.65
830.85	229.73
831.17	229.53
831.48	229.49
831.80	229.52
832.11	229.50
832.43	229.37
832.75	229.42
833.06	230.09
833.38	229.86
833.69	229.81
834.01	229.85
834.32	229.86
834.64	229.71
834.96	229.83
835.27	229.82
835.59	229.57
835.90	229.42
836.22	229.49
836.53	229.24
836.85	229.03
837.16	230.02
837.48	229.98
837.79	230.31
838.11	230.39
838.42	230.30
838.74	230.40
839.05	230.40
839.37	230.34
839.68	229.72
840.00	229.76
840.31	229.92
840.63	229.70
840.94	229.68
841.26	229.62
841.57	229.60
841.88	229.60
842.20	229.39
842.51	229.25
842.83	229.17
843.14	230.10
843.46	230.16
843.77	229.53
844.08	229.50
844.40	229.09
844.71	228.95
845.03	228.98
845.34	228.87
845.65	228.87
845.97	228.92
846.28	228.97
846.60	229.02
846.91	228.83
847.22	228.96
847.54	229.09
847.85	229.13
848.16	228.99
848.48	228.74
848.79	229.12
849.10	229.16
849.42	229.26
849.73	228.20
850.04	228.25
850.36	227.93
850.67	228.15
850.98	228.20
851.30	228.39
851.61	228.20
851.92	228.10
852.23	228.39
852.55	228.38
852.86	228.36
853.17	228.40
853.49	228.57
853.80	228.71
854.11	228.69
854.42	228.88
854.74	228.76
855.05	228.84
855.36	228.43
855.67	228.49
855.99	228.55
856.30	229.71
856.61	229.66
856.92	229.67
857.23	229.58
857.55	229.55
857.86	229.33
858.17	229.51
858.48	229.44
858.79	229.20
859.11	229.36
859.42	229.27
859.73	229.20
860.04	229.14
860.35	228.90
860.66	228.67
860.98	228.55
861.29	228.75
861.60	228.74
861.91	228.87
862.22	228.75
862.53	228.47
862.84	227.50
863.16	227.71
863.47	227.61
863.78	227.57
864.09	227.65
864.40	227.76
864.71	227.85
865.02	228.05
865.33	227.93
865.64	227.70
865.95	227.74
866.27	228.35
866.58	228.24
866.89	228.37
867.20	228.37
867.51	228.25
867.82	228.24
868.13	228.51
868.44	228.37
868.75	228.58
869.06	228.64
869.37	228.71
869.68	228.50
869.99	228.66
870.30	228.77
870.61	228.80
870.92	228.76
871.23	228.62
871.54	228.68
871.85	229.03
872.16	229.16
872.47	229.10
872.78	228.55
873.09	228.67
873.40	228.50
873.71	228.66
874.02	228.68
874.33	228.54
874.64	228.42
874.95	228.70
875.26	228.43
875.56	228.40
875.87	228.40
876.18	228.46
876.49	229.40
876.80	229.22
877.11	228.97
877.42	228.94
877.73	228.99
878.04	228.89
878.35	228.79
878.66	228.76
878.96	228.70
879.27	228.74
879.58	228.71
879.89	228.74
880.20	228.95
880.51	229.02
880.82	228.97
881.12	228.90
881.43	228.66
881.74	228.68
882.05	228.66
882.36	228.62
882.67	228.62
882.97	227.50
883.28	227.45
883.59	227.50
883.90	227.53
884.21	227.74
884.51	227.66
884.82	227.49
885.13	227.53
885.44	227.53
885.74	227.36
886.05	227.31
886.36	227.33
886.67	226.99
886.98	227.36
887.28	227.57
887.59	227.53
887.90	227.51
888.20	227.41
888.51	227.64
888.82	227.47
889.13	227.38
889.43	228.13
889.74	228.11
890.05	228.07
890.35	228.06
890.66	227.85
890.97	227.72
891.28	227.54
891.58	227.54
891.89	227.55
892.20	227.50
892.50	227.37
892.81	227.21
893.12	227.20
893.42	226.70
893.73	226.62
894.04	226.60
894.34	226.76
894.65	226.70
894.95	226.51
895.26	226.60
895.57	227.03
895.87	226.19
896.18	226.33
896.48	226.44
896.79	226.37
897.10	226.43
897.40	226.58
897.71	226.74
898.01	226.58
898.32	226.65
898.63	226.68
898.93	226.65
899.24	226.81
899.54	226.80
899.85	226.84
900.15	226.79
900.46	226.83
900.76	226.78
901.07	226.80
901.38	226.84
901.68	226.92
901.99	226.43
902.29	226.60
902.60	226.51
902.90	226.35
903.21	226.41
903.51	226.34
903.82	226.55
904.12	226.51
904.43	226.62
904.73	226.55
905.03	226.65
905.34	227.70
905.64	227.62
905.95	227.59
906.25	227.59
906.56	227.66
906.86	227.66
907.17	227.68
907.47	227.79
907.77	227.73
908.08	227.59
908.38	227.78
908.69	227.89
908.99	228.17
909.30	228.33
909.60	228.30
909.90	228.41
910.21	228.07
910.51	228.06
910.81	228.03
911.12	228.04
911.42	228.10
911.73	227.09
912.03	227.17
912.33	227.45
912.64	227.42
912.94	227.33
913.24	227.17
913.55	227.19
913.85	227.16
914.15	227.34
914.46	227.47
914.76	227.34
915.06	227.23
915.37	227.01
915.67	226.98
915.97	227.00
916.27	226.77
916.58	226.91
916.88	226.89
917.18	226.91
917.49	227.63
917.79	227.62
918.09	227.75
918.39	228.00
918.70	227.89
919.00	228.03
919.30	228.50
919.60	228.60
919.91	228.50
920.21	228.60
920.51	228.47
920.81	228.52
921.12	228.68
921.42	228.66
921.72	228.64
922.02	228.59
922.32	228.73
922.63	228.82
922.93	229.24
923.23	229.27
923.53	229.05
923.83	228.40
924.13	228.48
924.44	228.48
924.74	228.55
925.04	228.74
925.34	228.62
925.64	228.16
925.94	228.02
926.24	228.47
926.55	228.35
926.85	228.29
927.15	228.18
927.45	228.11
927.75	228.02
928.05	228.03
928.35	228.05
928.65	228.17
928.95	228.20
929.26	227.81
929.56	227.90
929.86	228.05
930.16	228.00
930.46	227.86
930.76	227.90
931.06	227.48
931.36	227.20
931.66	227.29
931.96	227.34
932.26	227.48
932.56	226.98
932.86	227.00
933.16	226.98
933.46	226.86
933.76	226.71
934.06	226.91
934.36	227.32
934.66	227.27
934.96	227.17
935.26	227.25
935.56	227.32
935.86	227.03
936.16	226.95
936.46	226.82
936.76	226.80
937.06	226.63
937.36	226.80
937.66	226.80
937.96	226.84
938.26	226.73
938.56	226.60
938.86	226.69
939.16	226.94
939.46	227.20
939.76	227.30
940.06	227.29
940.35	227.15
940.65	226.63
940.95	226.71
941.25	226.37
941.55	226.16
941.85	226.15
942.15	226.47
942.45	226.78
942.75	226.80
943.04	226.81
943.34	226.96
943.64	226.87
943.94	226.87
944.24	226.83
944.54	226.89
944.84	226.94
945.13	226.88
945.43	226.66
945.73	226.52
946.03	226.46
946.33	226.50
946.62	226.44
946.92	226.47
947.22	226.57
947.52	226.68
947.82	226.84
948.11	226.82
948.41	226.63
948.71	226.36
949.01	226.51
949.31	226.48
949.60	226.46
949.90	226.60
950.20	226.54
950.50	226.49
950.79	226.46
951.09	226.69
951.39	226.65
951.69	226.61
951.98	226.74
952.28	226.82
952.58	226.86
952.87	226.87
953.17	227.03
953.47	226.85
953.76	226.99
954.06	226.89
954.36	226.72
954.66	226.77
954.95	227.03
955.25	227.10
955.55	227.21
955.84	227.09
956.14	227.10
956.44	227.21
956.73	227.23
957.03	227.38
957.32	227.25
957.62	227.26
957.92	227.47
958.21	227.41
958.51	228.48
958.81	228.51
959.10	228.68
959.40	228.88
959.69	229.02
959.99	229.00
960.29	229.10
960.58	229.10
960.88	229.48
961.17	229.49
961.47	229.47
961.76	229.40
962.06	229.60
962.36	229.58
962.65	229.62
962.95	229.69
963.24	229.51
963.54	229.52
963.83	229.58
964.13	229.47
964.42	229.30
964.72	228.51
965.01	228.50
965.31	228.38
965.60	228.08
965.90	228.59
966.19	228.45
966.49	228.39
966.78	228.40
967.08	228.33
967.37	228.15
967.67	227.97
967.96	228.13
968.26	227.99
968.55	227.99
968.85	227.85
969.14	227.64
969.43	227.60
969.73	227.51
970.02	227.52
970.32	227.43
970.61	227.31
970.91	226.98
971.20	226.84
971.49	226.73
971.79	226.83
972.08	226.20
972.38	226.21
972.67	226.24
972.96	226.30
973.26	226.02
973.55	226.39
973.85	226.34
974.14	226.12
974.43	226.16
974.73	226.00
975.02	225.91
975.31	225.99
975.61	225.94
975.90	225.90
976.19	225.76
976.49	225.90
976.78	226.08
977.07	226.18
977.37	226.29
977.66	226.38
977.95	226.29
978.24	226.36
978.54	226.64
978.83	226.57
979.12	226.57
979.42	226.67
979.71	226.45
980.00	226.47
980.29	226.64
980.59	226.58
980.88	226.88
981.17	227.04
981.46	227.10
981.76	227.14
982.05	227.52
982.34	227.64
982.63	227.63
982.93	227.63
983.22	227.84
983.51	227.89
983.80	228.06
984.09	228.17
984.39	228.15
984.68	227.97
984.97	227.99
985.26	227.98
985.55	227.86
985.85	227.67
986.14	227.86
986.43	227.93
986.72	227.90
987.01	227.61
987.30	227.51
987.59	227.45
987.89	227.49
988.18	227.20
988.47	227.04
988.76	227.00
989.05	226.96
989.34	226.79
989.63	227.02
989.92	226.85
990.22	226.79
990.51	226.68
990.80	226.63
991.09	226.59
991.38	226.65
991.67	226.65
991.96	226.62
992.25	226.59
992.54	226.34
992.83	226.40
993.12	226.36
993.41	226.45
993.70	226.81
993.99	226.95
994.28	227.05
994.58	227.16
994.87	227.07
995.16	226.97
995.45	226.88
995.74	226.41
996.03	226.53
996.32	226.60
996.61	226.92
996.90	226.89
997.19	226.99
997.48	226.98
997.77	226.89
998.06	226.92
998.34	226.80
998.63	226.86
998.92	226.70
999.21	226.87
999.50	226.90
999.79	226.53
1000.08	226.52
1000.37	226.49
1000.66	226.50
1000.95	226.67
1001.24	226.71
1001.53	226.92
1001.82	226.92
1002.11	226.72
1002.40	226.73
1002.68	226.87
1002.97	227.59
1003.26	227.42
1003.55	227.29
1003.84	227.40
1004.13	227.77
1004.42	227.78
1004.71	227.82
1004.99	227.81
1005.28	228.10
1005.57	228.03
1005.86	228.07
1006.15	228.10
1006.44	227.99
1006.72	227.96
1007.01	227.80
1007.30	227.90
1007.59	227.74
1007.88	227.82
1008.17	227.80
1008.45	227.62
1008.74	227.20
1009.03	226.69
1009.32	226.70
1009.60	226.69
1009.89	226.60
1010.18	226.12
1010.47	226.18
1010.76	226.13
1011.04	226.17
1011.33	226.17
1011.62	226.25
1011.91	226.30
1012.19	226.23
1012.48	226.25
1012.77	226.24
1013.05	226.68
1013.34	226.61
1013.63	226.65
1013.92	226.79
1014.20	226.78
1014.49	226.88
1014.78	227.05
1015.06	226.86
1015.35	226.81
1015.64	226.96
1015.92	227.10
1016.21	227.18
1016.50	227.10
1016.78	227.27
1017.07	227.39
1017.36	227.06
1017.64	226.89
1017.93	226.90
1018.22	226.82
1018.50	226.80
1018.79	226.80
1019.08	226.36
1019.36	226.40
1019.65	226.18
1019.93	226.40
1020.22	226.64
1020.51	227.12
1020.79	227.07
1021.08	225.10
1021.36	224.70
1021.65	226.10
1021.94	226.00
1022.22	226.70
1022.51	223.50
1022.79	232.20
1023.08	229.10
1023.36	237.50
1023.65	226.70
>>>>>End Processed Spectral Data<<<<<
