SpectraSuite Data File
++++++++++++++++++++++++++++++++++++
Date: Wed Sep 04 17:32:19 EDT 2013
User: lab3
Dark Spectrum Present: Yes
Reference Spectrum Present: No
Number of Sampled Component Spectra: 1
Spectrometers: USB2E7196
Integration Time (usec): 337000 (USB2E7196)
Spectra Averaged: 10 (USB2E7196)
Boxcar Smoothing: 10 (USB2E7196)
Correct for Electrical Dark: No (USB2E7196)
Strobe/Lamp Enabled: No (USB2E7196)
Correct for Detector Non-linearity: No (USB2E7196)
Correct for Stray Light: No (USB2E7196)
Number of Pixels in Processed Spectrum: 2048
>>>>>Begin Processed Spectral Data<<<<<
339.09	0.00
339.48	211.30
339.86	214.20
340.24	215.00
340.63	214.80
341.01	232.60
341.39	219.10
341.78	225.80
342.16	226.80
342.54	225.10
342.93	213.03
343.31	223.76
343.69	224.35
344.07	224.90
344.46	225.41
344.84	226.03
345.22	225.69
345.60	226.05
345.99	226.00
346.37	225.97
346.75	225.90
347.13	226.00
347.52	226.15
347.90	226.56
348.28	226.49
348.66	226.76
349.05	226.46
349.43	226.61
349.81	226.80
350.19	226.90
350.57	226.99
350.96	227.19
351.34	227.28
351.72	227.41
352.10	227.41
352.48	227.38
352.87	227.30
353.25	227.36
353.63	227.33
354.01	227.47
354.39	227.59
354.77	227.74
355.15	228.06
355.54	228.04
355.92	227.76
356.30	227.88
356.68	228.48
357.06	228.62
357.44	228.45
357.82	228.43
358.20	229.29
358.58	229.37
358.97	229.38
359.35	229.60
359.73	229.82
360.11	229.88
360.49	230.01
360.87	230.11
361.25	230.27
361.63	230.74
362.01	230.80
362.39	230.74
362.77	230.84
363.15	230.79
363.53	230.78
363.91	230.94
364.29	230.85
364.67	230.00
365.05	230.04
365.43	230.23
365.81	230.34
366.19	230.04
366.57	230.38
366.95	230.24
367.33	230.07
367.71	230.08
368.09	230.33
368.47	230.38
368.85	230.35
369.23	230.37
369.61	229.93
369.99	230.14
370.37	230.23
370.75	230.60
371.13	230.45
371.51	230.32
371.89	230.39
372.27	230.44
372.65	230.49
373.03	230.46
373.41	230.25
373.78	230.11
374.16	229.59
374.54	229.27
374.92	229.22
375.30	229.17
375.68	228.95
376.06	228.85
376.44	228.73
376.82	228.72
377.19	228.71
377.57	228.57
377.95	228.33
378.33	228.37
378.71	227.77
379.09	227.71
379.47	227.79
379.84	227.62
380.22	227.55
380.60	227.24
380.98	227.14
381.36	227.13
381.73	227.00
382.11	227.07
382.49	227.04
382.87	226.84
383.25	226.87
383.62	227.95
384.00	227.69
384.38	227.66
384.76	227.83
385.13	228.20
385.51	228.21
385.89	228.00
386.27	227.85
386.64	228.00
387.02	228.01
387.40	227.92
387.78	227.91
388.15	227.90
388.53	228.06
388.91	227.91
389.29	227.92
389.66	228.05
390.04	227.86
390.42	227.94
390.79	227.98
391.17	227.86
391.55	226.66
391.92	226.64
392.30	226.70
392.68	226.40
393.05	226.22
393.43	226.26
393.81	226.36
394.18	226.26
394.56	226.29
394.94	226.52
395.31	226.49
395.69	226.90
396.06	227.02
396.44	227.02
396.82	227.11
397.19	227.60
397.57	227.60
397.95	227.95
398.32	227.78
398.70	228.04
399.07	228.25
399.45	228.42
399.82	228.54
400.20	228.55
400.58	228.71
400.95	228.58
401.33	228.87
401.70	229.60
402.08	229.77
402.45	229.95
402.83	230.22
403.20	230.41
403.58	230.36
403.95	230.75
404.33	231.13
404.71	231.37
405.08	231.97
405.46	232.25
405.83	232.54
406.21	232.88
406.58	233.25
406.96	233.54
407.33	233.99
407.70	234.56
408.08	235.83
408.45	236.46
408.83	237.15
409.20	237.64
409.58	237.66
409.95	238.38
410.33	239.05
410.70	239.38
411.08	240.24
411.45	240.91
411.82	241.49
412.20	242.45
412.57	243.90
412.95	244.05
413.32	245.07
413.69	245.95
414.07	247.06
414.44	248.18
414.82	249.53
415.19	251.01
415.56	252.48
415.94	253.54
416.31	255.31
416.68	257.02
417.06	259.05
417.43	261.25
417.81	263.52
418.18	265.80
418.55	268.20
418.93	270.74
419.30	273.51
419.67	276.47
420.04	279.30
420.42	281.98
420.79	286.26
421.16	289.84
421.54	294.02
421.91	297.85
422.28	301.81
422.66	306.00
423.03	310.65
423.40	315.01
423.77	319.51
424.15	324.07
424.52	328.95
424.89	334.38
425.26	339.48
425.64	344.44
426.01	349.93
426.38	355.61
426.75	361.43
427.13	367.27
427.50	373.35
427.87	379.70
428.24	386.20
428.61	391.72
428.99	398.94
429.36	405.77
429.73	413.01
430.10	420.50
430.47	427.86
430.85	434.97
431.22	442.89
431.59	452.10
431.96	460.38
432.33	469.44
432.70	478.08
433.08	488.18
433.45	497.96
433.82	507.50
434.19	518.51
434.56	529.40
434.93	539.46
435.30	549.80
435.68	561.11
436.05	572.37
436.42	583.29
436.79	593.44
437.16	604.65
437.53	616.47
437.90	627.84
438.27	639.56
438.64	651.31
439.01	662.63
439.38	671.88
439.75	681.68
440.13	692.40
440.50	702.68
440.87	711.22
441.24	719.88
441.61	729.26
441.98	736.00
442.35	743.94
442.72	752.58
443.09	760.77
443.46	765.71
443.83	769.10
444.20	772.42
444.57	776.30
444.94	777.96
445.31	779.74
445.68	782.47
446.05	782.93
446.42	782.04
446.79	780.65
447.16	778.99
447.53	777.58
447.90	773.13
448.27	768.67
448.64	762.43
449.01	757.79
449.37	750.23
449.74	742.51
450.11	734.06
450.48	723.85
450.85	713.25
451.22	704.35
451.59	695.80
451.96	687.56
452.33	677.06
452.70	667.70
453.07	656.25
453.43	643.71
453.80	632.72
454.17	622.17
454.54	612.09
454.91	601.43
455.28	590.79
455.65	580.96
456.02	572.47
456.38	564.30
456.75	554.15
457.12	545.51
457.49	537.44
457.86	528.54
458.23	521.96
458.59	514.57
458.96	507.21
459.33	500.45
459.70	493.60
460.07	488.11
460.43	481.88
460.80	476.42
461.17	471.75
461.54	466.51
461.91	461.31
462.27	455.88
462.64	451.56
463.01	447.02
463.38	442.82
463.74	436.95
464.11	432.84
464.48	429.31
464.85	425.38
465.21	422.66
465.58	419.86
465.95	415.90
466.32	412.82
466.68	409.55
467.05	406.77
467.42	403.99
467.78	400.87
468.15	398.01
468.52	396.01
468.88	393.06
469.25	390.45
469.62	388.50
469.98	386.50
470.35	384.38
470.72	382.38
471.08	379.90
471.45	378.12
471.82	376.51
472.18	374.58
472.55	373.34
472.92	371.36
473.28	369.60
473.65	368.20
474.02	366.87
474.38	365.71
474.75	364.44
475.11	363.15
475.48	362.28
475.85	361.37
476.21	360.16
476.58	359.19
476.94	358.55
477.31	357.65
477.67	356.88
478.04	356.37
478.41	355.80
478.77	356.24
479.14	355.69
479.50	355.24
479.87	355.10
480.23	354.91
480.60	354.65
480.96	354.36
481.33	354.52
481.69	354.34
482.06	354.40
482.42	354.47
482.79	354.60
483.15	354.58
483.52	355.03
483.88	355.11
484.25	355.35
484.61	355.75
484.98	356.19
485.34	357.00
485.71	357.50
486.07	358.12
486.44	358.03
486.80	358.79
487.17	359.34
487.53	360.32
487.90	361.18
488.26	362.60
488.62	363.87
488.99	364.70
489.35	366.03
489.72	367.26
490.08	368.50
490.44	369.77
490.81	371.39
491.17	372.67
491.54	374.60
491.90	376.50
492.26	378.19
492.63	380.16
492.99	381.85
493.36	383.88
493.72	386.26
494.08	388.57
494.45	391.00
494.81	393.78
495.17	396.17
495.54	398.90
495.90	401.40
496.26	404.21
496.63	407.20
496.99	410.00
497.35	413.08
497.72	416.11
498.08	419.24
498.44	422.62
498.80	426.20
499.17	429.39
499.53	432.70
499.89	436.46
500.26	439.88
500.62	443.64
500.98	447.43
501.34	451.06
501.71	454.94
502.07	458.87
502.43	462.58
502.79	466.50
503.16	470.51
503.52	474.42
503.88	478.57
504.24	482.82
504.60	487.26
504.97	491.73
505.33	496.17
505.69	501.21
506.05	505.73
506.41	510.23
506.78	515.01
507.14	519.75
507.50	524.47
507.86	529.57
508.22	534.42
508.59	539.20
508.95	544.32
509.31	549.86
509.67	554.99
510.03	560.19
510.39	565.47
510.75	570.64
511.12	576.07
511.48	581.38
511.84	586.51
512.20	591.81
512.56	597.28
512.92	602.91
513.28	608.17
513.64	613.52
514.00	619.36
514.37	625.05
514.73	630.92
515.09	636.71
515.45	642.54
515.81	648.53
516.17	654.52
516.53	660.28
516.89	665.74
517.25	671.90
517.61	678.56
517.97	684.91
518.33	691.57
518.69	698.21
519.05	704.81
519.41	711.62
519.77	719.03
520.13	725.61
520.49	732.30
520.85	741.72
521.21	749.02
521.57	755.70
521.93	762.32
522.29	769.35
522.65	776.05
523.01	782.89
523.37	789.00
523.73	796.09
524.09	803.10
524.45	809.82
524.81	816.68
525.17	823.50
525.53	830.56
525.89	837.32
526.25	844.19
526.61	851.09
526.97	858.43
527.33	865.42
527.68	873.67
528.04	881.32
528.40	886.06
528.76	893.68
529.12	901.41
529.48	909.47
529.84	916.85
530.20	925.25
530.56	933.38
530.91	942.17
531.27	950.33
531.63	958.42
531.99	966.87
532.35	975.10
532.71	983.32
533.07	991.69
533.42	1001.13
533.78	1009.59
534.14	1018.18
534.50	1026.22
534.86	1034.72
535.21	1042.17
535.57	1050.66
535.93	1058.91
536.29	1067.15
536.65	1075.64
537.00	1083.74
537.36	1092.02
537.72	1099.76
538.08	1107.80
538.44	1115.70
538.79	1123.43
539.15	1131.49
539.51	1140.01
539.87	1147.69
540.22	1155.14
540.58	1162.95
540.94	1169.40
541.29	1176.61
541.65	1183.50
542.01	1191.19
542.37	1197.59
542.72	1203.97
543.08	1210.09
543.44	1217.09
543.79	1223.03
544.15	1229.55
544.51	1236.04
544.87	1242.47
545.22	1248.36
545.58	1253.85
545.94	1259.51
546.29	1264.88
546.65	1270.15
547.01	1274.60
547.36	1280.01
547.72	1285.23
548.07	1289.78
548.43	1294.57
548.79	1299.33
549.14	1304.05
549.50	1308.57
549.86	1313.10
550.21	1317.68
550.57	1322.46
550.92	1326.25
551.28	1330.19
551.64	1333.62
551.99	1337.58
552.35	1341.18
552.70	1345.25
553.06	1349.43
553.41	1353.28
553.77	1357.70
554.13	1361.76
554.48	1365.89
554.84	1369.49
555.19	1373.10
555.55	1377.55
555.90	1380.57
556.26	1383.34
556.61	1385.98
556.97	1388.01
557.32	1390.33
557.68	1393.21
558.03	1395.66
558.39	1398.44
558.74	1401.42
559.10	1403.24
559.45	1404.84
559.81	1406.78
560.16	1407.97
560.52	1409.21
560.87	1410.78
561.23	1411.48
561.58	1412.87
561.94	1413.19
562.29	1413.38
562.64	1413.96
563.00	1413.17
563.35	1413.62
563.71	1414.20
564.06	1415.19
564.42	1415.76
564.77	1416.89
565.12	1417.37
565.48	1418.40
565.83	1418.71
566.19	1418.52
566.54	1419.05
566.89	1419.50
567.25	1419.96
567.60	1420.86
567.96	1422.00
568.31	1422.30
568.66	1422.64
569.02	1421.59
569.37	1421.47
569.72	1421.90
570.08	1421.02
570.43	1420.44
570.78	1420.08
571.14	1419.27
571.49	1417.60
571.84	1416.31
572.20	1414.69
572.55	1413.21
572.90	1410.74
573.26	1408.69
573.61	1406.68
573.96	1404.42
574.31	1401.72
574.67	1398.93
575.02	1395.67
575.37	1391.67
575.72	1388.28
576.08	1385.15
576.43	1381.60
576.78	1378.23
577.13	1374.13
577.49	1370.84
577.84	1367.77
578.19	1364.64
578.54	1361.31
578.90	1358.38
579.25	1355.42
579.60	1352.22
579.95	1348.57
580.30	1344.87
580.66	1340.98
581.01	1336.95
581.36	1332.81
581.71	1329.05
582.06	1325.45
582.42	1321.71
582.77	1317.98
583.12	1314.01
583.47	1309.89
583.82	1306.72
584.17	1302.89
584.53	1299.77
584.88	1295.43
585.23	1291.52
585.58	1286.39
585.93	1281.89
586.28	1277.38
586.63	1272.58
586.98	1267.20
587.34	1262.79
587.69	1258.04
588.04	1253.54
588.39	1249.47
588.74	1245.20
589.09	1241.20
589.44	1236.14
589.79	1231.85
590.14	1227.72
590.49	1223.40
590.84	1219.05
591.19	1214.54
591.54	1210.27
591.89	1205.38
592.25	1202.42
592.60	1197.71
592.95	1193.62
593.30	1189.09
593.65	1184.12
594.00	1179.18
594.35	1177.60
594.70	1172.54
595.05	1167.90
595.40	1162.97
595.75	1157.84
596.10	1152.97
596.45	1147.77
596.80	1143.34
597.15	1138.26
597.50	1133.03
597.85	1128.58
598.19	1123.58
598.54	1118.27
598.89	1112.95
599.24	1108.50
599.59	1102.68
599.94	1097.60
600.29	1092.98
600.64	1088.13
600.99	1083.46
601.34	1079.30
601.69	1071.98
602.04	1067.65
602.39	1063.10
602.74	1059.05
603.08	1054.90
603.43	1051.02
603.78	1046.58
604.13	1041.75
604.48	1037.02
604.83	1032.14
605.18	1026.87
605.53	1022.12
605.87	1017.85
606.22	1013.81
606.57	1008.75
606.92	1003.83
607.27	999.58
607.62	994.89
607.96	990.70
608.31	986.68
608.66	982.14
609.01	977.78
609.36	973.16
609.70	968.72
610.05	964.20
610.40	959.60
610.75	954.80
611.10	950.52
611.44	945.94
611.79	941.74
612.14	937.67
612.49	933.05
612.83	928.98
613.18	924.66
613.53	920.13
613.88	915.53
614.22	911.13
614.57	906.35
614.92	901.87
615.27	897.65
615.61	892.80
615.96	888.39
616.31	884.05
616.65	879.73
617.00	875.16
617.35	870.50
617.70	866.20
618.04	861.59
618.39	857.04
618.74	853.23
619.08	848.59
619.43	843.98
619.78	839.53
620.12	834.77
620.47	830.19
620.82	825.34
621.16	821.07
621.51	817.29
621.85	813.10
622.20	808.64
622.55	803.83
622.89	799.75
623.24	795.39
623.59	790.93
623.93	786.61
624.28	782.44
624.62	779.24
624.97	775.32
625.32	771.39
625.66	767.10
626.01	762.74
626.35	758.86
626.70	755.10
627.04	751.56
627.39	747.60
627.73	743.94
628.08	740.39
628.43	736.32
628.77	732.00
629.12	728.10
629.46	724.74
629.81	721.77
630.15	718.03
630.50	714.40
630.84	710.84
631.19	707.43
631.53	704.19
631.88	699.70
632.22	695.65
632.57	692.35
632.91	688.83
633.26	685.49
633.60	681.79
633.95	677.96
634.29	674.01
634.64	670.39
634.98	666.53
635.32	663.30
635.67	660.36
636.01	656.97
636.36	653.41
636.70	650.14
637.05	646.31
637.39	643.08
637.73	639.73
638.08	636.48
638.42	632.89
638.77	629.17
639.11	625.55
639.45	621.87
639.80	618.14
640.14	614.73
640.49	611.29
640.83	608.00
641.17	605.20
641.52	602.13
641.86	599.04
642.20	596.55
642.55	593.13
642.89	589.93
643.23	586.93
643.58	584.33
643.92	580.85
644.26	577.84
644.61	575.10
644.95	572.07
645.29	568.86
645.64	566.04
645.98	563.00
646.32	560.37
646.66	557.49
647.01	554.52
647.35	551.85
647.69	549.00
648.04	546.56
648.38	543.63
648.72	540.90
649.06	538.26
649.41	535.13
649.75	532.29
650.09	529.34
650.43	526.51
650.78	523.49
651.12	520.79
651.46	518.04
651.80	515.08
652.14	512.37
652.49	510.11
652.83	507.35
653.17	504.88
653.51	502.02
653.85	499.73
654.20	497.35
654.54	494.85
654.88	492.17
655.22	489.95
655.56	487.63
655.90	485.41
656.25	483.04
656.59	480.68
656.93	478.43
657.27	476.55
657.61	473.99
657.95	471.62
658.29	469.26
658.64	467.14
658.98	464.91
659.32	462.57
659.66	459.95
660.00	457.82
660.34	455.73
660.68	453.80
661.02	451.70
661.36	449.58
661.70	447.21
662.05	445.10
662.39	443.05
662.73	440.97
663.07	439.37
663.41	437.17
663.75	434.95
664.09	432.89
664.43	430.56
664.77	428.97
665.11	427.15
665.45	425.53
665.79	423.63
666.13	421.56
666.47	419.75
666.81	417.88
667.15	415.78
667.49	413.89
667.83	412.43
668.17	410.57
668.51	408.86
668.85	407.62
669.19	406.51
669.53	404.48
669.87	402.74
670.21	400.63
670.55	399.15
670.89	398.12
671.23	396.51
671.57	394.88
671.91	393.18
672.25	391.53
672.58	390.10
672.92	388.33
673.26	386.99
673.60	385.45
673.94	384.10
674.28	382.93
674.62	381.73
674.96	379.82
675.30	378.51
675.64	377.12
675.97	375.52
676.31	373.59
676.65	371.86
676.99	370.63
677.33	369.10
677.67	367.64
678.01	365.74
678.34	364.49
678.68	363.39
679.02	361.93
679.36	360.69
679.70	359.11
680.04	357.94
680.37	356.78
680.71	355.53
681.05	354.42
681.39	353.30
681.73	351.91
682.06	350.80
682.40	349.61
682.74	348.63
683.08	347.65
683.42	346.50
683.75	345.70
684.09	344.28
684.43	343.26
684.77	342.14
685.10	341.12
685.44	339.93
685.78	338.72
686.12	337.71
686.45	336.52
686.79	335.45
687.13	334.57
687.46	333.43
687.80	332.59
688.14	331.38
688.48	330.13
688.81	329.16
689.15	328.36
689.49	327.33
689.82	326.17
690.16	324.93
690.50	324.01
690.83	322.89
691.17	321.84
691.51	320.85
691.84	320.00
692.18	319.04
692.52	318.04
692.85	317.30
693.19	316.65
693.52	315.91
693.86	314.95
694.20	313.89
694.53	312.86
694.87	311.78
695.21	310.87
695.54	310.09
695.88	309.12
696.21	307.81
696.55	306.97
696.88	306.10
697.22	305.04
697.56	304.29
697.89	303.40
698.23	302.66
698.56	301.90
698.90	301.17
699.23	300.37
699.57	299.64
699.90	298.53
700.24	297.54
700.58	296.74
700.91	296.23
701.25	296.28
701.58	296.41
701.92	295.96
702.25	295.36
702.59	294.60
702.92	293.89
703.26	293.42
703.59	292.69
703.93	292.72
704.26	292.39
704.60	291.93
704.93	291.33
705.26	290.63
705.60	290.12
705.93	289.30
706.27	288.88
706.60	288.57
706.94	288.56
707.27	287.92
707.61	287.34
707.94	286.67
708.27	285.35
708.61	283.95
708.94	283.23
709.28	282.61
709.61	281.91
709.94	281.57
710.28	281.05
710.61	280.54
710.95	279.24
711.28	279.20
711.61	278.45
711.95	278.10
712.28	277.52
712.61	276.86
712.95	276.82
713.28	276.71
713.61	275.98
713.95	274.95
714.28	274.58
714.61	273.95
714.95	273.29
715.28	272.62
715.61	272.22
715.95	271.68
716.28	271.07
716.61	270.85
716.95	270.20
717.28	269.70
717.61	269.20
717.94	268.68
718.28	267.50
718.61	267.06
718.94	266.55
719.27	266.17
719.61	265.76
719.94	265.10
720.27	264.12
720.60	263.61
720.94	263.30
721.27	262.93
721.60	262.86
721.93	262.56
722.27	262.67
722.60	262.33
722.93	261.91
723.26	261.79
723.59	261.28
723.93	261.07
724.26	260.80
724.59	260.37
724.92	260.27
725.25	260.27
725.59	259.84
725.92	259.66
726.25	259.35
726.58	259.23
726.91	258.89
727.24	258.81
727.57	258.60
727.91	258.13
728.24	257.93
728.57	257.52
728.90	257.36
729.23	256.70
729.56	257.01
729.89	256.78
730.22	256.33
730.55	255.97
730.89	255.64
731.22	255.35
731.55	255.11
731.88	254.81
732.21	254.33
732.54	254.03
732.87	253.66
733.20	253.44
733.53	253.06
733.86	252.92
734.19	252.46
734.52	252.31
734.85	252.80
735.18	252.38
735.51	252.39
735.84	252.20
736.17	252.26
736.50	251.44
736.83	252.48
737.16	252.25
737.49	252.24
737.82	251.99
738.15	251.91
738.48	251.71
738.81	251.43
739.14	251.21
739.47	251.08
739.80	250.88
740.13	250.79
740.46	250.55
740.79	250.20
741.12	250.05
741.45	249.74
741.78	248.99
742.11	249.10
742.44	248.58
742.77	248.57
743.10	248.22
743.43	247.99
743.75	246.59
744.08	247.75
744.41	247.46
744.74	247.22
745.07	246.67
745.40	246.80
745.73	247.06
746.06	246.92
746.39	246.79
746.71	246.55
747.04	246.19
747.37	245.97
747.70	246.04
748.03	245.95
748.36	245.90
748.68	245.70
749.01	245.13
749.34	245.04
749.67	244.75
750.00	244.71
750.33	245.30
750.65	245.44
750.98	243.99
751.31	243.87
751.64	243.74
751.97	244.22
752.29	243.95
752.62	243.30
752.95	243.00
753.28	242.68
753.60	242.47
753.93	242.65
754.26	242.64
754.59	242.15
754.91	241.89
755.24	241.78
755.57	241.60
755.90	241.45
756.22	241.29
756.55	241.00
756.88	240.71
757.20	239.84
757.53	239.33
757.86	239.32
758.19	239.23
758.51	239.21
758.84	238.55
759.17	238.35
759.49	238.28
759.82	238.70
760.15	238.73
760.47	238.64
760.80	238.22
761.13	238.28
761.45	238.05
761.78	237.94
762.11	237.81
762.43	237.65
762.76	237.74
763.08	237.76
763.41	237.69
763.74	237.66
764.06	237.66
764.39	237.61
764.71	237.34
765.04	237.15
765.37	236.98
765.69	237.01
766.02	236.81
766.34	236.73
766.67	236.26
767.00	236.38
767.32	236.86
767.65	237.43
767.97	237.16
768.30	237.26
768.62	237.23
768.95	237.09
769.27	237.13
769.60	237.09
769.92	236.80
770.25	236.59
770.57	236.29
770.90	236.14
771.22	236.06
771.55	236.16
771.87	236.10
772.20	235.89
772.52	236.58
772.85	237.63
773.17	237.53
773.50	237.40
773.82	237.20
774.15	236.65
774.47	235.99
774.80	235.87
775.12	235.79
775.45	235.71
775.77	235.55
776.09	235.47
776.42	235.38
776.74	235.63
777.07	235.61
777.39	235.67
777.72	235.60
778.04	235.68
778.36	235.51
778.69	235.69
779.01	235.81
779.33	234.90
779.66	233.80
779.98	233.68
780.31	233.70
780.63	234.05
780.95	234.07
781.28	233.95
781.60	233.86
781.92	233.84
782.25	233.77
782.57	233.90
782.89	233.85
783.22	233.75
783.54	233.52
783.86	233.54
784.19	233.40
784.51	233.63
784.83	233.41
785.16	233.29
785.48	233.01
785.80	232.86
786.12	233.01
786.45	233.08
786.77	233.21
787.09	233.12
787.42	232.63
787.74	232.69
788.06	232.63
788.38	232.56
788.71	232.37
789.03	232.45
789.35	232.43
789.67	232.14
789.99	232.18
790.32	232.05
790.64	232.25
790.96	233.06
791.28	232.68
791.61	232.54
791.93	232.61
792.25	232.54
792.57	233.22
792.89	232.86
793.21	232.86
793.54	232.61
793.86	232.47
794.18	232.58
794.50	232.31
794.82	232.35
795.14	232.39
795.47	232.65
795.79	232.54
796.11	232.30
796.43	232.43
796.75	232.39
797.07	232.46
797.39	232.31
797.71	231.64
798.04	231.71
798.36	231.76
798.68	231.76
799.00	231.82
799.32	231.31
799.64	231.58
799.96	231.44
800.28	231.63
800.60	231.56
800.92	231.55
801.24	231.50
801.56	231.57
801.89	231.45
802.21	231.51
802.53	231.34
802.85	231.56
803.17	231.87
803.49	231.69
803.81	231.50
804.13	231.36
804.45	231.30
804.77	231.26
805.09	231.35
805.41	231.26
805.73	231.03
806.05	230.73
806.37	230.66
806.69	230.67
807.01	230.66
807.33	230.78
807.65	230.46
807.97	230.99
808.28	230.83
808.60	230.95
808.92	230.70
809.24	231.31
809.56	231.05
809.88	230.77
810.20	230.82
810.52	231.03
810.84	230.99
811.16	230.75
811.48	230.80
811.80	231.10
812.12	230.90
812.43	231.13
812.75	231.23
813.07	231.21
813.39	231.23
813.71	230.99
814.03	230.97
814.35	231.06
814.67	230.51
814.98	230.49
815.30	230.41
815.62	230.30
815.94	229.65
816.26	230.11
816.58	229.87
816.89	229.95
817.21	229.70
817.53	229.72
817.85	229.76
818.17	229.70
818.48	229.32
818.80	229.68
819.12	229.58
819.44	229.41
819.76	229.31
820.07	229.29
820.39	229.40
820.71	229.42
821.03	229.33
821.34	229.40
821.66	229.44
821.98	229.47
822.30	229.50
822.61	230.03
822.93	229.51
823.25	229.57
823.57	229.48
823.88	229.77
824.20	229.75
824.52	229.99
824.83	229.90
825.15	229.75
825.47	229.65
825.79	229.75
826.10	229.69
826.42	229.62
826.74	229.66
827.05	229.63
827.37	229.69
827.69	229.71
828.00	229.83
828.32	229.87
828.64	229.77
828.95	230.26
829.27	230.05
829.58	230.10
829.90	230.26
830.22	230.36
830.53	230.05
830.85	229.96
831.17	229.72
831.48	229.79
831.80	229.90
832.11	229.92
832.43	229.72
832.75	229.87
833.06	230.46
833.38	230.21
833.69	230.04
834.01	230.07
834.32	230.07
834.64	229.90
834.96	229.89
835.27	229.91
835.59	229.53
835.90	229.35
836.22	229.46
836.53	229.28
836.85	229.16
837.16	230.15
837.48	230.13
837.79	230.34
838.11	230.37
838.42	230.30
838.74	230.38
839.05	230.35
839.37	230.24
839.68	229.61
840.00	229.59
840.31	229.86
840.63	229.70
840.94	229.64
841.26	229.50
841.57	229.57
841.88	229.66
842.20	229.52
842.51	229.42
842.83	229.21
843.14	230.03
843.46	230.06
843.77	229.54
844.08	229.41
844.40	229.10
844.71	228.91
845.03	228.95
845.34	228.80
845.65	228.70
845.97	228.73
846.28	228.77
846.60	228.90
846.91	228.64
847.22	228.50
847.54	228.78
847.85	228.81
848.16	228.59
848.48	228.31
848.79	228.62
849.10	228.67
849.42	228.88
849.73	228.03
850.04	227.91
850.36	227.39
850.67	227.56
850.98	227.63
851.30	227.81
851.61	227.74
851.92	227.68
852.23	228.03
852.55	228.04
852.86	228.14
853.17	228.18
853.49	228.33
853.80	228.68
854.11	228.58
854.42	228.76
854.74	228.66
855.05	228.73
855.36	228.29
855.67	228.38
855.99	228.32
856.30	229.39
856.61	229.36
856.92	229.45
857.23	229.43
857.55	229.43
857.86	229.40
858.17	229.48
858.48	229.35
858.79	229.14
859.11	229.19
859.42	229.07
859.73	228.86
860.04	228.92
860.35	228.61
860.66	228.30
860.98	228.27
861.29	228.46
861.60	228.44
861.91	228.64
862.22	228.44
862.53	228.20
862.84	227.15
863.16	227.40
863.47	227.29
863.78	227.27
864.09	227.20
864.40	227.09
864.71	227.13
865.02	227.22
865.33	227.17
865.64	227.01
865.95	227.04
866.27	227.73
866.58	227.60
866.89	227.67
867.20	227.62
867.51	227.41
867.82	227.31
868.13	227.60
868.44	227.48
868.75	227.64
869.06	227.80
869.37	227.92
869.68	227.66
869.99	227.86
870.30	228.01
870.61	228.15
870.92	228.14
871.23	228.08
871.54	228.28
871.85	228.48
872.16	228.60
872.47	228.51
872.78	227.94
873.09	228.09
873.40	228.02
873.71	228.17
874.02	228.23
874.33	228.25
874.64	228.05
874.95	228.20
875.26	228.04
875.56	228.06
875.87	227.87
876.18	227.83
876.49	228.66
876.80	228.47
877.11	228.41
877.42	228.42
877.73	228.32
878.04	228.13
878.35	228.10
878.66	228.18
878.96	228.15
879.27	228.19
879.58	228.06
879.89	228.01
880.20	228.34
880.51	228.33
880.82	228.30
881.12	228.35
881.43	228.16
881.74	228.09
882.05	227.98
882.36	228.07
882.67	228.17
882.97	227.24
883.28	227.22
883.59	227.15
883.90	227.23
884.21	227.34
884.51	227.29
884.82	227.18
885.13	227.11
885.44	227.17
885.74	227.20
886.05	227.16
886.36	227.19
886.67	226.87
886.98	227.32
887.28	227.34
887.59	227.32
887.90	227.38
888.20	227.23
888.51	227.47
888.82	227.32
889.13	227.30
889.43	228.10
889.74	228.06
890.05	228.02
890.35	227.94
890.66	227.96
890.97	227.87
891.28	227.75
891.58	227.76
891.89	227.72
892.20	227.50
892.50	227.50
892.81	227.44
893.12	227.34
893.42	226.92
893.73	227.00
894.04	227.05
894.34	227.09
894.65	227.18
894.95	227.02
895.26	227.15
895.57	227.68
895.87	226.80
896.18	226.95
896.48	227.00
896.79	227.00
897.10	227.09
897.40	227.12
897.71	227.24
898.01	227.16
898.32	227.28
898.63	227.33
898.93	227.37
899.24	227.39
899.54	227.38
899.85	227.30
900.15	227.27
900.46	227.20
900.76	227.31
901.07	227.31
901.38	227.20
901.68	227.29
901.99	226.76
902.29	226.82
902.60	226.71
902.90	226.65
903.21	226.65
903.51	226.58
903.82	226.77
904.12	226.76
904.43	226.89
904.73	226.80
905.03	226.85
905.34	227.76
905.64	227.73
905.95	227.77
906.25	227.76
906.56	227.71
906.86	227.71
907.17	227.61
907.47	227.66
907.77	227.64
908.08	227.39
908.38	227.44
908.69	227.49
908.99	227.73
909.30	227.85
909.60	227.83
909.90	227.86
910.21	227.55
910.51	227.46
910.81	227.35
911.12	227.43
911.42	227.44
911.73	226.41
912.03	226.58
912.33	226.77
912.64	226.83
912.94	226.74
913.24	226.55
913.55	226.39
913.85	226.39
914.15	226.62
914.46	226.81
914.76	226.70
915.06	226.68
915.37	226.46
915.67	226.26
915.97	226.33
916.27	226.12
916.58	226.32
916.88	226.23
917.18	226.21
917.49	226.76
917.79	226.73
918.09	226.91
918.39	227.14
918.70	227.11
919.00	227.11
919.30	227.60
919.60	227.65
919.91	227.77
920.21	227.78
920.51	227.62
920.81	227.56
921.12	227.73
921.42	227.75
921.72	227.86
922.02	228.03
922.32	228.18
922.63	228.32
922.93	228.78
923.23	228.95
923.53	228.91
923.83	228.37
924.13	228.51
924.44	228.41
924.74	228.56
925.04	228.77
925.34	228.77
925.64	228.40
925.94	228.48
926.24	228.91
926.55	228.91
926.85	228.99
927.15	228.95
927.45	228.99
927.75	228.90
928.05	228.86
928.35	228.77
928.65	228.88
928.95	228.89
929.26	228.54
929.56	228.66
929.86	228.81
930.16	228.75
930.46	228.60
930.76	228.72
931.06	228.26
931.36	227.90
931.66	228.04
931.96	228.20
932.26	228.20
932.56	227.86
932.86	227.93
933.16	227.97
933.46	227.97
933.76	227.85
934.06	228.06
934.36	228.42
934.66	228.40
934.96	228.27
935.26	228.31
935.56	228.49
935.86	228.26
936.16	228.17
936.46	228.07
936.76	228.09
937.06	227.90
937.36	227.90
937.66	228.09
937.96	227.98
938.26	227.78
938.56	227.77
938.86	227.76
939.16	227.89
939.46	228.06
939.76	228.09
940.06	228.10
940.35	227.85
940.65	227.40
940.95	227.53
941.25	227.23
941.55	227.09
941.85	226.90
942.15	227.07
942.45	227.33
942.75	227.28
943.04	227.32
943.34	227.55
943.64	227.58
943.94	227.33
944.24	227.35
944.54	227.43
944.84	227.38
945.13	227.28
945.43	227.13
945.73	226.93
946.03	226.93
946.33	226.83
946.62	226.86
946.92	226.85
947.22	226.90
947.52	227.03
947.82	227.23
948.11	227.21
948.41	227.04
948.71	226.70
949.01	226.85
949.31	226.70
949.60	226.59
949.90	226.65
950.20	226.72
950.50	226.72
950.79	226.49
951.09	226.65
951.39	226.67
951.69	226.60
951.98	226.82
952.28	226.79
952.58	226.75
952.87	226.67
953.17	226.76
953.47	226.66
953.76	226.62
954.06	226.40
954.36	226.30
954.66	226.22
954.95	226.59
955.25	226.66
955.55	226.76
955.84	226.64
956.14	226.73
956.44	226.72
956.73	226.57
957.03	226.78
957.32	226.69
957.62	226.59
957.92	226.86
958.21	226.73
958.51	227.88
958.81	228.02
959.10	228.20
959.40	228.40
959.69	228.40
959.99	228.54
960.29	228.63
960.58	228.64
960.88	229.03
961.17	228.89
961.47	228.91
961.76	228.88
962.06	229.16
962.36	228.94
962.65	229.02
962.95	229.09
963.24	228.90
963.54	228.92
963.83	229.00
964.13	228.91
964.42	228.62
964.72	227.83
965.01	227.85
965.31	227.82
965.60	227.58
965.90	228.24
966.19	228.07
966.49	228.05
966.78	228.03
967.08	227.92
967.37	227.92
967.67	227.80
967.96	228.01
968.26	227.88
968.55	228.11
968.85	228.07
969.14	228.15
969.43	228.18
969.73	228.19
970.02	228.19
970.32	228.09
970.61	228.23
970.91	227.95
971.20	227.82
971.49	227.72
971.79	227.89
972.08	227.28
972.38	227.34
972.67	227.35
972.96	227.53
973.26	227.40
973.55	227.55
973.85	227.53
974.14	227.42
974.43	227.47
974.73	227.30
975.02	227.26
975.31	227.17
975.61	227.10
975.90	226.96
976.19	226.88
976.49	226.94
976.78	226.93
977.07	226.96
977.37	227.02
977.66	227.09
977.95	226.80
978.24	226.82
978.54	227.00
978.83	226.90
979.12	226.78
979.42	226.75
979.71	226.60
980.00	226.60
980.29	226.60
980.59	226.45
980.88	226.61
981.17	226.56
981.46	226.53
981.76	226.64
982.05	226.95
982.34	226.93
982.63	226.98
982.93	226.90
983.22	227.18
983.51	227.23
983.80	227.30
984.09	227.61
984.39	227.51
984.68	227.40
984.97	227.50
985.26	227.37
985.55	227.39
985.85	227.23
986.14	227.30
986.43	227.37
986.72	227.37
987.01	227.15
987.30	227.19
987.59	227.17
987.89	227.19
988.18	226.99
988.47	226.89
988.76	226.73
989.05	226.75
989.34	226.49
989.63	226.68
989.92	226.53
990.22	226.31
990.51	226.27
990.80	226.19
991.09	226.16
991.38	226.38
991.67	226.32
991.96	226.31
992.25	226.37
992.54	226.15
992.83	226.15
993.12	226.16
993.41	226.30
993.70	226.69
993.99	226.89
994.28	226.87
994.58	227.10
994.87	227.09
995.16	227.03
995.45	227.04
995.74	226.72
996.03	227.03
996.32	227.20
996.61	227.40
996.90	227.39
997.19	227.38
997.48	227.32
997.77	227.27
998.06	227.30
998.34	227.23
998.63	227.23
998.92	227.30
999.21	227.42
999.50	227.44
999.79	227.14
1000.08	227.07
1000.37	227.10
1000.66	227.03
1000.95	227.24
1001.24	227.38
1001.53	227.39
1001.82	227.40
1002.11	227.13
1002.40	227.29
1002.68	227.47
1002.97	228.13
1003.26	228.07
1003.55	227.85
1003.84	227.84
1004.13	228.09
1004.42	228.06
1004.71	228.10
1004.99	227.99
1005.28	228.23
1005.57	228.14
1005.86	228.10
1006.15	228.06
1006.44	227.92
1006.72	227.90
1007.01	227.76
1007.30	227.77
1007.59	227.74
1007.88	227.69
1008.17	227.67
1008.45	227.44
1008.74	227.01
1009.03	226.62
1009.32	226.57
1009.60	226.63
1009.89	226.60
1010.18	226.30
1010.47	226.21
1010.76	226.31
1011.04	226.25
1011.33	226.25
1011.62	226.18
1011.91	226.28
1012.19	226.32
1012.48	226.35
1012.77	226.50
1013.05	226.90
1013.34	226.87
1013.63	226.76
1013.92	226.86
1014.20	226.78
1014.49	226.82
1014.78	226.97
1015.06	226.65
1015.35	226.63
1015.64	226.80
1015.92	226.94
1016.21	226.94
1016.50	226.97
1016.78	227.08
1017.07	227.20
1017.36	226.96
1017.64	226.95
1017.93	226.91
1018.22	226.71
1018.50	226.73
1018.79	226.65
1019.08	226.19
1019.36	226.14
1019.65	226.21
1019.93	226.42
1020.22	226.64
1020.51	227.09
1020.79	226.92
1021.08	224.30
1021.36	224.90
1021.65	227.20
1021.94	226.10
1022.22	225.60
1022.51	226.80
1022.79	230.70
1023.08	228.30
1023.36	238.10
1023.65	223.60
>>>>>End Processed Spectral Data<<<<<
