SpectraSuite Data File
++++++++++++++++++++++++++++++++++++
Date: Wed Sep 04 17:29:16 EDT 2013
User: lab3
Dark Spectrum Present: Yes
Reference Spectrum Present: No
Number of Sampled Component Spectra: 1
Spectrometers: USB2E7196
Integration Time (usec): 337000 (USB2E7196)
Spectra Averaged: 10 (USB2E7196)
Boxcar Smoothing: 10 (USB2E7196)
Correct for Electrical Dark: No (USB2E7196)
Strobe/Lamp Enabled: No (USB2E7196)
Correct for Detector Non-linearity: No (USB2E7196)
Correct for Stray Light: No (USB2E7196)
Number of Pixels in Processed Spectrum: 2048
>>>>>Begin Processed Spectral Data<<<<<
339.09	0.00
339.48	212.90
339.86	213.30
340.24	215.40
340.63	218.30
341.01	234.90
341.39	219.30
341.78	222.20
342.16	227.10
342.54	222.40
342.93	213.19
343.31	223.96
343.69	224.50
344.07	225.03
344.46	225.60
344.84	226.01
345.22	225.64
345.60	226.09
345.99	226.34
346.37	226.30
346.75	226.42
347.13	226.52
347.52	226.66
347.90	227.03
348.28	227.11
348.66	227.31
349.05	227.15
349.43	227.21
349.81	227.19
350.19	227.32
350.57	227.37
350.96	227.44
351.34	227.50
351.72	227.59
352.10	227.71
352.48	227.69
352.87	227.71
353.25	227.69
353.63	227.59
354.01	227.55
354.39	227.67
354.77	227.78
355.15	228.06
355.54	228.02
355.92	227.85
356.30	227.97
356.68	228.57
357.06	228.69
357.44	228.63
357.82	228.67
358.20	229.44
358.58	229.49
358.97	229.64
359.35	229.92
359.73	230.13
360.11	230.17
360.49	230.13
360.87	230.13
361.25	230.27
361.63	230.67
362.01	230.78
362.39	230.71
362.77	230.83
363.15	230.84
363.53	230.90
363.91	230.93
364.29	230.97
364.67	230.23
365.05	230.23
365.43	230.42
365.81	230.58
366.19	230.36
366.57	230.82
366.95	230.72
367.33	230.42
367.71	230.40
368.09	230.60
368.47	230.66
368.85	230.70
369.23	230.90
369.61	230.58
369.99	230.89
370.37	230.95
370.75	231.46
371.13	231.14
371.51	231.02
371.89	231.14
372.27	231.12
372.65	231.24
373.03	231.24
373.41	231.14
373.78	231.02
374.16	230.54
374.54	230.19
374.92	230.20
375.30	230.23
375.68	230.07
376.06	230.00
376.44	229.94
376.82	229.93
377.19	229.85
377.57	229.80
377.95	229.36
378.33	229.36
378.71	228.73
379.09	228.88
379.47	228.94
379.84	228.72
380.22	228.58
380.60	228.27
380.98	228.16
381.36	228.12
381.73	228.05
382.11	228.11
382.49	228.12
382.87	227.90
383.25	227.88
383.62	228.90
384.00	228.65
384.38	228.61
384.76	228.71
385.13	229.03
385.51	229.03
385.89	229.02
386.27	229.02
386.64	229.10
387.02	229.02
387.40	228.87
387.78	228.94
388.15	229.02
388.53	228.90
388.91	228.97
389.29	228.82
389.66	228.83
390.04	228.65
390.42	228.81
390.79	228.96
391.17	228.90
391.55	227.92
391.92	228.03
392.30	228.13
392.68	228.07
393.05	227.85
393.43	227.76
393.81	227.82
394.18	227.68
394.56	227.61
394.94	227.84
395.31	227.75
395.69	228.10
396.06	228.31
396.44	228.60
396.82	228.43
397.19	229.02
397.57	229.10
397.95	229.44
398.32	229.16
398.70	229.22
399.07	229.56
399.45	229.63
399.82	229.79
400.20	229.86
400.58	229.92
400.95	229.77
401.33	230.23
401.70	231.09
402.08	231.29
402.45	231.55
402.83	231.97
403.20	232.36
403.58	232.38
403.95	232.67
404.33	233.02
404.71	233.55
405.08	234.42
405.46	234.77
405.83	235.09
406.21	235.59
406.58	236.18
406.96	236.65
407.33	237.23
407.70	237.90
408.08	239.26
408.45	240.17
408.83	241.17
409.20	241.80
409.58	242.05
409.95	243.14
410.33	244.25
410.70	244.95
411.08	246.14
411.45	247.43
411.82	248.66
412.20	250.18
412.57	252.10
412.95	252.75
413.32	254.56
413.69	256.33
414.07	258.30
414.44	260.33
414.82	262.40
415.19	264.87
415.56	267.31
415.94	269.55
416.31	272.57
416.68	275.46
417.06	278.96
417.43	282.40
417.81	286.26
418.18	290.12
418.55	294.26
418.93	298.61
419.30	303.23
419.67	307.97
420.04	312.88
420.42	317.97
420.79	324.63
421.16	330.82
421.54	337.31
421.91	343.92
422.28	350.76
422.66	358.10
423.03	365.73
423.40	373.12
423.77	381.01
424.15	389.05
424.52	397.60
424.89	406.68
425.26	415.67
425.64	424.08
426.01	433.44
426.38	443.36
426.75	453.55
427.13	463.90
427.50	474.84
427.87	486.11
428.24	497.42
428.61	507.93
428.99	520.00
429.36	532.88
429.73	545.51
430.10	558.34
430.47	571.50
430.85	584.65
431.22	599.01
431.59	614.88
431.96	629.55
432.33	645.78
432.70	661.95
433.08	680.49
433.45	698.14
433.82	715.57
434.19	735.05
434.56	754.28
434.93	772.77
435.30	791.43
435.68	812.09
436.05	832.33
436.42	852.41
436.79	870.99
437.16	891.24
437.53	912.77
437.90	934.01
438.27	955.21
438.64	977.40
439.01	998.09
439.38	1016.17
439.75	1034.30
440.13	1054.65
440.50	1073.61
440.87	1089.44
441.24	1105.91
441.61	1124.23
441.98	1137.82
442.35	1153.34
442.72	1169.41
443.09	1184.92
443.46	1194.50
443.83	1201.92
444.20	1208.04
444.57	1216.11
444.94	1220.49
445.31	1224.92
445.68	1229.48
446.05	1231.60
446.42	1230.24
446.79	1228.74
447.16	1226.54
447.53	1225.11
447.90	1218.10
448.27	1211.16
448.64	1200.77
449.01	1193.47
449.37	1179.88
449.74	1166.66
450.11	1151.23
450.48	1133.39
450.85	1115.27
451.22	1100.15
451.59	1085.24
451.96	1071.20
452.33	1052.77
452.70	1035.90
453.07	1015.65
453.43	994.94
453.80	975.40
454.17	956.37
454.54	938.35
454.91	919.28
455.28	900.42
455.65	882.72
456.02	865.71
456.38	850.81
456.75	832.22
457.12	816.88
457.49	801.87
457.86	787.02
458.23	774.47
458.59	760.64
458.96	746.80
459.33	734.48
459.70	722.62
460.07	713.06
460.43	701.80
460.80	691.54
461.17	682.46
461.54	672.74
461.91	663.66
462.27	654.10
462.64	646.23
463.01	637.68
463.38	629.34
463.74	620.15
464.11	612.90
464.48	606.77
464.85	599.69
465.21	594.68
465.58	589.14
465.95	582.78
466.32	577.55
466.68	572.01
467.05	566.62
467.42	561.08
467.78	555.23
468.15	550.20
468.52	546.20
468.88	540.76
469.25	536.18
469.62	532.61
469.98	528.69
470.35	524.73
470.72	520.99
471.08	517.20
471.45	514.14
471.82	511.00
472.18	507.29
472.55	504.96
472.92	501.70
473.28	498.78
473.65	496.11
474.02	493.40
474.38	491.30
474.75	489.35
475.11	487.35
475.48	485.79
475.85	484.23
476.21	482.71
476.58	481.70
476.94	480.76
477.31	479.53
477.67	478.61
478.04	477.97
478.41	477.47
478.77	477.79
479.14	477.19
479.50	477.01
479.87	477.09
480.23	476.89
480.60	476.70
480.96	476.68
481.33	477.35
481.69	477.86
482.06	478.37
482.42	478.93
482.79	479.53
483.15	480.52
483.52	481.65
483.88	482.57
484.25	483.61
484.61	484.93
484.98	486.32
485.34	488.36
485.71	490.28
486.07	492.22
486.44	493.40
486.80	495.49
487.17	497.66
487.53	500.30
487.90	503.10
488.26	506.40
488.62	509.75
488.99	512.82
489.35	516.18
489.72	519.83
490.08	523.41
490.44	527.31
490.81	531.33
491.17	535.41
491.54	539.90
491.90	544.53
492.26	549.14
492.63	554.16
492.99	558.89
493.36	564.16
493.72	569.81
494.08	575.53
494.45	581.80
494.81	588.31
495.17	594.53
495.54	601.15
495.90	607.70
496.26	614.34
496.63	621.13
496.99	628.18
497.35	635.74
497.72	643.54
498.08	651.21
498.44	659.38
498.80	667.83
499.17	676.32
499.53	684.45
499.89	693.13
500.26	701.75
500.62	710.65
500.98	720.10
501.34	729.05
501.71	738.33
502.07	747.29
502.43	756.40
502.79	765.74
503.16	775.34
503.52	785.18
503.88	795.26
504.24	805.49
504.60	815.91
504.97	826.10
505.33	836.24
505.69	847.11
506.05	857.47
506.41	867.79
506.78	878.18
507.14	888.74
507.50	899.69
507.86	910.56
508.22	921.60
508.59	931.60
508.95	942.63
509.31	953.75
509.67	964.60
510.03	974.84
510.39	985.56
510.75	996.27
511.12	1006.93
511.48	1016.97
511.84	1027.22
512.20	1037.36
512.56	1047.36
512.92	1057.50
513.28	1067.07
513.64	1076.93
514.00	1086.91
514.37	1096.38
514.73	1106.30
515.09	1115.29
515.45	1124.25
515.81	1133.01
516.17	1142.17
516.53	1150.66
516.89	1158.69
517.25	1167.36
517.61	1176.87
517.97	1185.66
518.33	1194.03
518.69	1202.00
519.05	1210.57
519.41	1218.69
519.77	1226.95
520.13	1234.48
520.49	1241.77
520.85	1249.45
521.21	1256.89
521.57	1263.34
521.93	1269.81
522.29	1276.81
522.65	1283.08
523.01	1289.29
523.37	1294.98
523.73	1301.00
524.09	1306.50
524.45	1311.99
524.81	1317.12
525.17	1321.78
525.53	1326.48
525.89	1331.27
526.25	1335.96
526.61	1339.70
526.97	1343.91
527.33	1348.63
527.68	1354.16
528.04	1359.04
528.40	1363.32
528.76	1367.91
529.12	1372.65
529.48	1377.22
529.84	1380.76
530.20	1385.50
530.56	1389.84
530.91	1394.53
531.27	1398.49
531.63	1402.60
531.99	1406.98
532.35	1410.69
532.71	1414.61
533.07	1418.46
533.42	1421.87
533.78	1425.68
534.14	1430.29
534.50	1433.62
534.86	1437.12
535.21	1439.54
535.57	1442.74
535.93	1445.29
536.29	1448.08
536.65	1451.42
537.00	1454.42
537.36	1457.60
537.72	1460.24
538.08	1463.31
538.44	1465.62
538.79	1468.61
539.15	1471.55
539.51	1474.15
539.87	1476.81
540.22	1478.72
540.58	1481.28
540.94	1483.49
541.29	1485.07
541.65	1486.27
542.01	1488.79
542.37	1489.35
542.72	1489.98
543.08	1490.37
543.44	1492.04
543.79	1492.36
544.15	1492.65
544.51	1493.61
544.87	1494.15
545.22	1493.93
545.58	1493.65
545.94	1493.25
546.29	1492.31
546.65	1491.38
547.01	1490.26
547.36	1489.43
547.72	1488.99
548.07	1487.42
548.43	1486.45
548.79	1485.70
549.14	1484.60
549.50	1483.49
549.86	1482.70
550.21	1482.10
550.57	1481.85
550.92	1480.25
551.28	1479.22
551.64	1478.37
551.99	1477.27
552.35	1475.84
552.70	1475.08
553.06	1474.64
553.41	1474.04
553.77	1474.10
554.13	1473.58
554.48	1473.78
554.84	1473.56
555.19	1473.50
555.55	1474.41
555.90	1473.50
556.26	1472.51
556.61	1471.35
556.97	1469.33
557.32	1468.26
557.68	1467.37
558.03	1466.42
558.39	1465.60
558.74	1464.74
559.10	1463.23
559.45	1462.10
559.81	1460.62
560.16	1458.85
560.52	1456.79
560.87	1455.58
561.23	1453.68
561.58	1452.75
561.94	1449.84
562.29	1447.37
562.64	1444.98
563.00	1441.68
563.35	1440.15
563.71	1438.38
564.06	1437.05
564.42	1436.02
564.77	1434.91
565.12	1433.64
565.48	1432.62
565.83	1431.04
566.19	1429.54
566.54	1427.67
566.89	1425.92
567.25	1425.02
567.60	1424.43
567.96	1424.07
568.31	1422.87
568.66	1421.16
569.02	1418.80
569.37	1417.60
569.72	1416.65
570.08	1414.57
570.43	1412.35
570.78	1410.29
571.14	1408.15
571.49	1405.75
571.84	1403.46
572.20	1400.78
572.55	1397.96
572.90	1394.27
573.26	1391.56
573.61	1388.48
573.96	1385.69
574.31	1382.16
574.67	1378.34
575.02	1374.24
575.37	1369.88
575.72	1365.49
576.08	1361.64
576.43	1357.79
576.78	1353.96
577.13	1349.80
577.49	1346.14
577.84	1343.25
578.19	1339.86
578.54	1336.56
578.90	1333.42
579.25	1329.83
579.60	1326.11
579.95	1322.08
580.30	1317.98
580.66	1313.63
581.01	1309.30
581.36	1304.83
581.71	1300.66
582.06	1297.32
582.42	1293.63
582.77	1289.52
583.12	1285.94
583.47	1282.33
583.82	1278.49
584.17	1274.91
584.53	1271.53
584.88	1267.23
585.23	1263.29
585.58	1258.79
585.93	1254.14
586.28	1249.57
586.63	1244.76
586.98	1239.57
587.34	1235.56
587.69	1231.25
588.04	1227.19
588.39	1223.34
588.74	1219.62
589.09	1215.93
589.44	1210.93
589.79	1206.80
590.14	1202.83
590.49	1198.75
590.84	1194.19
591.19	1190.35
591.54	1185.77
591.89	1180.75
592.25	1178.01
592.60	1173.02
592.95	1168.74
593.30	1164.59
593.65	1159.70
594.00	1155.26
594.35	1153.96
594.70	1148.82
595.05	1144.40
595.40	1139.69
595.75	1134.68
596.10	1130.12
596.45	1125.57
596.80	1121.36
597.15	1116.57
597.50	1111.66
597.85	1107.14
598.19	1102.44
598.54	1097.56
598.89	1092.74
599.24	1088.70
599.59	1083.42
599.94	1078.81
600.29	1074.57
600.64	1070.03
600.99	1065.79
601.34	1061.77
601.69	1054.61
602.04	1050.77
602.39	1046.74
602.74	1043.03
603.08	1039.15
603.43	1035.17
603.78	1030.78
604.13	1026.49
604.48	1022.10
604.83	1017.63
605.18	1012.86
605.53	1008.51
605.87	1004.15
606.22	1000.35
606.57	995.84
606.92	991.35
607.27	987.48
607.62	983.06
607.96	979.30
608.31	975.80
608.66	971.72
609.01	967.97
609.36	963.83
609.70	959.73
610.05	955.32
610.40	951.24
610.75	946.80
611.10	942.61
611.44	938.04
611.79	933.67
612.14	929.46
612.49	925.31
612.83	921.40
613.18	917.35
613.53	913.07
613.88	908.62
614.22	903.84
614.57	898.93
614.92	894.49
615.27	889.67
615.61	884.76
615.96	880.18
616.31	875.32
616.65	871.33
617.00	866.82
617.35	862.30
617.70	857.59
618.04	853.00
618.39	848.57
618.74	844.80
619.08	840.56
619.43	836.20
619.78	831.73
620.12	827.10
620.47	822.30
620.82	817.67
621.16	813.50
621.51	809.68
621.85	805.99
622.20	801.56
622.55	797.33
622.89	793.08
623.24	789.05
623.59	784.98
623.93	780.51
624.28	776.24
624.62	773.19
624.97	769.75
625.32	765.71
625.66	761.66
626.01	757.31
626.35	753.30
626.70	749.62
627.04	746.27
627.39	742.32
627.73	738.78
628.08	735.27
628.43	730.99
628.77	726.81
629.12	722.81
629.46	719.35
629.81	715.97
630.15	712.56
630.50	708.61
630.84	704.77
631.19	700.76
631.53	697.46
631.88	692.66
632.22	688.44
632.57	685.32
632.91	681.65
633.26	678.35
633.60	675.04
633.95	671.33
634.29	666.99
634.64	663.70
634.98	660.04
635.32	656.54
635.67	653.71
636.01	650.40
636.36	646.89
636.70	643.68
637.05	640.12
637.39	636.77
637.73	633.81
638.08	631.07
638.42	627.88
638.77	624.29
639.11	620.73
639.45	617.04
639.80	613.26
640.14	610.21
640.49	606.59
640.83	603.25
641.17	600.28
641.52	597.48
641.86	594.21
642.20	591.65
642.55	588.47
642.89	585.25
643.23	582.21
643.58	579.70
643.92	576.36
644.26	573.62
644.61	570.75
644.95	567.52
645.29	564.13
645.64	561.59
645.98	558.75
646.32	556.31
646.66	553.76
647.01	550.85
647.35	548.13
647.69	545.67
648.04	543.15
648.38	540.30
648.72	537.62
649.06	534.80
649.41	531.65
649.75	528.78
650.09	526.01
650.43	523.21
650.78	520.19
651.12	517.50
651.46	514.61
651.80	511.89
652.14	509.39
652.49	507.39
652.83	504.62
653.17	502.20
653.51	499.44
653.85	497.11
654.20	494.81
654.54	492.21
654.88	489.62
655.22	487.40
655.56	484.97
655.90	482.69
656.25	480.39
656.59	478.27
656.93	476.13
657.27	474.25
657.61	471.87
657.95	469.68
658.29	467.34
658.64	465.12
658.98	462.91
659.32	460.38
659.66	457.76
660.00	455.51
660.34	453.25
660.68	451.11
661.02	449.00
661.36	446.93
661.70	444.65
662.05	442.62
662.39	440.54
662.73	438.80
663.07	437.10
663.41	435.21
663.75	432.92
664.09	431.02
664.43	428.59
664.77	426.82
665.11	424.81
665.45	422.89
665.79	421.12
666.13	419.08
666.47	417.24
666.81	415.46
667.15	413.63
667.49	412.00
667.83	410.52
668.17	408.77
668.51	407.06
668.85	405.59
669.19	404.35
669.53	402.34
669.87	400.38
670.21	398.43
670.55	396.80
670.89	395.75
671.23	394.11
671.57	392.69
671.91	391.19
672.25	389.62
672.58	388.52
672.92	386.75
673.26	385.50
673.60	384.12
673.94	382.72
674.28	381.29
674.62	379.82
674.96	378.15
675.30	376.68
675.64	375.18
675.97	373.90
676.31	372.09
676.65	370.63
676.99	369.63
677.33	368.09
677.67	366.80
678.01	365.04
678.34	363.76
678.68	362.50
679.02	361.11
679.36	359.81
679.70	358.40
680.04	357.12
680.37	355.70
680.71	354.42
681.05	353.29
681.39	352.12
681.73	350.83
682.06	349.60
682.40	348.46
682.74	347.50
683.08	346.51
683.42	345.20
683.75	344.24
684.09	342.79
684.43	341.75
684.77	340.55
685.10	339.44
685.44	338.33
685.78	337.08
686.12	336.04
686.45	335.01
686.79	333.91
687.13	333.00
687.46	331.96
687.80	331.30
688.14	330.12
688.48	329.17
688.81	328.21
689.15	327.60
689.49	326.52
689.82	325.53
690.16	324.12
690.50	323.40
690.83	322.33
691.17	321.24
691.51	320.35
691.84	319.48
692.18	318.48
692.52	317.30
692.85	316.54
693.19	316.07
693.52	315.12
693.86	314.09
694.20	313.20
694.53	312.44
694.87	311.30
695.21	310.28
695.54	309.29
695.88	308.24
696.21	307.09
696.55	306.22
696.88	305.33
697.22	304.45
697.56	303.60
697.89	302.80
698.23	302.27
698.56	301.37
698.90	300.79
699.23	300.04
699.57	299.49
699.90	298.56
700.24	297.42
700.58	296.84
700.91	296.34
701.25	296.39
701.58	296.16
701.92	295.76
702.25	295.18
702.59	294.54
702.92	293.99
703.26	293.49
703.59	293.01
703.93	293.10
704.26	292.74
704.60	292.20
704.93	291.55
705.26	290.76
705.60	290.32
705.93	289.44
706.27	289.06
706.60	288.62
706.94	288.49
707.27	287.69
707.61	287.10
707.94	286.50
708.27	285.23
708.61	284.20
708.94	283.41
709.28	282.97
709.61	282.27
709.94	281.79
710.28	281.20
710.61	280.60
710.95	279.25
711.28	279.21
711.61	278.66
711.95	278.30
712.28	277.67
712.61	277.08
712.95	277.00
713.28	276.80
713.61	276.07
713.95	275.25
714.28	274.95
714.61	274.41
714.95	273.90
715.28	273.19
715.61	272.48
715.95	272.00
716.28	271.35
716.61	271.08
716.95	270.45
717.28	269.96
717.61	269.38
717.94	268.98
718.28	267.87
718.61	267.30
718.94	266.74
719.27	266.33
719.61	265.92
719.94	265.24
720.27	264.40
720.60	264.03
720.94	263.69
721.27	263.42
721.60	263.13
721.93	262.75
722.27	262.80
722.60	262.55
722.93	262.20
723.26	261.95
723.59	261.46
723.93	261.26
724.26	261.11
724.59	260.83
724.92	260.53
725.25	260.39
725.59	260.09
725.92	259.91
726.25	259.56
726.58	259.25
726.91	258.88
727.24	258.75
727.57	258.45
727.91	258.01
728.24	257.74
728.57	257.36
728.90	257.15
729.23	256.60
729.56	256.80
729.89	256.51
730.22	256.14
730.55	255.90
730.89	255.51
731.22	255.07
731.55	254.68
731.88	254.43
732.21	253.99
732.54	253.59
732.87	253.24
733.20	253.10
733.53	252.89
733.86	252.81
734.19	252.50
734.52	252.36
734.85	252.86
735.18	252.49
735.51	252.59
735.84	252.40
736.17	252.40
736.50	251.80
736.83	252.66
737.16	252.52
737.49	252.34
737.82	252.19
738.15	252.13
738.48	252.05
738.81	251.81
739.14	251.59
739.47	251.46
739.80	251.30
740.13	251.20
740.46	250.90
740.79	250.56
741.12	250.23
741.45	249.90
741.78	249.04
742.11	249.13
742.44	248.63
742.77	248.59
743.10	248.19
743.43	247.92
743.75	246.80
744.08	247.84
744.41	247.50
744.74	247.31
745.07	246.96
745.40	246.92
745.73	247.22
746.06	247.17
746.39	247.13
746.71	246.80
747.04	246.56
747.37	246.47
747.70	246.41
748.03	246.34
748.36	246.40
748.68	246.26
749.01	245.72
749.34	245.59
749.67	245.36
750.00	245.40
750.33	245.97
750.65	245.88
750.98	244.42
751.31	244.36
751.64	244.21
751.97	244.57
752.29	244.40
752.62	243.72
752.95	243.49
753.28	243.14
753.60	243.00
753.93	243.09
754.26	243.00
754.59	242.68
754.91	242.42
755.24	242.24
755.57	242.12
755.90	241.99
756.22	241.74
756.55	241.47
756.88	241.11
757.20	240.37
757.53	239.99
757.86	239.94
758.19	239.94
758.51	239.80
758.84	239.20
759.17	238.91
759.49	238.91
759.82	239.30
760.15	239.36
760.47	239.29
760.80	238.83
761.13	238.76
761.45	238.62
761.78	238.54
762.11	238.36
762.43	238.20
762.76	238.14
763.08	238.22
763.41	238.22
763.74	238.15
764.06	237.96
764.39	237.91
764.71	237.80
765.04	237.61
765.37	237.48
765.69	237.34
766.02	237.30
766.34	237.17
766.67	236.63
767.00	236.70
767.32	237.11
767.65	237.62
767.97	237.56
768.30	237.53
768.62	237.46
768.95	237.22
769.27	237.11
769.60	237.20
769.92	236.96
770.25	236.60
770.57	236.41
770.90	236.37
771.22	236.14
771.55	236.12
771.87	236.05
772.20	235.96
772.52	236.73
772.85	237.71
773.17	237.58
773.50	237.45
773.82	237.26
774.15	236.73
774.47	236.03
774.80	235.85
775.12	235.81
775.45	235.77
775.77	235.87
776.09	235.91
776.42	235.83
776.74	236.08
777.07	236.10
777.39	236.06
777.72	235.86
778.04	236.05
778.36	235.87
778.69	235.95
779.01	236.03
779.33	235.17
779.66	234.14
779.98	234.08
780.31	234.10
780.63	234.40
780.95	234.57
781.28	234.65
781.60	234.53
781.92	234.44
782.25	234.34
782.57	234.27
782.89	234.10
783.22	233.99
783.54	233.67
783.86	233.72
784.19	233.69
784.51	233.82
784.83	233.64
785.16	233.59
785.48	233.50
785.80	233.35
786.12	233.48
786.45	233.33
786.77	233.33
787.09	233.19
787.42	232.80
787.74	232.67
788.06	232.68
788.38	232.60
788.71	232.42
789.03	232.47
789.35	232.53
789.67	232.36
789.99	232.32
790.32	232.21
790.64	232.26
790.96	233.02
791.28	232.75
791.61	232.60
791.93	232.63
792.25	232.60
792.57	233.24
792.89	232.82
793.21	232.90
793.54	232.80
793.86	232.76
794.18	232.69
794.50	232.56
794.82	232.50
795.14	232.60
795.47	232.85
795.79	232.80
796.11	232.59
796.43	232.54
796.75	232.57
797.07	232.52
797.39	232.46
797.71	231.74
798.04	231.80
798.36	231.95
798.68	231.89
799.00	231.90
799.32	231.33
799.64	231.54
799.96	231.55
800.28	231.68
800.60	231.55
800.92	231.56
801.24	231.38
801.56	231.33
801.89	231.20
802.21	231.07
802.53	230.83
802.85	231.02
803.17	231.54
803.49	231.23
803.81	231.11
804.13	230.97
804.45	230.87
804.77	230.92
805.09	230.70
805.41	230.54
805.73	230.27
806.05	230.09
806.37	230.06
806.69	229.91
807.01	229.83
807.33	229.94
807.65	229.68
807.97	230.14
808.28	229.91
808.60	229.93
808.92	229.85
809.24	230.57
809.56	230.38
809.88	229.93
810.20	230.07
810.52	230.38
810.84	230.31
811.16	230.21
811.48	230.19
811.80	230.60
812.12	230.65
812.43	230.72
812.75	230.80
813.07	230.69
813.39	230.68
813.71	230.55
814.03	230.38
814.35	230.45
814.67	230.11
814.98	230.23
815.30	230.16
815.62	230.07
815.94	229.32
816.26	229.63
816.58	229.41
816.89	229.44
817.21	229.15
817.53	229.19
817.85	229.26
818.17	229.19
818.48	228.83
818.80	229.02
819.12	229.05
819.44	228.94
819.76	228.84
820.07	228.89
820.39	228.96
820.71	229.18
821.03	229.16
821.34	228.95
821.66	229.09
821.98	229.29
822.30	229.22
822.61	229.80
822.93	229.35
823.25	229.39
823.57	229.32
823.88	229.54
824.20	229.55
824.52	229.67
824.83	229.62
825.15	229.55
825.47	229.43
825.79	229.48
826.10	229.40
826.42	229.39
826.74	229.52
827.05	229.45
827.37	229.35
827.69	229.24
828.00	229.38
828.32	229.27
828.64	229.07
828.95	229.66
829.27	229.35
829.58	229.35
829.90	229.55
830.22	229.58
830.53	229.33
830.85	229.20
831.17	228.95
831.48	228.99
831.80	229.00
832.11	228.93
832.43	228.79
832.75	228.73
833.06	229.33
833.38	229.03
833.69	228.90
834.01	228.97
834.32	229.03
834.64	228.93
834.96	229.01
835.27	228.95
835.59	228.56
835.90	228.54
836.22	228.63
836.53	228.39
836.85	228.31
837.16	229.31
837.48	229.33
837.79	229.67
838.11	229.70
838.42	229.67
838.74	229.72
839.05	229.65
839.37	229.79
839.68	229.19
840.00	229.11
840.31	229.30
840.63	229.22
840.94	229.17
841.26	229.16
841.57	229.08
841.88	229.19
842.20	229.11
842.51	228.98
842.83	229.00
843.14	229.80
843.46	229.86
843.77	229.34
844.08	229.24
844.40	228.86
844.71	228.80
845.03	228.78
845.34	228.83
845.65	228.80
845.97	228.70
846.28	228.81
846.60	228.93
846.91	228.84
847.22	228.85
847.54	228.99
847.85	229.00
848.16	228.99
848.48	228.91
848.79	229.29
849.10	229.31
849.42	229.32
849.73	228.52
850.04	228.49
850.36	228.10
850.67	228.26
850.98	228.36
851.30	228.44
851.61	228.38
851.92	228.32
852.23	228.70
852.55	228.81
852.86	228.78
853.17	228.82
853.49	228.98
853.80	229.06
854.11	229.16
854.42	229.32
854.74	229.18
855.05	229.19
855.36	228.69
855.67	228.73
855.99	228.75
856.30	229.92
856.61	229.84
856.92	229.87
857.23	229.89
857.55	229.78
857.86	229.64
858.17	229.85
858.48	229.78
858.79	229.49
859.11	229.42
859.42	229.36
859.73	229.14
860.04	229.07
860.35	228.89
860.66	228.55
860.98	228.56
861.29	228.67
861.60	228.62
861.91	228.87
862.22	228.73
862.53	228.57
862.84	227.48
863.16	227.78
863.47	227.61
863.78	227.53
864.09	227.63
864.40	227.60
864.71	227.69
865.02	227.69
865.33	227.61
865.64	227.53
865.95	227.46
866.27	228.21
866.58	228.13
866.89	228.25
867.20	228.17
867.51	228.00
867.82	227.96
868.13	228.22
868.44	228.09
868.75	228.22
869.06	228.15
869.37	228.19
869.68	227.84
869.99	227.95
870.30	227.96
870.61	227.95
870.92	227.84
871.23	227.66
871.54	227.75
871.85	228.00
872.16	228.11
872.47	228.11
872.78	227.49
873.09	227.60
873.40	227.45
873.71	227.68
874.02	227.72
874.33	227.73
874.64	227.49
874.95	227.50
875.26	227.36
875.56	227.44
875.87	227.43
876.18	227.40
876.49	228.44
876.80	228.37
877.11	228.27
877.42	228.37
877.73	228.43
878.04	228.30
878.35	228.30
878.66	228.34
878.96	228.31
879.27	228.29
879.58	228.19
879.89	228.14
880.20	228.32
880.51	228.21
880.82	228.14
881.12	228.24
881.43	227.99
881.74	227.97
882.05	227.94
882.36	227.98
882.67	228.07
882.97	227.02
883.28	226.99
883.59	227.02
883.90	227.12
884.21	227.10
884.51	227.12
884.82	226.98
885.13	226.96
885.44	226.96
885.74	226.98
886.05	227.04
886.36	227.04
886.67	226.76
886.98	227.26
887.28	227.40
887.59	227.38
887.90	227.54
888.20	227.47
888.51	227.70
888.82	227.52
889.13	227.70
889.43	228.40
889.74	228.41
890.05	228.38
890.35	228.29
890.66	228.18
890.97	228.10
891.28	228.04
891.58	228.08
891.89	228.10
892.20	228.04
892.50	227.90
892.81	227.95
893.12	227.94
893.42	227.46
893.73	227.33
894.04	227.30
894.34	227.45
894.65	227.49
894.95	227.29
895.26	227.31
895.57	227.63
895.87	226.83
896.18	226.91
896.48	226.91
896.79	227.00
897.10	227.15
897.40	227.23
897.71	227.29
898.01	227.18
898.32	227.23
898.63	227.25
898.93	227.37
899.24	227.31
899.54	227.31
899.85	227.24
900.15	227.33
900.46	227.33
900.76	227.35
901.07	227.38
901.38	227.40
901.68	227.65
901.99	227.23
902.29	227.22
902.60	227.18
902.90	227.23
903.21	227.21
903.51	227.20
903.82	227.37
904.12	227.35
904.43	227.41
904.73	227.43
905.03	227.57
905.34	228.45
905.64	228.49
905.95	228.44
906.25	228.61
906.56	228.54
906.86	228.53
907.17	228.34
907.47	228.35
907.77	228.30
908.08	228.10
908.38	228.13
908.69	228.34
908.99	228.48
909.30	228.52
909.60	228.49
909.90	228.51
910.21	228.32
910.51	228.27
910.81	228.21
911.12	228.27
911.42	228.21
911.73	227.29
912.03	227.32
912.33	227.60
912.64	227.59
912.94	227.45
913.24	227.29
913.55	227.24
913.85	227.23
914.15	227.46
914.46	227.61
914.76	227.49
915.06	227.47
915.37	227.35
915.67	227.27
915.97	227.33
916.27	227.18
916.58	227.26
916.88	227.21
917.18	227.24
917.49	227.90
917.79	227.89
918.09	227.90
918.39	228.12
918.70	228.00
919.00	227.97
919.30	228.46
919.60	228.45
919.91	228.51
920.21	228.57
920.51	228.34
920.81	228.23
921.12	228.41
921.42	228.24
921.72	228.19
922.02	228.28
922.32	228.32
922.63	228.33
922.93	228.70
923.23	228.78
923.53	228.70
923.83	228.03
924.13	228.10
924.44	228.09
924.74	228.23
925.04	228.46
925.34	228.41
925.64	228.07
925.94	228.13
926.24	228.60
926.55	228.43
926.85	228.59
927.15	228.54
927.45	228.50
927.75	228.57
928.05	228.66
928.35	228.54
928.65	228.81
928.95	228.93
929.26	228.64
929.56	228.69
929.86	228.75
930.16	228.75
930.46	228.63
930.76	228.68
931.06	228.30
931.36	227.96
931.66	228.13
931.96	228.19
932.26	228.24
932.56	227.90
932.86	228.00
933.16	227.88
933.46	227.83
933.76	227.60
934.06	227.86
934.36	228.20
934.66	228.25
934.96	228.01
935.26	228.01
935.56	228.06
935.86	227.80
936.16	227.67
936.46	227.50
936.76	227.51
937.06	227.38
937.36	227.40
937.66	227.54
937.96	227.44
938.26	227.22
938.56	227.08
938.86	227.00
939.16	227.21
939.46	227.30
939.76	227.32
940.06	227.37
940.35	227.19
940.65	226.66
940.95	226.71
941.25	226.49
941.55	226.39
941.85	226.33
942.15	226.60
942.45	226.93
942.75	226.92
943.04	227.00
943.34	227.20
943.64	227.18
943.94	226.92
944.24	227.06
944.54	227.15
944.84	227.22
945.13	227.17
945.43	226.93
945.73	226.82
946.03	226.75
946.33	226.61
946.62	226.44
946.92	226.51
947.22	226.52
947.52	226.56
947.82	226.67
948.11	226.57
948.41	226.43
948.71	226.18
949.01	226.27
949.31	226.18
949.60	226.09
949.90	226.17
950.20	226.26
950.50	226.13
950.79	226.10
951.09	226.22
951.39	226.11
951.69	226.08
951.98	226.34
952.28	226.38
952.58	226.44
952.87	226.41
953.17	226.52
953.47	226.39
953.76	226.38
954.06	226.22
954.36	226.10
954.66	226.07
954.95	226.29
955.25	226.34
955.55	226.42
955.84	226.20
956.14	226.32
956.44	226.38
956.73	226.30
957.03	226.40
957.32	226.44
957.62	226.43
957.92	226.58
958.21	226.51
958.51	227.64
958.81	227.85
959.10	227.99
959.40	228.23
959.69	228.36
959.99	228.47
960.29	228.57
960.58	228.58
960.88	228.94
961.17	228.89
961.47	228.94
961.76	228.83
962.06	229.11
962.36	229.00
962.65	229.03
962.95	229.05
963.24	228.94
963.54	228.99
963.83	229.10
964.13	229.01
964.42	228.63
964.72	227.84
965.01	227.80
965.31	227.80
965.60	227.55
965.90	228.10
966.19	227.91
966.49	227.89
966.78	227.79
967.08	227.71
967.37	227.70
967.67	227.50
967.96	227.76
968.26	227.68
968.55	227.76
968.85	227.70
969.14	227.75
969.43	227.75
969.73	227.57
970.02	227.54
970.32	227.56
970.61	227.68
970.91	227.41
971.20	227.27
971.49	227.18
971.79	227.26
972.08	226.61
972.38	226.74
972.67	226.73
972.96	226.96
973.26	226.72
973.55	226.98
973.85	227.03
974.14	226.77
974.43	226.87
974.73	226.66
975.02	226.56
975.31	226.46
975.61	226.52
975.90	226.47
976.19	226.38
976.49	226.44
976.78	226.48
977.07	226.51
977.37	226.65
977.66	226.66
977.95	226.47
978.24	226.54
978.54	226.73
978.83	226.61
979.12	226.53
979.42	226.62
979.71	226.40
980.00	226.34
980.29	226.50
980.59	226.23
980.88	226.58
981.17	226.59
981.46	226.63
981.76	226.51
982.05	226.81
982.34	226.84
982.63	226.84
982.93	226.90
983.22	227.15
983.51	227.08
983.80	227.32
984.09	227.46
984.39	227.38
984.68	227.27
984.97	227.35
985.26	227.29
985.55	227.27
985.85	227.09
986.14	227.35
986.43	227.34
986.72	227.32
987.01	226.98
987.30	226.91
987.59	226.84
987.89	226.92
988.18	226.59
988.47	226.47
988.76	226.43
989.05	226.37
989.34	226.24
989.63	226.51
989.92	226.24
990.22	226.17
990.51	226.22
990.80	226.15
991.09	226.20
991.38	226.33
991.67	226.27
991.96	226.18
992.25	226.07
992.54	225.95
992.83	225.97
993.12	225.99
993.41	226.28
993.70	226.71
993.99	226.96
994.28	227.12
994.58	227.22
994.87	227.12
995.16	227.03
995.45	226.92
995.74	226.60
996.03	226.95
996.32	227.11
996.61	227.23
996.90	227.13
997.19	227.17
997.48	227.15
997.77	227.07
998.06	227.16
998.34	227.09
998.63	227.11
998.92	227.20
999.21	227.33
999.50	227.33
999.79	226.96
1000.08	226.89
1000.37	226.87
1000.66	226.87
1000.95	227.14
1001.24	227.25
1001.53	227.37
1001.82	227.32
1002.11	227.08
1002.40	227.11
1002.68	227.33
1002.97	228.04
1003.26	227.84
1003.55	227.76
1003.84	227.86
1004.13	228.24
1004.42	228.19
1004.71	228.29
1004.99	228.22
1005.28	228.53
1005.57	228.51
1005.86	228.47
1006.15	228.44
1006.44	228.34
1006.72	228.43
1007.01	228.20
1007.30	228.21
1007.59	228.01
1007.88	227.97
1008.17	227.95
1008.45	227.76
1008.74	227.37
1009.03	226.90
1009.32	226.96
1009.60	226.85
1009.89	226.72
1010.18	226.37
1010.47	226.31
1010.76	226.13
1011.04	226.07
1011.33	226.01
1011.62	225.95
1011.91	225.99
1012.19	225.95
1012.48	225.99
1012.77	225.98
1013.05	226.49
1013.34	226.58
1013.63	226.62
1013.92	226.81
1014.20	226.77
1014.49	226.78
1014.78	226.94
1015.06	226.76
1015.35	226.76
1015.64	226.91
1015.92	227.11
1016.21	227.11
1016.50	227.20
1016.78	227.38
1017.07	227.61
1017.36	227.32
1017.64	227.20
1017.93	227.30
1018.22	227.26
1018.50	227.27
1018.79	227.29
1019.08	226.81
1019.36	226.73
1019.65	226.63
1019.93	226.79
1020.22	226.86
1020.51	227.40
1020.79	227.33
1021.08	225.90
1021.36	225.70
1021.65	227.30
1021.94	226.60
1022.22	226.40
1022.51	224.40
1022.79	230.30
1023.08	227.70
1023.36	238.70
1023.65	226.30
>>>>>End Processed Spectral Data<<<<<
