SpectraSuite Data File
++++++++++++++++++++++++++++++++++++
Date: Wed Sep 04 17:30:49 EDT 2013
User: lab3
Dark Spectrum Present: Yes
Reference Spectrum Present: No
Number of Sampled Component Spectra: 1
Spectrometers: USB2E7196
Integration Time (usec): 337000 (USB2E7196)
Spectra Averaged: 10 (USB2E7196)
Boxcar Smoothing: 10 (USB2E7196)
Correct for Electrical Dark: No (USB2E7196)
Strobe/Lamp Enabled: No (USB2E7196)
Correct for Detector Non-linearity: No (USB2E7196)
Correct for Stray Light: No (USB2E7196)
Number of Pixels in Processed Spectrum: 2048
>>>>>Begin Processed Spectral Data<<<<<
339.09	0.00
339.48	212.30
339.86	214.30
340.24	214.70
340.63	217.80
341.01	232.50
341.39	220.30
341.78	223.10
342.16	225.20
342.54	224.90
342.93	213.29
343.31	223.96
343.69	224.58
344.07	225.07
344.46	225.67
344.84	226.13
345.22	225.76
345.60	226.04
345.99	226.21
346.37	226.25
346.75	226.20
347.13	226.39
347.52	226.30
347.90	226.63
348.28	226.78
348.66	226.99
349.05	226.62
349.43	226.61
349.81	226.63
350.19	226.76
350.57	226.78
350.96	226.84
351.34	227.00
351.72	227.04
352.10	227.20
352.48	227.16
352.87	227.10
353.25	227.22
353.63	227.26
354.01	227.24
354.39	227.26
354.77	227.39
355.15	227.64
355.54	227.63
355.92	227.38
356.30	227.32
356.68	227.98
357.06	228.14
357.44	228.19
357.82	228.22
358.20	228.92
358.58	228.97
358.97	229.09
359.35	229.33
359.73	229.54
360.11	229.60
360.49	229.74
360.87	229.84
361.25	230.00
361.63	230.46
362.01	230.60
362.39	230.69
362.77	230.90
363.15	230.89
363.53	230.95
363.91	231.05
364.29	231.11
364.67	230.19
365.05	230.32
365.43	230.38
365.81	230.58
366.19	230.29
366.57	230.63
366.95	230.61
367.33	230.42
367.71	230.45
368.09	230.51
368.47	230.50
368.85	230.41
369.23	230.50
369.61	230.06
369.99	230.36
370.37	230.49
370.75	230.89
371.13	230.65
371.51	230.50
371.89	230.55
372.27	230.62
372.65	230.77
373.03	230.68
373.41	230.54
373.78	230.32
374.16	229.84
374.54	229.61
374.92	229.52
375.30	229.47
375.68	229.23
376.06	229.20
376.44	229.13
376.82	229.25
377.19	229.26
377.57	229.20
377.95	228.89
378.33	228.70
378.71	228.02
379.09	228.22
379.47	228.36
379.84	228.21
380.22	228.06
380.60	227.87
380.98	227.86
381.36	227.85
381.73	227.81
382.11	228.00
382.49	227.88
382.87	227.60
383.25	227.43
383.62	228.54
384.00	228.37
384.38	228.29
384.76	228.32
385.13	228.62
385.51	228.59
385.89	228.35
386.27	228.40
386.64	228.48
387.02	228.31
387.40	228.25
387.78	228.32
388.15	228.40
388.53	228.30
388.91	228.30
389.29	228.21
389.66	228.30
390.04	228.18
390.42	228.38
390.79	228.48
391.17	228.55
391.55	227.45
391.92	227.45
392.30	227.60
392.68	227.49
393.05	227.43
393.43	227.47
393.81	227.60
394.18	227.48
394.56	227.54
394.94	227.75
395.31	227.63
395.69	227.88
396.06	227.96
396.44	228.06
396.82	227.95
397.19	228.51
397.57	228.52
397.95	228.71
398.32	228.45
398.70	228.68
399.07	228.94
399.45	229.01
399.82	229.02
400.20	229.03
400.58	229.06
400.95	228.70
401.33	228.95
401.70	229.79
402.08	230.01
402.45	230.12
402.83	230.51
403.20	230.79
403.58	230.85
403.95	231.19
404.33	231.44
404.71	231.86
405.08	232.53
405.46	232.85
405.83	233.10
406.21	233.50
406.58	233.85
406.96	234.28
407.33	234.76
407.70	235.43
408.08	236.63
408.45	237.35
408.83	238.12
409.20	238.74
409.58	238.66
409.95	239.46
410.33	240.30
410.70	240.76
411.08	241.81
411.45	242.73
411.82	243.54
412.20	244.85
412.57	246.40
412.95	246.70
413.32	248.10
413.69	249.51
414.07	250.97
414.44	252.50
414.82	254.04
415.19	256.00
415.56	257.83
415.94	259.36
416.31	261.63
416.68	263.96
417.06	266.54
417.43	269.37
417.81	272.24
418.18	275.22
418.55	278.31
418.93	281.53
419.30	285.16
419.67	289.03
420.04	292.78
420.42	296.55
420.79	301.79
421.16	306.40
421.54	311.56
421.91	316.43
422.28	321.54
422.66	327.08
423.03	333.01
423.40	338.73
423.77	344.58
424.15	350.47
424.52	356.79
424.89	363.84
425.26	370.52
425.64	376.87
426.01	383.81
426.38	391.21
426.75	398.98
427.13	406.60
427.50	414.56
427.87	422.74
428.24	431.01
428.61	438.63
428.99	447.76
429.36	456.93
429.73	466.51
430.10	476.12
430.47	485.91
430.85	495.43
431.22	506.05
431.59	518.08
431.96	528.99
432.33	540.98
432.70	552.56
433.08	566.13
433.45	578.99
433.82	591.88
434.19	606.29
434.56	620.56
434.93	633.88
435.30	647.56
435.68	662.98
436.05	678.18
436.42	693.10
436.79	706.80
437.16	721.60
437.53	737.50
437.90	753.11
438.27	768.73
438.64	784.93
439.01	800.20
439.38	813.44
439.75	826.70
440.13	841.67
440.50	855.45
440.87	867.11
441.24	879.15
441.61	892.60
441.98	902.44
442.35	913.55
442.72	925.41
443.09	937.03
443.46	944.15
443.83	949.10
444.20	953.51
444.57	959.32
444.94	962.45
445.31	965.40
445.68	969.26
446.05	970.40
446.42	969.17
446.79	967.69
447.16	965.69
447.53	964.64
447.90	959.05
448.27	953.83
448.64	946.04
449.01	940.76
449.37	930.45
449.74	920.64
450.11	909.34
450.48	896.14
450.85	882.28
451.22	870.63
451.59	859.57
451.96	849.20
452.33	835.25
452.70	822.69
453.07	807.66
453.43	791.47
453.80	777.12
454.17	763.13
454.54	749.59
454.91	735.31
455.28	721.17
455.65	708.10
456.02	696.10
456.38	684.96
456.75	671.01
457.12	659.75
457.49	648.51
457.86	637.11
458.23	628.18
458.59	618.16
458.96	608.05
459.33	598.87
459.70	589.80
460.07	582.63
460.43	574.30
460.80	566.89
461.17	560.36
461.54	553.13
461.91	546.40
462.27	539.59
462.64	533.68
463.01	527.17
463.38	521.34
463.74	514.10
464.11	508.67
464.48	504.16
464.85	498.88
465.21	495.22
465.58	491.11
465.95	485.93
466.32	481.94
466.68	477.85
467.05	473.97
467.42	469.77
467.78	465.77
468.15	461.95
468.52	458.97
468.88	454.94
469.25	451.32
469.62	448.75
469.98	445.70
470.35	442.98
470.72	440.40
471.08	437.18
471.45	434.93
471.82	432.54
472.18	429.79
472.55	428.03
472.92	425.56
473.28	423.46
473.65	421.52
474.02	419.44
474.38	417.80
474.75	416.40
475.11	414.69
475.48	413.24
475.85	412.09
476.21	410.79
476.58	409.87
476.94	409.13
477.31	408.00
477.67	407.26
478.04	406.55
478.41	406.15
478.77	406.61
479.14	405.72
479.50	405.40
479.87	405.39
480.23	405.15
480.60	404.88
480.96	404.75
481.33	405.12
481.69	405.17
482.06	405.31
482.42	405.41
482.79	405.90
483.15	406.37
483.52	406.96
483.88	407.13
484.25	407.73
484.61	408.58
484.98	409.11
485.34	410.24
485.71	411.30
486.07	412.37
486.44	412.51
486.80	413.72
487.17	414.98
487.53	416.52
487.90	418.04
488.26	419.94
488.62	421.84
488.99	423.56
489.35	425.44
489.72	427.31
490.08	429.30
490.44	431.34
490.81	433.65
491.17	435.81
491.54	438.64
491.90	441.15
492.26	443.64
492.63	446.55
492.99	449.08
493.36	452.00
493.72	455.25
494.08	458.70
494.45	462.44
494.81	466.10
495.17	469.54
495.54	473.44
495.90	477.17
496.26	481.00
496.63	484.79
496.99	488.88
497.35	493.03
497.72	497.42
498.08	501.75
498.44	506.21
498.80	511.09
499.17	515.50
499.53	519.85
499.89	524.79
500.26	529.54
500.62	534.35
500.98	539.54
501.34	544.00
501.71	549.00
502.07	553.71
502.43	558.41
502.79	563.27
503.16	568.22
503.52	573.16
503.88	578.20
504.24	583.25
504.60	588.47
504.97	593.87
505.33	598.87
505.69	604.49
506.05	609.46
506.41	614.40
506.78	619.57
507.14	624.81
507.50	629.88
507.86	634.98
508.22	640.11
508.59	644.60
508.95	649.80
509.31	654.98
509.67	659.80
510.03	664.49
510.39	669.00
510.75	673.42
511.12	677.90
511.48	682.17
511.84	686.38
512.20	690.60
512.56	694.64
512.92	698.94
513.28	702.97
513.64	706.95
514.00	710.77
514.37	714.68
514.73	718.54
515.09	722.00
515.45	725.71
515.81	729.23
516.17	732.97
516.53	736.24
516.89	739.14
517.25	742.73
517.61	746.60
517.97	750.37
518.33	753.82
518.69	757.42
519.05	760.89
519.41	764.40
519.77	768.07
520.13	771.19
520.49	774.01
520.85	779.38
521.21	783.06
521.57	786.08
521.93	788.61
522.29	791.50
522.65	794.16
523.01	796.70
523.37	798.90
523.73	801.35
524.09	803.82
524.45	806.11
524.81	808.36
525.17	810.70
525.53	812.82
525.89	815.02
526.25	817.01
526.61	818.98
526.97	821.28
527.33	823.41
527.68	826.88
528.04	829.65
528.40	829.67
528.76	831.74
529.12	834.36
529.48	837.17
529.84	839.67
530.20	842.98
530.56	845.94
530.91	849.40
531.27	852.44
531.63	855.78
531.99	858.96
532.35	862.10
532.71	865.10
533.07	868.66
533.42	872.80
533.78	876.34
534.14	880.10
534.50	883.42
534.86	887.23
535.21	889.72
535.57	893.47
535.93	896.41
536.29	900.37
536.65	903.93
537.00	907.39
537.36	911.12
537.72	914.48
538.08	918.25
538.44	921.30
538.79	924.77
539.15	927.96
539.51	931.79
539.87	935.17
540.22	938.60
540.58	941.76
540.94	944.03
541.29	946.71
541.65	949.43
542.01	952.91
542.37	955.90
542.72	958.65
543.08	961.09
543.44	964.59
543.79	966.40
544.15	969.35
544.51	972.62
544.87	975.66
545.22	978.14
545.58	980.51
545.94	983.37
546.29	985.95
546.65	988.32
547.01	990.67
547.36	992.96
547.72	995.32
548.07	997.49
548.43	999.94
548.79	1002.92
549.14	1005.72
549.50	1008.26
549.86	1010.36
550.21	1013.18
550.57	1016.09
550.92	1018.02
551.28	1020.80
551.64	1023.20
551.99	1025.67
552.35	1027.75
552.70	1030.31
553.06	1032.97
553.41	1035.54
553.77	1038.56
554.13	1041.37
554.48	1043.92
554.84	1046.72
555.19	1049.26
555.55	1052.75
555.90	1055.20
556.26	1057.08
556.61	1058.76
556.97	1059.85
557.32	1061.77
557.68	1063.49
558.03	1065.09
558.39	1066.96
558.74	1068.96
559.10	1070.33
559.45	1071.63
559.81	1073.19
560.16	1074.40
560.52	1075.89
560.87	1077.35
561.23	1077.99
561.58	1080.00
561.94	1081.04
562.29	1081.90
562.64	1082.85
563.00	1082.95
563.35	1084.16
563.71	1085.44
564.06	1086.93
564.42	1088.51
564.77	1089.78
565.12	1091.09
565.48	1093.21
565.83	1094.70
566.19	1095.95
566.54	1097.12
566.89	1098.23
567.25	1099.64
567.60	1101.26
567.96	1102.82
568.31	1104.07
568.66	1105.28
569.02	1104.87
569.37	1105.41
569.72	1106.31
570.08	1107.06
570.43	1107.10
570.78	1107.33
571.14	1107.48
571.49	1107.08
571.84	1107.14
572.20	1106.80
572.55	1106.78
572.90	1105.19
573.26	1104.48
573.61	1103.69
573.96	1102.97
574.31	1101.77
574.67	1100.21
575.02	1098.59
575.37	1096.60
575.72	1094.81
576.08	1093.33
576.43	1091.99
576.78	1090.50
577.13	1088.61
577.49	1086.84
577.84	1085.83
578.19	1084.55
578.54	1083.04
578.90	1082.13
579.25	1080.70
579.60	1079.20
579.95	1077.05
580.30	1075.34
580.66	1073.62
581.01	1071.44
581.36	1069.15
581.71	1067.50
582.06	1065.92
582.42	1063.96
582.77	1061.71
583.12	1059.80
583.47	1057.82
583.82	1056.26
584.17	1054.44
584.53	1052.86
584.88	1050.55
585.23	1048.20
585.58	1045.26
585.93	1042.68
586.28	1039.91
586.63	1036.87
586.98	1033.92
587.34	1031.44
587.69	1028.94
588.04	1026.28
588.39	1023.97
588.74	1021.46
589.09	1018.91
589.44	1015.70
589.79	1013.12
590.14	1010.57
590.49	1007.90
590.84	1005.11
591.19	1002.47
591.54	999.36
591.89	996.35
592.25	994.63
592.60	991.82
592.95	989.40
593.30	986.57
593.65	983.45
594.00	980.60
594.35	980.61
594.70	977.60
595.05	974.60
595.40	971.42
595.75	968.20
596.10	965.34
596.45	962.21
596.80	959.40
597.15	956.38
597.50	953.46
597.85	950.67
598.19	947.39
598.54	943.86
598.89	940.60
599.24	937.39
599.59	933.42
599.94	929.98
600.29	926.53
600.64	923.41
600.99	920.30
601.34	917.42
601.69	911.37
602.04	908.04
602.39	904.69
602.74	901.80
603.08	898.97
603.43	896.37
603.78	893.23
604.13	890.14
604.48	886.90
604.83	883.33
605.18	879.79
605.53	876.50
605.87	873.39
606.22	870.68
606.57	867.47
606.92	863.97
607.27	860.89
607.62	857.80
607.96	854.91
608.31	852.11
608.66	849.10
609.01	846.38
609.36	843.61
609.70	840.50
610.05	837.00
610.40	833.71
610.75	830.12
611.10	826.97
611.44	823.49
611.79	820.07
612.14	817.14
612.49	813.50
612.83	810.70
613.18	807.14
613.53	803.58
613.88	800.22
614.22	796.90
614.57	793.34
614.92	789.94
615.27	786.26
615.61	782.56
615.96	778.87
616.31	775.24
616.65	771.85
617.00	768.57
617.35	765.62
617.70	761.89
618.04	758.35
618.39	754.94
618.74	752.01
619.08	748.65
619.43	745.08
619.78	741.89
620.12	738.20
620.47	735.11
620.82	731.74
621.16	728.33
621.51	725.71
621.85	722.42
622.20	719.09
622.55	715.60
622.89	712.31
623.24	709.33
623.59	706.00
623.93	702.76
624.28	699.50
624.62	697.09
624.97	694.41
625.32	691.28
625.66	687.80
626.01	684.12
626.35	680.93
626.70	677.92
627.04	675.04
627.39	671.64
627.73	668.57
628.08	665.76
628.43	662.39
628.77	658.47
629.12	655.53
629.46	652.69
629.81	650.24
630.15	647.42
630.50	644.14
630.84	641.11
631.19	637.89
631.53	635.07
631.88	631.21
632.22	627.99
632.57	625.29
632.91	622.61
633.26	620.09
633.60	617.27
633.95	614.08
634.29	610.83
634.64	608.32
634.98	605.23
635.32	602.31
635.67	599.95
636.01	597.66
636.36	594.75
636.70	592.21
637.05	589.28
637.39	586.54
637.73	584.02
638.08	581.58
638.42	578.72
638.77	576.00
639.11	572.97
639.45	569.76
639.80	566.67
640.14	563.86
640.49	560.98
640.83	558.27
641.17	555.93
641.52	553.27
641.86	550.57
642.20	548.45
642.55	545.72
642.89	543.17
643.23	540.35
643.58	538.42
643.92	535.44
644.26	532.81
644.61	530.47
644.95	527.95
645.29	525.10
645.64	522.87
645.98	520.25
646.32	518.00
646.66	515.64
647.01	513.25
647.35	511.05
647.69	508.91
648.04	506.68
648.38	504.34
648.72	502.15
649.06	499.52
649.41	496.81
649.75	494.36
650.09	491.98
650.43	489.77
650.78	487.07
651.12	484.98
651.46	482.76
651.80	480.36
652.14	478.05
652.49	476.15
652.83	473.81
653.17	471.72
653.51	469.31
653.85	467.58
654.20	465.55
654.54	463.30
654.88	460.98
655.22	459.32
655.56	457.07
655.90	455.11
656.25	453.28
656.59	451.43
656.93	449.53
657.27	447.71
657.61	445.54
657.95	443.57
658.29	441.47
658.64	439.65
658.98	437.67
659.32	435.58
659.66	433.48
660.00	431.72
660.34	429.90
660.68	428.04
661.02	426.01
661.36	424.20
661.70	422.32
662.05	420.49
662.39	418.50
662.73	416.95
663.07	415.54
663.41	414.01
663.75	412.22
664.09	410.61
664.43	408.64
664.77	407.07
665.11	405.37
665.45	403.90
665.79	402.22
666.13	400.39
666.47	398.68
666.81	397.03
667.15	395.21
667.49	393.70
667.83	392.60
668.17	391.06
668.51	389.50
668.85	388.30
669.19	387.41
669.53	385.76
669.87	384.19
670.21	382.40
670.55	380.83
670.89	379.74
671.23	378.15
671.57	376.74
671.91	375.43
672.25	374.07
672.58	372.93
672.92	371.42
673.26	370.39
673.60	369.37
673.94	368.15
674.28	367.12
674.62	365.74
674.96	364.27
675.30	363.10
675.64	361.95
675.97	360.50
676.31	358.83
676.65	357.50
676.99	356.50
677.33	355.22
677.67	354.04
678.01	352.40
678.34	351.43
678.68	350.38
679.02	349.17
679.36	347.88
679.70	346.54
680.04	345.29
680.37	344.10
680.71	342.89
681.05	341.82
681.39	340.79
681.73	339.73
682.06	338.68
682.40	337.52
682.74	336.53
683.08	335.82
683.42	334.65
683.75	333.80
684.09	332.72
684.43	331.77
684.77	330.62
685.10	329.75
685.44	328.69
685.78	327.75
686.12	326.60
686.45	325.75
686.79	324.62
687.13	323.92
687.46	322.87
687.80	322.11
688.14	321.27
688.48	320.32
688.81	319.46
689.15	318.80
689.49	317.99
689.82	317.05
690.16	315.68
690.50	314.90
690.83	314.00
691.17	312.98
691.51	312.21
691.84	311.53
692.18	310.74
692.52	309.80
692.85	309.08
693.19	308.76
693.52	307.95
693.86	307.24
694.20	306.38
694.53	305.84
694.87	304.87
695.21	303.88
695.54	303.10
695.88	302.17
696.21	301.04
696.55	300.22
696.88	299.44
697.22	298.64
697.56	298.02
697.89	297.11
698.23	296.42
698.56	295.61
698.90	295.06
699.23	294.33
699.57	293.72
699.90	292.82
700.24	291.86
700.58	291.35
700.91	290.80
701.25	290.94
701.58	290.88
701.92	290.47
702.25	289.98
702.59	289.20
702.92	288.62
703.26	288.21
703.59	287.62
703.93	287.87
704.26	287.62
704.60	287.05
704.93	286.59
705.26	286.06
705.60	285.73
705.93	284.88
706.27	284.52
706.60	284.27
706.94	284.23
707.27	283.70
707.61	283.26
707.94	282.67
708.27	281.43
708.61	280.20
708.94	279.63
709.28	279.06
709.61	278.54
709.94	278.26
710.28	277.80
710.61	277.21
710.95	275.82
711.28	275.86
711.61	275.33
711.95	275.00
712.28	274.39
712.61	273.66
712.95	273.79
713.28	273.68
713.61	272.90
713.95	272.00
714.28	271.53
714.61	270.87
714.95	270.41
715.28	269.89
715.61	269.43
715.95	269.01
716.28	268.46
716.61	268.18
716.95	267.50
717.28	266.94
717.61	266.50
717.94	266.16
718.28	265.10
718.61	264.58
718.94	263.99
719.27	263.66
719.61	263.38
719.94	262.65
720.27	261.80
720.60	261.50
720.94	261.16
721.27	260.88
721.60	260.67
721.93	260.21
722.27	260.08
722.60	259.91
722.93	259.41
723.26	259.27
723.59	258.73
723.93	258.54
724.26	258.30
724.59	258.06
724.92	257.75
725.25	257.69
725.59	257.54
725.92	257.50
726.25	257.18
726.58	256.91
726.91	256.46
727.24	256.21
727.57	255.85
727.91	255.51
728.24	255.25
728.57	254.87
728.90	254.81
729.23	254.40
729.56	254.45
729.89	254.31
730.22	253.99
730.55	253.86
730.89	253.57
731.22	253.25
731.55	253.05
731.88	252.89
732.21	252.47
732.54	252.10
732.87	251.71
733.20	251.51
733.53	251.32
733.86	251.29
734.19	250.95
734.52	250.91
734.85	251.37
735.18	251.04
735.51	251.27
735.84	251.04
736.17	251.08
736.50	250.34
736.83	251.25
737.16	251.15
737.49	251.01
737.82	250.80
738.15	250.81
738.48	250.64
738.81	250.32
739.14	250.05
739.47	249.86
739.80	249.74
740.13	249.63
740.46	249.26
740.79	248.98
741.12	248.88
741.45	248.58
741.78	247.81
742.11	247.90
742.44	247.32
742.77	247.33
743.10	246.98
743.43	246.89
743.75	245.70
744.08	246.80
744.41	246.55
744.74	246.33
745.07	245.97
745.40	245.97
745.73	246.35
746.06	246.23
746.39	246.13
746.71	245.81
747.04	245.60
747.37	245.52
747.70	245.52
748.03	245.45
748.36	245.49
748.68	245.42
749.01	245.04
749.34	244.89
749.67	244.79
750.00	244.84
750.33	245.49
750.65	245.39
750.98	243.85
751.31	243.78
751.64	243.79
751.97	244.13
752.29	243.78
752.62	243.16
752.95	243.00
753.28	242.89
753.60	242.76
753.93	242.93
754.26	242.86
754.59	242.47
754.91	242.20
755.24	241.94
755.57	241.80
755.90	241.76
756.22	241.68
756.55	241.26
756.88	240.91
757.20	240.12
757.53	239.81
757.86	239.83
758.19	239.85
758.51	239.70
758.84	239.12
759.17	239.03
759.49	239.00
759.82	239.34
760.15	239.21
760.47	239.19
760.80	238.68
761.13	238.70
761.45	238.60
761.78	238.57
762.11	238.50
762.43	238.25
762.76	238.01
763.08	238.01
763.41	238.03
763.74	238.01
764.06	237.85
764.39	237.81
764.71	237.54
765.04	237.33
765.37	237.10
765.69	237.00
766.02	236.90
766.34	236.77
766.67	236.34
767.00	236.44
767.32	236.70
767.65	237.31
767.97	237.11
768.30	237.14
768.62	236.99
768.95	236.67
769.27	236.70
769.60	236.77
769.92	236.50
770.25	236.24
770.57	235.95
770.90	235.97
771.22	235.75
771.55	235.78
771.87	235.67
772.20	235.55
772.52	236.28
772.85	237.33
773.17	237.30
773.50	237.09
773.82	236.79
774.15	236.38
774.47	235.64
774.80	235.51
775.12	235.36
775.45	235.21
775.77	235.37
776.09	235.25
776.42	235.19
776.74	235.40
777.07	235.36
777.39	235.34
777.72	235.16
778.04	235.18
778.36	234.99
778.69	234.99
779.01	235.08
779.33	234.16
779.66	233.03
779.98	232.89
780.31	232.97
780.63	233.37
780.95	233.43
781.28	233.45
781.60	233.31
781.92	233.34
782.25	233.30
782.57	233.24
782.89	233.17
783.22	233.07
783.54	232.82
783.86	232.82
784.19	232.81
784.51	233.00
784.83	232.88
785.16	232.86
785.48	232.81
785.80	232.70
786.12	232.82
786.45	232.80
786.77	232.79
787.09	232.69
787.42	232.29
787.74	232.29
788.06	232.22
788.38	232.19
788.71	231.99
789.03	232.14
789.35	232.26
789.67	232.16
789.99	232.21
790.32	232.07
790.64	232.19
790.96	233.03
791.28	232.68
791.61	232.64
791.93	232.73
792.25	232.66
792.57	233.35
792.89	233.08
793.21	233.13
793.54	233.10
793.86	232.87
794.18	232.93
794.50	232.66
794.82	232.62
795.14	232.78
795.47	232.98
795.79	232.84
796.11	232.65
796.43	232.59
796.75	232.51
797.07	232.49
797.39	232.32
797.71	231.47
798.04	231.53
798.36	231.57
798.68	231.55
799.00	231.61
799.32	231.12
799.64	231.30
799.96	231.15
800.28	231.23
800.60	231.29
800.92	231.26
801.24	231.28
801.56	231.34
801.89	231.21
802.21	231.20
802.53	231.08
802.85	231.11
803.17	231.49
803.49	231.29
803.81	231.30
804.13	231.29
804.45	231.19
804.77	231.28
805.09	231.22
805.41	231.05
805.73	230.74
806.05	230.51
806.37	230.40
806.69	230.39
807.01	230.26
807.33	230.37
807.65	230.07
807.97	230.51
808.28	230.43
808.60	230.34
808.92	230.26
809.24	230.81
809.56	230.64
809.88	230.37
810.20	230.38
810.52	230.52
810.84	230.34
811.16	230.17
811.48	230.11
811.80	230.40
812.12	230.44
812.43	230.60
812.75	230.67
813.07	230.60
813.39	230.59
813.71	230.56
814.03	230.40
814.35	230.47
814.67	230.03
814.98	229.90
815.30	229.90
815.62	229.71
815.94	229.05
816.26	229.50
816.58	229.31
816.89	229.36
817.21	229.14
817.53	229.17
817.85	229.29
818.17	229.12
818.48	228.70
818.80	228.83
819.12	228.78
819.44	228.47
819.76	228.31
820.07	228.32
820.39	228.24
820.71	228.31
821.03	228.31
821.34	228.30
821.66	228.48
821.98	228.55
822.30	228.52
822.61	229.19
822.93	228.70
823.25	228.63
823.57	228.49
823.88	228.61
824.20	228.67
824.52	228.68
824.83	228.73
825.15	228.75
825.47	228.72
825.79	228.86
826.10	228.92
826.42	229.01
826.74	229.13
827.05	229.14
827.37	229.23
827.69	229.19
828.00	229.27
828.32	229.08
828.64	228.98
828.95	229.59
829.27	229.30
829.58	229.28
829.90	229.51
830.22	229.62
830.53	229.43
830.85	229.35
831.17	229.16
831.48	229.27
831.80	229.31
832.11	229.23
832.43	229.08
832.75	229.14
833.06	229.69
833.38	229.41
833.69	229.39
834.01	229.31
834.32	229.29
834.64	229.16
834.96	229.23
835.27	229.20
835.59	228.77
835.90	228.59
836.22	228.64
836.53	228.47
836.85	228.44
837.16	229.44
837.48	229.41
837.79	229.76
838.11	229.73
838.42	229.70
838.74	229.89
839.05	229.76
839.37	229.70
839.68	229.10
840.00	229.02
840.31	229.17
840.63	229.06
840.94	229.04
841.26	228.92
841.57	228.89
841.88	229.06
842.20	228.95
842.51	228.84
842.83	228.84
843.14	229.63
843.46	229.65
843.77	229.11
844.08	229.13
844.40	228.83
844.71	228.71
845.03	228.66
845.34	228.44
845.65	228.42
845.97	228.37
846.28	228.50
846.60	228.60
846.91	228.40
847.22	228.41
847.54	228.58
847.85	228.70
848.16	228.71
848.48	228.47
848.79	228.81
849.10	228.90
849.42	228.92
849.73	228.08
850.04	228.07
850.36	227.72
850.67	227.87
850.98	227.98
851.30	228.03
851.61	228.08
851.92	228.09
852.23	228.55
852.55	228.72
852.86	228.70
853.17	228.80
853.49	229.04
853.80	229.24
854.11	229.32
854.42	229.47
854.74	229.35
855.05	229.37
855.36	228.84
855.67	228.94
855.99	228.87
856.30	229.90
856.61	229.79
856.92	229.82
857.23	229.78
857.55	229.62
857.86	229.55
858.17	229.62
858.48	229.43
858.79	229.14
859.11	229.16
859.42	229.12
859.73	229.03
860.04	228.94
860.35	228.61
860.66	228.21
860.98	228.09
861.29	228.24
861.60	228.19
861.91	228.50
862.22	228.33
862.53	228.21
862.84	227.23
863.16	227.47
863.47	227.22
863.78	227.12
864.09	227.22
864.40	227.24
864.71	227.20
865.02	227.40
865.33	227.20
865.64	227.09
865.95	227.06
866.27	227.63
866.58	227.46
866.89	227.67
867.20	227.71
867.51	227.62
867.82	227.52
868.13	227.80
868.44	227.64
868.75	227.80
869.06	227.84
869.37	227.89
869.68	227.60
869.99	227.82
870.30	227.89
870.61	227.95
870.92	227.83
871.23	227.78
871.54	227.99
871.85	228.36
872.16	228.42
872.47	228.40
872.78	227.87
873.09	228.01
873.40	227.91
873.71	228.00
874.02	227.99
874.33	228.00
874.64	227.90
874.95	228.04
875.26	227.90
875.56	227.90
875.87	227.90
876.18	227.90
876.49	228.81
876.80	228.79
877.11	228.63
877.42	228.81
877.73	228.87
878.04	228.67
878.35	228.53
878.66	228.56
878.96	228.51
879.27	228.44
879.58	228.49
879.89	228.43
880.20	228.81
880.51	228.84
880.82	228.84
881.12	228.91
881.43	228.66
881.74	228.55
882.05	228.55
882.36	228.62
882.67	228.72
882.97	227.71
883.28	227.58
883.59	227.57
883.90	227.56
884.21	227.70
884.51	227.60
884.82	227.49
885.13	227.48
885.44	227.40
885.74	227.40
886.05	227.32
886.36	227.38
886.67	226.98
886.98	227.47
887.28	227.50
887.59	227.47
887.90	227.51
888.20	227.44
888.51	227.60
888.82	227.46
889.13	227.53
889.43	228.34
889.74	228.34
890.05	228.34
890.35	228.16
890.66	227.97
890.97	227.89
891.28	227.75
891.58	227.75
891.89	227.81
892.20	227.73
892.50	227.63
892.81	227.53
893.12	227.50
893.42	227.04
893.73	227.08
894.04	227.00
894.34	227.14
894.65	227.15
894.95	227.06
895.26	227.06
895.57	227.45
895.87	226.59
896.18	226.67
896.48	226.70
896.79	226.83
897.10	226.93
897.40	227.01
897.71	227.20
898.01	227.11
898.32	227.33
898.63	227.27
898.93	227.29
899.24	227.23
899.54	227.18
899.85	227.14
900.15	227.04
900.46	227.07
900.76	227.20
901.07	227.18
901.38	227.11
901.68	227.20
901.99	226.76
902.29	226.78
902.60	226.73
902.90	226.78
903.21	226.74
903.51	226.69
903.82	226.95
904.12	226.89
904.43	226.95
904.73	226.81
905.03	226.91
905.34	227.86
905.64	227.95
905.95	228.00
906.25	228.05
906.56	228.12
906.86	228.06
907.17	227.91
907.47	227.93
907.77	227.92
908.08	227.79
908.38	227.82
908.69	228.02
908.99	228.23
909.30	228.24
909.60	228.17
909.90	228.19
910.21	227.78
910.51	227.73
910.81	227.82
911.12	227.86
911.42	227.92
911.73	226.90
912.03	227.06
912.33	227.33
912.64	227.20
912.94	227.13
913.24	227.00
913.55	226.84
913.85	226.90
914.15	227.08
914.46	227.24
914.76	227.15
915.06	226.94
915.37	226.83
915.67	226.77
915.97	226.82
916.27	226.71
916.58	226.92
916.88	226.96
917.18	226.80
917.49	227.46
917.79	227.38
918.09	227.69
918.39	227.83
918.70	227.77
919.00	227.88
919.30	228.33
919.60	228.38
919.91	228.43
920.21	228.42
920.51	228.21
920.81	228.09
921.12	228.28
921.42	228.32
921.72	228.36
922.02	228.44
922.32	228.65
922.63	228.62
922.93	229.07
923.23	229.15
923.53	229.16
923.83	228.50
924.13	228.63
924.44	228.50
924.74	228.66
925.04	228.72
925.34	228.72
925.64	228.33
925.94	228.32
926.24	228.91
926.55	228.81
926.85	228.93
927.15	229.07
927.45	229.10
927.75	229.10
928.05	229.08
928.35	229.02
928.65	229.09
928.95	229.16
929.26	228.80
929.56	228.90
929.86	228.94
930.16	228.94
930.46	228.80
930.76	228.78
931.06	228.34
931.36	228.09
931.66	228.22
931.96	228.32
932.26	228.37
932.56	227.87
932.86	227.96
933.16	228.02
933.46	227.90
933.76	227.67
934.06	227.92
934.36	228.21
934.66	228.16
934.96	228.12
935.26	228.21
935.56	228.30
935.86	228.04
936.16	227.95
936.46	227.80
936.76	227.82
937.06	227.74
937.36	227.81
937.66	227.80
937.96	227.71
938.26	227.49
938.56	227.40
938.86	227.36
939.16	227.55
939.46	227.60
939.76	227.64
940.06	227.71
940.35	227.38
940.65	226.91
940.95	226.99
941.25	226.62
941.55	226.44
941.85	226.33
942.15	226.57
942.45	226.75
942.75	226.69
943.04	226.65
943.34	226.82
943.64	226.62
943.94	226.47
944.24	226.44
944.54	226.53
944.84	226.51
945.13	226.53
945.43	226.30
945.73	226.22
946.03	226.13
946.33	226.01
946.62	226.06
946.92	226.10
947.22	226.13
947.52	226.23
947.82	226.32
948.11	226.13
948.41	225.89
948.71	225.65
949.01	225.75
949.31	225.58
949.60	225.59
949.90	225.80
950.20	225.86
950.50	225.93
950.79	225.95
951.09	225.95
951.39	225.87
951.69	225.87
951.98	226.02
952.28	226.12
952.58	226.10
952.87	226.13
953.17	226.31
953.47	226.23
953.76	226.27
954.06	226.19
954.36	226.21
954.66	226.25
954.95	226.49
955.25	226.61
955.55	226.88
955.84	226.66
956.14	226.75
956.44	226.78
956.73	226.67
957.03	226.74
957.32	226.83
957.62	226.82
957.92	227.06
958.21	227.04
958.51	227.92
958.81	228.05
959.10	228.14
959.40	228.25
959.69	228.28
959.99	228.41
960.29	228.48
960.58	228.36
960.88	228.69
961.17	228.63
961.47	228.79
961.76	228.65
962.06	228.89
962.36	228.70
962.65	228.87
962.95	228.85
963.24	228.62
963.54	228.73
963.83	228.67
964.13	228.50
964.42	228.27
964.72	227.52
965.01	227.51
965.31	227.45
965.60	227.20
965.90	227.80
966.19	227.57
966.49	227.60
966.78	227.72
967.08	227.67
967.37	227.71
967.67	227.44
967.96	227.68
968.26	227.49
968.55	227.62
968.85	227.50
969.14	227.48
969.43	227.58
969.73	227.45
970.02	227.48
970.32	227.52
970.61	227.47
970.91	227.30
971.20	227.12
971.49	227.00
971.79	227.08
972.08	226.44
972.38	226.53
972.67	226.50
972.96	226.54
973.26	226.29
973.55	226.56
973.85	226.50
974.14	226.29
974.43	226.34
974.73	226.30
975.02	226.23
975.31	226.31
975.61	226.24
975.90	226.17
976.19	226.24
976.49	226.19
976.78	226.21
977.07	226.16
977.37	226.28
977.66	226.37
977.95	226.26
978.24	226.27
978.54	226.42
978.83	226.27
979.12	226.26
979.42	226.20
979.71	225.96
980.00	225.99
980.29	226.14
980.59	226.00
980.88	226.19
981.17	226.25
981.46	226.21
981.76	226.25
982.05	226.52
982.34	226.50
982.63	226.55
982.93	226.53
983.22	226.76
983.51	226.83
983.80	227.00
984.09	227.15
984.39	227.14
984.68	227.08
984.97	227.22
985.26	227.14
985.55	227.36
985.85	227.15
986.14	227.29
986.43	227.41
986.72	227.44
987.01	227.09
987.30	227.01
987.59	226.87
987.89	226.96
988.18	226.82
988.47	226.80
988.76	226.81
989.05	226.81
989.34	226.79
989.63	227.01
989.92	226.84
990.22	226.70
990.51	226.74
990.80	226.61
991.09	226.69
991.38	226.83
991.67	226.67
991.96	226.72
992.25	226.75
992.54	226.57
992.83	226.60
993.12	226.63
993.41	226.85
993.70	227.31
993.99	227.45
994.28	227.54
994.58	227.60
994.87	227.47
995.16	227.46
995.45	227.37
995.74	227.09
996.03	227.32
996.32	227.53
996.61	227.65
996.90	227.76
997.19	227.62
997.48	227.68
997.77	227.66
998.06	227.72
998.34	227.62
998.63	227.64
998.92	227.74
999.21	227.95
999.50	227.90
999.79	227.49
1000.08	227.34
1000.37	227.30
1000.66	227.19
1000.95	227.50
1001.24	227.62
1001.53	227.76
1001.82	227.68
1002.11	227.43
1002.40	227.39
1002.68	227.70
1002.97	228.40
1003.26	228.31
1003.55	228.12
1003.84	228.10
1004.13	228.44
1004.42	228.41
1004.71	228.39
1004.99	228.30
1005.28	228.50
1005.57	228.49
1005.86	228.50
1006.15	228.42
1006.44	228.33
1006.72	228.50
1007.01	228.36
1007.30	228.24
1007.59	228.06
1007.88	228.09
1008.17	228.05
1008.45	227.94
1008.74	227.43
1009.03	226.89
1009.32	226.91
1009.60	226.93
1009.89	226.82
1010.18	226.30
1010.47	226.17
1010.76	226.10
1011.04	226.00
1011.33	225.97
1011.62	225.91
1011.91	226.00
1012.19	226.00
1012.48	225.95
1012.77	225.87
1013.05	226.21
1013.34	226.25
1013.63	226.26
1013.92	226.24
1014.20	226.17
1014.49	226.26
1014.78	226.37
1015.06	226.05
1015.35	225.94
1015.64	226.05
1015.92	226.25
1016.21	226.34
1016.50	226.41
1016.78	226.48
1017.07	226.57
1017.36	226.36
1017.64	226.28
1017.93	226.30
1018.22	226.25
1018.50	226.25
1018.79	226.26
1019.08	225.80
1019.36	225.90
1019.65	225.80
1019.93	226.06
1020.22	226.20
1020.51	226.59
1020.79	226.46
1021.08	224.60
1021.36	224.90
1021.65	226.90
1021.94	225.60
1022.22	228.00
1022.51	224.70
1022.79	229.90
1023.08	226.90
1023.36	237.20
1023.65	223.80
>>>>>End Processed Spectral Data<<<<<
