SpectraSuite Data File
++++++++++++++++++++++++++++++++++++
Date: Wed Sep 04 17:28:38 EDT 2013
User: lab3
Dark Spectrum Present: Yes
Reference Spectrum Present: No
Number of Sampled Component Spectra: 1
Spectrometers: USB2E7196
Integration Time (usec): 337000 (USB2E7196)
Spectra Averaged: 10 (USB2E7196)
Boxcar Smoothing: 10 (USB2E7196)
Correct for Electrical Dark: No (USB2E7196)
Strobe/Lamp Enabled: No (USB2E7196)
Correct for Detector Non-linearity: No (USB2E7196)
Correct for Stray Light: No (USB2E7196)
Number of Pixels in Processed Spectrum: 2048
>>>>>Begin Processed Spectral Data<<<<<
339.09	0.00
339.48	212.80
339.86	214.80
340.24	215.80
340.63	218.50
341.01	233.10
341.39	219.60
341.78	221.00
342.16	226.60
342.54	224.40
342.93	213.32
343.31	224.01
343.69	224.63
344.07	225.10
344.46	225.63
344.84	226.07
345.22	225.70
345.60	226.07
345.99	226.45
346.37	226.38
346.75	226.50
347.13	226.60
347.52	226.68
347.90	227.02
348.28	227.12
348.66	227.34
349.05	227.00
349.43	227.15
349.81	227.31
350.19	227.36
350.57	227.40
350.96	227.58
351.34	227.75
351.72	227.80
352.10	227.91
352.48	227.94
352.87	227.93
353.25	227.97
353.63	227.99
354.01	227.93
354.39	228.19
354.77	228.29
355.15	228.49
355.54	228.40
355.92	228.10
356.30	228.14
356.68	228.71
357.06	228.82
357.44	228.79
357.82	228.66
358.20	229.48
358.58	229.60
358.97	229.62
359.35	229.79
359.73	229.98
360.11	229.96
360.49	230.03
360.87	230.08
361.25	230.35
361.63	230.73
362.01	230.86
362.39	230.67
362.77	230.72
363.15	230.73
363.53	230.90
363.91	231.10
364.29	231.07
364.67	230.23
365.05	230.37
365.43	230.50
365.81	230.70
366.19	230.45
366.57	230.75
366.95	230.67
367.33	230.41
367.71	230.47
368.09	230.80
368.47	230.83
368.85	230.90
369.23	231.11
369.61	230.70
369.99	230.90
370.37	231.15
370.75	231.54
371.13	231.40
371.51	231.20
371.89	231.25
372.27	231.33
372.65	231.36
373.03	231.29
373.41	231.13
373.78	230.96
374.16	230.46
374.54	230.20
374.92	230.23
375.30	230.40
375.68	230.22
376.06	230.17
376.44	230.05
376.82	229.97
377.19	229.74
377.57	229.68
377.95	229.35
378.33	229.28
378.71	228.74
379.09	228.83
379.47	228.95
379.84	228.80
380.22	228.76
380.60	228.53
380.98	228.44
381.36	228.35
381.73	228.32
382.11	228.42
382.49	228.35
382.87	228.13
383.25	227.96
383.62	229.00
384.00	228.76
384.38	228.74
384.76	228.97
385.13	229.40
385.51	229.36
385.89	229.25
386.27	229.21
386.64	229.39
387.02	229.30
387.40	229.31
387.78	229.28
388.15	229.31
388.53	229.38
388.91	229.40
389.29	229.40
389.66	229.51
390.04	229.34
390.42	229.57
390.79	229.71
391.17	229.80
391.55	228.72
391.92	228.75
392.30	228.91
392.68	228.69
393.05	228.56
393.43	228.68
393.81	228.77
394.18	228.66
394.56	228.66
394.94	228.90
395.31	228.87
395.69	229.24
396.06	229.42
396.44	229.49
396.82	229.50
397.19	230.08
397.57	230.12
397.95	230.40
398.32	230.22
398.70	230.37
399.07	230.64
399.45	230.71
399.82	230.91
400.20	230.89
400.58	230.99
400.95	230.71
401.33	231.05
401.70	231.92
402.08	232.13
402.45	232.32
402.83	232.78
403.20	232.99
403.58	233.02
403.95	233.43
404.33	234.00
404.71	234.36
405.08	235.15
405.46	235.59
405.83	236.06
406.21	236.50
406.58	236.98
406.96	237.41
407.33	238.13
407.70	238.76
408.08	240.24
408.45	241.10
408.83	242.06
409.20	242.72
409.58	243.00
409.95	244.10
410.33	245.20
410.70	245.93
411.08	247.19
411.45	248.50
411.82	249.50
412.20	250.86
412.57	252.90
412.95	253.72
413.32	255.43
413.69	257.11
414.07	259.09
414.44	261.21
414.82	263.41
415.19	265.82
415.56	268.28
415.94	270.41
416.31	273.45
416.68	276.48
417.06	280.06
417.43	283.52
417.81	287.30
418.18	291.13
418.55	295.28
418.93	299.61
419.30	304.02
419.67	308.98
420.04	313.93
420.42	318.93
420.79	325.35
421.16	331.52
421.54	338.07
421.91	344.61
422.28	351.36
422.66	358.49
423.03	366.12
423.40	373.55
423.77	381.27
424.15	389.31
424.52	397.79
424.89	406.91
425.26	415.68
425.64	424.09
426.01	433.40
426.38	443.17
426.75	453.30
427.13	463.74
427.50	474.58
427.87	485.80
428.24	497.09
428.61	507.45
428.99	519.44
429.36	531.94
429.73	544.61
430.10	557.53
430.47	570.67
430.85	583.82
431.22	598.20
431.59	614.19
431.96	628.63
432.33	644.80
432.70	660.56
433.08	679.32
433.45	696.94
433.82	714.45
434.19	734.01
434.56	753.31
434.93	771.82
435.30	790.39
435.68	811.02
436.05	831.29
436.42	851.62
436.79	870.32
437.16	890.86
437.53	912.43
437.90	933.35
438.27	954.48
438.64	976.66
439.01	997.37
439.38	1015.23
439.75	1033.34
440.13	1053.85
440.50	1072.92
440.87	1088.75
441.24	1105.20
441.61	1123.65
441.98	1137.20
442.35	1152.69
442.72	1168.58
443.09	1184.24
443.46	1194.01
443.83	1201.19
444.20	1207.59
444.57	1216.16
444.94	1220.72
445.31	1225.30
445.68	1230.52
446.05	1233.10
446.42	1231.65
446.79	1230.06
447.16	1228.32
447.53	1227.17
447.90	1219.89
448.27	1212.85
448.64	1202.42
449.01	1195.26
449.37	1181.37
449.74	1168.08
450.11	1152.66
450.48	1135.13
450.85	1117.03
451.22	1101.68
451.59	1086.98
451.96	1072.89
452.33	1053.93
452.70	1037.08
453.07	1016.76
453.43	995.75
453.80	975.90
454.17	956.90
454.54	938.60
454.91	919.20
455.28	900.25
455.65	882.60
456.02	865.99
456.38	851.07
456.75	832.44
457.12	817.20
457.49	802.30
457.86	787.45
458.23	775.27
458.59	761.68
458.96	747.97
459.33	735.77
459.70	723.50
460.07	713.71
460.43	702.21
460.80	691.69
461.17	682.45
461.54	672.75
461.91	663.66
462.27	654.52
462.64	646.52
463.01	637.92
463.38	629.85
463.74	620.59
464.11	613.23
464.48	606.99
464.85	600.07
465.21	595.20
465.58	589.50
465.95	582.54
466.32	577.00
466.68	571.50
467.05	566.22
467.42	560.87
467.78	555.32
468.15	550.15
468.52	546.34
468.88	541.03
469.25	536.36
469.62	532.80
469.98	528.82
470.35	525.21
470.72	521.58
471.08	517.46
471.45	514.30
471.82	511.37
472.18	507.70
472.55	505.23
472.92	501.94
473.28	499.28
473.65	496.75
474.02	494.07
474.38	491.91
474.75	489.87
475.11	487.65
475.48	485.93
475.85	484.46
476.21	483.03
476.58	482.01
476.94	481.15
477.31	479.99
477.67	478.84
478.04	478.03
478.41	477.53
478.77	478.20
479.14	477.41
479.50	477.08
479.87	477.19
480.23	477.04
480.60	476.85
480.96	476.74
481.33	477.40
481.69	477.79
482.06	478.22
482.42	478.60
482.79	479.51
483.15	480.37
483.52	481.55
483.88	482.44
484.25	483.32
484.61	484.53
484.98	485.71
485.34	487.83
485.71	489.72
486.07	491.57
486.44	492.58
486.80	494.82
487.17	497.04
487.53	499.81
487.90	502.56
488.26	505.64
488.62	508.99
488.99	511.86
489.35	515.31
489.72	518.91
490.08	522.99
490.44	526.44
490.81	530.86
491.17	534.78
491.54	539.32
491.90	544.12
492.26	549.00
492.63	553.97
492.99	558.81
493.36	564.00
493.72	569.79
494.08	575.56
494.45	582.00
494.81	588.33
495.17	594.40
495.54	600.97
495.90	607.84
496.26	614.69
496.63	621.70
496.99	628.94
497.35	636.47
497.72	644.04
498.08	652.10
498.44	660.01
498.80	668.63
499.17	676.78
499.53	685.10
499.89	693.86
500.26	702.56
500.62	711.27
500.98	720.72
501.34	729.58
501.71	738.76
502.07	747.62
502.43	756.87
502.79	766.38
503.16	776.28
503.52	785.92
503.88	795.76
504.24	806.05
504.60	815.97
504.97	826.12
505.33	836.09
505.69	847.04
506.05	857.32
506.41	867.61
506.78	878.43
507.14	889.03
507.50	899.71
507.86	910.53
508.22	921.48
508.59	931.65
508.95	942.74
509.31	954.04
509.67	964.39
510.03	974.84
510.39	985.21
510.75	995.31
511.12	1005.70
511.48	1015.89
511.84	1026.02
512.20	1036.15
512.56	1046.12
512.92	1056.22
513.28	1065.71
513.64	1075.48
514.00	1084.91
514.37	1094.40
514.73	1103.85
515.09	1113.11
515.45	1122.15
515.81	1131.06
516.17	1140.08
516.53	1148.51
516.89	1156.70
517.25	1165.87
517.61	1174.83
517.97	1183.89
518.33	1192.26
518.69	1200.43
519.05	1208.91
519.41	1217.05
519.77	1225.72
520.13	1233.67
520.49	1241.21
520.85	1248.60
521.21	1256.09
521.57	1263.42
521.93	1270.31
522.29	1277.39
522.65	1283.55
523.01	1289.74
523.37	1295.30
523.73	1301.13
524.09	1306.35
524.45	1311.43
524.81	1316.74
525.17	1321.90
525.53	1326.77
525.89	1331.85
526.25	1336.39
526.61	1340.45
526.97	1344.91
527.33	1349.49
527.68	1354.71
528.04	1359.19
528.40	1363.42
528.76	1367.63
529.12	1371.60
529.48	1375.55
529.84	1378.96
530.20	1383.25
530.56	1387.85
530.91	1392.88
531.27	1396.91
531.63	1401.52
531.99	1405.90
532.35	1409.50
532.71	1413.07
533.07	1417.40
533.42	1421.97
533.78	1426.38
534.14	1430.83
534.50	1434.42
534.86	1438.36
535.21	1440.64
535.57	1444.12
535.93	1446.76
536.29	1450.18
536.65	1453.72
537.00	1456.63
537.36	1459.87
537.72	1462.47
538.08	1465.70
538.44	1467.96
538.79	1471.39
539.15	1474.01
539.51	1477.12
539.87	1479.86
540.22	1481.85
540.58	1483.80
540.94	1485.10
541.29	1486.20
541.65	1487.28
542.01	1488.95
542.37	1489.24
542.72	1490.31
543.08	1490.95
543.44	1492.73
543.79	1492.51
544.15	1493.24
544.51	1494.61
544.87	1494.98
545.22	1495.28
545.58	1494.40
545.94	1494.04
546.29	1492.84
546.65	1492.32
547.01	1490.90
547.36	1489.84
547.72	1489.53
548.07	1488.00
548.43	1487.18
548.79	1486.36
549.14	1485.31
549.50	1484.36
549.86	1483.45
550.21	1482.67
550.57	1482.04
550.92	1480.52
551.28	1479.87
551.64	1478.91
551.99	1477.46
552.35	1476.47
552.70	1475.64
553.06	1474.97
553.41	1474.27
553.77	1474.12
554.13	1473.69
554.48	1473.41
554.84	1473.21
555.19	1472.57
555.55	1473.41
555.90	1472.33
556.26	1471.54
556.61	1470.56
556.97	1468.79
557.32	1467.73
557.68	1467.04
558.03	1466.12
558.39	1465.26
558.74	1464.74
559.10	1463.01
559.45	1461.82
559.81	1460.54
560.16	1458.88
560.52	1457.22
560.87	1456.06
561.23	1454.16
561.58	1452.92
561.94	1450.35
562.29	1447.79
562.64	1446.14
563.00	1442.53
563.35	1440.64
563.71	1439.08
564.06	1437.51
564.42	1436.45
564.77	1435.48
565.12	1433.91
565.48	1433.04
565.83	1431.50
566.19	1430.08
566.54	1428.81
566.89	1427.21
567.25	1425.74
567.60	1424.92
567.96	1424.64
568.31	1423.30
568.66	1422.13
569.02	1419.56
569.37	1418.53
569.72	1417.70
570.08	1415.38
570.43	1413.54
570.78	1411.60
571.14	1409.46
571.49	1406.65
571.84	1404.22
572.20	1401.28
572.55	1398.63
572.90	1394.70
573.26	1391.98
573.61	1388.54
573.96	1385.37
574.31	1381.72
574.67	1378.21
575.02	1374.04
575.37	1369.24
575.72	1365.05
576.08	1361.29
576.43	1357.19
576.78	1352.70
577.13	1348.59
577.49	1344.85
577.84	1341.68
578.19	1338.67
578.54	1335.28
578.90	1332.67
579.25	1329.28
579.60	1325.59
579.95	1321.70
580.30	1318.13
580.66	1313.82
581.01	1309.72
581.36	1305.04
581.71	1301.18
582.06	1297.64
582.42	1294.00
582.77	1290.66
583.12	1286.91
583.47	1282.67
583.82	1279.79
584.17	1276.96
584.53	1273.55
584.88	1269.67
585.23	1265.48
585.58	1260.23
585.93	1255.46
586.28	1250.77
586.63	1245.97
586.98	1241.17
587.34	1236.70
587.69	1232.04
588.04	1228.41
588.39	1224.22
588.74	1220.39
589.09	1216.54
589.44	1211.71
589.79	1207.44
590.14	1203.17
590.49	1198.90
590.84	1194.82
591.19	1190.23
591.54	1185.65
591.89	1180.71
592.25	1177.74
592.60	1173.54
592.95	1169.54
593.30	1165.39
593.65	1160.71
594.00	1156.08
594.35	1154.63
594.70	1149.70
595.05	1145.41
595.40	1140.38
595.75	1135.51
596.10	1131.13
596.45	1126.58
596.80	1122.35
597.15	1117.84
597.50	1112.86
597.85	1108.53
598.19	1103.70
598.54	1099.00
598.89	1093.93
599.24	1089.76
599.59	1083.89
599.94	1079.16
600.29	1074.69
600.64	1069.90
600.99	1065.32
601.34	1061.27
601.69	1054.10
602.04	1050.20
602.39	1045.99
602.74	1041.92
603.08	1038.08
603.43	1034.43
603.78	1030.05
604.13	1025.83
604.48	1021.52
604.83	1016.95
605.18	1011.98
605.53	1007.39
605.87	1003.15
606.22	999.30
606.57	994.95
606.92	990.59
607.27	986.50
607.62	982.55
607.96	978.96
608.31	975.16
608.66	971.39
609.01	967.20
609.36	962.76
609.70	958.56
610.05	954.59
610.40	950.47
610.75	945.52
611.10	941.23
611.44	936.51
611.79	932.10
612.14	928.02
612.49	923.80
612.83	919.78
613.18	915.71
613.53	911.57
613.88	906.90
614.22	902.57
614.57	897.81
614.92	892.94
615.27	888.33
615.61	883.82
615.96	879.13
616.31	874.56
616.65	870.57
617.00	865.94
617.35	861.24
617.70	856.28
618.04	851.87
618.39	847.35
618.74	843.49
619.08	839.02
619.43	834.60
619.78	830.33
620.12	826.10
620.47	821.46
620.82	816.68
621.16	812.25
621.51	808.60
621.85	804.41
622.20	800.32
622.55	795.70
622.89	791.49
623.24	787.10
623.59	782.85
623.93	778.73
624.28	774.73
624.62	771.51
624.97	768.59
625.32	764.66
625.66	760.72
626.01	756.46
626.35	752.75
626.70	748.93
627.04	745.52
627.39	741.47
627.73	737.84
628.08	734.33
628.43	730.57
628.77	726.56
629.12	723.00
629.46	719.46
629.81	716.20
630.15	712.70
630.50	709.30
630.84	705.82
631.19	702.26
631.53	698.74
631.88	694.30
632.22	690.00
632.57	686.80
632.91	683.10
633.26	679.85
633.60	676.12
633.95	672.60
634.29	668.50
634.64	665.05
634.98	661.02
635.32	657.42
635.67	654.45
636.01	650.92
636.36	647.33
636.70	644.30
637.05	640.74
637.39	637.40
637.73	633.94
638.08	630.83
638.42	627.24
638.77	623.82
639.11	620.10
639.45	616.37
639.80	612.74
640.14	609.39
640.49	605.99
640.83	602.88
641.17	599.84
641.52	596.81
641.86	594.05
642.20	591.59
642.55	588.60
642.89	585.50
643.23	582.50
643.58	579.74
643.92	576.23
644.26	573.24
644.61	570.18
644.95	567.17
645.29	563.95
645.64	561.14
645.98	558.16
646.32	555.69
646.66	553.02
647.01	550.32
647.35	547.80
647.69	545.07
648.04	542.45
648.38	539.80
648.72	537.18
649.06	534.02
649.41	531.09
649.75	528.13
650.09	525.20
650.43	522.37
650.78	519.46
651.12	516.78
651.46	514.07
651.80	511.62
652.14	509.19
652.49	506.99
652.83	504.53
653.17	502.16
653.51	499.45
653.85	497.01
654.20	494.57
654.54	492.01
654.88	489.43
655.22	487.44
655.56	485.08
655.90	482.65
656.25	480.35
656.59	478.11
656.93	476.12
657.27	474.27
657.61	471.78
657.95	469.54
658.29	467.30
658.64	465.37
658.98	462.74
659.32	460.24
659.66	457.78
660.00	455.54
660.34	453.28
660.68	451.13
661.02	449.03
661.36	446.86
661.70	444.79
662.05	442.78
662.39	440.40
662.73	438.43
663.07	437.02
663.41	435.10
663.75	432.94
664.09	430.78
664.43	428.27
664.77	426.32
665.11	424.44
665.45	422.66
665.79	420.76
666.13	419.03
666.47	417.10
666.81	415.37
667.15	413.44
667.49	411.99
667.83	410.56
668.17	408.85
668.51	407.09
668.85	405.52
669.19	404.31
669.53	402.51
669.87	400.66
670.21	398.62
670.55	397.05
670.89	395.87
671.23	394.28
671.57	392.87
671.91	391.55
672.25	390.04
672.58	388.88
672.92	387.07
673.26	385.59
673.60	384.38
673.94	382.91
674.28	381.62
674.62	380.00
674.96	378.34
675.30	377.00
675.64	375.52
675.97	373.91
676.31	372.15
676.65	370.60
676.99	369.57
677.33	367.98
677.67	366.70
678.01	364.90
678.34	363.64
678.68	362.37
679.02	360.94
679.36	359.65
679.70	358.05
680.04	356.80
680.37	355.51
680.71	354.32
681.05	353.28
681.39	352.05
681.73	350.94
682.06	349.70
682.40	348.54
682.74	347.54
683.08	346.86
683.42	345.64
683.75	344.79
684.09	343.45
684.43	342.47
684.77	341.23
685.10	340.18
685.44	339.19
685.78	338.18
686.12	337.11
686.45	336.05
686.79	334.93
687.13	334.16
687.46	333.28
687.80	332.35
688.14	331.09
688.48	330.01
688.81	328.91
689.15	328.22
689.49	327.11
689.82	326.21
690.16	324.85
690.50	324.01
690.83	322.99
691.17	321.89
691.51	320.90
691.84	320.10
692.18	319.16
692.52	317.96
692.85	317.07
693.19	316.68
693.52	315.69
693.86	314.74
694.20	313.77
694.53	312.79
694.87	311.83
695.21	310.86
695.54	309.93
695.88	308.93
696.21	307.85
696.55	306.95
696.88	306.01
697.22	305.07
697.56	304.15
697.89	303.20
698.23	302.56
698.56	301.75
698.90	300.98
699.23	300.24
699.57	299.68
699.90	298.78
700.24	297.61
700.58	296.96
700.91	296.48
701.25	296.46
701.58	296.47
701.92	295.97
702.25	295.47
702.59	294.82
702.92	294.23
703.26	293.60
703.59	293.14
703.93	293.22
704.26	292.81
704.60	292.34
704.93	291.66
705.26	290.90
705.60	290.45
705.93	289.58
706.27	289.06
706.60	288.59
706.94	288.40
707.27	287.71
707.61	287.20
707.94	286.43
708.27	285.21
708.61	283.89
708.94	283.18
709.28	282.58
709.61	281.82
709.94	281.33
710.28	280.66
710.61	280.00
710.95	278.64
711.28	278.67
711.61	277.95
711.95	277.72
712.28	277.17
712.61	276.62
712.95	276.80
713.28	276.72
713.61	276.09
713.95	275.30
714.28	274.96
714.61	274.34
714.95	273.79
715.28	273.10
715.61	272.67
715.95	272.32
716.28	271.75
716.61	271.53
716.95	270.92
717.28	270.52
717.61	270.02
717.94	269.60
718.28	268.41
718.61	268.03
718.94	267.37
719.27	266.92
719.61	266.55
719.94	265.72
720.27	264.95
720.60	264.42
720.94	264.04
721.27	263.67
721.60	263.56
721.93	263.18
722.27	263.30
722.60	263.07
722.93	262.46
723.26	262.29
723.59	261.86
723.93	261.78
724.26	261.52
724.59	261.16
724.92	260.92
725.25	260.91
725.59	260.60
725.92	260.47
726.25	260.24
726.58	259.92
726.91	259.60
727.24	259.38
727.57	259.11
727.91	258.62
728.24	258.34
728.57	257.97
728.90	257.92
729.23	257.26
729.56	257.40
729.89	257.20
730.22	256.78
730.55	256.42
730.89	256.08
731.22	255.67
731.55	255.50
731.88	255.23
732.21	254.75
732.54	254.35
732.87	254.05
733.20	253.84
733.53	253.66
733.86	253.52
734.19	253.05
734.52	253.10
734.85	253.62
735.18	253.31
735.51	253.31
735.84	253.07
736.17	253.12
736.50	252.45
736.83	253.39
737.16	253.28
737.49	253.17
737.82	252.86
738.15	252.96
738.48	252.67
738.81	252.31
739.14	252.02
739.47	252.01
739.80	251.72
740.13	251.58
740.46	251.15
740.79	250.76
741.12	250.68
741.45	250.29
741.78	249.45
742.11	249.59
742.44	249.10
742.77	249.05
743.10	248.61
743.43	248.35
743.75	247.09
744.08	248.17
744.41	247.88
744.74	247.64
745.07	247.19
745.40	247.11
745.73	247.45
746.06	247.37
746.39	247.27
746.71	247.06
747.04	246.73
747.37	246.59
747.70	246.59
748.03	246.41
748.36	246.28
748.68	246.13
749.01	245.58
749.34	245.48
749.67	245.37
750.00	245.29
750.33	245.89
750.65	245.82
750.98	244.37
751.31	244.25
751.64	244.10
751.97	244.42
752.29	244.34
752.62	243.64
752.95	243.35
753.28	242.95
753.60	242.77
753.93	242.83
754.26	242.84
754.59	242.48
754.91	242.25
755.24	242.17
755.57	242.15
755.90	241.99
756.22	241.74
756.55	241.32
756.88	241.15
757.20	240.27
757.53	239.90
757.86	239.75
758.19	239.73
758.51	239.75
758.84	239.12
759.17	238.88
759.49	238.82
759.82	239.28
760.15	239.32
760.47	239.34
760.80	238.92
761.13	238.89
761.45	238.69
761.78	238.54
762.11	238.46
762.43	238.25
762.76	238.13
763.08	238.20
763.41	238.23
763.74	238.03
764.06	237.91
764.39	237.78
764.71	237.72
765.04	237.46
765.37	237.24
765.69	237.24
766.02	237.10
766.34	237.02
766.67	236.55
767.00	236.50
767.32	236.80
767.65	237.35
767.97	237.11
768.30	237.16
768.62	237.10
768.95	236.80
769.27	236.70
769.60	236.86
769.92	236.56
770.25	236.37
770.57	236.30
770.90	236.19
771.22	236.07
771.55	235.96
771.87	235.98
772.20	235.82
772.52	236.51
772.85	237.62
773.17	237.51
773.50	237.34
773.82	237.24
774.15	236.62
774.47	235.94
774.80	235.77
775.12	235.64
775.45	235.59
775.77	235.63
776.09	235.60
776.42	235.50
776.74	235.76
777.07	235.61
777.39	235.55
777.72	235.37
778.04	235.47
778.36	235.36
778.69	235.29
779.01	235.23
779.33	234.29
779.66	233.20
779.98	233.12
780.31	233.04
780.63	233.34
780.95	233.50
781.28	233.50
781.60	233.40
781.92	233.29
782.25	233.24
782.57	233.19
782.89	233.03
783.22	232.89
783.54	232.56
783.86	232.50
784.19	232.39
784.51	232.59
784.83	232.39
785.16	232.33
785.48	232.21
785.80	232.22
786.12	232.35
786.45	232.14
786.77	232.18
787.09	232.14
787.42	231.65
787.74	231.67
788.06	231.67
788.38	231.64
788.71	231.58
789.03	231.60
789.35	231.66
789.67	231.50
789.99	231.51
790.32	231.37
790.64	231.45
790.96	232.24
791.28	232.17
791.61	232.14
791.93	232.20
792.25	232.31
792.57	232.94
792.89	232.71
793.21	232.82
793.54	232.73
793.86	232.76
794.18	232.95
794.50	232.73
794.82	232.80
795.14	232.96
795.47	233.25
795.79	233.22
796.11	232.96
796.43	232.99
796.75	232.99
797.07	233.13
797.39	233.07
797.71	232.39
798.04	232.25
798.36	232.32
798.68	232.35
799.00	232.32
799.32	231.85
799.64	232.12
799.96	232.10
800.28	232.16
800.60	232.08
800.92	232.02
801.24	231.94
801.56	231.98
801.89	231.81
802.21	231.76
802.53	231.57
802.85	231.80
803.17	232.32
803.49	232.13
803.81	232.00
804.13	231.97
804.45	231.80
804.77	232.06
805.09	232.02
805.41	231.83
805.73	231.75
806.05	231.56
806.37	231.46
806.69	231.38
807.01	231.39
807.33	231.43
807.65	231.11
807.97	231.56
808.28	231.34
808.60	231.36
808.92	231.15
809.24	231.74
809.56	231.61
809.88	231.17
810.20	231.16
810.52	231.37
810.84	231.21
811.16	231.00
811.48	230.80
811.80	231.05
812.12	231.01
812.43	231.04
812.75	231.03
813.07	230.99
813.39	231.01
813.71	230.84
814.03	230.59
814.35	230.61
814.67	230.20
814.98	230.13
815.30	230.10
815.62	230.00
815.94	229.39
816.26	229.76
816.58	229.51
816.89	229.66
817.21	229.35
817.53	229.42
817.85	229.52
818.17	229.41
818.48	229.04
818.80	229.24
819.12	229.04
819.44	228.88
819.76	228.63
820.07	228.58
820.39	228.59
820.71	228.76
821.03	228.80
821.34	228.68
821.66	228.79
821.98	228.82
822.30	228.72
822.61	229.27
822.93	228.78
823.25	228.79
823.57	228.65
823.88	228.87
824.20	228.79
824.52	228.94
824.83	228.95
825.15	228.87
825.47	228.88
825.79	228.97
826.10	228.87
826.42	228.90
826.74	229.01
827.05	228.95
827.37	228.98
827.69	228.86
828.00	228.95
828.32	228.87
828.64	228.77
828.95	229.35
829.27	229.08
829.58	229.07
829.90	229.28
830.22	229.33
830.53	229.09
830.85	229.06
831.17	228.93
831.48	228.98
831.80	229.08
832.11	228.88
832.43	228.83
832.75	228.93
833.06	229.48
833.38	229.24
833.69	229.21
834.01	229.30
834.32	229.41
834.64	229.29
834.96	229.34
835.27	229.29
835.59	228.90
835.90	228.70
836.22	228.71
836.53	228.56
836.85	228.36
837.16	229.40
837.48	229.56
837.79	229.85
838.11	229.90
838.42	229.82
838.74	230.02
839.05	229.92
839.37	229.95
839.68	229.50
840.00	229.56
840.31	229.70
840.63	229.57
840.94	229.43
841.26	229.34
841.57	229.40
841.88	229.58
842.20	229.48
842.51	229.43
842.83	229.48
843.14	230.25
843.46	230.31
843.77	229.79
844.08	229.60
844.40	229.27
844.71	229.12
845.03	229.11
845.34	228.96
845.65	228.98
845.97	228.81
846.28	228.74
846.60	228.70
846.91	228.63
847.22	228.60
847.54	228.74
847.85	228.93
848.16	228.80
848.48	228.52
848.79	228.99
849.10	229.09
849.42	229.05
849.73	228.26
850.04	228.25
850.36	227.80
850.67	228.00
850.98	228.02
851.30	228.11
851.61	228.05
851.92	228.04
852.23	228.35
852.55	228.46
852.86	228.51
853.17	228.57
853.49	228.72
853.80	228.98
854.11	228.98
854.42	229.02
854.74	228.89
855.05	229.03
855.36	228.41
855.67	228.41
855.99	228.44
856.30	229.60
856.61	229.60
856.92	229.73
857.23	229.71
857.55	229.57
857.86	229.46
858.17	229.64
858.48	229.50
858.79	229.27
859.11	229.45
859.42	229.36
859.73	229.26
860.04	229.14
860.35	228.80
860.66	228.57
860.98	228.52
861.29	228.70
861.60	228.57
861.91	228.79
862.22	228.61
862.53	228.50
862.84	227.27
863.16	227.45
863.47	227.21
863.78	227.11
864.09	227.30
864.40	227.35
864.71	227.27
865.02	227.44
865.33	227.30
865.64	227.08
865.95	227.11
866.27	227.72
866.58	227.65
866.89	227.78
867.20	227.78
867.51	227.67
867.82	227.59
868.13	227.98
868.44	227.89
868.75	228.07
869.06	228.11
869.37	228.30
869.68	228.05
869.99	228.14
870.30	228.10
870.61	228.09
870.92	227.95
871.23	227.91
871.54	228.00
871.85	228.29
872.16	228.40
872.47	228.27
872.78	227.75
873.09	227.80
873.40	227.69
873.71	227.84
874.02	227.87
874.33	227.92
874.64	227.65
874.95	227.78
875.26	227.67
875.56	227.61
875.87	227.54
876.18	227.57
876.49	228.60
876.80	228.57
877.11	228.38
877.42	228.59
877.73	228.62
878.04	228.50
878.35	228.48
878.66	228.46
878.96	228.52
879.27	228.49
879.58	228.58
879.89	228.55
880.20	228.85
880.51	228.90
880.82	228.86
881.12	228.86
881.43	228.66
881.74	228.62
882.05	228.61
882.36	228.60
882.67	228.76
882.97	227.80
883.28	227.84
883.59	227.84
883.90	227.87
884.21	228.00
884.51	227.97
884.82	227.86
885.13	227.93
885.44	227.90
885.74	227.84
886.05	227.75
886.36	227.88
886.67	227.56
886.98	227.99
887.28	227.98
887.59	227.99
887.90	228.08
888.20	228.03
888.51	228.20
888.82	228.14
889.13	228.10
889.43	228.90
889.74	228.77
890.05	228.87
890.35	228.76
890.66	228.66
890.97	228.56
891.28	228.51
891.58	228.52
891.89	228.58
892.20	228.49
892.50	228.43
892.81	228.34
893.12	228.30
893.42	227.85
893.73	227.92
894.04	228.09
894.34	228.16
894.65	228.04
894.95	228.00
895.26	228.00
895.57	228.45
895.87	227.55
896.18	227.76
896.48	227.83
896.79	227.83
897.10	228.04
897.40	228.10
897.71	228.20
898.01	228.15
898.32	228.21
898.63	228.20
898.93	228.34
899.24	228.31
899.54	228.25
899.85	228.26
900.15	228.14
900.46	228.09
900.76	228.12
901.07	228.14
901.38	228.00
901.68	228.16
901.99	227.70
902.29	227.77
902.60	227.63
902.90	227.58
903.21	227.58
903.51	227.40
903.82	227.73
904.12	227.70
904.43	227.80
904.73	227.73
905.03	227.79
905.34	228.50
905.64	228.49
905.95	228.50
906.25	228.53
906.56	228.56
906.86	228.55
907.17	228.46
907.47	228.53
907.77	228.42
908.08	228.23
908.38	228.26
908.69	228.32
908.99	228.54
909.30	228.57
909.60	228.59
909.90	228.65
910.21	228.21
910.51	228.09
910.81	227.99
911.12	228.15
911.42	228.23
911.73	227.33
912.03	227.49
912.33	227.72
912.64	227.64
912.94	227.60
913.24	227.39
913.55	227.41
913.85	227.43
914.15	227.78
914.46	227.90
914.76	227.86
915.06	227.80
915.37	227.54
915.67	227.52
915.97	227.51
916.27	227.32
916.58	227.49
916.88	227.47
917.18	227.36
917.49	227.93
917.79	227.87
918.09	228.06
918.39	228.22
918.70	228.14
919.00	228.17
919.30	228.64
919.60	228.60
919.91	228.53
920.21	228.54
920.51	228.28
920.81	228.29
921.12	228.33
921.42	228.28
921.72	228.46
922.02	228.41
922.32	228.68
922.63	228.70
922.93	229.07
923.23	229.16
923.53	229.14
923.83	228.45
924.13	228.59
924.44	228.61
924.74	228.73
925.04	229.00
925.34	228.93
925.64	228.58
925.94	228.65
926.24	229.11
926.55	229.06
926.85	229.21
927.15	229.12
927.45	229.15
927.75	229.18
928.05	229.18
928.35	229.21
928.65	229.22
928.95	229.30
929.26	228.96
929.56	229.19
929.86	229.34
930.16	229.32
930.46	229.22
930.76	229.12
931.06	228.69
931.36	228.29
931.66	228.36
931.96	228.43
932.26	228.45
932.56	228.04
932.86	228.16
933.16	228.18
933.46	228.17
933.76	228.09
934.06	228.34
934.36	228.68
934.66	228.62
934.96	228.54
935.26	228.61
935.56	228.71
935.86	228.28
936.16	228.05
936.46	228.01
936.76	227.95
937.06	227.88
937.36	227.93
937.66	228.06
937.96	228.10
938.26	227.85
938.56	227.77
938.86	227.87
939.16	227.94
939.46	228.04
939.76	228.05
940.06	228.01
940.35	227.74
940.65	227.20
940.95	227.29
941.25	227.03
941.55	226.82
941.85	226.77
942.15	227.16
942.45	227.48
942.75	227.37
943.04	227.38
943.34	227.60
943.64	227.53
943.94	227.35
944.24	227.43
944.54	227.48
944.84	227.44
945.13	227.30
945.43	227.10
945.73	226.97
946.03	226.88
946.33	226.78
946.62	226.68
946.92	226.76
947.22	226.73
947.52	226.78
947.82	226.94
948.11	226.82
948.41	226.64
948.71	226.40
949.01	226.57
949.31	226.48
949.60	226.29
949.90	226.49
950.20	226.47
950.50	226.28
950.79	226.22
951.09	226.40
951.39	226.41
951.69	226.31
951.98	226.42
952.28	226.53
952.58	226.51
952.87	226.51
953.17	226.60
953.47	226.54
953.76	226.47
954.06	226.26
954.36	226.19
954.66	226.07
954.95	226.30
955.25	226.37
955.55	226.44
955.84	226.29
956.14	226.47
956.44	226.64
956.73	226.60
957.03	226.72
957.32	226.70
957.62	226.61
957.92	226.81
958.21	226.80
958.51	227.77
958.81	227.90
959.10	228.03
959.40	228.25
959.69	228.40
959.99	228.61
960.29	228.70
960.58	228.61
960.88	229.03
961.17	228.92
961.47	228.99
961.76	228.93
962.06	229.23
962.36	228.94
962.65	228.92
962.95	229.05
963.24	228.98
963.54	228.91
963.83	228.98
964.13	228.98
964.42	228.74
964.72	228.12
965.01	228.14
965.31	228.12
965.60	227.77
965.90	228.32
966.19	228.06
966.49	228.17
966.78	228.13
967.08	227.99
967.37	228.03
967.67	227.80
967.96	228.08
968.26	227.92
968.55	228.05
968.85	228.05
969.14	228.00
969.43	228.00
969.73	228.02
970.02	227.91
970.32	227.80
970.61	227.72
970.91	227.42
971.20	227.28
971.49	227.22
971.79	227.37
972.08	226.69
972.38	226.78
972.67	226.66
972.96	226.85
973.26	226.69
973.55	226.92
973.85	226.92
974.14	226.80
974.43	226.92
974.73	226.79
975.02	226.70
975.31	226.68
975.61	226.51
975.90	226.44
976.19	226.46
976.49	226.54
976.78	226.58
977.07	226.60
977.37	226.68
977.66	226.71
977.95	226.62
978.24	226.63
978.54	226.88
978.83	226.80
979.12	226.73
979.42	226.66
979.71	226.49
980.00	226.52
980.29	226.55
980.59	226.30
980.88	226.57
981.17	226.55
981.46	226.57
981.76	226.66
982.05	226.97
982.34	227.01
982.63	227.03
982.93	227.17
983.22	227.27
983.51	227.27
983.80	227.50
984.09	227.58
984.39	227.59
984.68	227.43
984.97	227.48
985.26	227.43
985.55	227.54
985.85	227.31
986.14	227.39
986.43	227.42
986.72	227.42
987.01	227.04
987.30	226.98
987.59	226.97
987.89	227.07
988.18	226.77
988.47	226.78
988.76	226.61
989.05	226.46
989.34	226.31
989.63	226.55
989.92	226.34
990.22	226.31
990.51	226.26
990.80	226.19
991.09	226.33
991.38	226.47
991.67	226.44
991.96	226.28
992.25	226.27
992.54	226.08
992.83	226.15
993.12	226.23
993.41	226.46
993.70	226.79
993.99	226.99
994.28	227.18
994.58	227.32
994.87	227.34
995.16	227.38
995.45	227.38
995.74	227.03
996.03	227.22
996.32	227.32
996.61	227.47
996.90	227.48
997.19	227.51
997.48	227.53
997.77	227.39
998.06	227.54
998.34	227.57
998.63	227.59
998.92	227.56
999.21	227.73
999.50	227.63
999.79	227.30
1000.08	227.16
1000.37	227.11
1000.66	226.89
1000.95	227.13
1001.24	227.25
1001.53	227.34
1001.82	227.33
1002.11	227.03
1002.40	227.15
1002.68	227.48
1002.97	228.15
1003.26	227.89
1003.55	227.75
1003.84	227.88
1004.13	228.26
1004.42	228.07
1004.71	228.10
1004.99	228.08
1005.28	228.22
1005.57	228.25
1005.86	228.13
1006.15	228.10
1006.44	227.89
1006.72	228.24
1007.01	228.02
1007.30	227.86
1007.59	227.86
1007.88	227.88
1008.17	227.99
1008.45	227.66
1008.74	227.17
1009.03	226.60
1009.32	226.65
1009.60	226.72
1009.89	226.61
1010.18	226.18
1010.47	226.23
1010.76	226.29
1011.04	226.29
1011.33	226.29
1011.62	226.28
1011.91	226.39
1012.19	226.39
1012.48	226.41
1012.77	226.23
1013.05	226.77
1013.34	226.91
1013.63	226.85
1013.92	226.95
1014.20	226.87
1014.49	227.01
1014.78	227.14
1015.06	226.97
1015.35	227.00
1015.64	227.04
1015.92	227.19
1016.21	227.32
1016.50	227.36
1016.78	227.39
1017.07	227.51
1017.36	227.26
1017.64	227.13
1017.93	227.28
1018.22	227.23
1018.50	227.23
1018.79	227.24
1019.08	226.79
1019.36	226.78
1019.65	226.68
1019.93	226.99
1020.22	227.16
1020.51	227.59
1020.79	227.57
1021.08	226.10
1021.36	224.20
1021.65	228.00
1021.94	226.80
1022.22	226.80
1022.51	225.90
1022.79	233.10
1023.08	228.50
1023.36	237.80
1023.65	226.80
>>>>>End Processed Spectral Data<<<<<
