SpectraSuite Data File
++++++++++++++++++++++++++++++++++++
Date: Wed Sep 04 17:31:07 EDT 2013
User: lab3
Dark Spectrum Present: Yes
Reference Spectrum Present: No
Number of Sampled Component Spectra: 1
Spectrometers: USB2E7196
Integration Time (usec): 337000 (USB2E7196)
Spectra Averaged: 10 (USB2E7196)
Boxcar Smoothing: 10 (USB2E7196)
Correct for Electrical Dark: No (USB2E7196)
Strobe/Lamp Enabled: No (USB2E7196)
Correct for Detector Non-linearity: No (USB2E7196)
Correct for Stray Light: No (USB2E7196)
Number of Pixels in Processed Spectrum: 2048
>>>>>Begin Processed Spectral Data<<<<<
339.09	0.00
339.48	212.50
339.86	215.90
340.24	215.90
340.63	215.40
341.01	234.20
341.39	219.00
341.78	225.30
342.16	225.00
342.54	224.50
342.93	213.66
343.31	224.43
343.69	225.07
344.07	225.50
344.46	226.09
344.84	226.59
345.22	226.17
345.60	226.55
345.99	226.74
346.37	226.81
346.75	226.91
347.13	227.00
347.52	227.00
347.90	227.22
348.28	227.29
348.66	227.60
349.05	227.36
349.43	227.44
349.81	227.52
350.19	227.56
350.57	227.47
350.96	227.57
351.34	227.60
351.72	227.68
352.10	227.70
352.48	227.52
352.87	227.58
353.25	227.65
353.63	227.60
354.01	227.47
354.39	227.59
354.77	227.58
355.15	227.82
355.54	227.79
355.92	227.51
356.30	227.56
356.68	228.12
357.06	228.28
357.44	228.19
357.82	228.20
358.20	229.00
358.58	229.05
358.97	229.12
359.35	229.44
359.73	229.59
360.11	229.67
360.49	229.88
360.87	229.95
361.25	230.15
361.63	230.59
362.01	230.72
362.39	230.70
362.77	230.87
363.15	230.93
363.53	231.03
363.91	231.30
364.29	231.26
364.67	230.39
365.05	230.45
365.43	230.56
365.81	230.67
366.19	230.36
366.57	230.77
366.95	230.75
367.33	230.49
367.71	230.50
368.09	230.73
368.47	230.70
368.85	230.69
369.23	230.74
369.61	230.39
369.99	230.61
370.37	230.66
370.75	231.06
371.13	230.83
371.51	230.62
371.89	230.56
372.27	230.59
372.65	230.70
373.03	230.57
373.41	230.44
373.78	230.45
374.16	229.88
374.54	229.53
374.92	229.43
375.30	229.42
375.68	229.19
376.06	229.08
376.44	228.95
376.82	228.91
377.19	228.87
377.57	228.73
377.95	228.49
378.33	228.35
378.71	227.68
379.09	227.73
379.47	227.85
379.84	227.66
380.22	227.45
380.60	227.20
380.98	227.13
381.36	227.08
381.73	226.84
382.11	226.97
382.49	226.94
382.87	226.78
383.25	226.62
383.62	227.67
384.00	227.50
384.38	227.45
384.76	227.60
385.13	227.89
385.51	227.87
385.89	227.60
386.27	227.47
386.64	227.66
387.02	227.66
387.40	227.52
387.78	227.52
388.15	227.59
388.53	227.58
388.91	227.51
389.29	227.39
389.66	227.51
390.04	227.44
390.42	227.58
390.79	227.59
391.17	227.62
391.55	226.49
391.92	226.47
392.30	226.62
392.68	226.38
393.05	226.25
393.43	226.30
393.81	226.44
394.18	226.41
394.56	226.30
394.94	226.58
395.31	226.51
395.69	226.90
396.06	227.05
396.44	227.08
396.82	227.03
397.19	227.53
397.57	227.44
397.95	227.65
398.32	227.44
398.70	227.60
399.07	227.95
399.45	228.07
399.82	228.11
400.20	228.07
400.58	228.20
400.95	227.87
401.33	228.21
401.70	228.94
402.08	229.20
402.45	229.48
402.83	229.55
403.20	229.89
403.58	229.91
403.95	230.32
404.33	230.81
404.71	231.17
405.08	231.87
405.46	232.28
405.83	232.56
406.21	232.88
406.58	233.29
406.96	233.57
407.33	234.18
407.70	234.79
408.08	236.06
408.45	236.71
408.83	237.52
409.20	237.96
409.58	238.12
409.95	238.95
410.33	239.72
410.70	240.26
411.08	241.10
411.45	242.01
411.82	242.65
412.20	243.75
412.57	245.32
412.95	245.75
413.32	246.99
413.69	248.17
414.07	249.50
414.44	250.98
414.82	252.52
415.19	254.23
415.56	256.03
415.94	257.45
416.31	259.72
416.68	261.80
417.06	264.28
417.43	266.82
417.81	269.48
418.18	272.32
418.55	275.33
418.93	278.39
419.30	281.59
419.67	285.09
420.04	288.55
420.42	292.04
420.79	296.97
421.16	301.22
421.54	306.16
421.91	310.90
422.28	315.70
422.66	320.85
423.03	326.48
423.40	331.67
423.77	337.23
424.15	342.82
424.52	348.80
424.89	355.48
425.26	361.53
425.64	367.50
426.01	373.80
426.38	380.59
426.75	387.88
427.13	394.98
427.50	402.50
427.87	410.11
428.24	417.99
428.61	424.90
428.99	433.38
429.36	441.88
429.73	450.59
430.10	459.41
430.47	468.50
430.85	477.06
431.22	486.89
431.59	497.82
431.96	507.78
432.33	518.98
432.70	529.54
433.08	542.43
433.45	554.45
433.82	566.57
434.19	580.11
434.56	593.30
434.93	605.84
435.30	618.42
435.68	632.71
436.05	646.41
436.42	660.06
436.79	672.76
437.16	686.60
437.53	701.21
437.90	715.97
438.27	730.45
438.64	745.33
439.01	759.48
439.38	771.60
439.75	783.46
440.13	797.00
440.50	809.86
440.87	820.24
441.24	831.26
441.61	843.25
441.98	852.17
442.35	862.34
442.72	873.07
443.09	883.44
443.46	889.68
443.83	894.33
444.20	898.40
444.57	903.91
444.94	906.40
445.31	909.20
445.68	912.54
446.05	913.45
446.42	912.42
446.79	911.07
447.16	909.36
447.53	908.73
447.90	903.40
448.27	898.25
448.64	890.95
449.01	885.72
449.37	876.62
449.74	867.27
450.11	856.97
450.48	845.10
450.85	832.65
451.22	822.20
451.59	811.79
451.96	802.10
452.33	789.33
452.70	778.11
453.07	764.16
453.43	749.16
453.80	735.71
454.17	722.90
454.54	710.36
454.91	696.87
455.28	683.62
455.65	671.68
456.02	660.87
456.38	650.80
456.75	638.07
457.12	627.46
457.49	617.29
457.86	606.56
458.23	598.10
458.59	588.79
458.96	579.24
459.33	570.88
459.70	562.58
460.07	555.60
460.43	547.71
460.80	540.90
461.17	534.65
461.54	528.13
461.91	521.66
462.27	515.27
462.64	510.10
463.01	504.35
463.38	499.07
463.74	492.02
464.11	486.94
464.48	482.71
464.85	477.63
465.21	474.18
465.58	470.30
465.95	465.33
466.32	461.60
466.68	457.87
467.05	454.24
467.42	450.49
467.78	446.66
468.15	443.12
468.52	440.33
468.88	436.57
469.25	433.41
469.62	431.10
469.98	428.37
470.35	425.82
470.72	423.23
471.08	420.30
471.45	418.33
471.82	416.11
472.18	413.52
472.55	412.06
472.92	409.62
473.28	407.76
473.65	405.99
474.02	404.19
474.38	402.68
474.75	401.38
475.11	399.80
475.48	398.70
475.85	397.49
476.21	396.14
476.58	395.26
476.94	394.42
477.31	393.31
477.67	392.34
478.04	391.57
478.41	391.04
478.77	391.50
479.14	390.70
479.50	390.48
479.87	390.25
480.23	389.79
480.60	389.57
480.96	389.36
481.33	389.74
481.69	389.68
482.06	389.49
482.42	389.55
482.79	389.73
483.15	389.89
483.52	390.42
483.88	390.80
484.25	391.17
484.61	391.68
484.98	392.25
485.34	393.31
485.71	394.17
486.07	395.07
486.44	395.10
486.80	396.20
487.17	397.11
487.53	398.53
487.90	400.01
488.26	401.90
488.62	403.82
488.99	405.04
489.35	406.69
489.72	408.51
490.08	410.46
490.44	412.36
490.81	414.47
491.17	416.29
491.54	418.65
491.90	421.07
492.26	423.44
492.63	426.00
492.99	428.07
493.36	430.68
493.72	433.56
494.08	436.58
494.45	439.78
494.81	443.10
495.17	446.08
495.54	449.49
495.90	452.48
496.26	455.48
496.63	459.09
496.99	462.33
497.35	466.11
497.72	469.84
498.08	473.53
498.44	477.25
498.80	481.40
499.17	485.05
499.53	488.86
499.89	492.90
500.26	496.78
500.62	501.06
500.98	505.45
501.34	509.33
501.71	513.34
502.07	517.22
502.43	521.08
502.79	525.12
503.16	529.07
503.52	533.42
503.88	537.64
504.24	541.91
504.60	546.61
504.97	551.05
505.33	555.21
505.69	559.92
506.05	564.23
506.41	568.56
506.78	573.03
507.14	577.32
507.50	581.79
507.86	586.23
508.22	590.68
508.59	594.62
508.95	598.96
509.31	603.65
509.67	607.70
510.03	611.71
510.39	615.65
510.75	619.62
511.12	623.28
511.48	627.06
511.84	630.50
512.20	633.96
512.56	637.48
512.92	641.14
513.28	644.52
513.64	647.97
514.00	651.24
514.37	654.40
514.73	657.80
515.09	660.82
515.45	663.80
515.81	666.70
516.17	669.78
516.53	672.59
516.89	674.99
517.25	678.22
517.61	681.76
517.97	685.22
518.33	688.39
518.69	691.58
519.05	695.12
519.41	698.52
519.77	702.23
520.13	705.15
520.49	707.68
520.85	713.05
521.21	716.42
521.57	719.37
521.93	722.06
522.29	724.88
522.65	727.23
523.01	729.91
523.37	732.28
523.73	734.78
524.09	737.44
524.45	739.95
524.81	742.52
525.17	744.89
525.53	747.25
525.89	749.56
526.25	752.38
526.61	754.06
526.97	756.19
527.33	758.54
527.68	762.14
528.04	765.02
528.40	765.22
528.76	768.02
529.12	770.88
529.48	774.28
529.84	776.92
530.20	780.68
530.56	784.25
530.91	787.81
531.27	791.46
531.63	795.19
531.99	798.72
532.35	802.10
532.71	805.59
533.07	809.44
533.42	814.34
533.78	817.66
534.14	822.06
534.50	826.11
534.86	830.07
535.21	833.13
535.57	837.44
535.93	841.30
536.29	845.31
536.65	849.44
537.00	853.33
537.36	857.75
537.72	861.23
538.08	865.05
538.44	868.77
538.79	872.94
539.15	877.03
539.51	881.38
539.87	885.53
540.22	889.29
540.58	893.24
540.94	895.90
541.29	899.83
541.65	903.21
542.01	907.41
542.37	910.76
542.72	914.07
543.08	917.16
543.44	920.90
543.79	924.04
544.15	927.89
544.51	931.70
544.87	935.40
545.22	938.84
545.58	942.18
545.94	945.87
546.29	948.99
546.65	951.77
547.01	954.60
547.36	957.68
547.72	961.21
548.07	964.10
548.43	967.26
548.79	970.24
549.14	973.41
549.50	976.33
549.86	979.31
550.21	982.48
550.57	986.12
550.92	989.08
551.28	992.12
551.64	994.62
551.99	997.44
552.35	1000.22
552.70	1003.42
553.06	1006.63
553.41	1009.71
553.77	1013.10
554.13	1016.48
554.48	1020.03
554.84	1023.11
555.19	1025.81
555.55	1029.52
555.90	1032.29
556.26	1034.93
556.61	1037.17
556.97	1038.90
557.32	1041.26
557.68	1043.80
558.03	1045.95
558.39	1048.30
558.74	1050.55
559.10	1052.24
559.45	1054.18
559.81	1056.03
560.16	1057.66
560.52	1059.66
560.87	1061.49
561.23	1062.71
561.58	1064.89
561.94	1065.63
562.29	1066.67
562.64	1068.22
563.00	1068.46
563.35	1070.00
563.71	1071.50
564.06	1073.28
564.42	1074.96
564.77	1076.80
565.12	1078.30
565.48	1080.63
565.83	1081.94
566.19	1083.60
566.54	1085.45
566.89	1086.66
567.25	1088.28
567.60	1090.11
567.96	1092.14
568.31	1093.74
568.66	1095.28
569.02	1095.34
569.37	1096.37
569.72	1097.71
570.08	1098.27
570.43	1098.95
570.78	1099.29
571.14	1099.73
571.49	1099.80
571.84	1100.27
572.20	1100.11
572.55	1100.13
572.90	1099.00
573.26	1098.39
573.61	1097.43
573.96	1096.85
574.31	1095.93
574.67	1094.91
575.02	1093.39
575.37	1090.72
575.72	1088.87
576.08	1087.14
576.43	1085.71
576.78	1084.30
577.13	1082.43
577.49	1080.89
577.84	1080.28
578.19	1079.11
578.54	1077.50
578.90	1076.25
579.25	1074.79
579.60	1073.30
579.95	1071.62
580.30	1069.68
580.66	1068.00
581.01	1066.18
581.36	1064.12
581.71	1062.33
582.06	1060.34
582.42	1058.51
582.77	1057.11
583.12	1055.41
583.47	1053.53
583.82	1052.10
584.17	1050.27
584.53	1048.95
584.88	1046.44
585.23	1043.88
585.58	1041.02
585.93	1038.66
586.28	1035.94
586.63	1033.14
586.98	1030.29
587.34	1027.63
587.69	1024.96
588.04	1022.73
588.39	1020.47
588.74	1018.06
589.09	1015.94
589.44	1012.94
589.79	1010.34
590.14	1007.77
590.49	1005.01
590.84	1002.38
591.19	999.64
591.54	997.25
591.89	994.06
592.25	992.92
592.60	990.25
592.95	987.71
593.30	984.86
593.65	982.04
594.00	978.86
594.35	978.48
594.70	975.38
595.05	972.61
595.40	969.38
595.75	965.92
596.10	962.81
596.45	959.69
596.80	956.91
597.15	953.83
597.50	950.51
597.85	947.62
598.19	944.37
598.54	940.81
598.89	937.02
599.24	933.98
599.59	929.66
599.94	926.19
600.29	923.07
600.64	920.27
600.99	917.33
601.34	914.63
601.69	909.13
602.04	905.73
602.39	902.38
602.74	899.56
603.08	896.70
603.43	893.96
603.78	890.80
604.13	887.48
604.48	884.29
604.83	881.08
605.18	877.58
605.53	874.05
605.87	870.93
606.22	868.16
606.57	864.95
606.92	861.68
607.27	858.57
607.62	855.60
607.96	852.39
608.31	849.09
608.66	846.14
609.01	843.17
609.36	840.32
609.70	837.31
610.05	833.72
610.40	830.47
610.75	826.76
611.10	823.13
611.44	819.79
611.79	816.38
612.14	813.40
612.49	809.81
612.83	807.00
613.18	803.72
613.53	800.14
613.88	796.62
614.22	793.22
614.57	789.62
614.92	785.96
615.27	782.67
615.61	779.32
615.96	775.70
616.31	772.01
616.65	768.86
617.00	765.38
617.35	762.29
617.70	758.90
618.04	755.54
618.39	752.33
618.74	749.53
619.08	746.27
619.43	742.64
619.78	739.37
620.12	735.65
620.47	732.16
620.82	728.86
621.16	725.48
621.51	722.74
621.85	719.63
622.20	716.47
622.55	712.55
622.89	709.22
623.24	706.06
623.59	702.69
623.93	699.41
624.28	696.26
624.62	693.76
624.97	690.85
625.32	687.73
625.66	684.45
626.01	680.74
626.35	677.91
626.70	674.88
627.04	672.14
627.39	669.09
627.73	666.31
628.08	663.37
628.43	660.14
628.77	656.57
629.12	653.45
629.46	650.58
629.81	648.13
630.15	645.40
630.50	642.34
630.84	639.37
631.19	636.26
631.53	633.61
631.88	629.83
632.22	626.58
632.57	624.14
632.91	621.33
633.26	618.85
633.60	615.79
633.95	612.86
634.29	609.45
634.64	606.65
634.98	603.43
635.32	600.84
635.67	598.59
636.01	595.95
636.36	593.10
636.70	590.53
637.05	587.57
637.39	584.82
637.73	582.16
638.08	579.80
638.42	576.93
638.77	573.81
639.11	570.72
639.45	567.86
639.80	564.52
640.14	561.61
640.49	558.76
640.83	555.95
641.17	553.37
641.52	550.85
641.86	548.25
642.20	546.28
642.55	543.51
642.89	540.64
643.23	538.07
643.58	535.97
643.92	532.90
644.26	530.40
644.61	528.14
644.95	525.76
645.29	523.11
645.64	520.79
645.98	518.34
646.32	516.45
646.66	513.95
647.01	511.66
647.35	509.72
647.69	507.50
648.04	505.32
648.38	503.03
648.72	500.69
649.06	498.30
649.41	495.61
649.75	493.02
650.09	490.86
650.43	488.49
650.78	485.76
651.12	483.55
651.46	481.22
651.80	478.80
652.14	476.52
652.49	474.49
652.83	472.40
653.17	470.38
653.51	467.86
653.85	466.10
654.20	463.94
654.54	461.50
654.88	459.18
655.22	457.54
655.56	455.49
655.90	453.60
656.25	451.61
656.59	449.74
656.93	448.09
657.27	446.34
657.61	444.17
657.95	442.46
658.29	440.51
658.64	438.76
658.98	436.53
659.32	434.28
659.66	432.13
660.00	430.30
660.34	428.46
660.68	426.70
661.02	424.80
661.36	422.93
661.70	420.96
662.05	419.29
662.39	417.29
662.73	415.67
663.07	414.50
663.41	412.89
663.75	410.86
664.09	409.06
664.43	407.17
664.77	405.65
665.11	403.67
665.45	402.11
665.79	400.50
666.13	399.00
666.47	397.54
666.81	396.02
667.15	394.11
667.49	392.75
667.83	391.61
668.17	390.05
668.51	388.67
668.85	387.68
669.19	386.62
669.53	384.95
669.87	383.37
670.21	381.41
670.55	380.09
670.89	379.29
671.23	377.88
671.57	376.28
671.91	374.99
672.25	373.82
672.58	372.75
672.92	371.20
673.26	369.96
673.60	368.80
673.94	367.66
674.28	366.60
674.62	365.27
674.96	363.69
675.30	362.56
675.64	361.37
675.97	359.85
676.31	358.13
676.65	356.76
676.99	355.80
677.33	354.56
677.67	353.26
678.01	351.55
678.34	350.26
678.68	349.36
679.02	348.07
679.36	346.90
679.70	345.68
680.04	344.73
680.37	343.59
680.71	342.47
681.05	341.31
681.39	340.30
681.73	339.24
682.06	338.32
682.40	337.26
682.74	336.33
683.08	335.62
683.42	334.55
683.75	333.91
684.09	332.65
684.43	331.80
684.77	330.81
685.10	329.93
685.44	329.00
685.78	328.00
686.12	327.07
686.45	326.14
686.79	325.07
687.13	324.27
687.46	323.42
687.80	322.61
688.14	321.63
688.48	320.76
688.81	319.81
689.15	319.11
689.49	318.02
689.82	317.08
690.16	315.92
690.50	315.20
690.83	314.21
691.17	313.23
691.51	312.37
691.84	311.62
692.18	310.79
692.52	309.93
692.85	309.08
693.19	308.66
693.52	307.75
693.86	306.92
694.20	305.99
694.53	305.18
694.87	304.15
695.21	303.25
695.54	302.42
695.88	301.45
696.21	300.19
696.55	299.58
696.88	298.83
697.22	297.90
697.56	297.23
697.89	296.42
698.23	295.72
698.56	294.85
698.90	294.11
699.23	293.37
699.57	292.78
699.90	292.08
700.24	291.11
700.58	290.56
700.91	290.05
701.25	290.02
701.58	289.98
701.92	289.69
702.25	289.18
702.59	288.45
702.92	287.91
703.26	287.59
703.59	287.01
703.93	287.12
704.26	286.77
704.60	286.16
704.93	285.50
705.26	284.90
705.60	284.56
705.93	283.83
706.27	283.51
706.60	283.17
706.94	282.94
707.27	282.27
707.61	281.72
707.94	281.17
708.27	279.94
708.61	278.75
708.94	278.01
709.28	277.51
709.61	277.05
709.94	276.72
710.28	276.15
710.61	275.61
710.95	274.33
711.28	274.55
711.61	274.04
711.95	273.84
712.28	273.48
712.61	273.01
712.95	273.07
713.28	272.95
713.61	272.36
713.95	271.59
714.28	271.24
714.61	270.82
714.95	270.31
715.28	269.84
715.61	269.51
715.95	269.20
716.28	268.68
716.61	268.28
716.95	267.72
717.28	267.25
717.61	266.82
717.94	266.40
718.28	265.22
718.61	264.90
718.94	264.34
719.27	263.84
719.61	263.48
719.94	262.91
720.27	262.09
720.60	261.57
720.94	261.34
721.27	261.09
721.60	260.84
721.93	260.49
722.27	260.54
722.60	260.30
722.93	259.90
723.26	259.63
723.59	259.18
723.93	258.88
724.26	258.68
724.59	258.21
724.92	257.99
725.25	258.09
725.59	257.63
725.92	257.33
726.25	257.10
726.58	256.86
726.91	256.54
727.24	256.37
727.57	256.23
727.91	255.76
728.24	255.66
728.57	255.17
728.90	255.02
729.23	254.34
729.56	254.54
729.89	254.19
730.22	253.94
730.55	253.77
730.89	253.60
731.22	253.31
731.55	253.23
731.88	252.97
732.21	252.53
732.54	252.31
732.87	252.21
733.20	252.09
733.53	251.91
733.86	251.65
734.19	251.40
734.52	251.28
734.85	251.67
735.18	251.19
735.51	251.34
735.84	251.17
736.17	251.24
736.50	250.42
736.83	251.40
737.16	251.20
737.49	251.08
737.82	250.87
738.15	250.74
738.48	250.50
738.81	250.30
739.14	249.94
739.47	249.69
739.80	249.41
740.13	249.20
740.46	248.90
740.79	248.61
741.12	248.30
741.45	247.99
741.78	247.29
742.11	247.45
742.44	247.07
742.77	247.03
743.10	246.68
743.43	246.45
743.75	245.22
744.08	246.26
744.41	245.95
744.74	245.63
745.07	245.26
745.40	245.20
745.73	245.47
746.06	245.32
746.39	245.36
746.71	245.19
747.04	244.93
747.37	244.54
747.70	244.61
748.03	244.59
748.36	244.58
748.68	244.41
749.01	243.97
749.34	243.86
749.67	243.63
750.00	243.69
750.33	244.30
750.65	244.36
750.98	243.10
751.31	243.08
751.64	243.10
751.97	243.53
752.29	243.32
752.62	242.77
752.95	242.63
753.28	242.22
753.60	242.02
753.93	242.15
754.26	242.28
754.59	241.82
754.91	241.55
755.24	241.40
755.57	241.47
755.90	241.25
756.22	241.05
756.55	240.83
756.88	240.45
757.20	239.69
757.53	239.23
757.86	238.99
758.19	238.95
758.51	238.84
758.84	238.24
759.17	238.05
759.49	237.95
759.82	238.25
760.15	238.28
760.47	238.14
760.80	237.70
761.13	237.60
761.45	237.55
761.78	237.47
762.11	237.28
762.43	237.01
762.76	236.96
763.08	236.93
763.41	236.95
763.74	236.98
764.06	236.90
764.39	236.86
764.71	236.82
765.04	236.64
765.37	236.35
765.69	236.27
766.02	236.11
766.34	235.97
766.67	235.54
767.00	235.73
767.32	236.14
767.65	236.68
767.97	236.55
768.30	236.60
768.62	236.58
768.95	236.43
769.27	236.27
769.60	236.33
769.92	236.10
770.25	235.79
770.57	235.61
770.90	235.50
771.22	235.36
771.55	235.35
771.87	235.27
772.20	235.31
772.52	236.07
772.85	237.16
773.17	237.10
773.50	236.96
773.82	236.72
774.15	236.27
774.47	235.68
774.80	235.55
775.12	235.50
775.45	235.45
775.77	235.50
776.09	235.50
776.42	235.45
776.74	235.73
777.07	235.70
777.39	235.71
777.72	235.69
778.04	235.80
778.36	235.57
778.69	235.60
779.01	235.60
779.33	234.70
779.66	233.69
779.98	233.56
780.31	233.69
780.63	234.06
780.95	234.27
781.28	234.15
781.60	234.08
781.92	233.93
782.25	233.81
782.57	233.73
782.89	233.65
783.22	233.56
783.54	233.31
783.86	233.34
784.19	233.27
784.51	233.48
784.83	233.32
785.16	233.28
785.48	233.23
785.80	233.12
786.12	233.23
786.45	233.24
786.77	233.42
787.09	233.34
787.42	232.90
787.74	232.76
788.06	232.78
788.38	232.72
788.71	232.66
789.03	232.70
789.35	232.74
789.67	232.59
789.99	232.59
790.32	232.40
790.64	232.48
790.96	233.14
791.28	232.81
791.61	232.72
791.93	232.80
792.25	232.70
792.57	233.41
792.89	233.19
793.21	233.02
793.54	232.75
793.86	232.61
794.18	232.59
794.50	232.45
794.82	232.41
795.14	232.50
795.47	232.55
795.79	232.47
796.11	232.19
796.43	232.15
796.75	232.07
797.07	232.23
797.39	232.13
797.71	231.45
798.04	231.44
798.36	231.44
798.68	231.43
799.00	231.48
799.32	230.90
799.64	231.09
799.96	231.09
800.28	231.28
800.60	231.21
800.92	231.30
801.24	231.20
801.56	231.32
801.89	231.24
802.21	231.32
802.53	231.20
802.85	231.44
803.17	231.89
803.49	231.72
803.81	231.53
804.13	231.52
804.45	231.31
804.77	231.40
805.09	231.43
805.41	231.30
805.73	231.16
806.05	230.94
806.37	230.82
806.69	230.73
807.01	230.72
807.33	230.70
807.65	230.35
807.97	230.75
808.28	230.57
808.60	230.50
808.92	230.36
809.24	230.94
809.56	230.80
809.88	230.48
810.20	230.57
810.52	230.82
810.84	230.68
811.16	230.69
811.48	230.60
811.80	230.88
812.12	230.94
812.43	231.17
812.75	231.23
813.07	231.08
813.39	231.28
813.71	231.14
814.03	231.09
814.35	231.12
814.67	230.79
814.98	230.75
815.30	230.74
815.62	230.57
815.94	229.96
816.26	230.40
816.58	230.25
816.89	230.32
817.21	230.05
817.53	230.02
817.85	230.13
818.17	230.17
818.48	229.79
818.80	229.92
819.12	229.62
819.44	229.46
819.76	229.39
820.07	229.26
820.39	229.27
820.71	229.32
821.03	229.28
821.34	229.15
821.66	229.26
821.98	229.38
822.30	229.41
822.61	229.97
822.93	229.51
823.25	229.46
823.57	229.25
823.88	229.42
824.20	229.61
824.52	229.74
824.83	229.78
825.15	229.72
825.47	229.60
825.79	229.74
826.10	229.69
826.42	229.70
826.74	229.78
827.05	229.77
827.37	229.86
827.69	229.92
828.00	229.97
828.32	229.89
828.64	229.73
828.95	230.27
829.27	229.98
829.58	229.92
829.90	230.08
830.22	230.24
830.53	230.02
830.85	229.80
831.17	229.51
831.48	229.37
831.80	229.40
832.11	229.33
832.43	229.23
832.75	229.26
833.06	229.80
833.38	229.50
833.69	229.37
834.01	229.45
834.32	229.46
834.64	229.38
834.96	229.43
835.27	229.48
835.59	229.15
835.90	229.07
836.22	229.12
836.53	228.91
836.85	228.78
837.16	229.70
837.48	229.61
837.79	229.87
838.11	229.86
838.42	229.83
838.74	229.89
839.05	229.73
839.37	229.67
839.68	229.14
840.00	229.19
840.31	229.39
840.63	229.19
840.94	229.14
841.26	228.99
841.57	228.96
841.88	229.10
842.20	228.85
842.51	228.72
842.83	228.68
843.14	229.52
843.46	229.55
843.77	229.04
844.08	229.05
844.40	228.86
844.71	228.78
845.03	228.73
845.34	228.70
845.65	228.75
845.97	228.79
846.28	228.80
846.60	228.98
846.91	228.74
847.22	228.63
847.54	228.82
847.85	228.93
848.16	228.81
848.48	228.49
848.79	228.91
849.10	228.99
849.42	229.01
849.73	228.15
850.04	228.24
850.36	227.82
850.67	228.05
850.98	228.02
851.30	228.12
851.61	228.13
851.92	228.20
852.23	228.48
852.55	228.66
852.86	228.64
853.17	228.64
853.49	228.83
853.80	229.13
854.11	229.11
854.42	229.33
854.74	229.23
855.05	229.37
855.36	228.88
855.67	228.95
855.99	229.00
856.30	230.12
856.61	230.00
856.92	230.18
857.23	230.16
857.55	230.10
857.86	230.10
858.17	230.22
858.48	230.05
858.79	229.86
859.11	229.84
859.42	229.90
859.73	229.80
860.04	229.71
860.35	229.43
860.66	229.18
860.98	229.01
861.29	229.16
861.60	229.06
861.91	229.32
862.22	229.14
862.53	228.89
862.84	227.77
863.16	227.99
863.47	227.72
863.78	227.60
864.09	227.69
864.40	227.73
864.71	227.79
865.02	227.92
865.33	227.80
865.64	227.48
865.95	227.49
866.27	228.10
866.58	228.09
866.89	228.15
867.20	228.19
867.51	228.10
867.82	228.02
868.13	228.30
868.44	228.00
868.75	228.22
869.06	228.34
869.37	228.48
869.68	228.16
869.99	228.38
870.30	228.44
870.61	228.50
870.92	228.31
871.23	228.09
871.54	228.13
871.85	228.37
872.16	228.56
872.47	228.43
872.78	227.77
873.09	227.84
873.40	227.78
873.71	227.80
874.02	227.87
874.33	227.79
874.64	227.59
874.95	227.82
875.26	227.55
875.56	227.49
875.87	227.39
876.18	227.48
876.49	228.40
876.80	228.30
877.11	228.10
877.42	228.20
877.73	228.21
878.04	228.10
878.35	228.21
878.66	228.25
878.96	228.17
879.27	228.13
879.58	228.13
879.89	228.06
880.20	228.41
880.51	228.35
880.82	228.44
881.12	228.49
881.43	228.27
881.74	228.31
882.05	228.33
882.36	228.37
882.67	228.33
882.97	227.18
883.28	227.08
883.59	227.11
883.90	227.09
884.21	227.26
884.51	227.17
884.82	226.75
885.13	226.77
885.44	226.78
885.74	226.79
886.05	226.67
886.36	226.73
886.67	226.30
886.98	226.69
887.28	226.74
887.59	226.66
887.90	226.84
888.20	226.68
888.51	226.87
888.82	226.75
889.13	226.86
889.43	227.67
889.74	227.68
890.05	227.69
890.35	227.62
890.66	227.43
890.97	227.29
891.28	227.40
891.58	227.43
891.89	227.43
892.20	227.36
892.50	227.31
892.81	227.25
893.12	227.17
893.42	226.72
893.73	226.70
894.04	226.66
894.34	226.61
894.65	226.69
894.95	226.59
895.26	226.66
895.57	227.03
895.87	226.20
896.18	226.41
896.48	226.44
896.79	226.50
897.10	226.66
897.40	226.90
897.71	227.04
898.01	226.98
898.32	227.09
898.63	227.10
898.93	227.18
899.24	227.23
899.54	227.35
899.85	227.35
900.15	227.40
900.46	227.47
900.76	227.55
901.07	227.51
901.38	227.45
901.68	227.52
901.99	227.04
902.29	227.07
902.60	226.95
902.90	226.85
903.21	226.74
903.51	226.62
903.82	226.75
904.12	226.67
904.43	226.72
904.73	226.66
905.03	226.66
905.34	227.54
905.64	227.46
905.95	227.43
906.25	227.54
906.56	227.47
906.86	227.55
907.17	227.43
907.47	227.48
907.77	227.43
908.08	227.26
908.38	227.46
908.69	227.64
908.99	227.81
909.30	227.92
909.60	228.04
909.90	228.23
910.21	227.94
910.51	227.82
910.81	227.82
911.12	227.99
911.42	228.08
911.73	227.13
912.03	227.17
912.33	227.33
912.64	227.38
912.94	227.37
913.24	227.15
913.55	227.06
913.85	227.06
914.15	227.20
914.46	227.34
914.76	227.32
915.06	227.26
915.37	227.04
915.67	226.88
915.97	226.85
916.27	226.57
916.58	226.65
916.88	226.68
917.18	226.64
917.49	227.10
917.79	227.10
918.09	227.23
918.39	227.48
918.70	227.38
919.00	227.26
919.30	227.71
919.60	227.71
919.91	227.74
920.21	227.86
920.51	227.59
920.81	227.56
921.12	227.55
921.42	227.54
921.72	227.65
922.02	227.86
922.32	227.96
922.63	228.00
922.93	228.41
923.23	228.43
923.53	228.28
923.83	227.67
924.13	227.74
924.44	227.70
924.74	227.89
925.04	228.17
925.34	228.14
925.64	227.67
925.94	227.64
926.24	228.06
926.55	227.76
926.85	228.04
927.15	227.99
927.45	227.94
927.75	227.84
928.05	227.86
928.35	227.76
928.65	227.90
928.95	228.07
929.26	227.66
929.56	227.86
929.86	228.01
930.16	228.00
930.46	227.84
930.76	227.80
931.06	227.36
931.36	227.10
931.66	227.16
931.96	227.20
932.26	227.33
932.56	226.95
932.86	227.05
933.16	227.00
933.46	226.97
933.76	226.83
934.06	227.08
934.36	227.39
934.66	227.25
934.96	227.11
935.26	227.05
935.56	227.22
935.86	226.92
936.16	226.74
936.46	226.66
936.76	226.70
937.06	226.70
937.36	226.75
937.66	226.82
937.96	226.86
938.26	226.78
938.56	226.69
938.86	226.79
939.16	227.09
939.46	227.17
939.76	227.25
940.06	227.30
940.35	227.14
940.65	226.71
940.95	226.91
941.25	226.70
941.55	226.70
941.85	226.67
942.15	226.93
942.45	227.27
942.75	227.35
943.04	227.46
943.34	227.70
943.64	227.62
943.94	227.46
944.24	227.46
944.54	227.51
944.84	227.43
945.13	227.27
945.43	227.04
945.73	226.93
946.03	226.92
946.33	226.78
946.62	226.69
946.92	226.68
947.22	226.67
947.52	226.77
947.82	226.74
948.11	226.70
948.41	226.51
948.71	226.20
949.01	226.22
949.31	226.08
949.60	225.95
949.90	226.17
950.20	226.18
950.50	226.22
950.79	226.22
951.09	226.44
951.39	226.49
951.69	226.46
951.98	226.77
952.28	226.76
952.58	226.88
952.87	226.90
953.17	227.08
953.47	227.06
953.76	227.07
954.06	226.99
954.36	226.86
954.66	226.88
954.95	227.15
955.25	227.27
955.55	227.36
955.84	227.19
956.14	227.28
956.44	227.37
956.73	227.28
957.03	227.30
957.32	227.25
957.62	227.10
957.92	227.39
958.21	227.23
958.51	228.29
958.81	228.39
959.10	228.54
959.40	228.71
959.69	228.78
959.99	228.92
960.29	229.01
960.58	228.96
960.88	229.30
961.17	229.20
961.47	229.32
961.76	229.29
962.06	229.50
962.36	229.33
962.65	229.34
962.95	229.32
963.24	229.26
963.54	229.30
963.83	229.50
964.13	229.37
964.42	229.16
964.72	228.51
965.01	228.50
965.31	228.36
965.60	228.08
965.90	228.61
966.19	228.45
966.49	228.52
966.78	228.46
967.08	228.40
967.37	228.39
967.67	228.10
967.96	228.22
968.26	228.15
968.55	228.27
968.85	228.23
969.14	228.26
969.43	228.18
969.73	228.10
970.02	228.04
970.32	227.98
970.61	227.94
970.91	227.60
971.20	227.36
971.49	227.32
971.79	227.48
972.08	226.77
972.38	226.68
972.67	226.56
972.96	226.86
973.26	226.63
973.55	226.98
973.85	226.93
974.14	226.85
974.43	226.95
974.73	226.81
975.02	226.63
975.31	226.66
975.61	226.63
975.90	226.57
976.19	226.43
976.49	226.54
976.78	226.62
977.07	226.55
977.37	226.72
977.66	226.83
977.95	226.50
978.24	226.63
978.54	226.90
978.83	226.82
979.12	226.61
979.42	226.61
979.71	226.36
980.00	226.41
980.29	226.42
980.59	226.20
980.88	226.31
981.17	226.36
981.46	226.24
981.76	226.28
982.05	226.66
982.34	226.76
982.63	226.68
982.93	226.60
983.22	226.95
983.51	226.87
983.80	226.91
984.09	227.25
984.39	227.16
984.68	227.02
984.97	227.12
985.26	227.10
985.55	227.15
985.85	226.86
986.14	226.96
986.43	227.00
986.72	226.99
987.01	226.72
987.30	226.80
987.59	226.75
987.89	226.83
988.18	226.48
988.47	226.44
988.76	226.34
989.05	226.38
989.34	226.12
989.63	226.44
989.92	226.31
990.22	226.08
990.51	226.03
990.80	225.92
991.09	225.96
991.38	226.16
991.67	226.10
991.96	226.20
992.25	226.30
992.54	226.22
992.83	226.23
993.12	226.22
993.41	226.41
993.70	226.91
993.99	227.00
994.28	227.24
994.58	227.42
994.87	227.38
995.16	227.37
995.45	227.32
995.74	227.01
996.03	227.21
996.32	227.38
996.61	227.61
996.90	227.66
997.19	227.59
997.48	227.58
997.77	227.46
998.06	227.44
998.34	227.28
998.63	227.30
998.92	227.29
999.21	227.49
999.50	227.42
999.79	227.02
1000.08	227.11
1000.37	227.04
1000.66	226.83
1000.95	227.14
1001.24	227.19
1001.53	227.26
1001.82	227.28
1002.11	227.07
1002.40	227.10
1002.68	227.34
1002.97	228.06
1003.26	228.01
1003.55	227.85
1003.84	227.98
1004.13	228.45
1004.42	228.46
1004.71	228.45
1004.99	228.46
1005.28	228.62
1005.57	228.59
1005.86	228.52
1006.15	228.35
1006.44	228.14
1006.72	228.28
1007.01	228.08
1007.30	228.10
1007.59	228.07
1007.88	228.09
1008.17	228.20
1008.45	227.98
1008.74	227.52
1009.03	227.01
1009.32	227.08
1009.60	227.01
1009.89	226.93
1010.18	226.45
1010.47	226.32
1010.76	226.30
1011.04	226.29
1011.33	226.35
1011.62	226.25
1011.91	226.26
1012.19	226.28
1012.48	226.27
1012.77	226.19
1013.05	226.57
1013.34	226.48
1013.63	226.34
1013.92	226.39
1014.20	226.24
1014.49	226.40
1014.78	226.50
1015.06	226.24
1015.35	226.07
1015.64	226.31
1015.92	226.48
1016.21	226.54
1016.50	226.49
1016.78	226.50
1017.07	226.56
1017.36	226.29
1017.64	226.27
1017.93	226.40
1018.22	226.33
1018.50	226.31
1018.79	226.33
1019.08	225.88
1019.36	225.90
1019.65	225.87
1019.93	226.08
1020.22	226.22
1020.51	226.61
1020.79	226.50
1021.08	224.80
1021.36	223.60
1021.65	225.90
1021.94	225.30
1022.22	225.60
1022.51	224.90
1022.79	230.90
1023.08	227.70
1023.36	237.00
1023.65	224.20
>>>>>End Processed Spectral Data<<<<<
