SpectraSuite Data File
++++++++++++++++++++++++++++++++++++
Date: Wed Sep 04 17:33:07 EDT 2013
User: lab3
Dark Spectrum Present: Yes
Reference Spectrum Present: No
Number of Sampled Component Spectra: 1
Spectrometers: USB2E7196
Integration Time (usec): 337000 (USB2E7196)
Spectra Averaged: 10 (USB2E7196)
Boxcar Smoothing: 10 (USB2E7196)
Correct for Electrical Dark: No (USB2E7196)
Strobe/Lamp Enabled: No (USB2E7196)
Correct for Detector Non-linearity: No (USB2E7196)
Correct for Stray Light: No (USB2E7196)
Number of Pixels in Processed Spectrum: 2048
>>>>>Begin Processed Spectral Data<<<<<
339.09	0.00
339.48	211.30
339.86	214.70
340.24	213.30
340.63	215.80
341.01	233.60
341.39	220.10
341.78	222.30
342.16	224.70
342.54	222.80
342.93	212.88
343.31	223.58
343.69	224.25
344.07	224.81
344.46	225.50
344.84	226.00
345.22	225.64
345.60	225.99
345.99	226.21
346.37	226.31
346.75	226.43
347.13	226.41
347.52	226.60
347.90	226.90
348.28	227.00
348.66	227.15
349.05	226.93
349.43	227.16
349.81	227.24
350.19	227.27
350.57	227.35
350.96	227.44
351.34	227.60
351.72	227.66
352.10	227.70
352.48	227.62
352.87	227.66
353.25	227.69
353.63	227.67
354.01	227.66
354.39	227.83
354.77	227.97
355.15	228.35
355.54	228.31
355.92	228.05
356.30	228.08
356.68	228.82
357.06	228.90
357.44	228.79
357.82	228.80
358.20	229.68
358.58	229.79
358.97	229.93
359.35	230.10
359.73	230.45
360.11	230.50
360.49	230.65
360.87	230.72
361.25	230.95
361.63	231.31
362.01	231.51
362.39	231.42
362.77	231.55
363.15	231.49
363.53	231.46
363.91	231.62
364.29	231.65
364.67	230.77
365.05	230.80
365.43	231.01
365.81	231.16
366.19	230.82
366.57	231.17
366.95	231.11
367.33	230.94
367.71	230.90
368.09	231.14
368.47	231.19
368.85	231.10
369.23	231.17
369.61	230.78
369.99	231.04
370.37	231.18
370.75	231.56
371.13	231.44
371.51	231.34
371.89	231.38
372.27	231.40
372.65	231.48
373.03	231.56
373.41	231.40
373.78	231.37
374.16	230.90
374.54	230.54
374.92	230.39
375.30	230.47
375.68	230.11
376.06	230.00
376.44	229.82
376.82	229.90
377.19	229.77
377.57	229.74
377.95	229.31
378.33	229.16
378.71	228.46
379.09	228.50
379.47	228.51
379.84	228.32
380.22	228.28
380.60	228.01
380.98	227.84
381.36	227.83
381.73	227.63
382.11	227.66
382.49	227.65
382.87	227.54
383.25	227.44
383.62	228.50
384.00	228.26
384.38	228.24
384.76	228.42
385.13	228.76
385.51	228.65
385.89	228.53
386.27	228.52
386.64	228.76
387.02	228.59
387.40	228.48
387.78	228.58
388.15	228.52
388.53	228.50
388.91	228.44
389.29	228.28
389.66	228.36
390.04	228.23
390.42	228.39
390.79	228.46
391.17	228.45
391.55	227.41
391.92	227.35
392.30	227.55
392.68	227.26
393.05	227.14
393.43	227.21
393.81	227.25
394.18	227.08
394.56	227.02
394.94	227.34
395.31	227.33
395.69	227.57
396.06	227.75
396.44	227.88
396.82	227.87
397.19	228.47
397.57	228.53
397.95	228.85
398.32	228.67
398.70	228.76
399.07	228.92
399.45	228.99
399.82	229.07
400.20	228.99
400.58	229.04
400.95	228.83
401.33	229.27
401.70	230.07
402.08	230.31
402.45	230.45
402.83	230.64
403.20	230.86
403.58	230.98
403.95	231.23
404.33	231.49
404.71	231.85
405.08	232.54
405.46	232.80
405.83	232.94
406.21	233.28
406.58	233.69
406.96	234.04
407.33	234.50
407.70	235.07
408.08	236.26
408.45	236.98
408.83	237.65
409.20	237.86
409.58	237.87
409.95	238.65
410.33	239.33
410.70	239.77
411.08	240.63
411.45	241.34
411.82	241.99
412.20	243.00
412.57	244.32
412.95	244.40
413.32	245.51
413.69	246.50
414.07	247.70
414.44	248.82
414.82	250.03
415.19	251.58
415.56	253.02
415.94	254.09
416.31	255.85
416.68	257.65
417.06	259.78
417.43	261.89
417.81	264.00
418.18	266.31
418.55	268.73
418.93	271.20
419.30	273.80
419.67	276.64
420.04	279.47
420.42	282.24
420.79	286.45
421.16	289.93
421.54	294.06
421.91	297.80
422.28	301.79
422.66	305.97
423.03	310.56
423.40	314.83
423.77	319.34
424.15	323.72
424.52	328.50
424.89	333.94
425.26	338.93
425.64	343.80
426.01	349.10
426.38	354.68
426.75	360.61
427.13	366.46
427.50	372.52
427.87	378.78
428.24	384.97
428.61	390.34
428.99	397.14
429.36	403.95
429.73	410.93
430.10	418.00
430.47	425.25
430.85	432.14
431.22	439.93
431.59	448.68
431.96	456.69
432.33	465.34
432.70	473.85
433.08	484.01
433.45	493.39
433.82	502.92
434.19	513.52
434.56	524.03
434.93	533.91
435.30	543.93
435.68	555.02
436.05	565.94
436.42	576.71
436.79	586.64
437.16	597.38
437.53	608.70
437.90	620.02
438.27	631.08
438.64	642.56
439.01	653.41
439.38	662.54
439.75	671.93
440.13	682.57
440.50	692.14
440.87	699.94
441.24	708.41
441.61	717.52
441.98	724.10
442.35	731.31
442.72	739.43
443.09	747.52
443.46	752.00
443.83	755.10
444.20	757.90
444.57	761.55
444.94	762.97
445.31	764.62
445.68	766.98
446.05	767.69
446.42	766.23
446.79	764.88
447.16	763.18
447.53	761.72
447.90	757.27
448.27	752.93
448.64	746.83
449.01	742.09
449.37	734.44
449.74	726.96
450.11	718.90
450.48	708.83
450.85	698.16
451.22	689.42
451.59	681.22
451.96	673.40
452.33	663.09
452.70	653.75
453.07	642.80
453.43	630.63
453.80	619.78
454.17	609.73
454.54	599.70
454.91	589.21
455.28	578.96
455.65	569.35
456.02	561.17
456.38	553.06
456.75	543.40
457.12	534.92
457.49	526.73
457.86	518.16
458.23	511.68
458.59	504.37
458.96	497.07
459.33	490.36
459.70	483.61
460.07	478.38
460.43	472.59
460.80	467.08
461.17	462.55
461.54	457.39
461.91	452.30
462.27	447.21
462.64	442.85
463.01	438.42
463.38	434.33
463.74	428.47
464.11	424.51
464.48	420.97
464.85	417.16
465.21	414.55
465.58	411.72
465.95	408.03
466.32	405.24
466.68	402.37
467.05	399.58
467.42	396.92
467.78	393.96
468.15	391.07
468.52	389.02
468.88	386.00
469.25	383.40
469.62	381.55
469.98	379.48
470.35	377.59
470.72	375.62
471.08	373.20
471.45	371.69
471.82	370.32
472.18	368.42
472.55	367.22
472.92	365.44
473.28	363.75
473.65	362.28
474.02	360.97
474.38	359.84
474.75	358.76
475.11	357.44
475.48	356.55
475.85	355.66
476.21	354.63
476.58	353.96
476.94	353.26
477.31	352.52
477.67	351.96
478.04	351.45
478.41	351.09
478.77	351.62
479.14	351.09
479.50	350.61
479.87	350.56
480.23	350.37
480.60	350.05
480.96	349.98
481.33	350.40
481.69	350.30
482.06	350.32
482.42	350.43
482.79	350.66
483.15	350.81
483.52	351.48
483.88	351.64
484.25	352.03
484.61	352.72
484.98	353.10
485.34	354.05
485.71	354.83
486.07	355.49
486.44	355.42
486.80	356.32
487.17	357.22
487.53	358.60
487.90	359.84
488.26	361.57
488.62	363.25
488.99	364.28
489.35	365.84
489.72	367.32
490.08	368.99
490.44	370.55
490.81	372.62
491.17	374.33
491.54	376.69
491.90	378.97
492.26	381.26
492.63	383.77
492.99	385.93
493.36	388.61
493.72	391.65
494.08	394.73
494.45	397.98
494.81	401.43
495.17	404.41
495.54	407.93
495.90	411.25
496.26	414.64
496.63	418.59
496.99	422.42
497.35	426.54
497.72	430.86
498.08	435.32
498.44	439.76
498.80	444.68
499.17	449.55
499.53	454.22
499.89	459.43
500.26	464.78
500.62	470.31
500.98	475.95
501.34	481.64
501.71	487.44
502.07	493.54
502.43	499.47
502.79	505.71
503.16	512.02
503.52	518.66
503.88	525.59
504.24	532.59
504.60	539.91
504.97	547.72
505.33	555.19
505.69	563.64
506.05	571.74
506.41	579.65
506.78	587.90
507.14	596.57
507.50	605.30
507.86	614.31
508.22	623.37
508.59	632.54
508.95	642.08
509.31	652.19
509.67	661.97
510.03	671.88
510.39	682.00
510.75	692.47
511.12	702.70
511.48	713.09
511.84	723.82
512.20	734.77
512.56	745.68
512.92	757.19
513.28	768.27
513.64	779.73
514.00	791.49
514.37	803.34
514.73	815.45
515.09	827.70
515.45	839.78
515.81	852.30
516.17	864.69
516.53	877.28
516.89	889.70
517.25	902.80
517.61	916.70
517.97	930.49
518.33	943.94
518.69	958.03
519.05	972.35
519.41	986.53
519.77	1001.09
520.13	1015.06
520.49	1029.15
520.85	1043.34
521.21	1058.21
521.57	1073.18
521.93	1087.30
522.29	1102.10
522.65	1116.26
523.01	1130.93
523.37	1145.00
523.73	1159.52
524.09	1173.81
524.45	1187.87
524.81	1202.10
525.17	1216.29
525.53	1230.88
525.89	1245.72
526.25	1260.58
526.61	1274.60
526.97	1289.07
527.33	1303.88
527.68	1320.01
528.04	1335.26
528.40	1350.32
528.76	1365.64
529.12	1380.57
529.48	1395.93
529.84	1410.49
530.20	1425.96
530.56	1441.40
530.91	1457.15
531.27	1472.52
531.63	1487.80
531.99	1503.70
532.35	1518.87
532.71	1533.92
533.07	1549.32
533.42	1564.53
533.78	1579.14
534.14	1594.59
534.50	1609.61
534.86	1624.18
535.21	1637.33
535.57	1651.49
535.93	1665.55
536.29	1679.28
536.65	1693.48
537.00	1707.12
537.36	1720.62
537.72	1733.62
538.08	1747.07
538.44	1760.11
538.79	1773.15
539.15	1786.24
539.51	1799.25
539.87	1811.67
540.22	1823.47
540.58	1835.01
540.94	1845.81
541.29	1856.63
541.65	1866.64
542.01	1877.03
542.37	1886.76
542.72	1896.28
543.08	1905.39
543.44	1915.44
543.79	1923.90
544.15	1932.60
544.51	1941.94
544.87	1950.98
545.22	1959.51
545.58	1967.00
545.94	1974.24
546.29	1981.05
546.65	1987.36
547.01	1993.00
547.36	1999.00
547.72	2005.33
548.07	2010.71
548.43	2016.86
548.79	2022.40
549.14	2028.16
549.50	2033.68
549.86	2038.41
550.21	2043.23
550.57	2048.27
550.92	2051.27
551.28	2054.80
551.64	2058.73
551.99	2062.11
552.35	2065.12
552.70	2068.41
553.06	2072.31
553.41	2075.60
553.77	2079.83
554.13	2083.71
554.48	2087.21
554.84	2090.43
555.19	2093.40
555.55	2097.32
555.90	2099.03
556.26	2101.10
556.61	2102.02
556.97	2102.50
557.32	2104.57
557.68	2106.83
558.03	2108.07
558.39	2109.56
558.74	2111.40
559.10	2111.41
559.45	2112.10
559.81	2112.41
560.16	2111.36
560.52	2110.35
560.87	2109.71
561.23	2108.00
561.58	2106.65
561.94	2104.74
562.29	2102.17
562.64	2099.87
563.00	2095.98
563.35	2093.74
563.71	2091.69
564.06	2090.32
564.42	2088.70
564.77	2086.65
565.12	2083.67
565.48	2082.07
565.83	2079.78
566.19	2077.53
566.54	2074.92
566.89	2071.56
567.25	2069.13
567.60	2067.61
567.96	2065.60
568.31	2063.29
568.66	2060.50
569.02	2056.84
569.37	2053.27
569.72	2051.22
570.08	2047.54
570.43	2043.57
570.78	2040.15
571.14	2036.03
571.49	2031.50
571.84	2027.13
572.20	2021.76
572.55	2017.09
572.90	2010.71
573.26	2005.47
573.61	1999.39
573.96	1993.92
574.31	1987.75
574.67	1981.23
575.02	1973.81
575.37	1966.22
575.72	1958.52
576.08	1951.80
576.43	1944.39
576.78	1937.23
577.13	1929.27
577.49	1922.04
577.84	1915.73
578.19	1908.65
578.54	1901.76
578.90	1895.28
579.25	1888.28
579.60	1881.07
579.95	1873.74
580.30	1866.25
580.66	1858.39
581.01	1850.47
581.36	1841.98
581.71	1834.59
582.06	1826.96
582.42	1820.15
582.77	1812.50
583.12	1805.57
583.47	1797.80
583.82	1791.26
584.17	1784.07
584.53	1777.10
584.88	1769.10
585.23	1761.10
585.58	1752.59
585.93	1744.20
586.28	1735.51
586.63	1726.71
586.98	1717.86
587.34	1709.59
587.69	1701.46
588.04	1694.09
588.39	1686.41
588.74	1678.52
589.09	1671.14
589.44	1662.33
589.79	1654.33
590.14	1647.00
590.49	1638.98
590.84	1631.45
591.19	1623.37
591.54	1615.42
591.89	1607.17
592.25	1601.00
592.60	1593.57
592.95	1586.31
593.30	1578.24
593.65	1569.92
594.00	1561.63
594.35	1556.51
594.70	1548.19
595.05	1540.27
595.40	1531.26
595.75	1522.57
596.10	1515.00
596.45	1506.61
596.80	1499.69
597.15	1491.69
597.50	1483.15
597.85	1475.38
598.19	1466.90
598.54	1458.61
598.89	1450.12
599.24	1442.48
599.59	1433.83
599.94	1425.48
600.29	1417.57
600.64	1409.90
600.99	1402.22
601.34	1395.40
601.69	1385.64
602.04	1378.34
602.39	1371.18
602.74	1364.58
603.08	1358.10
603.43	1351.08
603.78	1344.01
604.13	1336.56
604.48	1328.56
604.83	1320.91
605.18	1313.25
605.53	1305.53
605.87	1298.38
606.22	1292.13
606.57	1284.57
606.92	1277.00
607.27	1270.11
607.62	1263.23
607.96	1256.77
608.31	1250.71
608.66	1243.91
609.01	1237.15
609.36	1230.25
609.70	1223.60
610.05	1216.24
610.40	1209.40
610.75	1202.26
611.10	1195.01
611.44	1187.44
611.79	1180.65
612.14	1174.29
612.49	1167.57
612.83	1161.70
613.18	1154.83
613.53	1148.22
613.88	1141.56
614.22	1134.66
614.57	1127.89
614.92	1120.61
615.27	1113.73
615.61	1106.71
615.96	1099.88
616.31	1093.30
616.65	1087.26
617.00	1080.44
617.35	1074.19
617.70	1067.35
618.04	1060.86
618.39	1054.42
618.74	1049.05
619.08	1042.99
619.43	1036.61
619.78	1030.22
620.12	1023.27
620.47	1016.82
620.82	1010.15
621.16	1003.66
621.51	998.02
621.85	991.70
622.20	985.71
622.55	979.18
622.89	972.82
623.24	967.02
623.59	960.71
623.93	954.23
624.28	947.88
624.62	942.63
624.97	937.25
625.32	931.44
625.66	925.61
626.01	919.02
626.35	913.48
626.70	907.73
627.04	902.41
627.39	896.61
627.73	891.57
628.08	886.28
628.43	880.80
628.77	875.09
629.12	869.81
629.46	864.99
629.81	860.41
630.15	855.56
630.50	850.21
630.84	845.03
631.19	840.23
631.53	835.70
631.88	830.03
632.22	824.57
632.57	820.07
632.91	815.29
633.26	811.09
633.60	806.07
633.95	801.03
634.29	795.67
634.64	791.03
634.98	785.71
635.32	780.95
635.67	776.69
636.01	772.12
636.36	767.43
636.70	762.95
637.05	758.24
637.39	753.83
637.73	749.32
638.08	745.17
638.42	740.30
638.77	735.64
639.11	730.62
639.45	725.78
639.80	720.46
640.14	715.69
640.49	710.90
640.83	706.57
641.17	702.47
641.52	698.24
641.86	694.24
642.20	690.69
642.55	686.48
642.89	682.30
643.23	678.12
643.58	674.57
643.92	670.14
644.26	666.04
644.61	662.09
644.95	658.09
645.29	653.94
645.64	650.12
645.98	646.13
646.32	642.67
646.66	638.88
647.01	635.56
647.35	632.34
647.69	628.84
648.04	625.41
648.38	621.98
648.72	618.47
649.06	614.52
649.41	610.55
649.75	606.65
650.09	603.19
650.43	599.70
650.78	595.70
651.12	592.32
651.46	588.81
651.80	585.19
652.14	581.73
652.49	578.64
652.83	575.43
653.17	572.06
653.51	568.60
653.85	565.59
654.20	562.45
654.54	558.94
654.88	555.54
655.22	552.69
655.56	549.37
655.90	546.30
656.25	543.37
656.59	540.31
656.93	537.34
657.27	534.40
657.61	531.03
657.95	528.16
658.29	524.95
658.64	522.13
658.98	519.11
659.32	516.00
659.66	512.86
660.00	509.94
660.34	507.18
660.68	504.43
661.02	501.62
661.36	498.58
661.70	495.84
662.05	493.07
662.39	490.20
662.73	487.84
663.07	485.61
663.41	482.91
663.75	480.24
664.09	477.83
664.43	474.92
664.77	472.69
665.11	470.07
665.45	467.76
665.79	465.26
666.13	462.91
666.47	460.46
666.81	458.01
667.15	455.39
667.49	453.07
667.83	450.99
668.17	448.69
668.51	446.55
668.85	444.77
669.19	443.32
669.53	440.88
669.87	438.39
670.21	435.83
670.55	433.90
670.89	432.20
671.23	430.01
671.57	428.21
671.91	426.13
672.25	424.18
672.58	422.35
672.92	420.10
673.26	418.18
673.60	416.40
673.94	414.60
674.28	413.00
674.62	411.32
674.96	409.27
675.30	407.43
675.64	405.76
675.97	403.61
676.31	401.21
676.65	399.32
676.99	397.85
677.33	396.00
677.67	394.30
678.01	392.19
678.34	390.66
678.68	389.06
679.02	387.30
679.36	385.72
679.70	383.88
680.04	382.59
680.37	380.97
680.71	379.38
681.05	377.86
681.39	376.49
681.73	374.80
682.06	373.44
682.40	372.08
682.74	370.69
683.08	369.59
683.42	368.15
683.75	367.02
684.09	365.37
684.43	364.08
684.77	362.57
685.10	361.31
685.44	359.96
685.78	358.61
686.12	357.39
686.45	356.13
686.79	354.87
687.13	353.65
687.46	352.43
687.80	351.51
688.14	350.16
688.48	348.65
688.81	347.46
689.15	346.36
689.49	345.06
689.82	343.80
690.16	342.25
690.50	341.10
690.83	339.75
691.17	338.58
691.51	337.51
691.84	336.51
692.18	335.34
692.52	334.21
692.85	333.09
693.19	332.33
693.52	331.28
693.86	330.21
694.20	329.02
694.53	327.96
694.87	326.62
695.21	325.45
695.54	324.56
695.88	323.41
696.21	322.10
696.55	320.95
696.88	319.79
697.22	318.66
697.56	317.70
697.89	316.52
698.23	315.60
698.56	314.57
698.90	313.82
699.23	312.70
699.57	311.79
699.90	310.61
700.24	309.22
700.58	308.39
700.91	307.54
701.25	307.38
701.58	307.19
701.92	306.58
702.25	305.88
702.59	304.95
702.92	304.31
703.26	303.62
703.59	302.80
703.93	302.93
704.26	302.33
704.60	301.62
704.93	300.99
705.26	299.98
705.60	299.19
705.93	298.08
706.27	297.66
706.60	297.00
706.94	296.73
707.27	296.00
707.61	295.24
707.94	294.49
708.27	293.12
708.61	291.59
708.94	290.71
709.28	290.02
709.61	289.30
709.94	288.48
710.28	287.77
710.61	287.16
710.95	285.59
711.28	285.54
711.61	284.86
711.95	284.40
712.28	283.83
712.61	283.21
712.95	283.08
713.28	282.76
713.61	282.03
713.95	281.05
714.28	280.63
714.61	279.99
714.95	279.37
715.28	278.52
715.61	277.91
715.95	277.44
716.28	276.74
716.61	276.37
716.95	275.63
717.28	274.99
717.61	274.49
717.94	273.93
718.28	272.60
718.61	271.99
718.94	271.36
719.27	270.91
719.61	270.58
719.94	269.90
720.27	269.14
720.60	268.61
720.94	268.29
721.27	267.93
721.60	267.55
721.93	267.09
722.27	267.17
722.60	266.96
722.93	266.43
723.26	266.22
723.59	265.61
723.93	265.61
724.26	265.43
724.59	265.06
724.92	264.83
725.25	264.88
725.59	264.50
725.92	264.30
726.25	263.87
726.58	263.40
726.91	263.02
727.24	262.77
727.57	262.50
727.91	261.97
728.24	261.72
728.57	261.38
728.90	261.20
729.23	260.55
729.56	260.62
729.89	260.42
730.22	259.99
730.55	259.78
730.89	259.44
731.22	258.96
731.55	258.73
731.88	258.44
732.21	257.92
732.54	257.63
732.87	257.29
733.20	257.04
733.53	256.90
733.86	256.61
734.19	256.21
734.52	256.06
734.85	256.46
735.18	256.04
735.51	256.04
735.84	255.93
736.17	255.96
736.50	255.29
736.83	256.11
737.16	255.96
737.49	255.73
737.82	255.39
738.15	255.48
738.48	255.15
738.81	254.83
739.14	254.52
739.47	254.25
739.80	254.08
740.13	253.97
740.46	253.56
740.79	253.37
741.12	253.14
741.45	252.78
741.78	252.08
742.11	252.04
742.44	251.66
742.77	251.47
743.10	251.17
743.43	250.90
743.75	249.61
744.08	250.53
744.41	250.20
744.74	249.92
745.07	249.49
745.40	249.41
745.73	249.61
746.06	249.44
746.39	249.42
746.71	249.04
747.04	248.76
747.37	248.59
747.70	248.44
748.03	248.25
748.36	248.25
748.68	248.06
749.01	247.69
749.34	247.47
749.67	247.20
750.00	247.13
750.33	247.70
750.65	247.67
750.98	246.42
751.31	246.29
751.64	246.16
751.97	246.46
752.29	246.28
752.62	245.67
752.95	245.39
753.28	245.09
753.60	244.89
753.93	244.96
754.26	244.89
754.59	244.50
754.91	244.17
755.24	243.85
755.57	243.82
755.90	243.60
756.22	243.40
756.55	243.18
756.88	242.81
757.20	242.06
757.53	241.52
757.86	241.30
758.19	241.27
758.51	241.08
758.84	240.41
759.17	240.12
759.49	240.10
759.82	240.50
760.15	240.54
760.47	240.46
760.80	240.08
761.13	240.02
761.45	239.94
761.78	239.91
762.11	239.93
762.43	239.56
762.76	239.48
763.08	239.52
763.41	239.42
763.74	239.30
764.06	239.00
764.39	239.05
764.71	238.97
765.04	238.74
765.37	238.59
765.69	238.45
766.02	238.34
766.34	238.11
766.67	237.64
767.00	237.63
767.32	237.95
767.65	238.47
767.97	238.24
768.30	238.26
768.62	238.25
768.95	237.95
769.27	237.89
769.60	237.94
769.92	237.60
770.25	237.38
770.57	237.11
770.90	237.14
771.22	236.98
771.55	236.89
771.87	236.83
772.20	236.73
772.52	237.49
772.85	238.60
773.17	238.65
773.50	238.52
773.82	238.29
774.15	237.87
774.47	237.13
774.80	237.10
775.12	236.89
775.45	236.69
775.77	236.71
776.09	236.74
776.42	236.53
776.74	236.73
777.07	236.69
777.39	236.73
777.72	236.49
778.04	236.43
778.36	236.31
778.69	236.35
779.01	236.41
779.33	235.47
779.66	234.34
779.98	234.07
780.31	234.05
780.63	234.29
780.95	234.40
781.28	234.34
781.60	234.10
781.92	234.10
782.25	234.12
782.57	233.97
782.89	233.83
783.22	233.78
783.54	233.56
783.86	233.55
784.19	233.43
784.51	233.70
784.83	233.59
785.16	233.57
785.48	233.46
785.80	233.34
786.12	233.43
786.45	233.27
786.77	233.35
787.09	233.25
787.42	232.85
787.74	232.77
788.06	232.80
788.38	232.81
788.71	232.65
789.03	232.60
789.35	232.74
789.67	232.48
789.99	232.58
790.32	232.38
790.64	232.45
790.96	233.27
791.28	232.98
791.61	232.94
791.93	232.89
792.25	232.75
792.57	233.37
792.89	233.16
793.21	233.33
793.54	233.26
793.86	233.11
794.18	233.18
794.50	232.93
794.82	232.85
795.14	232.87
795.47	233.00
795.79	232.94
796.11	232.74
796.43	232.77
796.75	232.73
797.07	232.83
797.39	232.70
797.71	231.96
798.04	232.00
798.36	232.02
798.68	232.00
799.00	232.00
799.32	231.50
799.64	231.69
799.96	231.60
800.28	231.70
800.60	231.63
800.92	231.71
801.24	231.65
801.56	231.71
801.89	231.62
802.21	231.67
802.53	231.51
802.85	231.66
803.17	232.11
803.49	231.88
803.81	231.78
804.13	231.62
804.45	231.44
804.77	231.51
805.09	231.53
805.41	231.46
805.73	231.46
806.05	231.16
806.37	231.11
806.69	230.92
807.01	230.91
807.33	231.03
807.65	230.62
807.97	231.11
808.28	230.97
808.60	230.98
808.92	230.78
809.24	231.36
809.56	231.25
809.88	230.87
810.20	230.84
810.52	231.11
810.84	230.97
811.16	230.90
811.48	230.72
811.80	231.02
812.12	230.94
812.43	230.98
812.75	231.12
813.07	230.93
813.39	231.00
813.71	230.68
814.03	230.64
814.35	230.71
814.67	230.21
814.98	230.18
815.30	230.19
815.62	230.05
815.94	229.40
816.26	229.78
816.58	229.64
816.89	229.81
817.21	229.46
817.53	229.59
817.85	229.65
818.17	229.70
818.48	229.25
818.80	229.43
819.12	229.39
819.44	229.24
819.76	229.24
820.07	229.34
820.39	229.53
820.71	229.53
821.03	229.51
821.34	229.56
821.66	229.73
821.98	229.79
822.30	229.76
822.61	230.37
822.93	229.92
823.25	229.91
823.57	229.83
823.88	230.09
824.20	230.06
824.52	230.17
824.83	230.14
825.15	230.13
825.47	230.03
825.79	230.05
826.10	230.02
826.42	230.00
826.74	229.97
827.05	229.89
827.37	229.96
827.69	229.91
828.00	229.94
828.32	229.79
828.64	229.63
828.95	230.15
829.27	229.89
829.58	229.82
829.90	230.03
830.22	230.04
830.53	229.74
830.85	229.72
831.17	229.43
831.48	229.37
831.80	229.39
832.11	229.29
832.43	229.16
832.75	229.12
833.06	229.68
833.38	229.43
833.69	229.33
834.01	229.30
834.32	229.28
834.64	229.16
834.96	229.21
835.27	229.24
835.59	228.94
835.90	228.66
836.22	228.70
836.53	228.42
836.85	228.25
837.16	229.25
837.48	229.24
837.79	229.62
838.11	229.72
838.42	229.65
838.74	229.84
839.05	229.70
839.37	229.65
839.68	229.04
840.00	229.08
840.31	229.20
840.63	229.08
840.94	229.04
841.26	228.94
841.57	228.94
841.88	229.06
842.20	228.93
842.51	228.93
842.83	228.89
843.14	229.71
843.46	229.86
843.77	229.33
844.08	229.22
844.40	228.99
844.71	228.76
845.03	228.66
845.34	228.60
845.65	228.68
845.97	228.79
846.28	228.89
846.60	228.92
846.91	228.87
847.22	228.84
847.54	229.02
847.85	229.10
848.16	228.98
848.48	228.80
848.79	229.15
849.10	229.34
849.42	229.40
849.73	228.55
850.04	228.44
850.36	228.00
850.67	228.20
850.98	228.14
851.30	228.39
851.61	228.44
851.92	228.41
852.23	228.77
852.55	228.79
852.86	228.82
853.17	228.93
853.49	229.06
853.80	229.31
854.11	229.44
854.42	229.57
854.74	229.60
855.05	229.71
855.36	229.20
855.67	229.08
855.99	229.18
856.30	230.34
856.61	230.30
856.92	230.35
857.23	230.37
857.55	230.36
857.86	230.23
858.17	230.36
858.48	230.20
858.79	229.88
859.11	230.02
859.42	229.82
859.73	229.67
860.04	229.63
860.35	229.30
860.66	229.01
860.98	228.94
861.29	228.92
861.60	228.77
861.91	229.07
862.22	228.95
862.53	228.64
862.84	227.47
863.16	227.72
863.47	227.61
863.78	227.54
864.09	227.56
864.40	227.66
864.71	227.69
865.02	227.78
865.33	227.70
865.64	227.36
865.95	227.47
866.27	228.00
866.58	227.82
866.89	227.97
867.20	227.90
867.51	227.78
867.82	227.77
868.13	228.12
868.44	227.86
868.75	228.11
869.06	228.17
869.37	228.39
869.68	228.08
869.99	228.26
870.30	228.27
870.61	228.39
870.92	228.16
871.23	228.07
871.54	228.18
871.85	228.32
872.16	228.48
872.47	228.38
872.78	227.95
873.09	228.12
873.40	228.03
873.71	228.10
874.02	228.14
874.33	228.00
874.64	227.72
874.95	227.92
875.26	227.68
875.56	227.65
875.87	227.55
876.18	227.57
876.49	228.41
876.80	228.34
877.11	228.13
877.42	228.19
877.73	228.20
878.04	228.08
878.35	228.11
878.66	228.18
878.96	228.24
879.27	228.10
879.58	227.98
879.89	227.97
880.20	228.24
880.51	228.24
880.82	228.28
881.12	228.29
881.43	228.10
881.74	227.99
882.05	227.99
882.36	228.15
882.67	228.20
882.97	227.17
883.28	227.10
883.59	227.20
883.90	227.28
884.21	227.43
884.51	227.35
884.82	227.18
885.13	227.14
885.44	227.00
885.74	226.99
886.05	226.94
886.36	226.97
886.67	226.60
886.98	227.00
887.28	227.11
887.59	227.15
887.90	227.21
888.20	227.25
888.51	227.45
888.82	227.11
889.13	227.23
889.43	228.04
889.74	228.00
890.05	227.93
890.35	227.91
890.66	227.79
890.97	227.76
891.28	227.79
891.58	227.79
891.89	227.84
892.20	227.78
892.50	227.78
892.81	227.65
893.12	227.63
893.42	227.25
893.73	227.21
894.04	227.21
894.34	227.22
894.65	227.15
894.95	227.05
895.26	227.16
895.57	227.51
895.87	226.65
896.18	226.87
896.48	226.90
896.79	226.88
897.10	227.01
897.40	227.10
897.71	227.18
898.01	227.15
898.32	227.36
898.63	227.38
898.93	227.46
899.24	227.59
899.54	227.52
899.85	227.48
900.15	227.56
900.46	227.51
900.76	227.62
901.07	227.64
901.38	227.61
901.68	227.70
901.99	227.23
902.29	227.32
902.60	227.22
902.90	227.18
903.21	227.11
903.51	227.07
903.82	227.24
904.12	227.25
904.43	227.20
904.73	227.13
905.03	227.21
905.34	228.09
905.64	228.07
905.95	228.20
906.25	228.16
906.56	228.11
906.86	228.13
907.17	228.06
907.47	228.20
907.77	228.19
908.08	228.09
908.38	228.15
908.69	228.15
908.99	228.37
909.30	228.44
909.60	228.50
909.90	228.45
910.21	228.24
910.51	228.04
910.81	228.09
911.12	228.16
911.42	228.18
911.73	227.20
912.03	227.16
912.33	227.40
912.64	227.44
912.94	227.28
913.24	227.10
913.55	227.00
913.85	226.90
914.15	227.09
914.46	227.15
914.76	227.07
915.06	227.09
915.37	226.90
915.67	226.78
915.97	226.85
916.27	226.75
916.58	226.79
916.88	226.88
917.18	226.86
917.49	227.41
917.79	227.31
918.09	227.54
918.39	227.86
918.70	227.71
919.00	227.66
919.30	228.20
919.60	228.31
919.91	228.19
920.21	228.28
920.51	228.13
920.81	228.04
921.12	228.24
921.42	228.19
921.72	228.20
922.02	228.37
922.32	228.43
922.63	228.46
922.93	228.92
923.23	228.97
923.53	228.96
923.83	228.36
924.13	228.51
924.44	228.42
924.74	228.52
925.04	228.72
925.34	228.86
925.64	228.46
925.94	228.38
926.24	229.07
926.55	228.89
926.85	229.02
927.15	229.03
927.45	229.04
927.75	229.06
928.05	229.10
928.35	229.04
928.65	229.29
928.95	229.29
929.26	228.89
929.56	229.14
929.86	229.25
930.16	229.06
930.46	228.96
930.76	229.01
931.06	228.60
931.36	228.36
931.66	228.37
931.96	228.47
932.26	228.50
932.56	228.01
932.86	228.21
933.16	228.14
933.46	228.04
933.76	227.74
934.06	227.99
934.36	228.28
934.66	228.20
934.96	227.98
935.26	228.00
935.56	228.15
935.86	227.81
936.16	227.59
936.46	227.62
936.76	227.59
937.06	227.40
937.36	227.51
937.66	227.59
937.96	227.57
938.26	227.38
938.56	227.37
938.86	227.39
939.16	227.43
939.46	227.56
939.76	227.76
940.06	227.82
940.35	227.59
940.65	227.08
940.95	227.19
941.25	226.94
941.55	226.90
941.85	226.88
942.15	227.05
942.45	227.34
942.75	227.28
943.04	227.37
943.34	227.60
943.64	227.40
943.94	227.30
944.24	227.30
944.54	227.34
944.84	227.38
945.13	227.23
945.43	227.05
945.73	226.87
946.03	226.79
946.33	226.76
946.62	226.72
946.92	226.68
947.22	226.69
947.52	226.75
947.82	226.81
948.11	226.65
948.41	226.56
948.71	226.37
949.01	226.54
949.31	226.43
949.60	226.35
949.90	226.56
950.20	226.56
950.50	226.53
950.79	226.51
951.09	226.62
951.39	226.64
951.69	226.61
951.98	226.75
952.28	226.80
952.58	226.78
952.87	226.72
953.17	227.00
953.47	226.80
953.76	226.84
954.06	226.69
954.36	226.56
954.66	226.47
954.95	226.85
955.25	226.89
955.55	226.92
955.84	226.80
956.14	226.80
956.44	226.76
956.73	226.60
957.03	226.69
957.32	226.62
957.62	226.54
957.92	226.82
958.21	226.70
958.51	227.76
958.81	227.80
959.10	227.96
959.40	228.15
959.69	228.35
959.99	228.44
960.29	228.45
960.58	228.50
960.88	228.87
961.17	228.56
961.47	228.65
961.76	228.60
962.06	228.70
962.36	228.59
962.65	228.65
962.95	228.69
963.24	228.61
963.54	228.69
963.83	228.80
964.13	228.65
964.42	228.60
964.72	227.86
965.01	228.04
965.31	228.00
965.60	227.77
965.90	228.28
966.19	228.13
966.49	228.23
966.78	228.19
967.08	228.06
967.37	228.15
967.67	227.99
967.96	228.22
968.26	228.19
968.55	228.33
968.85	228.25
969.14	228.31
969.43	228.38
969.73	228.30
970.02	228.31
970.32	228.31
970.61	228.30
970.91	228.01
971.20	227.80
971.49	227.64
971.79	227.67
972.08	227.00
972.38	227.08
972.67	227.11
972.96	227.17
973.26	226.98
973.55	227.16
973.85	227.11
974.14	226.93
974.43	226.99
974.73	226.90
975.02	226.96
975.31	227.01
975.61	226.92
975.90	226.86
976.19	226.75
976.49	226.77
976.78	226.73
977.07	226.72
977.37	226.87
977.66	227.00
977.95	226.80
978.24	226.86
978.54	227.13
978.83	227.00
979.12	227.04
979.42	227.06
979.71	226.83
980.00	226.84
980.29	226.90
980.59	226.73
980.88	226.92
981.17	226.88
981.46	226.82
981.76	226.78
982.05	227.11
982.34	227.20
982.63	227.28
982.93	227.30
983.22	227.53
983.51	227.47
983.80	227.67
984.09	227.80
984.39	227.80
984.68	227.49
984.97	227.53
985.26	227.48
985.55	227.56
985.85	227.40
986.14	227.48
986.43	227.62
986.72	227.55
987.01	227.21
987.30	227.18
987.59	227.10
987.89	227.06
988.18	226.68
988.47	226.50
988.76	226.27
989.05	226.13
989.34	225.93
989.63	226.09
989.92	225.79
990.22	225.63
990.51	225.51
990.80	225.50
991.09	225.60
991.38	225.55
991.67	225.47
991.96	225.42
992.25	225.42
992.54	225.16
992.83	225.22
993.12	225.21
993.41	225.43
993.70	225.77
993.99	226.02
994.28	226.26
994.58	226.40
994.87	226.32
995.16	226.45
995.45	226.40
995.74	226.12
996.03	226.40
996.32	226.66
996.61	226.92
996.90	226.89
997.19	226.71
997.48	226.85
997.77	226.69
998.06	226.80
998.34	226.74
998.63	226.82
998.92	226.94
999.21	227.14
999.50	227.02
999.79	226.78
1000.08	226.73
1000.37	226.64
1000.66	226.59
1000.95	226.92
1001.24	227.04
1001.53	227.22
1001.82	227.24
1002.11	227.00
1002.40	227.15
1002.68	227.50
1002.97	228.24
1003.26	228.30
1003.55	228.15
1003.84	228.28
1004.13	228.57
1004.42	228.54
1004.71	228.51
1004.99	228.43
1005.28	228.78
1005.57	228.76
1005.86	228.67
1006.15	228.60
1006.44	228.49
1006.72	228.67
1007.01	228.48
1007.30	228.40
1007.59	228.20
1007.88	228.24
1008.17	228.29
1008.45	228.01
1008.74	227.52
1009.03	226.99
1009.32	227.01
1009.60	227.02
1009.89	226.92
1010.18	226.54
1010.47	226.47
1010.76	226.47
1011.04	226.47
1011.33	226.36
1011.62	226.46
1011.91	226.57
1012.19	226.66
1012.48	226.80
1012.77	226.73
1013.05	227.32
1013.34	227.24
1013.63	227.23
1013.92	227.30
1014.20	227.31
1014.49	227.36
1014.78	227.37
1015.06	227.03
1015.35	226.91
1015.64	226.99
1015.92	227.23
1016.21	227.31
1016.50	227.45
1016.78	227.56
1017.07	227.66
1017.36	227.33
1017.64	227.12
1017.93	227.17
1018.22	227.00
1018.50	226.87
1018.79	226.83
1019.08	226.32
1019.36	226.42
1019.65	226.38
1019.93	226.49
1020.22	226.50
1020.51	226.92
1020.79	226.92
1021.08	224.80
1021.36	225.30
1021.65	226.60
1021.94	227.50
1022.22	226.90
1022.51	225.40
1022.79	229.60
1023.08	226.50
1023.36	237.20
1023.65	225.70
>>>>>End Processed Spectral Data<<<<<
