SpectraSuite Data File
++++++++++++++++++++++++++++++++++++
Date: Wed Sep 04 17:31:34 EDT 2013
User: lab3
Dark Spectrum Present: Yes
Reference Spectrum Present: No
Number of Sampled Component Spectra: 1
Spectrometers: USB2E7196
Integration Time (usec): 337000 (USB2E7196)
Spectra Averaged: 10 (USB2E7196)
Boxcar Smoothing: 10 (USB2E7196)
Correct for Electrical Dark: No (USB2E7196)
Strobe/Lamp Enabled: No (USB2E7196)
Correct for Detector Non-linearity: No (USB2E7196)
Correct for Stray Light: No (USB2E7196)
Number of Pixels in Processed Spectrum: 2048
>>>>>Begin Processed Spectral Data<<<<<
339.09	0.00
339.48	214.50
339.86	213.80
340.24	215.30
340.63	218.30
341.01	232.70
341.39	219.70
341.78	223.20
342.16	225.80
342.54	224.20
342.93	213.57
343.31	224.30
343.69	224.84
344.07	225.37
344.46	225.91
344.84	226.32
345.22	226.02
345.60	226.35
345.99	226.46
346.37	226.43
346.75	226.50
347.13	226.50
347.52	226.49
347.90	226.91
348.28	226.98
348.66	227.13
349.05	226.77
349.43	226.94
349.81	227.14
350.19	227.06
350.57	226.97
350.96	227.09
351.34	227.10
351.72	227.13
352.10	227.23
352.48	227.17
352.87	227.20
353.25	227.21
353.63	227.23
354.01	227.30
354.39	227.51
354.77	227.65
355.15	228.07
355.54	228.15
355.92	227.82
356.30	227.88
356.68	228.45
357.06	228.58
357.44	228.45
357.82	228.37
358.20	229.37
358.58	229.51
358.97	229.61
359.35	229.90
359.73	230.04
360.11	230.03
360.49	230.18
360.87	230.17
361.25	230.27
361.63	230.69
362.01	230.81
362.39	230.71
362.77	230.77
363.15	230.69
363.53	230.74
363.91	230.91
364.29	230.87
364.67	230.07
365.05	230.07
365.43	230.15
365.81	230.31
366.19	230.04
366.57	230.43
366.95	230.34
367.33	230.10
367.71	230.21
368.09	230.52
368.47	230.50
368.85	230.48
369.23	230.69
369.61	230.34
369.99	230.63
370.37	230.80
370.75	231.27
371.13	231.10
371.51	230.98
371.89	230.94
372.27	231.05
372.65	231.07
373.03	231.11
373.41	231.01
373.78	230.88
374.16	230.26
374.54	229.91
374.92	229.84
375.30	229.90
375.68	229.53
376.06	229.40
376.44	229.24
376.82	229.31
377.19	229.21
377.57	229.10
377.95	228.71
378.33	228.56
378.71	227.92
379.09	227.92
379.47	227.93
379.84	227.80
380.22	227.60
380.60	227.42
380.98	227.30
381.36	227.24
381.73	227.03
382.11	227.15
382.49	227.06
382.87	226.90
383.25	226.80
383.62	227.98
384.00	227.73
384.38	227.76
384.76	227.84
385.13	228.17
385.51	228.11
385.89	228.00
386.27	227.97
386.64	227.91
387.02	227.80
387.40	227.72
387.78	227.70
388.15	227.67
388.53	227.48
388.91	227.43
389.29	227.33
389.66	227.45
390.04	227.30
390.42	227.40
390.79	227.38
391.17	227.26
391.55	226.16
391.92	226.12
392.30	226.31
392.68	226.16
393.05	226.05
393.43	226.04
393.81	226.11
394.18	226.07
394.56	226.14
394.94	226.44
395.31	226.40
395.69	226.74
396.06	227.01
396.44	227.27
396.82	227.27
397.19	227.80
397.57	227.81
397.95	228.04
398.32	227.90
398.70	228.17
399.07	228.54
399.45	228.54
399.82	228.70
400.20	228.66
400.58	228.72
400.95	228.38
401.33	228.76
401.70	229.57
402.08	229.76
402.45	229.99
402.83	230.28
403.20	230.60
403.58	230.64
403.95	230.93
404.33	231.20
404.71	231.64
405.08	232.37
405.46	232.64
405.83	232.91
406.21	233.21
406.58	233.51
406.96	233.83
407.33	234.31
407.70	234.78
408.08	236.00
408.45	236.72
408.83	237.49
409.20	237.89
409.58	237.85
409.95	238.60
410.33	239.25
410.70	239.61
411.08	240.44
411.45	241.27
411.82	241.96
412.20	243.11
412.57	244.50
412.95	244.55
413.32	245.85
413.69	246.82
414.07	248.18
414.44	249.54
414.82	250.96
415.19	252.69
415.56	254.28
415.94	255.45
416.31	257.36
416.68	259.23
417.06	261.40
417.43	263.70
417.81	266.06
418.18	268.63
418.55	271.24
418.93	274.00
419.30	276.89
419.67	280.11
420.04	283.18
420.42	286.20
420.79	290.84
421.16	294.78
421.54	299.39
421.91	303.57
422.28	307.85
422.66	312.45
423.03	317.54
423.40	322.29
423.77	327.27
424.15	332.26
424.52	337.72
424.89	344.01
425.26	349.62
425.64	355.00
426.01	360.71
426.38	367.15
426.75	373.60
427.13	380.12
427.50	386.86
427.87	393.82
428.24	400.86
428.61	406.98
428.99	414.60
429.36	422.13
429.73	430.17
430.10	438.15
430.47	446.36
430.85	454.23
431.22	463.13
431.59	473.15
431.96	482.16
432.33	492.04
432.70	501.47
433.08	512.82
433.45	523.59
433.82	534.61
434.19	546.60
434.56	558.55
434.93	569.80
435.30	581.24
435.68	593.92
436.05	606.42
436.42	619.06
436.79	630.38
437.16	642.91
437.53	655.84
437.90	668.89
438.27	681.79
438.64	694.75
439.01	707.23
439.38	717.88
439.75	728.75
440.13	741.10
440.50	752.33
440.87	761.75
441.24	771.64
441.61	782.16
441.98	789.94
442.35	798.78
442.72	808.29
443.09	817.61
443.46	823.07
443.83	827.01
444.20	830.43
444.57	834.93
444.94	837.07
445.31	839.41
445.68	842.29
446.05	843.12
446.42	842.28
446.79	841.05
447.16	839.27
447.53	838.10
447.90	833.22
448.27	828.39
448.64	821.66
449.01	816.76
449.37	808.46
449.74	800.15
450.11	790.95
450.48	779.73
450.85	768.20
451.22	758.73
451.59	749.60
451.96	740.60
452.33	729.11
452.70	718.52
453.07	705.86
453.43	692.44
453.80	680.06
454.17	668.26
454.54	657.06
454.91	645.28
455.28	633.71
455.65	622.91
456.02	613.60
456.38	604.30
456.75	593.00
457.12	583.33
457.49	574.02
457.86	564.42
458.23	557.09
458.59	548.65
458.96	540.03
459.33	532.21
459.70	524.77
460.07	518.73
460.43	511.98
460.80	505.86
461.17	500.52
461.54	494.81
461.91	489.33
462.27	483.40
462.64	478.48
463.01	473.17
463.38	468.54
463.74	462.10
464.11	457.85
464.48	453.90
464.85	449.55
465.21	446.61
465.58	443.21
465.95	438.85
466.32	435.57
466.68	432.22
467.05	429.08
467.42	425.81
467.78	422.44
468.15	419.28
468.52	416.94
468.88	413.60
469.25	410.71
469.62	408.46
469.98	406.03
470.35	403.83
470.72	401.48
471.08	398.47
471.45	396.73
471.82	394.89
472.18	392.70
472.55	391.31
472.92	389.20
473.28	387.49
473.65	385.95
474.02	384.36
474.38	383.06
474.75	381.97
475.11	380.59
475.48	379.46
475.85	378.45
476.21	377.12
476.58	376.10
476.94	375.43
477.31	374.62
477.67	374.05
478.04	373.56
478.41	373.19
478.77	373.80
479.14	373.03
479.50	372.48
479.87	372.35
480.23	372.02
480.60	371.61
480.96	371.39
481.33	371.63
481.69	371.51
482.06	371.53
482.42	371.45
482.79	371.60
483.15	371.80
483.52	372.25
483.88	372.66
484.25	373.04
484.61	373.50
484.98	373.90
485.34	374.68
485.71	375.24
486.07	375.83
486.44	375.57
486.80	376.45
487.17	377.35
487.53	378.50
487.90	379.62
488.26	381.37
488.62	382.66
488.99	383.49
489.35	384.67
489.72	386.09
490.08	387.56
490.44	388.82
490.81	390.62
491.17	392.19
491.54	394.10
491.90	395.99
492.26	397.73
492.63	399.65
492.99	401.44
493.36	403.59
493.72	406.05
494.08	408.40
494.45	410.84
494.81	413.65
495.17	416.10
495.54	418.93
495.90	421.24
496.26	424.24
496.63	427.26
496.99	430.41
497.35	433.47
497.72	436.56
498.08	439.75
498.44	442.73
498.80	446.21
499.17	449.28
499.53	452.45
499.89	456.14
500.26	459.65
500.62	463.09
500.98	466.80
501.34	470.32
501.71	474.21
502.07	477.90
502.43	481.24
502.79	484.84
503.16	488.45
503.52	492.08
503.88	495.33
504.24	499.18
504.60	502.99
504.97	506.82
505.33	510.68
505.69	515.11
506.05	518.86
506.41	522.50
506.78	526.39
507.14	530.45
507.50	534.38
507.86	538.38
508.22	542.40
508.59	545.78
508.95	549.61
509.31	553.75
509.67	557.42
510.03	561.09
510.39	564.80
510.75	568.38
511.12	572.17
511.48	576.06
511.84	579.61
512.20	583.09
512.56	586.60
512.92	590.26
513.28	593.42
513.64	597.06
514.00	600.65
514.37	604.37
514.73	607.84
515.09	611.43
515.45	614.76
515.81	618.10
516.17	621.72
516.53	625.10
516.89	628.07
517.25	631.53
517.61	635.49
517.97	639.10
518.33	642.89
518.69	646.70
519.05	650.52
519.41	654.33
519.77	658.86
520.13	662.65
520.49	666.15
520.85	672.66
521.21	676.87
521.57	680.57
521.93	683.96
522.29	687.61
522.65	690.79
523.01	694.27
523.37	697.69
523.73	701.38
524.09	704.89
524.45	708.50
524.81	712.15
525.17	715.67
525.53	719.48
525.89	723.15
526.25	726.93
526.61	730.17
526.97	733.80
527.33	737.00
527.68	741.80
528.04	746.04
528.40	747.36
528.76	751.23
529.12	755.41
529.48	759.88
529.84	764.17
530.20	768.90
530.56	773.65
530.91	778.57
531.27	783.36
531.63	788.20
531.99	793.12
532.35	798.21
532.71	803.24
533.07	808.30
533.42	814.06
533.78	819.08
534.14	824.84
534.50	830.07
534.86	835.59
535.21	839.85
535.57	845.22
535.93	850.29
536.29	855.62
536.65	861.27
537.00	866.67
537.36	872.21
537.72	877.33
538.08	882.92
538.44	888.48
538.79	894.10
539.15	899.38
539.51	904.60
539.87	909.81
540.22	914.74
540.58	919.98
540.94	924.62
541.29	929.45
541.65	933.85
542.01	939.20
542.37	943.94
542.72	948.20
543.08	952.49
543.44	957.39
543.79	961.50
544.15	966.04
544.51	970.96
544.87	975.38
545.22	980.05
545.58	984.11
545.94	988.02
546.29	991.82
546.65	996.10
547.01	1000.06
547.36	1004.24
547.72	1008.34
548.07	1011.83
548.43	1015.50
548.79	1019.34
549.14	1023.33
549.50	1027.11
549.86	1030.56
550.21	1034.76
550.57	1039.13
550.92	1042.65
551.28	1046.62
551.64	1050.02
551.99	1053.34
552.35	1056.91
552.70	1060.42
553.06	1064.13
553.41	1067.79
553.77	1071.97
554.13	1075.35
554.48	1079.24
554.84	1082.69
555.19	1085.85
555.55	1090.29
555.90	1093.48
556.26	1096.41
556.61	1099.12
556.97	1101.07
557.32	1103.88
557.68	1106.87
558.03	1109.40
558.39	1112.13
558.74	1114.57
559.10	1117.03
559.45	1119.27
559.81	1121.28
560.16	1122.92
560.52	1124.91
560.87	1126.84
561.23	1128.11
561.58	1130.82
561.94	1132.05
562.29	1133.23
562.64	1134.86
563.00	1135.28
563.35	1136.40
563.71	1138.36
564.06	1140.22
564.42	1141.90
564.77	1143.89
565.12	1145.49
565.48	1147.60
565.83	1149.22
566.19	1150.91
566.54	1152.26
566.89	1153.36
567.25	1154.95
567.60	1157.03
567.96	1158.99
568.31	1160.39
568.66	1161.72
569.02	1161.37
569.37	1162.05
569.72	1163.22
570.08	1163.57
570.43	1163.82
570.78	1164.65
571.14	1164.69
571.49	1164.47
571.84	1164.86
572.20	1164.41
572.55	1163.78
572.90	1162.40
573.26	1161.54
573.61	1160.51
573.96	1159.24
574.31	1158.18
574.67	1156.91
575.02	1154.96
575.37	1152.66
575.72	1150.53
576.08	1148.67
576.43	1147.26
576.78	1145.68
577.13	1143.55
577.49	1142.04
577.84	1140.87
578.19	1139.29
578.54	1137.55
578.90	1136.12
579.25	1134.39
579.60	1132.41
579.95	1130.46
580.30	1128.53
580.66	1126.20
581.01	1123.82
581.36	1121.43
581.71	1119.27
582.06	1117.07
582.42	1114.97
582.77	1112.55
583.12	1110.44
583.47	1108.14
583.82	1106.38
584.17	1103.90
584.53	1102.01
584.88	1099.10
585.23	1096.32
585.58	1092.78
585.93	1089.50
586.28	1086.49
586.63	1082.90
586.98	1079.37
587.34	1076.56
587.69	1072.97
588.04	1070.35
588.39	1067.71
588.74	1064.76
589.09	1061.92
589.44	1058.35
589.79	1055.30
590.14	1052.75
590.49	1049.71
590.84	1046.65
591.19	1043.48
591.54	1040.59
591.89	1037.17
592.25	1035.47
592.60	1032.31
592.95	1029.58
593.30	1026.84
593.65	1023.29
594.00	1020.16
594.35	1019.97
594.70	1016.14
595.05	1013.27
595.40	1009.59
595.75	1005.79
596.10	1002.73
596.45	999.39
596.80	996.33
597.15	992.70
597.50	988.87
597.85	985.89
598.19	981.94
598.54	978.02
598.89	974.35
599.24	970.99
599.59	966.66
599.94	962.90
600.29	959.30
600.64	955.44
600.99	952.18
601.34	949.21
601.69	943.08
602.04	939.97
602.39	936.21
602.74	933.37
603.08	930.39
603.43	927.23
603.78	923.59
604.13	920.25
604.48	916.84
604.83	913.27
605.18	909.17
605.53	905.80
605.87	902.53
606.22	899.46
606.57	895.68
606.92	891.84
607.27	888.61
607.62	885.44
607.96	882.55
608.31	879.38
608.66	876.12
609.01	872.69
609.36	869.22
609.70	865.90
610.05	861.90
610.40	858.34
610.75	854.54
611.10	851.10
611.44	847.40
611.79	843.85
612.14	840.49
612.49	837.04
612.83	833.96
613.18	830.10
613.53	826.37
613.88	822.68
614.22	819.09
614.57	815.06
614.92	810.97
615.27	807.03
615.61	803.17
615.96	799.09
616.31	795.32
616.65	791.74
617.00	788.02
617.35	784.47
617.70	780.56
618.04	777.01
618.39	773.55
618.74	770.19
619.08	766.60
619.43	762.78
619.78	758.89
620.12	754.90
620.47	751.57
620.82	747.62
621.16	743.99
621.51	741.24
621.85	738.01
622.20	734.63
622.55	730.82
622.89	727.25
623.24	723.99
623.59	720.61
623.93	717.20
624.28	713.76
624.62	711.36
624.97	708.72
625.32	705.20
625.66	701.73
626.01	698.02
626.35	694.71
626.70	691.37
627.04	688.93
627.39	685.49
627.73	682.50
628.08	679.65
628.43	676.21
628.77	672.30
629.12	669.04
629.46	666.24
629.81	663.83
630.15	660.70
630.50	657.42
630.84	654.23
631.19	651.19
631.53	648.41
631.88	644.24
632.22	640.66
632.57	637.91
632.91	634.78
633.26	631.93
633.60	628.91
633.95	625.81
634.29	621.99
634.64	619.24
634.98	615.69
635.32	612.70
635.67	610.24
636.01	607.30
636.36	604.18
636.70	601.44
637.05	598.18
637.39	595.45
637.73	592.84
638.08	590.40
638.42	587.25
638.77	584.17
639.11	581.20
639.45	578.07
639.80	574.79
640.14	571.77
640.49	568.80
640.83	566.00
641.17	563.48
641.52	560.91
641.86	558.30
642.20	555.91
642.55	553.08
642.89	550.20
643.23	547.49
643.58	545.33
643.92	542.11
644.26	539.60
644.61	536.96
644.95	534.18
645.29	531.08
645.64	528.89
645.98	526.50
646.32	524.12
646.66	521.38
647.01	518.91
647.35	516.89
647.69	514.53
648.04	512.37
648.38	509.93
648.72	507.53
649.06	504.90
649.41	502.31
649.75	499.70
650.09	497.48
650.43	495.04
650.78	492.25
651.12	490.00
651.46	487.50
651.80	485.30
652.14	483.02
652.49	481.20
652.83	478.71
653.17	476.36
653.51	474.07
653.85	472.38
654.20	470.34
654.54	467.92
654.88	465.69
655.22	463.85
655.56	461.81
655.90	459.78
656.25	457.82
656.59	455.91
656.93	454.03
657.27	452.16
657.61	450.08
657.95	448.18
658.29	446.13
658.64	444.14
658.98	442.08
659.32	440.03
659.66	437.90
660.00	436.04
660.34	434.16
660.68	432.34
661.02	430.27
661.36	428.47
661.70	426.43
662.05	424.63
662.39	422.57
662.73	420.93
663.07	419.66
663.41	417.89
663.75	416.05
664.09	414.39
664.43	412.44
664.77	410.90
665.11	409.22
665.45	407.61
665.79	406.18
666.13	404.36
666.47	402.60
666.81	401.05
667.15	399.23
667.49	397.80
667.83	396.58
668.17	395.12
668.51	393.49
668.85	392.34
669.19	391.34
669.53	389.60
669.87	387.89
670.21	386.04
670.55	384.57
670.89	383.56
671.23	382.01
671.57	380.53
671.91	379.16
672.25	377.72
672.58	376.52
672.92	374.71
673.26	373.46
673.60	372.20
673.94	370.80
674.28	369.77
674.62	368.54
674.96	366.95
675.30	365.72
675.64	364.34
675.97	362.86
676.31	361.20
676.65	359.88
676.99	358.98
677.33	357.58
677.67	356.41
678.01	354.67
678.34	353.63
678.68	352.61
679.02	351.20
679.36	350.15
679.70	348.77
680.04	347.86
680.37	346.84
680.71	345.79
681.05	344.81
681.39	343.63
681.73	342.37
682.06	341.30
682.40	340.23
682.74	339.30
683.08	338.63
683.42	337.50
683.75	336.67
684.09	335.30
684.43	334.36
684.77	333.19
685.10	332.26
685.44	331.23
685.78	329.93
686.12	329.09
686.45	328.04
686.79	327.15
687.13	326.35
687.46	325.25
687.80	324.47
688.14	323.27
688.48	322.21
688.81	321.34
689.15	320.59
689.49	319.57
689.82	318.78
690.16	317.43
690.50	316.56
690.83	315.53
691.17	314.47
691.51	313.58
691.84	312.89
692.18	311.91
692.52	310.88
692.85	310.32
693.19	309.87
693.52	309.13
693.86	308.27
694.20	307.40
694.53	306.60
694.87	305.47
695.21	304.66
695.54	303.87
695.88	302.86
696.21	301.69
696.55	300.80
696.88	299.95
697.22	299.26
697.56	298.65
697.89	297.92
698.23	297.37
698.56	296.58
698.90	295.89
699.23	295.26
699.57	294.70
699.90	293.81
700.24	292.85
700.58	292.16
700.91	291.63
701.25	291.60
701.58	291.66
701.92	291.46
702.25	290.97
702.59	290.39
702.92	289.99
703.26	289.65
703.59	289.27
703.93	289.56
704.26	289.18
704.60	288.61
704.93	287.98
705.26	287.38
705.60	286.95
705.93	286.18
706.27	285.80
706.60	285.47
706.94	285.32
707.27	284.73
707.61	284.33
707.94	283.74
708.27	282.54
708.61	281.32
708.94	280.58
709.28	280.04
709.61	279.49
709.94	278.98
710.28	278.38
710.61	277.79
710.95	276.28
711.28	276.25
711.61	275.70
711.95	275.45
712.28	274.78
712.61	274.32
712.95	274.44
713.28	274.30
713.61	273.47
713.95	272.66
714.28	272.18
714.61	271.55
714.95	270.94
715.28	270.28
715.61	269.84
715.95	269.33
716.28	268.73
716.61	268.38
716.95	267.81
717.28	267.27
717.61	266.76
717.94	266.32
718.28	265.12
718.61	264.70
718.94	264.07
719.27	263.72
719.61	263.35
719.94	262.63
720.27	261.75
720.60	261.50
720.94	261.19
721.27	260.92
721.60	260.70
721.93	260.40
722.27	260.51
722.60	260.12
722.93	259.83
723.26	259.60
723.59	259.06
723.93	258.73
724.26	258.58
724.59	258.18
724.92	258.04
725.25	258.11
725.59	257.70
725.92	257.51
726.25	257.23
726.58	256.88
726.91	256.59
727.24	256.39
727.57	256.09
727.91	255.58
728.24	255.37
728.57	254.97
728.90	254.80
729.23	254.19
729.56	254.44
729.89	254.13
730.22	253.80
730.55	253.73
730.89	253.55
731.22	253.14
731.55	252.89
731.88	252.61
732.21	252.05
732.54	251.79
732.87	251.50
733.20	251.27
733.53	251.06
733.86	250.83
734.19	250.51
734.52	250.41
734.85	250.88
735.18	250.47
735.51	250.50
735.84	250.30
736.17	250.34
736.50	249.65
736.83	250.57
737.16	250.48
737.49	250.23
737.82	249.94
738.15	249.99
738.48	249.84
738.81	249.58
739.14	249.36
739.47	249.13
739.80	248.92
740.13	248.90
740.46	248.50
740.79	248.20
741.12	248.00
741.45	247.65
741.78	247.00
742.11	247.20
742.44	246.95
742.77	246.83
743.10	246.50
743.43	246.25
743.75	245.09
744.08	246.16
744.41	245.99
744.74	245.87
745.07	245.46
745.40	245.48
745.73	245.78
746.06	245.66
746.39	245.68
746.71	245.43
747.04	245.09
747.37	244.96
747.70	245.02
748.03	244.90
748.36	244.98
748.68	244.88
749.01	244.47
749.34	244.21
749.67	244.10
750.00	244.16
750.33	244.79
750.65	244.75
750.98	243.38
751.31	243.20
751.64	243.14
751.97	243.56
752.29	243.40
752.62	242.80
752.95	242.68
753.28	242.33
753.60	242.16
753.93	242.30
754.26	242.27
754.59	241.91
754.91	241.69
755.24	241.46
755.57	241.25
755.90	241.02
756.22	240.74
756.55	240.53
756.88	240.16
757.20	239.42
757.53	239.06
757.86	238.96
758.19	238.97
758.51	238.84
758.84	238.16
759.17	238.02
759.49	238.00
759.82	238.41
760.15	238.47
760.47	238.42
760.80	237.98
761.13	237.99
761.45	237.83
761.78	237.72
762.11	237.73
762.43	237.55
762.76	237.47
763.08	237.54
763.41	237.55
763.74	237.48
764.06	237.39
764.39	237.26
764.71	237.11
765.04	236.82
765.37	236.58
765.69	236.62
766.02	236.45
766.34	236.30
766.67	235.71
767.00	235.64
767.32	236.04
767.65	236.62
767.97	236.46
768.30	236.42
768.62	236.40
768.95	236.10
769.27	236.00
769.60	236.06
769.92	235.88
770.25	235.59
770.57	235.42
770.90	235.26
771.22	235.08
771.55	235.02
771.87	235.12
772.20	235.06
772.52	235.84
772.85	236.91
773.17	236.94
773.50	236.85
773.82	236.76
774.15	236.30
774.47	235.64
774.80	235.56
775.12	235.43
775.45	235.44
775.77	235.40
776.09	235.46
776.42	235.29
776.74	235.53
777.07	235.43
777.39	235.38
777.72	235.38
778.04	235.46
778.36	235.29
778.69	235.30
779.01	235.37
779.33	234.56
779.66	233.42
779.98	233.36
780.31	233.35
780.63	233.70
780.95	233.80
781.28	233.79
781.60	233.70
781.92	233.76
782.25	233.68
782.57	233.71
782.89	233.70
783.22	233.70
783.54	233.54
783.86	233.65
784.19	233.60
784.51	233.80
784.83	233.70
785.16	233.71
785.48	233.72
785.80	233.70
786.12	233.65
786.45	233.59
786.77	233.58
787.09	233.56
787.42	233.22
787.74	233.22
788.06	233.26
788.38	233.16
788.71	232.94
789.03	232.94
789.35	232.96
789.67	232.81
789.99	232.80
790.32	232.56
790.64	232.60
790.96	233.38
791.28	232.99
791.61	232.85
791.93	232.87
792.25	232.71
792.57	233.41
792.89	233.06
793.21	233.14
793.54	232.96
793.86	232.80
794.18	232.73
794.50	232.56
794.82	232.50
795.14	232.63
795.47	232.90
795.79	232.87
796.11	232.69
796.43	232.53
796.75	232.44
797.07	232.51
797.39	232.40
797.71	231.62
798.04	231.68
798.36	231.73
798.68	231.66
799.00	231.69
799.32	231.03
799.64	231.22
799.96	231.14
800.28	231.24
800.60	231.18
800.92	231.25
801.24	231.10
801.56	231.24
801.89	231.07
802.21	231.07
802.53	230.92
802.85	231.07
803.17	231.50
803.49	231.35
803.81	231.21
804.13	231.10
804.45	231.08
804.77	231.19
805.09	231.23
805.41	231.12
805.73	230.93
806.05	230.60
806.37	230.52
806.69	230.46
807.01	230.39
807.33	230.46
807.65	230.12
807.97	230.66
808.28	230.45
808.60	230.45
808.92	230.25
809.24	230.78
809.56	230.61
809.88	230.39
810.20	230.39
810.52	230.59
810.84	230.49
811.16	230.30
811.48	230.19
811.80	230.48
812.12	230.44
812.43	230.61
812.75	230.77
813.07	230.83
813.39	230.92
813.71	230.79
814.03	230.70
814.35	230.77
814.67	230.25
814.98	230.08
815.30	230.07
815.62	229.88
815.94	229.27
816.26	229.68
816.58	229.47
816.89	229.62
817.21	229.37
817.53	229.48
817.85	229.59
818.17	229.46
818.48	229.12
818.80	229.42
819.12	229.19
819.44	229.03
819.76	228.81
820.07	228.74
820.39	228.78
820.71	228.85
821.03	228.79
821.34	228.81
821.66	229.09
821.98	229.20
822.30	229.35
822.61	229.91
822.93	229.54
823.25	229.53
823.57	229.35
823.88	229.56
824.20	229.43
824.52	229.57
824.83	229.65
825.15	229.59
825.47	229.43
825.79	229.66
826.10	229.69
826.42	229.77
826.74	229.86
827.05	229.82
827.37	229.90
827.69	229.90
828.00	229.90
828.32	229.84
828.64	229.67
828.95	230.09
829.27	229.96
829.58	229.99
829.90	230.10
830.22	230.27
830.53	230.04
830.85	229.99
831.17	229.77
831.48	229.77
831.80	229.76
832.11	229.71
832.43	229.47
832.75	229.41
833.06	229.86
833.38	229.53
833.69	229.56
834.01	229.48
834.32	229.48
834.64	229.34
834.96	229.37
835.27	229.43
835.59	229.16
835.90	229.04
836.22	228.94
836.53	228.76
836.85	228.55
837.16	229.45
837.48	229.48
837.79	229.78
838.11	229.73
838.42	229.80
838.74	229.92
839.05	229.81
839.37	229.80
839.68	229.28
840.00	229.26
840.31	229.40
840.63	229.40
840.94	229.35
841.26	229.34
841.57	229.30
841.88	229.31
842.20	229.09
842.51	228.83
842.83	228.83
843.14	229.67
843.46	229.80
843.77	229.31
844.08	229.28
844.40	228.90
844.71	228.76
845.03	228.53
845.34	228.43
845.65	228.38
845.97	228.31
846.28	228.31
846.60	228.41
846.91	228.20
847.22	228.11
847.54	228.24
847.85	228.24
848.16	228.10
848.48	227.89
848.79	228.27
849.10	228.35
849.42	228.35
849.73	227.44
850.04	227.25
850.36	226.91
850.67	227.03
850.98	227.07
851.30	227.24
851.61	227.33
851.92	227.25
852.23	227.70
852.55	227.81
852.86	227.87
853.17	227.94
853.49	228.12
853.80	228.31
854.11	228.35
854.42	228.52
854.74	228.39
855.05	228.45
855.36	228.02
855.67	228.01
855.99	228.05
856.30	229.22
856.61	229.29
856.92	229.30
857.23	229.29
857.55	229.23
857.86	229.18
858.17	229.25
858.48	229.14
858.79	228.87
859.11	228.93
859.42	228.91
859.73	228.73
860.04	228.69
860.35	228.41
860.66	228.15
860.98	228.19
861.29	228.40
861.60	228.40
861.91	228.61
862.22	228.44
862.53	228.34
862.84	227.26
863.16	227.53
863.47	227.36
863.78	227.31
864.09	227.41
864.40	227.59
864.71	227.70
865.02	227.89
865.33	227.85
865.64	227.69
865.95	227.71
866.27	228.38
866.58	228.30
866.89	228.49
867.20	228.55
867.51	228.39
867.82	228.40
868.13	228.77
868.44	228.56
868.75	228.89
869.06	228.90
869.37	228.98
869.68	228.70
869.99	228.98
870.30	229.11
870.61	229.21
870.92	229.03
871.23	228.84
871.54	228.97
871.85	229.24
872.16	229.34
872.47	229.33
872.78	228.81
873.09	228.90
873.40	228.76
873.71	228.76
874.02	228.76
874.33	228.70
874.64	228.41
874.95	228.65
875.26	228.30
875.56	228.31
875.87	228.21
876.18	228.13
876.49	229.02
876.80	228.81
877.11	228.64
877.42	228.68
877.73	228.81
878.04	228.64
878.35	228.49
878.66	228.40
878.96	228.33
879.27	228.20
879.58	228.14
879.89	228.03
880.20	228.34
880.51	228.27
880.82	228.12
881.12	228.09
881.43	227.82
881.74	227.80
882.05	227.71
882.36	227.84
882.67	227.96
882.97	226.95
883.28	226.81
883.59	226.80
883.90	226.91
884.21	226.95
884.51	226.90
884.82	226.79
885.13	226.88
885.44	226.87
885.74	226.98
886.05	226.90
886.36	226.89
886.67	226.57
886.98	227.02
887.28	227.15
887.59	227.20
887.90	227.22
888.20	227.13
888.51	227.36
888.82	227.26
889.13	227.34
889.43	228.10
889.74	228.21
890.05	228.20
890.35	228.00
890.66	227.89
890.97	227.86
891.28	227.71
891.58	227.84
891.89	227.77
892.20	227.54
892.50	227.40
892.81	227.44
893.12	227.40
893.42	227.01
893.73	227.05
894.04	227.01
894.34	227.10
894.65	227.24
894.95	227.02
895.26	227.02
895.57	227.32
895.87	226.37
896.18	226.51
896.48	226.56
896.79	226.64
897.10	226.73
897.40	226.75
897.71	226.95
898.01	226.82
898.32	226.92
898.63	226.93
898.93	227.13
899.24	227.26
899.54	227.27
899.85	227.22
900.15	227.19
900.46	227.22
900.76	227.27
901.07	227.21
901.38	227.36
901.68	227.48
901.99	227.06
902.29	227.17
902.60	227.07
902.90	227.08
903.21	227.03
903.51	226.93
903.82	227.05
904.12	226.97
904.43	226.96
904.73	227.03
905.03	227.20
905.34	228.12
905.64	227.99
905.95	227.99
906.25	227.89
906.56	227.87
906.86	227.83
907.17	227.70
907.47	227.79
907.77	227.62
908.08	227.36
908.38	227.38
908.69	227.50
908.99	227.71
909.30	227.77
909.60	227.78
909.90	227.86
910.21	227.57
910.51	227.45
910.81	227.56
911.12	227.65
911.42	227.60
911.73	226.59
912.03	226.70
912.33	226.89
912.64	226.92
912.94	226.86
913.24	226.76
913.55	226.74
913.85	226.66
914.15	226.86
914.46	227.08
914.76	227.01
915.06	226.92
915.37	226.62
915.67	226.48
915.97	226.55
916.27	226.38
916.58	226.56
916.88	226.53
917.18	226.43
917.49	226.91
917.79	226.90
918.09	227.10
918.39	227.33
918.70	227.24
919.00	227.20
919.30	227.61
919.60	227.56
919.91	227.53
920.21	227.59
920.51	227.33
920.81	227.15
921.12	227.36
921.42	227.36
921.72	227.48
922.02	227.54
922.32	227.53
922.63	227.61
922.93	228.07
923.23	228.31
923.53	228.17
923.83	227.62
924.13	227.65
924.44	227.54
924.74	227.61
925.04	227.92
925.34	227.94
925.64	227.58
925.94	227.64
926.24	228.10
926.55	228.00
926.85	228.26
927.15	228.32
927.45	228.27
927.75	228.20
928.05	228.25
928.35	228.22
928.65	228.50
928.95	228.63
929.26	228.11
929.56	228.20
929.86	228.40
930.16	228.34
930.46	228.39
930.76	228.45
931.06	228.07
931.36	227.72
931.66	227.95
931.96	228.12
932.26	228.19
932.56	227.79
932.86	227.96
933.16	227.82
933.46	227.75
933.76	227.62
934.06	227.90
934.36	228.20
934.66	228.13
934.96	227.90
935.26	227.81
935.56	228.06
935.86	227.78
936.16	227.60
936.46	227.56
936.76	227.40
937.06	227.29
937.36	227.39
937.66	227.34
937.96	227.32
938.26	227.14
938.56	227.05
938.86	227.11
939.16	227.26
939.46	227.39
939.76	227.50
940.06	227.52
940.35	227.23
940.65	226.71
940.95	226.80
941.25	226.61
941.55	226.52
941.85	226.44
942.15	226.68
942.45	226.91
942.75	226.88
943.04	227.00
943.34	227.16
943.64	226.97
943.94	227.00
944.24	226.90
944.54	226.89
944.84	226.89
945.13	226.74
945.43	226.68
945.73	226.65
946.03	226.55
946.33	226.54
946.62	226.51
946.92	226.60
947.22	226.65
947.52	226.76
947.82	226.89
948.11	226.82
948.41	226.57
948.71	226.43
949.01	226.50
949.31	226.38
949.60	226.40
949.90	226.54
950.20	226.50
950.50	226.54
950.79	226.50
951.09	226.61
951.39	226.69
951.69	226.48
951.98	226.54
952.28	226.58
952.58	226.47
952.87	226.60
953.17	226.68
953.47	226.53
953.76	226.48
954.06	226.35
954.36	226.22
954.66	226.36
954.95	226.52
955.25	226.66
955.55	226.79
955.84	226.55
956.14	226.76
956.44	226.79
956.73	226.55
957.03	226.58
957.32	226.55
957.62	226.50
957.92	226.76
958.21	226.70
958.51	227.82
958.81	228.02
959.10	228.09
959.40	228.24
959.69	228.39
959.99	228.51
960.29	228.50
960.58	228.50
960.88	228.85
961.17	228.71
961.47	228.73
961.76	228.64
962.06	228.90
962.36	228.66
962.65	228.70
962.95	228.90
963.24	228.82
963.54	228.85
963.83	229.00
964.13	228.86
964.42	228.66
964.72	227.79
965.01	227.77
965.31	227.69
965.60	227.51
965.90	228.17
966.19	228.06
966.49	228.16
966.78	228.08
967.08	227.95
967.37	228.05
967.67	227.85
967.96	228.01
968.26	227.89
968.55	228.10
968.85	228.02
969.14	227.92
969.43	227.94
969.73	227.94
970.02	227.81
970.32	227.78
970.61	227.78
970.91	227.57
971.20	227.41
971.49	227.33
971.79	227.49
972.08	226.67
972.38	226.65
972.67	226.60
972.96	226.89
973.26	226.70
973.55	226.97
973.85	226.87
974.14	226.81
974.43	226.89
974.73	226.69
975.02	226.65
975.31	226.73
975.61	226.63
975.90	226.52
976.19	226.45
976.49	226.57
976.78	226.72
977.07	226.70
977.37	226.86
977.66	226.93
977.95	226.70
978.24	226.79
978.54	226.99
978.83	226.96
979.12	226.82
979.42	226.80
979.71	226.65
980.00	226.70
980.29	226.74
980.59	226.52
980.88	226.74
981.17	226.72
981.46	226.71
981.76	226.88
982.05	227.20
982.34	227.24
982.63	227.28
982.93	227.18
983.22	227.50
983.51	227.39
983.80	227.56
984.09	227.77
984.39	227.80
984.68	227.59
984.97	227.54
985.26	227.40
985.55	227.45
985.85	227.21
986.14	227.30
986.43	227.31
986.72	227.32
987.01	227.06
987.30	227.09
987.59	226.96
987.89	226.90
988.18	226.52
988.47	226.49
988.76	226.31
989.05	226.25
989.34	225.98
989.63	226.39
989.92	226.23
990.22	226.07
990.51	225.97
990.80	226.10
991.09	226.18
991.38	226.30
991.67	226.17
991.96	226.00
992.25	226.13
992.54	225.94
992.83	226.00
993.12	225.95
993.41	226.12
993.70	226.68
993.99	226.87
994.28	227.10
994.58	227.27
994.87	227.16
995.16	227.21
995.45	227.21
995.74	226.84
996.03	227.00
996.32	227.18
996.61	227.46
996.90	227.37
997.19	227.30
997.48	227.33
997.77	227.27
998.06	227.43
998.34	227.24
998.63	227.32
998.92	227.33
999.21	227.59
999.50	227.48
999.79	227.04
1000.08	226.98
1000.37	226.87
1000.66	226.65
1000.95	226.91
1001.24	226.99
1001.53	227.06
1001.82	226.92
1002.11	226.70
1002.40	226.78
1002.68	227.06
1002.97	227.74
1003.26	227.67
1003.55	227.55
1003.84	227.60
1004.13	228.04
1004.42	228.15
1004.71	228.12
1004.99	227.96
1005.28	228.10
1005.57	228.07
1005.86	227.96
1006.15	227.85
1006.44	227.76
1006.72	227.97
1007.01	227.81
1007.30	227.82
1007.59	227.73
1007.88	227.82
1008.17	227.90
1008.45	227.65
1008.74	227.12
1009.03	226.71
1009.32	226.79
1009.60	226.82
1009.89	226.88
1010.18	226.37
1010.47	226.30
1010.76	226.31
1011.04	226.36
1011.33	226.32
1011.62	226.45
1011.91	226.55
1012.19	226.62
1012.48	226.68
1012.77	226.61
1013.05	227.19
1013.34	227.16
1013.63	227.15
1013.92	227.22
1014.20	227.19
1014.49	227.33
1014.78	227.40
1015.06	227.05
1015.35	226.95
1015.64	227.10
1015.92	227.14
1016.21	227.26
1016.50	227.23
1016.78	227.29
1017.07	227.49
1017.36	227.40
1017.64	227.25
1017.93	227.40
1018.22	227.39
1018.50	227.37
1018.79	227.41
1019.08	226.89
1019.36	227.02
1019.65	226.91
1019.93	227.18
1020.22	227.23
1020.51	227.67
1020.79	227.58
1021.08	226.60
1021.36	225.50
1021.65	227.80
1021.94	227.60
1022.22	228.70
1022.51	224.80
1022.79	232.30
1023.08	227.90
1023.36	238.10
1023.65	224.50
>>>>>End Processed Spectral Data<<<<<
