SpectraSuite Data File
++++++++++++++++++++++++++++++++++++
Date: Wed Sep 04 17:30:46 EDT 2013
User: lab3
Dark Spectrum Present: Yes
Reference Spectrum Present: No
Number of Sampled Component Spectra: 1
Spectrometers: USB2E7196
Integration Time (usec): 337000 (USB2E7196)
Spectra Averaged: 10 (USB2E7196)
Boxcar Smoothing: 10 (USB2E7196)
Correct for Electrical Dark: No (USB2E7196)
Strobe/Lamp Enabled: No (USB2E7196)
Correct for Detector Non-linearity: No (USB2E7196)
Correct for Stray Light: No (USB2E7196)
Number of Pixels in Processed Spectrum: 2048
>>>>>Begin Processed Spectral Data<<<<<
339.09	0.00
339.48	211.70
339.86	212.70
340.24	215.50
340.63	216.70
341.01	232.70
341.39	220.90
341.78	222.10
342.16	224.30
342.54	223.50
342.93	212.85
343.31	223.54
343.69	224.01
344.07	224.56
344.46	225.12
344.84	225.61
345.22	225.20
345.60	225.42
345.99	225.60
346.37	225.72
346.75	225.74
347.13	225.79
347.52	225.90
347.90	226.23
348.28	226.31
348.66	226.57
349.05	226.34
349.43	226.52
349.81	226.67
350.19	226.70
350.57	226.72
350.96	226.80
351.34	226.90
351.72	227.17
352.10	227.28
352.48	227.19
352.87	227.11
353.25	227.25
353.63	227.29
354.01	227.30
354.39	227.39
354.77	227.47
355.15	227.75
355.54	227.75
355.92	227.57
356.30	227.59
356.68	228.18
357.06	228.28
357.44	228.15
357.82	228.14
358.20	229.08
358.58	229.13
358.97	229.23
359.35	229.48
359.73	229.67
360.11	229.65
360.49	229.73
360.87	229.84
361.25	229.90
361.63	230.29
362.01	230.40
362.39	230.32
362.77	230.51
363.15	230.49
363.53	230.48
363.91	230.56
364.29	230.62
364.67	229.73
365.05	229.69
365.43	229.93
365.81	230.19
366.19	229.88
366.57	230.32
366.95	230.20
367.33	229.93
367.71	229.95
368.09	230.13
368.47	230.22
368.85	230.25
369.23	230.53
369.61	230.20
369.99	230.58
370.37	230.74
370.75	231.16
371.13	231.03
371.51	231.01
371.89	231.05
372.27	231.06
372.65	231.14
373.03	231.24
373.41	231.12
373.78	230.96
374.16	230.41
374.54	230.08
374.92	230.02
375.30	230.08
375.68	229.86
376.06	229.87
376.44	229.74
376.82	229.67
377.19	229.53
377.57	229.43
377.95	228.98
378.33	228.92
378.71	228.32
379.09	228.42
379.47	228.40
379.84	228.29
380.22	228.20
380.60	227.99
380.98	227.84
381.36	227.72
381.73	227.50
382.11	227.60
382.49	227.59
382.87	227.47
383.25	227.47
383.62	228.50
384.00	228.33
384.38	228.38
384.76	228.60
385.13	228.88
385.51	228.79
385.89	228.65
386.27	228.58
386.64	228.68
387.02	228.57
387.40	228.47
387.78	228.49
388.15	228.53
388.53	228.40
388.91	228.34
389.29	228.29
389.66	228.43
390.04	228.21
390.42	228.39
390.79	228.53
391.17	228.52
391.55	227.45
391.92	227.50
392.30	227.58
392.68	227.30
393.05	227.20
393.43	227.30
393.81	227.43
394.18	227.30
394.56	227.30
394.94	227.56
395.31	227.54
395.69	227.82
396.06	227.93
396.44	228.05
396.82	228.15
397.19	228.71
397.57	228.76
397.95	229.06
398.32	228.72
398.70	228.90
399.07	229.10
399.45	229.24
399.82	229.30
400.20	229.21
400.58	229.38
400.95	229.12
401.33	229.46
401.70	230.14
402.08	230.30
402.45	230.49
402.83	230.81
403.20	231.12
403.58	231.18
403.95	231.51
404.33	231.92
404.71	232.14
405.08	232.89
405.46	233.18
405.83	233.50
406.21	234.03
406.58	234.36
406.96	234.76
407.33	235.34
407.70	235.88
408.08	237.27
408.45	237.99
408.83	238.87
409.20	239.35
409.58	239.50
409.95	240.45
410.33	241.35
410.70	241.74
411.08	242.68
411.45	243.60
411.82	244.44
412.20	245.80
412.57	247.51
412.95	247.86
413.32	249.28
413.69	250.57
414.07	251.93
414.44	253.50
414.82	255.15
415.19	257.04
415.56	258.99
415.94	260.42
416.31	262.78
416.68	265.03
417.06	267.74
417.43	270.53
417.81	273.32
418.18	276.29
418.55	279.50
418.93	282.78
419.30	286.28
419.67	289.99
420.04	293.64
420.42	297.36
420.79	302.60
421.16	307.29
421.54	312.50
421.91	317.57
422.28	322.69
422.66	328.23
423.03	334.08
423.40	339.70
423.77	345.71
424.15	351.88
424.52	358.25
424.89	365.42
425.26	372.06
425.64	378.53
426.01	385.57
426.38	393.24
426.75	401.00
427.13	408.83
427.50	416.96
427.87	425.36
428.24	433.86
428.61	441.50
428.99	450.53
429.36	460.04
429.73	469.66
430.10	479.52
430.47	489.49
430.85	499.23
431.22	510.20
431.59	522.21
431.96	533.11
432.33	545.39
432.70	557.08
433.08	570.97
433.45	584.13
433.82	597.33
434.19	611.92
434.56	626.43
434.93	640.14
435.30	654.16
435.68	669.74
436.05	684.96
436.42	700.01
436.79	714.05
437.16	729.29
437.53	745.49
437.90	761.35
438.27	776.96
438.64	793.29
439.01	808.74
439.38	821.89
439.75	835.39
440.13	850.50
440.50	864.80
440.87	876.67
441.24	888.85
441.61	902.46
441.98	912.24
442.35	923.42
442.72	935.34
443.09	946.99
443.46	954.18
443.83	959.15
444.20	963.70
444.57	969.55
444.94	972.69
445.31	975.44
445.68	978.87
446.05	980.39
446.42	979.22
446.79	977.31
447.16	975.67
447.53	974.22
447.90	968.42
448.27	962.89
448.64	954.70
449.01	949.11
449.37	938.49
449.74	928.65
450.11	917.24
450.48	903.86
450.85	889.76
451.22	877.84
451.59	866.92
451.96	856.24
452.33	842.44
452.70	829.45
453.07	814.51
453.43	798.59
453.80	783.76
454.17	769.39
454.54	756.00
454.91	741.46
455.28	727.28
455.65	714.30
456.02	702.10
456.38	690.97
456.75	677.01
457.12	665.60
457.49	654.21
457.86	642.60
458.23	633.53
458.59	623.45
458.96	613.23
459.33	604.00
459.70	594.86
460.07	587.37
460.43	579.11
460.80	571.24
461.17	564.56
461.54	557.37
461.91	550.71
462.27	543.70
462.64	537.88
463.01	531.50
463.38	525.46
463.74	517.90
464.11	512.63
464.48	507.99
464.85	502.71
465.21	498.93
465.58	495.11
465.95	489.87
466.32	485.82
466.68	481.71
467.05	477.59
467.42	473.69
467.78	469.41
468.15	465.20
468.52	462.36
468.88	458.16
469.25	454.60
469.62	451.95
469.98	449.16
470.35	446.39
470.72	443.68
471.08	440.58
471.45	438.46
471.82	436.04
472.18	433.26
472.55	431.48
472.92	428.94
473.28	426.77
473.65	424.75
474.02	422.80
474.38	421.17
474.75	419.73
475.11	417.94
475.48	416.84
475.85	415.66
476.21	414.34
476.58	413.39
476.94	412.54
477.31	411.50
477.67	410.42
478.04	409.70
478.41	409.25
478.77	409.55
479.14	408.85
479.50	408.36
479.87	408.33
480.23	408.04
480.60	407.87
480.96	407.52
481.33	407.85
481.69	407.90
482.06	407.96
482.42	408.01
482.79	408.24
483.15	408.53
483.52	409.38
483.88	409.75
484.25	410.35
484.61	410.99
484.98	411.62
485.34	412.86
485.71	414.01
486.07	414.83
486.44	415.08
486.80	416.16
487.17	417.27
487.53	418.65
487.90	420.15
488.26	422.19
488.62	424.13
488.99	425.77
489.35	427.58
489.72	429.74
490.08	432.08
490.44	434.16
490.81	436.46
491.17	438.54
491.54	441.30
491.90	443.87
492.26	446.68
492.63	449.63
492.99	452.40
493.36	455.35
493.72	458.88
494.08	462.27
494.45	466.00
494.81	469.99
495.17	473.70
495.54	477.49
495.90	481.09
496.26	485.10
496.63	489.08
496.99	493.28
497.35	497.43
497.72	501.60
498.08	506.14
498.44	510.75
498.80	515.74
499.17	520.13
499.53	524.73
499.89	529.60
500.26	534.47
500.62	539.35
500.98	544.49
501.34	549.28
501.71	554.50
502.07	559.20
502.43	563.90
502.79	568.70
503.16	573.98
503.52	578.96
503.88	583.86
504.24	589.14
504.60	594.42
504.97	599.77
505.33	605.16
505.69	610.81
506.05	615.89
506.41	620.87
506.78	626.23
507.14	631.53
507.50	636.71
507.86	641.90
508.22	646.91
508.59	651.46
508.95	656.71
509.31	661.83
509.67	666.81
510.03	671.64
510.39	676.61
510.75	681.15
511.12	685.89
511.48	690.24
511.84	694.67
512.20	698.96
512.56	703.16
512.92	707.49
513.28	711.70
513.64	715.83
514.00	719.87
514.37	723.91
514.73	727.87
515.09	731.95
515.45	735.58
515.81	739.33
516.17	743.21
516.53	746.57
516.89	749.62
517.25	753.27
517.61	757.26
517.97	760.75
518.33	764.38
518.69	768.11
519.05	771.99
519.41	775.47
519.77	779.45
520.13	782.78
520.49	785.70
520.85	791.41
521.21	794.96
521.57	798.00
521.93	800.71
522.29	803.68
522.65	806.12
523.01	809.02
523.37	811.34
523.73	814.10
524.09	816.64
524.45	819.15
524.81	821.52
525.17	823.77
525.53	826.12
525.89	828.12
526.25	830.20
526.61	831.90
526.97	834.02
527.33	836.17
527.68	839.64
528.04	842.30
528.40	841.83
528.76	844.33
529.12	846.98
529.48	849.82
529.84	852.27
530.20	855.30
530.56	858.26
530.91	861.74
531.27	864.77
531.63	867.63
531.99	870.86
532.35	873.70
532.71	876.80
533.07	880.33
533.42	884.78
533.78	887.87
534.14	891.74
534.50	895.03
534.86	898.62
535.21	901.05
535.57	904.68
535.93	907.92
536.29	911.39
536.65	915.05
537.00	918.32
537.36	921.97
537.72	925.03
538.08	928.62
538.44	931.74
538.79	934.90
539.15	938.58
539.51	942.04
539.87	945.67
540.22	948.96
540.58	952.06
540.94	954.00
541.29	957.21
541.65	960.19
542.01	963.30
542.37	965.87
542.72	968.18
543.08	970.33
543.44	973.27
543.79	975.31
544.15	977.95
544.51	981.05
544.87	983.74
545.22	986.53
545.58	988.58
545.94	991.14
546.29	993.70
546.65	996.03
547.01	998.20
547.36	1000.54
547.72	1002.91
548.07	1005.21
548.43	1007.92
548.79	1010.19
549.14	1012.30
549.50	1015.07
549.86	1017.15
550.21	1019.90
550.57	1022.79
550.92	1024.92
551.28	1027.93
551.64	1030.46
551.99	1032.70
552.35	1034.91
552.70	1037.23
553.06	1039.81
553.41	1042.23
553.77	1045.23
554.13	1047.81
554.48	1050.39
554.84	1052.95
555.19	1055.51
555.55	1058.78
555.90	1060.83
556.26	1062.87
556.61	1064.72
556.97	1065.74
557.32	1067.64
557.68	1069.88
558.03	1071.72
558.39	1073.64
558.74	1075.12
559.10	1076.39
559.45	1078.26
559.81	1079.55
560.16	1080.64
560.52	1081.80
560.87	1083.36
561.23	1084.00
561.58	1085.92
561.94	1086.63
562.29	1087.55
562.64	1088.53
563.00	1088.36
563.35	1089.49
563.71	1090.86
564.06	1092.38
564.42	1094.01
564.77	1095.26
565.12	1096.24
565.48	1098.26
565.83	1099.81
566.19	1100.78
566.54	1101.92
566.89	1102.23
567.25	1103.53
567.60	1105.28
567.96	1107.44
568.31	1108.66
568.66	1109.70
569.02	1109.34
569.37	1110.34
569.72	1111.07
570.08	1111.42
570.43	1111.84
570.78	1112.07
571.14	1112.13
571.49	1111.88
571.84	1111.83
572.20	1111.55
572.55	1111.30
572.90	1109.56
573.26	1108.58
573.61	1107.54
573.96	1106.66
574.31	1105.44
574.67	1104.31
575.02	1102.37
575.37	1100.19
575.72	1098.06
576.08	1096.49
576.43	1094.84
576.78	1093.03
577.13	1091.14
577.49	1089.67
577.84	1088.34
578.19	1086.80
578.54	1085.24
578.90	1083.94
579.25	1082.55
579.60	1080.94
579.95	1079.24
580.30	1077.66
580.66	1075.48
581.01	1073.59
581.36	1071.33
581.71	1069.90
582.06	1068.22
582.42	1066.42
582.77	1064.21
583.12	1062.46
583.47	1060.72
583.82	1059.17
584.17	1057.57
584.53	1056.02
584.88	1053.43
585.23	1051.28
585.58	1048.40
585.93	1045.70
586.28	1043.24
586.63	1040.36
586.98	1037.92
587.34	1035.14
587.69	1032.50
588.04	1030.17
588.39	1027.77
588.74	1025.23
589.09	1023.00
589.44	1019.74
589.79	1017.40
590.14	1015.06
590.49	1012.28
590.84	1009.23
591.19	1006.69
591.54	1003.56
591.89	1000.32
592.25	998.69
592.60	995.43
592.95	993.11
593.30	990.41
593.65	987.30
594.00	984.20
594.35	983.83
594.70	980.64
595.05	977.63
595.40	974.65
595.75	971.44
596.10	968.64
596.45	965.34
596.80	962.45
597.15	959.11
597.50	955.45
597.85	952.52
598.19	949.34
598.54	945.80
598.89	942.11
599.24	939.28
599.59	935.54
599.94	932.23
600.29	928.98
600.64	925.85
600.99	922.70
601.34	919.92
601.69	913.94
602.04	910.90
602.39	907.70
602.74	904.97
603.08	902.03
603.43	899.19
603.78	895.66
604.13	892.52
604.48	889.29
604.83	886.11
605.18	882.59
605.53	879.25
605.87	876.00
606.22	873.81
606.57	870.28
606.92	866.50
607.27	863.52
607.62	860.42
607.96	857.13
608.31	854.33
608.66	851.30
609.01	848.40
609.36	845.06
609.70	841.84
610.05	838.35
610.40	835.14
610.75	831.50
611.10	828.42
611.44	824.79
611.79	821.59
612.14	818.50
612.49	815.18
612.83	812.05
613.18	808.76
613.53	804.98
613.88	801.48
614.22	798.31
614.57	794.88
614.92	791.30
615.27	788.08
615.61	784.10
615.96	780.32
616.31	776.54
616.65	773.34
617.00	769.90
617.35	766.52
617.70	762.92
618.04	759.39
618.39	756.00
618.74	753.17
619.08	749.67
619.43	746.00
619.78	742.23
620.12	738.53
620.47	734.90
620.82	731.34
621.16	727.96
621.51	724.98
621.85	721.41
622.20	718.08
622.55	714.19
622.89	711.06
623.24	707.95
623.59	704.77
623.93	701.51
624.28	698.21
624.62	695.91
624.97	693.26
625.32	690.02
625.66	686.70
626.01	683.14
626.35	680.04
626.70	677.09
627.04	674.50
627.39	671.59
627.73	668.94
628.08	665.96
628.43	662.87
628.77	659.36
629.12	656.44
629.46	653.63
629.81	651.39
630.15	648.47
630.50	645.43
630.84	642.39
631.19	639.32
631.53	636.52
631.88	632.50
632.22	629.18
632.57	626.73
632.91	623.88
633.26	621.47
633.60	618.43
633.95	615.49
634.29	612.30
634.64	609.48
634.98	606.15
635.32	603.51
635.67	601.00
636.01	598.29
636.36	595.53
636.70	592.97
637.05	590.00
637.39	587.16
637.73	584.40
638.08	581.87
638.42	578.93
638.77	576.04
639.11	573.06
639.45	570.11
639.80	566.89
640.14	563.95
640.49	560.88
640.83	558.25
641.17	555.63
641.52	553.05
641.86	550.31
642.20	548.34
642.55	545.47
642.89	542.70
643.23	540.04
643.58	537.86
643.92	534.76
644.26	532.04
644.61	529.84
644.95	527.31
645.29	524.50
645.64	522.42
645.98	519.91
646.32	517.73
646.66	515.10
647.01	512.88
647.35	510.68
647.69	508.60
648.04	506.45
648.38	503.99
648.72	501.78
649.06	499.32
649.41	496.63
649.75	494.00
650.09	491.62
650.43	489.40
650.78	486.80
651.12	484.49
651.46	482.13
651.80	479.53
652.14	477.35
652.49	475.57
652.83	473.01
653.17	470.88
653.51	468.62
653.85	466.66
654.20	464.43
654.54	462.22
654.88	459.83
655.22	458.00
655.56	455.93
655.90	453.82
656.25	451.81
656.59	449.72
656.93	448.05
657.27	446.60
657.61	444.27
657.95	442.18
658.29	440.40
658.64	438.60
658.98	436.65
659.32	434.50
659.66	432.28
660.00	430.45
660.34	428.50
660.68	426.66
661.02	424.88
661.36	423.16
661.70	421.36
662.05	419.64
662.39	417.71
662.73	416.33
663.07	415.03
663.41	413.43
663.75	411.73
664.09	409.99
664.43	407.93
664.77	406.48
665.11	404.88
665.45	403.23
665.79	401.81
666.13	400.17
666.47	398.44
666.81	397.04
667.15	395.48
667.49	394.18
667.83	392.98
668.17	391.50
668.51	389.96
668.85	388.71
669.19	387.77
669.53	386.10
669.87	384.54
670.21	382.64
670.55	381.02
670.89	380.08
671.23	378.76
671.57	377.34
671.91	376.06
672.25	374.85
672.58	373.90
672.92	372.36
673.26	371.14
673.60	370.10
673.94	368.72
674.28	367.45
674.62	366.17
674.96	364.66
675.30	363.50
675.64	362.26
675.97	361.08
676.31	359.29
676.65	357.96
676.99	356.95
677.33	355.76
677.67	354.74
678.01	353.06
678.34	351.92
678.68	351.00
679.02	349.83
679.36	348.54
679.70	347.09
680.04	345.99
680.37	344.88
680.71	343.75
681.05	342.81
681.39	341.89
681.73	340.86
682.06	339.78
682.40	338.66
682.74	337.64
683.08	336.75
683.42	335.67
683.75	334.85
684.09	333.57
684.43	332.56
684.77	331.48
685.10	330.61
685.44	329.67
685.78	328.56
686.12	327.54
686.45	326.62
686.79	325.59
687.13	324.83
687.46	323.99
687.80	323.25
688.14	322.09
688.48	321.06
688.81	320.00
689.15	319.35
689.49	318.43
689.82	317.63
690.16	316.34
690.50	315.44
690.83	314.44
691.17	313.57
691.51	312.69
691.84	311.93
692.18	310.93
692.52	309.91
692.85	309.23
693.19	308.65
693.52	307.79
693.86	306.92
694.20	305.96
694.53	305.08
694.87	304.13
695.21	303.36
695.54	302.53
695.88	301.63
696.21	300.38
696.55	299.57
696.88	298.68
697.22	297.93
697.56	297.26
697.89	296.41
698.23	295.75
698.56	295.03
698.90	294.33
699.23	293.66
699.57	293.09
699.90	292.18
700.24	291.29
700.58	290.54
700.91	290.07
701.25	290.06
701.58	290.18
701.92	289.82
702.25	289.31
702.59	288.62
702.92	288.04
703.26	287.63
703.59	287.09
703.93	287.30
704.26	286.80
704.60	286.32
704.93	285.71
705.26	284.91
705.60	284.46
705.93	283.74
706.27	283.46
706.60	283.11
706.94	283.03
707.27	282.42
707.61	281.99
707.94	281.45
708.27	280.22
708.61	278.92
708.94	278.14
709.28	277.54
709.61	277.07
709.94	276.75
710.28	276.15
710.61	275.61
710.95	274.23
711.28	274.35
711.61	273.73
711.95	273.51
712.28	273.08
712.61	272.54
712.95	272.54
713.28	272.36
713.61	271.73
713.95	270.93
714.28	270.50
714.61	270.01
714.95	269.41
715.28	268.97
715.61	268.41
715.95	268.02
716.28	267.57
716.61	267.22
716.95	266.62
717.28	266.35
717.61	266.00
717.94	265.73
718.28	264.69
718.61	264.29
718.94	263.69
719.27	263.34
719.61	262.94
719.94	262.39
720.27	261.56
720.60	261.23
720.94	260.88
721.27	260.60
721.60	260.50
721.93	260.28
722.27	260.22
722.60	260.11
722.93	259.74
723.26	259.54
723.59	259.14
723.93	258.90
724.26	258.74
724.59	258.44
724.92	258.23
725.25	258.26
725.59	258.01
725.92	257.98
726.25	257.74
726.58	257.63
726.91	257.20
727.24	257.10
727.57	256.80
727.91	256.35
728.24	256.18
728.57	255.79
728.90	255.58
729.23	254.99
729.56	255.14
729.89	254.85
730.22	254.49
730.55	254.18
730.89	253.94
731.22	253.53
731.55	253.26
731.88	252.99
732.21	252.47
732.54	252.12
732.87	251.79
733.20	251.53
733.53	251.27
733.86	251.16
734.19	250.70
734.52	250.65
734.85	251.23
735.18	250.87
735.51	250.95
735.84	250.82
736.17	250.92
736.50	250.20
736.83	251.18
737.16	251.06
737.49	250.96
737.82	250.70
738.15	250.60
738.48	250.44
738.81	250.19
739.14	249.90
739.47	249.74
739.80	249.41
740.13	249.34
740.46	248.99
740.79	248.66
741.12	248.48
741.45	248.05
741.78	247.20
742.11	247.32
742.44	246.82
742.77	246.68
743.10	246.42
743.43	246.26
743.75	244.99
744.08	246.07
744.41	245.83
744.74	245.68
745.07	245.37
745.40	245.30
745.73	245.62
746.06	245.53
746.39	245.59
746.71	245.52
747.04	245.16
747.37	245.16
747.70	245.21
748.03	245.26
748.36	245.37
748.68	245.21
749.01	244.79
749.34	244.85
749.67	244.69
750.00	244.64
750.33	245.21
750.65	245.27
750.98	243.87
751.31	243.81
751.64	243.75
751.97	244.17
752.29	244.00
752.62	243.38
752.95	243.20
753.28	242.85
753.60	242.70
753.93	242.87
754.26	242.89
754.59	242.60
754.91	242.22
755.24	242.01
755.57	241.97
755.90	241.83
756.22	241.42
756.55	241.12
756.88	240.77
757.20	239.97
757.53	239.56
757.86	239.49
758.19	239.44
758.51	239.30
758.84	238.81
759.17	238.55
759.49	238.50
759.82	238.90
760.15	238.92
760.47	238.87
760.80	238.53
761.13	238.40
761.45	238.30
761.78	238.34
762.11	238.26
762.43	238.02
762.76	237.86
763.08	237.91
763.41	238.05
763.74	238.08
764.06	238.03
764.39	237.99
764.71	237.77
765.04	237.58
765.37	237.41
765.69	237.20
766.02	237.11
766.34	237.02
766.67	236.53
767.00	236.64
767.32	237.01
767.65	237.56
767.97	237.44
768.30	237.27
768.62	237.07
768.95	236.88
769.27	236.84
769.60	236.83
769.92	236.60
770.25	236.32
770.57	235.99
770.90	235.88
771.22	235.66
771.55	235.68
771.87	235.66
772.20	235.50
772.52	236.22
772.85	237.22
773.17	237.14
773.50	237.06
773.82	236.83
774.15	236.22
774.47	235.48
774.80	235.19
775.12	235.19
775.45	235.15
775.77	235.10
776.09	235.06
776.42	235.14
776.74	235.36
777.07	235.21
777.39	235.34
777.72	235.12
778.04	235.25
778.36	235.09
778.69	235.05
779.01	235.25
779.33	234.45
779.66	233.33
779.98	233.16
780.31	233.06
780.63	233.32
780.95	233.52
781.28	233.46
781.60	233.42
781.92	233.40
782.25	233.22
782.57	233.16
782.89	233.09
783.22	232.95
783.54	232.70
783.86	232.74
784.19	232.52
784.51	232.86
784.83	232.69
785.16	232.68
785.48	232.60
785.80	232.44
786.12	232.41
786.45	232.38
786.77	232.44
787.09	232.44
787.42	232.14
787.74	232.11
788.06	232.11
788.38	232.12
788.71	232.00
789.03	232.10
789.35	232.17
789.67	231.94
789.99	231.81
790.32	231.62
790.64	231.73
790.96	232.55
791.28	232.19
791.61	232.21
791.93	232.24
792.25	232.17
792.57	232.82
792.89	232.70
793.21	232.85
793.54	232.63
793.86	232.51
794.18	232.51
794.50	232.32
794.82	232.36
795.14	232.37
795.47	232.54
795.79	232.57
796.11	232.34
796.43	232.36
796.75	232.45
797.07	232.58
797.39	232.43
797.71	231.80
798.04	231.87
798.36	231.86
798.68	231.81
799.00	231.93
799.32	231.48
799.64	231.57
799.96	231.42
800.28	231.76
800.60	231.79
800.92	231.76
801.24	231.57
801.56	231.60
801.89	231.59
802.21	231.61
802.53	231.44
802.85	231.70
803.17	232.23
803.49	232.06
803.81	231.95
804.13	231.98
804.45	231.80
804.77	231.85
805.09	231.80
805.41	231.62
805.73	231.46
806.05	231.13
806.37	231.10
806.69	231.02
807.01	230.88
807.33	230.89
807.65	230.65
807.97	231.24
808.28	231.12
808.60	231.11
808.92	230.86
809.24	231.44
809.56	231.20
809.88	230.80
810.20	230.81
810.52	231.06
810.84	230.88
811.16	230.78
811.48	230.62
811.80	230.97
812.12	231.04
812.43	231.11
812.75	231.14
813.07	230.97
813.39	230.98
813.71	230.77
814.03	230.62
814.35	230.65
814.67	230.11
814.98	230.04
815.30	229.89
815.62	229.82
815.94	229.20
816.26	229.55
816.58	229.38
816.89	229.43
817.21	229.18
817.53	229.23
817.85	229.28
818.17	229.27
818.48	228.90
818.80	229.02
819.12	228.89
819.44	228.79
819.76	228.67
820.07	228.66
820.39	228.65
820.71	228.67
821.03	228.66
821.34	228.69
821.66	228.71
821.98	228.78
822.30	228.77
822.61	229.33
822.93	228.84
823.25	228.82
823.57	228.73
823.88	228.86
824.20	228.85
824.52	228.92
824.83	228.92
825.15	228.80
825.47	228.71
825.79	228.76
826.10	228.67
826.42	228.69
826.74	228.92
827.05	228.94
827.37	229.08
827.69	228.98
828.00	229.02
828.32	229.09
828.64	228.99
828.95	229.49
829.27	229.21
829.58	229.31
829.90	229.51
830.22	229.61
830.53	229.38
830.85	229.33
831.17	229.12
831.48	229.17
831.80	229.32
832.11	229.29
832.43	229.21
832.75	229.30
833.06	229.94
833.38	229.56
833.69	229.52
834.01	229.53
834.32	229.60
834.64	229.54
834.96	229.54
835.27	229.55
835.59	229.22
835.90	229.11
836.22	229.04
836.53	228.78
836.85	228.69
837.16	229.65
837.48	229.54
837.79	229.87
838.11	229.84
838.42	229.75
838.74	229.88
839.05	229.80
839.37	229.76
839.68	229.16
840.00	229.16
840.31	229.46
840.63	229.38
840.94	229.23
841.26	229.05
841.57	229.07
841.88	229.14
842.20	228.99
842.51	228.81
842.83	228.80
843.14	229.75
843.46	229.78
843.77	229.33
844.08	229.32
844.40	229.11
844.71	228.98
845.03	228.99
845.34	228.84
845.65	228.87
845.97	228.90
846.28	228.88
846.60	228.96
846.91	228.56
847.22	228.49
847.54	228.73
847.85	228.86
848.16	228.71
848.48	228.60
848.79	229.06
849.10	229.24
849.42	229.37
849.73	228.40
850.04	228.30
850.36	227.88
850.67	228.14
850.98	228.23
851.30	228.40
851.61	228.37
851.92	228.39
852.23	228.70
852.55	228.81
852.86	228.87
853.17	228.85
853.49	229.15
853.80	229.39
854.11	229.46
854.42	229.66
854.74	229.66
855.05	229.71
855.36	229.20
855.67	229.16
855.99	229.17
856.30	230.23
856.61	230.23
856.92	230.25
857.23	230.20
857.55	229.98
857.86	229.87
858.17	229.95
858.48	229.82
858.79	229.58
859.11	229.51
859.42	229.57
859.73	229.49
860.04	229.46
860.35	229.08
860.66	228.83
860.98	228.66
861.29	228.70
861.60	228.69
861.91	228.93
862.22	228.82
862.53	228.60
862.84	227.59
863.16	227.79
863.47	227.67
863.78	227.58
864.09	227.67
864.40	227.77
864.71	227.78
865.02	227.92
865.33	227.77
865.64	227.60
865.95	227.46
866.27	228.10
866.58	227.98
866.89	228.14
867.20	228.03
867.51	227.88
867.82	227.83
868.13	227.98
868.44	227.76
868.75	227.81
869.06	227.91
869.37	228.02
869.68	227.69
869.99	227.92
870.30	227.99
870.61	228.13
870.92	227.92
871.23	227.81
871.54	227.80
871.85	228.05
872.16	228.12
872.47	228.01
872.78	227.47
873.09	227.57
873.40	227.55
873.71	227.71
874.02	227.72
874.33	227.62
874.64	227.52
874.95	227.69
875.26	227.56
875.56	227.51
875.87	227.43
876.18	227.36
876.49	228.25
876.80	228.02
877.11	227.73
877.42	227.81
877.73	227.80
878.04	227.83
878.35	227.79
878.66	227.87
878.96	227.95
879.27	227.84
879.58	227.79
879.89	227.70
880.20	227.92
880.51	227.95
880.82	227.92
881.12	227.99
881.43	227.78
881.74	227.69
882.05	227.70
882.36	227.78
882.67	228.00
882.97	227.00
883.28	227.08
883.59	227.10
883.90	227.25
884.21	227.49
884.51	227.36
884.82	227.31
885.13	227.29
885.44	227.28
885.74	227.28
886.05	227.20
886.36	227.26
886.67	226.93
886.98	227.36
887.28	227.44
887.59	227.35
887.90	227.43
888.20	227.43
888.51	227.53
888.82	227.33
889.13	227.40
889.43	228.15
889.74	228.01
890.05	228.18
890.35	228.01
890.66	227.80
890.97	227.70
891.28	227.54
891.58	227.52
891.89	227.55
892.20	227.58
892.50	227.55
892.81	227.47
893.12	227.40
893.42	227.02
893.73	227.05
894.04	227.03
894.34	227.07
894.65	227.10
894.95	226.98
895.26	227.11
895.57	227.55
895.87	226.75
896.18	226.91
896.48	226.87
896.79	226.90
897.10	227.05
897.40	227.23
897.71	227.43
898.01	227.52
898.32	227.67
898.63	227.66
898.93	227.68
899.24	227.78
899.54	227.80
899.85	227.79
900.15	227.88
900.46	227.93
900.76	228.02
901.07	228.00
901.38	228.05
901.68	228.02
901.99	227.45
902.29	227.48
902.60	227.48
902.90	227.40
903.21	227.45
903.51	227.28
903.82	227.42
904.12	227.34
904.43	227.35
904.73	227.22
905.03	227.30
905.34	228.28
905.64	228.21
905.95	228.18
906.25	228.24
906.56	228.19
906.86	228.11
907.17	227.99
907.47	228.06
907.77	228.07
908.08	227.98
908.38	228.05
908.69	228.10
908.99	228.24
909.30	228.32
909.60	228.24
909.90	228.32
910.21	228.03
910.51	227.97
910.81	227.99
911.12	228.03
911.42	227.93
911.73	226.87
912.03	226.96
912.33	227.19
912.64	227.14
912.94	227.11
913.24	227.07
913.55	227.10
913.85	227.01
914.15	227.11
914.46	227.24
914.76	227.18
915.06	227.14
915.37	226.90
915.67	226.80
915.97	226.83
916.27	226.63
916.58	226.73
916.88	226.66
917.18	226.55
917.49	227.23
917.79	227.27
918.09	227.46
918.39	227.57
918.70	227.50
919.00	227.50
919.30	227.88
919.60	227.77
919.91	227.60
920.21	227.68
920.51	227.54
920.81	227.46
921.12	227.58
921.42	227.56
921.72	227.75
922.02	227.82
922.32	228.00
922.63	228.16
922.93	228.63
923.23	228.72
923.53	228.60
923.83	227.91
924.13	228.00
924.44	227.97
924.74	228.26
925.04	228.58
925.34	228.46
925.64	228.01
925.94	228.04
926.24	228.69
926.55	228.63
926.85	228.74
927.15	228.72
927.45	228.77
927.75	228.78
928.05	228.81
928.35	228.73
928.65	228.80
928.95	228.86
929.26	228.33
929.56	228.56
929.86	228.76
930.16	228.74
930.46	228.70
930.76	228.76
931.06	228.21
931.36	227.88
931.66	228.07
931.96	228.26
932.26	228.29
932.56	227.72
932.86	227.72
933.16	227.62
933.46	227.57
933.76	227.42
934.06	227.52
934.36	227.72
934.66	227.70
934.96	227.61
935.26	227.57
935.56	227.78
935.86	227.52
936.16	227.33
936.46	227.25
936.76	227.12
937.06	226.90
937.36	227.01
937.66	226.96
937.96	226.99
938.26	226.70
938.56	226.57
938.86	226.80
939.16	226.98
939.46	227.07
939.76	227.17
940.06	227.13
940.35	226.96
940.65	226.49
940.95	226.53
941.25	226.26
941.55	226.08
941.85	226.13
942.15	226.33
942.45	226.60
942.75	226.52
943.04	226.65
943.34	226.83
943.64	226.71
943.94	226.67
944.24	226.60
944.54	226.67
944.84	226.76
945.13	226.57
945.43	226.39
945.73	226.35
946.03	226.12
946.33	226.09
946.62	226.03
946.92	225.99
947.22	226.07
947.52	226.18
947.82	226.37
948.11	226.19
948.41	225.86
948.71	225.58
949.01	225.69
949.31	225.56
949.60	225.50
949.90	225.63
950.20	225.60
950.50	225.62
950.79	225.67
951.09	225.89
951.39	225.86
951.69	225.82
951.98	226.03
952.28	226.17
952.58	226.12
952.87	226.14
953.17	226.33
953.47	226.17
953.76	226.16
954.06	225.95
954.36	225.78
954.66	225.91
954.95	226.17
955.25	226.26
955.55	226.30
955.84	226.13
956.14	226.24
956.44	226.28
956.73	226.06
957.03	226.09
957.32	225.99
957.62	225.96
957.92	226.20
958.21	226.09
958.51	227.06
958.81	227.25
959.10	227.36
959.40	227.66
959.69	227.80
959.99	227.96
960.29	228.02
960.58	228.00
960.88	228.38
961.17	228.38
961.47	228.50
961.76	228.50
962.06	228.63
962.36	228.50
962.65	228.52
962.95	228.72
963.24	228.67
963.54	228.74
963.83	228.76
964.13	228.67
964.42	228.44
964.72	227.90
965.01	227.92
965.31	227.75
965.60	227.44
965.90	228.05
966.19	227.70
966.49	227.83
966.78	227.97
967.08	227.82
967.37	227.81
967.67	227.55
967.96	227.73
968.26	227.76
968.55	227.87
968.85	227.88
969.14	227.74
969.43	227.61
969.73	227.41
970.02	227.35
970.32	227.22
970.61	227.17
970.91	226.82
971.20	226.61
971.49	226.60
971.79	226.74
972.08	226.06
972.38	226.25
972.67	226.20
972.96	226.25
973.26	226.09
973.55	226.29
973.85	226.30
974.14	226.21
974.43	226.35
974.73	226.26
975.02	226.22
975.31	226.29
975.61	226.40
975.90	226.39
976.19	226.35
976.49	226.49
976.78	226.54
977.07	226.58
977.37	226.67
977.66	226.76
977.95	226.62
978.24	226.65
978.54	226.82
978.83	226.64
979.12	226.58
979.42	226.60
979.71	226.38
980.00	226.37
980.29	226.44
980.59	226.28
980.88	226.45
981.17	226.37
981.46	226.41
981.76	226.35
982.05	226.69
982.34	226.70
982.63	226.77
982.93	226.86
983.22	227.11
983.51	227.18
983.80	227.42
984.09	227.56
984.39	227.57
984.68	227.38
984.97	227.48
985.26	227.39
985.55	227.38
985.85	227.19
986.14	227.33
986.43	227.35
986.72	227.26
987.01	227.00
987.30	227.06
987.59	226.99
987.89	227.00
988.18	226.77
988.47	226.85
988.76	226.67
989.05	226.54
989.34	226.28
989.63	226.49
989.92	226.29
990.22	226.19
990.51	226.16
990.80	226.17
991.09	226.20
991.38	226.39
991.67	226.40
991.96	226.36
992.25	226.30
992.54	226.11
992.83	226.12
993.12	226.07
993.41	226.19
993.70	226.55
993.99	226.80
994.28	226.88
994.58	226.92
994.87	226.90
995.16	226.83
995.45	226.84
995.74	226.53
996.03	226.66
996.32	226.67
996.61	226.85
996.90	226.84
997.19	226.80
997.48	226.74
997.77	226.53
998.06	226.68
998.34	226.61
998.63	226.62
998.92	226.71
999.21	226.83
999.50	226.80
999.79	226.53
1000.08	226.44
1000.37	226.46
1000.66	226.40
1000.95	226.59
1001.24	226.68
1001.53	226.78
1001.82	226.67
1002.11	226.47
1002.40	226.63
1002.68	226.83
1002.97	227.53
1003.26	227.51
1003.55	227.40
1003.84	227.50
1004.13	227.78
1004.42	227.76
1004.71	227.80
1004.99	227.74
1005.28	228.00
1005.57	227.91
1005.86	227.76
1006.15	227.65
1006.44	227.47
1006.72	227.51
1007.01	227.47
1007.30	227.47
1007.59	227.42
1007.88	227.47
1008.17	227.53
1008.45	227.36
1008.74	226.99
1009.03	226.55
1009.32	226.52
1009.60	226.58
1009.89	226.53
1010.18	226.17
1010.47	226.17
1010.76	226.16
1011.04	226.17
1011.33	226.22
1011.62	226.41
1011.91	226.42
1012.19	226.49
1012.48	226.59
1012.77	226.65
1013.05	227.04
1013.34	227.06
1013.63	227.04
1013.92	227.12
1014.20	227.10
1014.49	227.14
1014.78	227.20
1015.06	226.90
1015.35	226.99
1015.64	227.04
1015.92	227.23
1016.21	227.26
1016.50	227.33
1016.78	227.47
1017.07	227.54
1017.36	227.29
1017.64	227.15
1017.93	227.22
1018.22	227.13
1018.50	227.06
1018.79	226.94
1019.08	226.49
1019.36	226.56
1019.65	226.38
1019.93	226.63
1020.22	226.70
1020.51	227.18
1020.79	227.06
1021.08	224.30
1021.36	224.90
1021.65	225.50
1021.94	227.30
1022.22	227.00
1022.51	223.70
1022.79	231.30
1023.08	226.90
1023.36	238.30
1023.65	224.20
>>>>>End Processed Spectral Data<<<<<
