SpectraSuite Data File
++++++++++++++++++++++++++++++++++++
Date: Wed Sep 04 17:32:57 EDT 2013
User: lab3
Dark Spectrum Present: Yes
Reference Spectrum Present: No
Number of Sampled Component Spectra: 1
Spectrometers: USB2E7196
Integration Time (usec): 337000 (USB2E7196)
Spectra Averaged: 10 (USB2E7196)
Boxcar Smoothing: 10 (USB2E7196)
Correct for Electrical Dark: No (USB2E7196)
Strobe/Lamp Enabled: No (USB2E7196)
Correct for Detector Non-linearity: No (USB2E7196)
Correct for Stray Light: No (USB2E7196)
Number of Pixels in Processed Spectrum: 2048
>>>>>Begin Processed Spectral Data<<<<<
339.09	0.00
339.48	213.70
339.86	212.80
340.24	215.50
340.63	216.70
341.01	232.90
341.39	218.90
341.78	223.70
342.16	226.20
342.54	223.60
342.93	213.19
343.31	223.81
343.69	224.35
344.07	224.83
344.46	225.48
344.84	226.03
345.22	225.79
345.60	226.12
345.99	226.25
346.37	226.27
346.75	226.35
347.13	226.50
347.52	226.63
347.90	227.06
348.28	227.14
348.66	227.35
349.05	227.06
349.43	227.32
349.81	227.39
350.19	227.37
350.57	227.41
350.96	227.60
351.34	227.82
351.72	227.86
352.10	228.06
352.48	227.96
352.87	227.84
353.25	227.79
353.63	227.80
354.01	227.74
354.39	227.77
354.77	227.77
355.15	228.05
355.54	227.90
355.92	227.58
356.30	227.59
356.68	228.14
357.06	228.19
357.44	227.98
357.82	228.04
358.20	228.94
358.58	228.84
358.97	228.90
359.35	229.16
359.73	229.44
360.11	229.47
360.49	229.58
360.87	229.68
361.25	229.79
361.63	230.26
362.01	230.48
362.39	230.41
362.77	230.66
363.15	230.67
363.53	230.77
363.91	230.91
364.29	230.94
364.67	230.07
365.05	230.10
365.43	230.24
365.81	230.33
366.19	229.97
366.57	230.44
366.95	230.28
367.33	230.03
367.71	229.99
368.09	230.21
368.47	230.21
368.85	230.23
369.23	230.41
369.61	230.08
369.99	230.32
370.37	230.55
370.75	230.95
371.13	230.78
371.51	230.63
371.89	230.66
372.27	230.78
372.65	230.96
373.03	231.00
373.41	230.86
373.78	230.83
374.16	230.34
374.54	230.07
374.92	230.12
375.30	230.07
375.68	229.87
376.06	229.78
376.44	229.60
376.82	229.55
377.19	229.48
377.57	229.40
377.95	229.10
378.33	229.03
378.71	228.39
379.09	228.41
379.47	228.49
379.84	228.30
380.22	228.02
380.60	227.78
380.98	227.76
381.36	227.71
381.73	227.62
382.11	227.71
382.49	227.69
382.87	227.45
383.25	227.44
383.62	228.61
384.00	228.40
384.38	228.48
384.76	228.69
385.13	228.94
385.51	228.87
385.89	228.74
386.27	228.62
386.64	228.71
387.02	228.65
387.40	228.53
387.78	228.59
388.15	228.70
388.53	228.67
388.91	228.54
389.29	228.58
389.66	228.63
390.04	228.48
390.42	228.59
390.79	228.75
391.17	228.81
391.55	227.58
391.92	227.64
392.30	227.74
392.68	227.52
393.05	227.49
393.43	227.55
393.81	227.66
394.18	227.63
394.56	227.69
394.94	227.90
395.31	227.87
395.69	228.25
396.06	228.40
396.44	228.55
396.82	228.54
397.19	228.98
397.57	228.93
397.95	229.20
398.32	229.03
398.70	229.19
399.07	229.37
399.45	229.54
399.82	229.57
400.20	229.52
400.58	229.70
400.95	229.43
401.33	229.62
401.70	230.38
402.08	230.55
402.45	230.70
402.83	230.94
403.20	231.12
403.58	231.06
403.95	231.36
404.33	231.68
404.71	231.95
405.08	232.59
405.46	232.90
405.83	233.13
406.21	233.40
406.58	233.75
406.96	234.01
407.33	234.34
407.70	234.85
408.08	236.02
408.45	236.53
408.83	237.14
409.20	237.61
409.58	237.53
409.95	238.25
410.33	238.90
410.70	239.30
411.08	240.10
411.45	240.80
411.82	241.31
412.20	242.24
412.57	243.63
412.95	243.74
413.32	244.79
413.69	245.85
414.07	246.90
414.44	248.00
414.82	249.29
415.19	250.78
415.56	252.23
415.94	253.27
416.31	255.03
416.68	256.91
417.06	258.98
417.43	261.09
417.81	263.14
418.18	265.39
418.55	267.80
418.93	270.30
419.30	272.90
419.67	275.68
420.04	278.36
420.42	281.09
420.79	285.35
421.16	288.87
421.54	292.91
421.91	296.95
422.28	300.84
422.66	304.94
423.03	309.56
423.40	313.80
423.77	318.32
424.15	322.79
424.52	327.50
424.89	332.86
425.26	337.75
425.64	342.68
426.01	347.92
426.38	353.40
426.75	359.19
427.13	365.04
427.50	371.14
427.87	377.50
428.24	383.81
428.61	389.12
428.99	396.09
429.36	402.78
429.73	409.56
430.10	416.60
430.47	423.84
430.85	430.73
431.22	438.72
431.59	447.56
431.96	455.50
432.33	464.25
432.70	472.80
433.08	482.93
433.45	492.30
433.82	501.87
434.19	512.40
434.56	522.74
434.93	532.35
435.30	542.63
435.68	553.44
436.05	564.00
436.42	574.70
436.79	584.37
437.16	595.20
437.53	606.44
437.90	617.77
438.27	628.92
438.64	640.40
439.01	650.91
439.38	659.89
439.75	669.12
440.13	679.45
440.50	689.04
440.87	696.94
441.24	705.36
441.61	714.08
441.98	720.76
442.35	728.27
442.72	736.55
443.09	744.29
443.46	748.90
443.83	752.24
444.20	755.34
444.57	758.94
444.94	760.48
445.31	762.15
445.68	764.59
446.05	764.96
446.42	763.61
446.79	762.32
447.16	760.69
447.53	759.60
447.90	755.11
448.27	750.53
448.64	744.45
449.01	739.92
449.37	732.74
449.74	725.30
450.11	717.20
450.48	707.28
450.85	696.85
451.22	688.47
451.59	680.25
451.96	671.92
452.33	661.78
452.70	652.58
453.07	641.76
453.43	629.50
453.80	619.19
454.17	609.06
454.54	599.10
454.91	588.47
455.28	578.17
455.65	568.67
456.02	560.67
456.38	552.60
456.75	542.67
457.12	534.17
457.49	526.10
457.86	517.54
458.23	511.06
458.59	503.67
458.96	496.27
459.33	489.91
459.70	483.58
460.07	478.30
460.43	472.37
460.80	466.95
461.17	462.39
461.54	457.00
461.91	451.95
462.27	446.92
462.64	442.59
463.01	437.91
463.38	434.02
463.74	428.30
464.11	424.52
464.48	421.17
464.85	417.51
465.21	414.73
465.58	411.97
465.95	408.16
466.32	405.56
466.68	402.46
467.05	399.46
467.42	396.66
467.78	393.69
468.15	390.90
468.52	388.93
468.88	386.00
469.25	383.38
469.62	381.59
469.98	379.58
470.35	377.80
470.72	375.91
471.08	373.39
471.45	371.78
471.82	370.13
472.18	368.34
472.55	367.10
472.92	365.27
473.28	363.76
473.65	362.42
474.02	360.69
474.38	359.67
474.75	358.61
475.11	357.27
475.48	356.51
475.85	355.48
476.21	354.36
476.58	353.72
476.94	353.23
477.31	352.51
477.67	351.65
478.04	351.11
478.41	350.79
478.77	351.42
479.14	350.81
479.50	350.59
479.87	350.33
480.23	350.00
480.60	349.70
480.96	349.46
481.33	349.82
481.69	349.94
482.06	349.93
482.42	350.02
482.79	350.50
483.15	350.58
483.52	351.13
483.88	351.27
484.25	351.56
484.61	352.00
484.98	352.30
485.34	353.36
485.71	354.17
486.07	354.85
486.44	354.70
486.80	355.51
487.17	356.20
487.53	357.40
487.90	358.57
488.26	360.35
488.62	361.77
488.99	362.79
489.35	364.25
489.72	365.85
490.08	367.26
490.44	368.74
490.81	370.59
491.17	372.25
491.54	374.46
491.90	376.61
492.26	378.72
492.63	381.10
492.99	383.12
493.36	385.50
493.72	388.16
494.08	390.87
494.45	393.74
494.81	396.93
495.17	399.86
495.54	403.06
495.90	406.05
496.26	409.27
496.63	412.83
496.99	416.54
497.35	420.21
497.72	424.29
498.08	428.30
498.44	432.49
498.80	437.00
499.17	441.16
499.53	445.51
499.89	450.25
500.26	455.16
500.62	459.96
500.98	465.18
501.34	470.35
501.71	475.85
502.07	481.37
502.43	486.85
502.79	492.48
503.16	498.26
503.52	504.18
503.88	510.27
504.24	516.60
504.60	523.10
504.97	529.85
505.33	536.46
505.69	543.81
506.05	550.84
506.41	558.06
506.78	565.48
507.14	573.15
507.50	580.92
507.86	588.80
508.22	596.82
508.59	604.67
508.95	612.98
509.31	621.81
509.67	630.35
510.03	638.78
510.39	647.55
510.75	656.75
511.12	665.77
511.48	675.18
511.84	684.41
512.20	693.80
512.56	703.29
512.92	713.22
513.28	722.58
513.64	732.62
514.00	742.47
514.37	752.87
514.73	763.28
515.09	773.70
515.45	784.20
515.81	795.10
516.17	806.17
516.53	817.23
516.89	827.60
517.25	838.92
517.61	851.01
517.97	862.85
518.33	874.66
518.69	887.00
519.05	898.94
519.41	911.44
519.77	924.37
520.13	936.95
520.49	949.05
520.85	961.94
521.21	974.71
521.57	987.91
521.93	1000.11
522.29	1012.71
522.65	1025.20
523.01	1037.67
523.37	1050.12
523.73	1062.83
524.09	1075.21
524.45	1088.00
524.81	1100.62
525.17	1113.10
525.53	1125.70
525.89	1138.40
526.25	1150.83
526.61	1163.40
526.97	1176.13
527.33	1188.86
527.68	1202.91
528.04	1216.57
528.40	1229.59
528.76	1243.00
529.12	1256.10
529.48	1269.79
529.84	1282.95
530.20	1296.53
530.56	1310.14
530.91	1323.99
531.27	1337.20
531.63	1350.72
531.99	1364.33
532.35	1377.63
532.71	1391.05
533.07	1405.05
533.42	1419.29
533.78	1432.57
534.14	1446.47
534.50	1459.72
534.86	1473.30
535.21	1484.86
535.57	1498.12
535.93	1510.65
536.29	1523.11
536.65	1535.96
537.00	1548.41
537.36	1561.20
537.72	1573.33
538.08	1585.73
538.44	1597.51
538.79	1609.50
539.15	1621.52
539.51	1633.61
539.87	1645.17
540.22	1655.87
540.58	1666.61
540.94	1675.90
541.29	1685.98
541.65	1695.35
542.01	1705.26
542.37	1713.86
542.72	1722.49
543.08	1730.27
543.44	1739.72
543.79	1747.66
544.15	1755.62
544.51	1764.39
544.87	1771.76
545.22	1779.27
545.58	1786.37
545.94	1793.20
546.29	1799.84
546.65	1805.81
547.01	1811.01
547.36	1816.87
547.72	1823.09
548.07	1828.34
548.43	1833.66
548.79	1839.10
549.14	1844.44
549.50	1849.50
549.86	1854.35
550.21	1859.51
550.57	1864.64
550.92	1867.89
551.28	1871.88
551.64	1875.95
551.99	1879.50
552.35	1883.70
552.70	1887.53
553.06	1891.42
553.41	1894.89
553.77	1898.98
554.13	1902.79
554.48	1907.10
554.84	1910.70
555.19	1913.86
555.55	1917.51
555.90	1920.45
556.26	1922.83
556.61	1924.55
556.97	1925.63
557.32	1927.66
557.68	1929.63
558.03	1931.12
558.39	1933.10
558.74	1935.07
559.10	1935.60
559.45	1936.59
559.81	1936.44
560.16	1936.01
560.52	1935.46
560.87	1935.41
561.23	1934.52
561.58	1934.29
561.94	1932.29
562.29	1930.29
562.64	1928.50
563.00	1925.74
563.35	1923.97
563.71	1922.76
564.06	1921.54
564.42	1920.28
564.77	1918.66
565.12	1917.16
565.48	1916.49
565.83	1914.65
566.19	1912.73
566.54	1911.19
566.89	1908.42
567.25	1906.89
567.60	1905.84
567.96	1904.98
568.31	1903.29
568.66	1900.88
569.02	1897.58
569.37	1895.70
569.72	1894.14
570.08	1891.34
570.43	1888.68
570.78	1885.81
571.14	1882.35
571.49	1878.67
571.84	1875.10
572.20	1871.30
572.55	1866.77
572.90	1861.18
573.26	1856.79
573.61	1851.74
573.96	1846.73
574.31	1841.35
574.67	1835.60
575.02	1829.20
575.37	1822.42
575.72	1815.76
576.08	1810.02
576.43	1803.81
576.78	1797.11
577.13	1790.40
577.49	1784.21
577.84	1778.39
578.19	1772.73
578.54	1766.78
578.90	1761.36
579.25	1755.38
579.60	1749.00
579.95	1742.54
580.30	1736.30
580.66	1729.23
581.01	1722.53
581.36	1715.24
581.71	1709.00
582.06	1703.00
582.42	1696.82
582.77	1690.56
583.12	1684.50
583.47	1678.05
583.82	1672.21
584.17	1665.94
584.53	1659.40
584.88	1652.36
585.23	1645.24
585.58	1637.33
585.93	1629.83
586.28	1622.01
586.63	1614.20
586.98	1606.19
587.34	1598.97
587.69	1591.80
588.04	1584.92
588.39	1578.03
588.74	1570.83
589.09	1563.80
589.44	1556.11
589.79	1549.02
590.14	1541.83
590.49	1534.69
590.84	1527.13
591.19	1520.38
591.54	1512.98
591.89	1505.60
592.25	1500.13
592.60	1493.30
592.95	1486.63
593.30	1479.45
593.65	1472.14
594.00	1465.10
594.35	1461.03
594.70	1454.00
595.05	1446.70
595.40	1439.40
595.75	1431.74
596.10	1425.00
596.45	1417.88
596.80	1411.15
597.15	1403.91
597.50	1396.18
597.85	1389.32
598.19	1382.35
598.54	1374.27
598.89	1367.09
599.24	1360.85
599.59	1352.85
599.94	1345.71
600.29	1338.77
600.64	1332.13
600.99	1325.14
601.34	1318.64
601.69	1309.05
602.04	1302.08
602.39	1295.39
602.74	1289.06
603.08	1283.05
603.43	1276.77
603.78	1270.17
604.13	1263.13
604.48	1256.44
604.83	1249.74
605.18	1242.41
605.53	1235.31
605.87	1228.94
606.22	1222.93
606.57	1215.85
606.92	1208.92
607.27	1202.27
607.62	1195.98
607.96	1189.50
608.31	1183.63
608.66	1177.36
609.01	1171.43
609.36	1165.22
609.70	1159.08
610.05	1152.57
610.40	1146.06
610.75	1139.51
611.10	1133.11
611.44	1126.69
611.79	1120.20
612.14	1114.40
612.49	1108.45
612.83	1102.88
613.18	1096.82
613.53	1090.76
613.88	1084.51
614.22	1078.43
614.57	1072.20
614.92	1065.87
615.27	1059.80
615.61	1053.34
615.96	1047.15
616.31	1040.99
616.65	1035.43
617.00	1029.29
617.35	1023.23
617.70	1017.36
618.04	1011.18
618.39	1005.44
618.74	1000.04
619.08	994.46
619.43	988.46
619.78	982.26
620.12	975.96
620.47	969.80
620.82	963.42
621.16	957.49
621.51	952.33
621.85	946.65
622.20	941.03
622.55	935.19
622.89	929.70
623.24	924.17
623.59	918.38
623.93	912.63
624.28	907.00
624.62	902.62
624.97	897.46
625.32	892.30
625.66	886.69
626.01	881.12
626.35	875.80
626.70	870.45
627.04	865.85
627.39	860.78
627.73	855.99
628.08	851.29
628.43	846.16
628.77	840.55
629.12	835.51
629.46	830.90
629.81	826.56
630.15	821.99
630.50	817.25
630.84	812.64
631.19	808.18
631.53	803.83
631.88	798.15
632.22	793.28
632.57	788.86
632.91	784.45
633.26	780.10
633.60	775.51
633.95	770.78
634.29	765.70
634.64	761.44
634.98	756.65
635.32	752.26
635.67	748.22
636.01	743.99
636.36	739.50
636.70	735.21
637.05	730.69
637.39	726.51
637.73	722.18
638.08	718.17
638.42	713.55
638.77	708.86
639.11	704.15
639.45	699.49
639.80	694.81
640.14	690.30
640.49	686.01
640.83	681.93
641.17	678.43
641.52	674.52
641.86	670.42
642.20	667.21
642.55	663.21
642.89	659.43
643.23	655.44
643.58	652.10
643.92	647.87
644.26	644.04
644.61	640.25
644.95	636.58
645.29	632.62
645.64	629.32
645.98	625.62
646.32	622.30
646.66	618.78
647.01	615.23
647.35	611.96
647.69	608.39
648.04	605.07
648.38	601.62
648.72	598.30
649.06	594.81
649.41	590.91
649.75	587.34
650.09	583.70
650.43	580.33
650.78	576.76
651.12	573.50
651.46	569.98
651.80	566.69
652.14	563.36
652.49	560.36
652.83	556.95
653.17	553.87
653.51	550.70
653.85	547.80
654.20	544.87
654.54	541.78
654.88	538.76
655.22	535.89
655.56	532.72
655.90	529.82
656.25	526.99
656.59	524.15
656.93	521.44
657.27	519.00
657.61	516.19
657.95	513.43
658.29	510.52
658.64	508.05
658.98	505.14
659.32	502.29
659.66	499.47
660.00	496.81
660.34	494.37
660.68	491.52
661.02	488.77
661.36	486.25
661.70	483.64
662.05	481.17
662.39	478.56
662.73	476.41
663.07	474.53
663.41	472.05
663.75	469.47
664.09	467.16
664.43	464.48
664.77	462.34
665.11	459.80
665.45	457.71
665.79	455.53
666.13	453.19
666.47	450.90
666.81	448.58
667.15	446.22
667.49	444.07
667.83	442.51
668.17	440.48
668.51	438.50
668.85	436.65
669.19	435.09
669.53	433.01
669.87	430.80
670.21	428.34
670.55	426.49
670.89	425.12
671.23	422.94
671.57	420.89
671.91	418.92
672.25	417.30
672.58	415.62
672.92	413.31
673.26	411.57
673.60	409.94
673.94	408.29
674.28	406.67
674.62	405.00
674.96	402.98
675.30	401.17
675.64	399.43
675.97	397.78
676.31	395.70
676.65	393.75
676.99	392.40
677.33	390.68
677.67	389.01
678.01	386.82
678.34	385.33
678.68	383.93
679.02	382.26
679.36	380.70
679.70	378.83
680.04	377.56
680.37	376.04
680.71	374.47
681.05	373.03
681.39	371.56
681.73	369.91
682.06	368.43
682.40	367.13
682.74	365.90
683.08	364.66
683.42	363.26
683.75	362.10
684.09	360.54
684.43	359.32
684.77	357.94
685.10	356.91
685.44	355.78
685.78	354.58
686.12	353.30
686.45	351.81
686.79	350.57
687.13	349.50
687.46	348.21
687.80	347.21
688.14	345.84
688.48	344.62
688.81	343.45
689.15	342.57
689.49	341.26
689.82	339.99
690.16	338.26
690.50	337.08
690.83	335.93
691.17	334.53
691.51	333.22
691.84	332.14
692.18	330.72
692.52	329.36
692.85	328.10
693.19	327.40
693.52	326.38
693.86	325.37
694.20	324.12
694.53	323.21
694.87	321.94
695.21	320.90
695.54	319.87
695.88	318.62
696.21	317.22
696.55	316.22
696.88	315.07
697.22	314.15
697.56	313.26
697.89	312.14
698.23	311.25
698.56	310.27
698.90	309.40
699.23	308.62
699.57	307.79
699.90	306.86
700.24	305.56
700.58	304.91
700.91	304.06
701.25	303.88
701.58	303.62
701.92	303.11
702.25	302.27
702.59	301.43
702.92	300.92
703.26	300.32
703.59	299.58
703.93	299.63
704.26	299.16
704.60	298.48
704.93	297.80
705.26	296.96
705.60	296.39
705.93	295.50
706.27	294.90
706.60	294.50
706.94	294.20
707.27	293.50
707.61	292.81
707.94	292.18
708.27	290.93
708.61	289.58
708.94	288.76
709.28	288.19
709.61	287.54
709.94	286.87
710.28	286.22
710.61	285.68
710.95	284.31
711.28	284.20
711.61	283.39
711.95	283.06
712.28	282.56
712.61	281.94
712.95	281.85
713.28	281.81
713.61	281.04
713.95	280.12
714.28	279.71
714.61	279.10
714.95	278.48
715.28	277.82
715.61	277.29
715.95	276.81
716.28	276.27
716.61	275.86
716.95	275.30
717.28	274.77
717.61	274.29
717.94	273.75
718.28	272.58
718.61	272.20
718.94	271.46
719.27	270.99
719.61	270.64
719.94	270.00
720.27	268.94
720.60	268.40
720.94	268.05
721.27	267.60
721.60	267.26
721.93	266.89
722.27	266.81
722.60	266.53
722.93	265.95
723.26	265.63
723.59	265.09
723.93	264.75
724.26	264.49
724.59	264.02
724.92	263.71
725.25	263.60
725.59	263.19
725.92	262.99
726.25	262.55
726.58	262.15
726.91	261.68
727.24	261.49
727.57	261.16
727.91	260.59
728.24	260.41
728.57	259.99
728.90	259.80
729.23	259.18
729.56	259.34
729.89	259.12
730.22	258.65
730.55	258.32
730.89	258.04
731.22	257.50
731.55	257.15
731.88	256.92
732.21	256.43
732.54	256.08
732.87	255.82
733.20	255.55
733.53	255.28
733.86	255.16
734.19	254.79
734.52	254.70
734.85	255.18
735.18	254.65
735.51	254.82
735.84	254.58
736.17	254.45
736.50	253.60
736.83	254.47
737.16	254.21
737.49	253.99
737.82	253.72
738.15	253.77
738.48	253.59
738.81	253.25
739.14	252.95
739.47	252.70
739.80	252.37
740.13	252.27
740.46	251.86
740.79	251.39
741.12	251.12
741.45	250.73
741.78	249.87
742.11	249.92
742.44	249.23
742.77	249.00
743.10	248.80
743.43	248.67
743.75	247.45
744.08	248.49
744.41	248.25
744.74	247.97
745.07	247.52
745.40	247.45
745.73	247.63
746.06	247.45
746.39	247.37
746.71	247.11
747.04	246.85
747.37	246.69
747.70	246.70
748.03	246.55
748.36	246.55
748.68	246.49
749.01	246.11
749.34	246.06
749.67	245.96
750.00	245.87
750.33	246.30
750.65	246.17
750.98	244.82
751.31	244.77
751.64	244.65
751.97	245.10
752.29	244.85
752.62	244.37
752.95	244.19
753.28	243.97
753.60	243.83
753.93	244.00
754.26	243.96
754.59	243.64
754.91	243.46
755.24	243.23
755.57	243.13
755.90	243.04
756.22	242.72
756.55	242.43
756.88	242.10
757.20	241.46
757.53	241.11
757.86	241.00
758.19	240.90
758.51	240.82
758.84	240.22
759.17	240.10
759.49	239.94
759.82	240.39
760.15	240.36
760.47	240.28
760.80	239.87
761.13	239.95
761.45	239.76
761.78	239.72
762.11	239.67
762.43	239.39
762.76	239.22
763.08	239.33
763.41	239.38
763.74	239.39
764.06	239.28
764.39	239.20
764.71	239.16
765.04	239.03
765.37	238.88
765.69	238.86
766.02	238.77
766.34	238.67
766.67	238.14
767.00	238.36
767.32	238.83
767.65	239.31
767.97	239.06
768.30	239.06
768.62	238.96
768.95	238.84
769.27	238.82
769.60	238.96
769.92	238.76
770.25	238.42
770.57	238.21
770.90	238.04
771.22	237.87
771.55	237.70
771.87	237.61
772.20	237.45
772.52	238.11
772.85	239.09
773.17	239.08
773.50	238.93
773.82	238.59
774.15	237.91
774.47	237.25
774.80	237.09
775.12	237.00
775.45	236.96
775.77	236.82
776.09	236.76
776.42	236.61
776.74	236.77
777.07	236.73
777.39	236.65
777.72	236.45
778.04	236.45
778.36	236.35
778.69	236.28
779.01	236.34
779.33	235.38
779.66	234.27
779.98	234.10
780.31	234.05
780.63	234.30
780.95	234.45
781.28	234.30
781.60	234.21
781.92	234.16
782.25	234.04
782.57	234.00
782.89	233.93
783.22	233.75
783.54	233.51
783.86	233.54
784.19	233.38
784.51	233.74
784.83	233.66
785.16	233.59
785.48	233.55
785.80	233.54
786.12	233.64
786.45	233.55
786.77	233.65
787.09	233.60
787.42	233.20
787.74	233.21
788.06	233.33
788.38	233.21
788.71	233.10
789.03	232.97
789.35	232.94
789.67	232.85
789.99	232.91
790.32	232.76
790.64	232.79
790.96	233.53
791.28	233.06
791.61	232.96
791.93	232.91
792.25	232.83
792.57	233.44
792.89	233.20
793.21	233.37
793.54	233.19
793.86	233.10
794.18	233.11
794.50	232.88
794.82	232.85
795.14	232.94
795.47	233.17
795.79	233.32
796.11	233.09
796.43	232.96
796.75	232.88
797.07	232.83
797.39	232.71
797.71	231.99
798.04	232.10
798.36	232.08
798.68	232.10
799.00	232.14
799.32	231.55
799.64	231.68
799.96	231.59
800.28	231.70
800.60	231.56
800.92	231.57
801.24	231.46
801.56	231.46
801.89	231.36
802.21	231.23
802.53	231.01
802.85	231.27
803.17	231.75
803.49	231.56
803.81	231.59
804.13	231.64
804.45	231.60
804.77	231.66
805.09	231.66
805.41	231.43
805.73	231.24
806.05	231.02
806.37	230.99
806.69	230.85
807.01	230.79
807.33	230.84
807.65	230.60
807.97	231.08
808.28	230.92
808.60	230.92
808.92	230.85
809.24	231.40
809.56	231.27
809.88	230.88
810.20	231.00
810.52	231.19
810.84	230.91
811.16	230.90
811.48	230.82
811.80	231.21
812.12	231.30
812.43	231.42
812.75	231.50
813.07	231.37
813.39	231.45
813.71	231.37
814.03	231.37
814.35	231.40
814.67	230.90
814.98	230.85
815.30	230.78
815.62	230.66
815.94	230.08
816.26	230.39
816.58	230.16
816.89	230.21
817.21	229.88
817.53	229.91
817.85	229.75
818.17	229.69
818.48	229.20
818.80	229.43
819.12	229.28
819.44	229.04
819.76	228.80
820.07	228.74
820.39	228.59
820.71	228.64
821.03	228.58
821.34	228.51
821.66	228.54
821.98	228.59
822.30	228.47
822.61	229.00
822.93	228.57
823.25	228.56
823.57	228.45
823.88	228.59
824.20	228.57
824.52	228.81
824.83	228.66
825.15	228.63
825.47	228.48
825.79	228.55
826.10	228.57
826.42	228.70
826.74	228.68
827.05	228.64
827.37	228.58
827.69	228.58
828.00	228.67
828.32	228.66
828.64	228.53
828.95	229.08
829.27	228.70
829.58	228.64
829.90	228.84
830.22	228.82
830.53	228.64
830.85	228.63
831.17	228.38
831.48	228.54
831.80	228.64
832.11	228.59
832.43	228.40
832.75	228.50
833.06	229.05
833.38	228.85
833.69	228.85
834.01	228.90
834.32	228.86
834.64	228.78
834.96	228.87
835.27	228.87
835.59	228.51
835.90	228.44
836.22	228.50
836.53	228.29
836.85	228.32
837.16	229.28
837.48	229.31
837.79	229.56
838.11	229.57
838.42	229.65
838.74	229.77
839.05	229.81
839.37	229.68
839.68	229.14
840.00	229.23
840.31	229.41
840.63	229.33
840.94	229.30
841.26	229.28
841.57	229.21
841.88	229.34
842.20	229.20
842.51	229.09
842.83	229.16
843.14	229.96
843.46	229.90
843.77	229.38
844.08	229.32
844.40	229.16
844.71	229.13
845.03	228.90
845.34	228.83
845.65	228.87
845.97	228.90
846.28	228.94
846.60	228.93
846.91	228.79
847.22	228.70
847.54	228.89
847.85	228.90
848.16	228.82
848.48	228.67
848.79	229.15
849.10	229.19
849.42	229.22
849.73	228.37
850.04	228.30
850.36	227.97
850.67	228.18
850.98	228.12
851.30	228.14
851.61	228.06
851.92	228.11
852.23	228.40
852.55	228.46
852.86	228.50
853.17	228.66
853.49	228.87
853.80	229.10
854.11	229.07
854.42	229.25
854.74	229.19
855.05	229.30
855.36	228.76
855.67	228.81
855.99	228.70
856.30	229.80
856.61	229.85
856.92	229.89
857.23	229.73
857.55	229.70
857.86	229.68
858.17	229.82
858.48	229.60
858.79	229.35
859.11	229.39
859.42	229.18
859.73	228.84
860.04	228.76
860.35	228.40
860.66	228.08
860.98	228.04
861.29	228.13
861.60	227.98
861.91	228.19
862.22	228.07
862.53	227.80
862.84	226.64
863.16	226.90
863.47	226.68
863.78	226.66
864.09	226.63
864.40	226.60
864.71	226.62
865.02	226.67
865.33	226.60
865.64	226.40
865.95	226.43
866.27	227.10
866.58	226.91
866.89	227.10
867.20	227.20
867.51	227.00
867.82	226.86
868.13	227.20
868.44	226.96
868.75	227.12
869.06	227.29
869.37	227.45
869.68	227.03
869.99	227.14
870.30	227.09
870.61	227.12
870.92	226.91
871.23	226.91
871.54	227.03
871.85	227.22
872.16	227.33
872.47	227.35
872.78	226.78
873.09	226.95
873.40	226.89
873.71	226.91
874.02	226.93
874.33	226.97
874.64	226.71
874.95	226.84
875.26	226.66
875.56	226.69
875.87	226.55
876.18	226.51
876.49	227.48
876.80	227.41
877.11	227.34
877.42	227.50
877.73	227.50
878.04	227.52
878.35	227.50
878.66	227.52
878.96	227.49
879.27	227.48
879.58	227.42
879.89	227.38
880.20	227.75
880.51	227.79
880.82	227.78
881.12	227.88
881.43	227.72
881.74	227.72
882.05	227.70
882.36	227.85
882.67	228.09
882.97	227.16
883.28	227.27
883.59	227.24
883.90	227.37
884.21	227.44
884.51	227.30
884.82	227.19
885.13	227.13
885.44	227.14
885.74	227.19
886.05	227.18
886.36	227.19
886.67	226.75
886.98	227.26
887.28	227.40
887.59	227.38
887.90	227.45
888.20	227.46
888.51	227.65
888.82	227.54
889.13	227.57
889.43	228.34
889.74	228.28
890.05	228.33
890.35	228.20
890.66	228.06
890.97	228.03
891.28	227.94
891.58	228.04
891.89	228.04
892.20	227.98
892.50	227.74
892.81	227.72
893.12	227.74
893.42	227.30
893.73	227.34
894.04	227.35
894.34	227.42
894.65	227.33
894.95	227.28
895.26	227.31
895.57	227.71
895.87	226.80
896.18	227.00
896.48	227.08
896.79	226.98
897.10	227.05
897.40	226.98
897.71	227.15
898.01	227.07
898.32	227.10
898.63	227.07
898.93	227.24
899.24	227.20
899.54	227.24
899.85	227.18
900.15	227.04
900.46	226.95
900.76	227.02
901.07	227.03
901.38	226.88
901.68	226.94
901.99	226.50
902.29	226.57
902.60	226.45
902.90	226.39
903.21	226.48
903.51	226.44
903.82	226.73
904.12	226.67
904.43	226.70
904.73	226.72
905.03	226.73
905.34	227.58
905.64	227.55
905.95	227.43
906.25	227.45
906.56	227.41
906.86	227.52
907.17	227.40
907.47	227.52
907.77	227.54
908.08	227.33
908.38	227.21
908.69	227.37
908.99	227.43
909.30	227.46
909.60	227.42
909.90	227.54
910.21	227.23
910.51	226.96
910.81	226.95
911.12	226.91
911.42	226.91
911.73	226.06
912.03	226.14
912.33	226.42
912.64	226.39
912.94	226.37
913.24	226.17
913.55	226.16
913.85	226.03
914.15	226.21
914.46	226.36
914.76	226.37
915.06	226.23
915.37	226.11
915.67	226.10
915.97	226.17
916.27	225.94
916.58	226.09
916.88	226.35
917.18	226.35
917.49	227.10
917.79	227.21
918.09	227.29
918.39	227.67
918.70	227.60
919.00	227.57
919.30	228.09
919.60	228.07
919.91	228.02
920.21	228.14
920.51	228.00
920.81	227.90
921.12	228.08
921.42	228.15
921.72	228.23
922.02	228.25
922.32	228.33
922.63	228.43
922.93	228.90
923.23	228.89
923.53	228.88
923.83	228.22
924.13	228.27
924.44	228.34
924.74	228.45
925.04	228.65
925.34	228.68
925.64	228.26
925.94	228.29
926.24	228.79
926.55	228.67
926.85	228.81
927.15	228.87
927.45	228.91
927.75	228.78
928.05	228.83
928.35	228.75
928.65	229.04
928.95	229.17
929.26	228.76
929.56	228.93
929.86	228.98
930.16	228.99
930.46	228.80
930.76	228.75
931.06	228.19
931.36	227.85
931.66	227.94
931.96	228.00
932.26	228.03
932.56	227.63
932.86	227.78
933.16	227.68
933.46	227.70
933.76	227.53
934.06	227.90
934.36	228.26
934.66	228.21
934.96	227.97
935.26	227.90
935.56	228.08
935.86	227.80
936.16	227.60
936.46	227.58
936.76	227.60
937.06	227.58
937.36	227.69
937.66	227.78
937.96	227.79
938.26	227.54
938.56	227.52
938.86	227.63
939.16	227.69
939.46	227.76
939.76	227.80
940.06	227.69
940.35	227.37
940.65	226.88
940.95	227.03
941.25	226.77
941.55	226.69
941.85	226.63
942.15	226.82
942.45	227.27
942.75	227.15
943.04	227.29
943.34	227.48
943.64	227.46
943.94	227.41
944.24	227.41
944.54	227.57
944.84	227.51
945.13	227.25
945.43	227.12
945.73	227.12
946.03	226.99
946.33	227.06
946.62	227.11
946.92	227.10
947.22	227.21
947.52	227.40
947.82	227.45
948.11	227.31
948.41	227.10
948.71	226.78
949.01	226.81
949.31	226.75
949.60	226.58
949.90	226.76
950.20	226.71
950.50	226.77
950.79	226.71
951.09	226.95
951.39	227.08
951.69	227.00
951.98	227.28
952.28	227.44
952.58	227.50
952.87	227.53
953.17	227.63
953.47	227.40
953.76	227.42
954.06	227.37
954.36	227.20
954.66	227.38
954.95	227.62
955.25	227.75
955.55	227.74
955.84	227.58
956.14	227.60
956.44	227.58
956.73	227.38
957.03	227.50
957.32	227.39
957.62	227.45
957.92	227.65
958.21	227.40
958.51	228.40
958.81	228.43
959.10	228.44
959.40	228.69
959.69	228.90
959.99	228.99
960.29	229.00
960.58	229.03
960.88	229.31
961.17	229.20
961.47	229.28
961.76	229.30
962.06	229.50
962.36	229.34
962.65	229.46
962.95	229.53
963.24	229.42
963.54	229.40
963.83	229.34
964.13	229.27
964.42	229.08
964.72	228.32
965.01	228.35
965.31	228.32
965.60	228.09
965.90	228.68
966.19	228.53
966.49	228.60
966.78	228.67
967.08	228.57
967.37	228.56
967.67	228.34
967.96	228.46
968.26	228.43
968.55	228.60
968.85	228.56
969.14	228.58
969.43	228.53
969.73	228.48
970.02	228.51
970.32	228.49
970.61	228.52
970.91	228.32
971.20	228.19
971.49	228.02
971.79	228.11
972.08	227.38
972.38	227.37
972.67	227.18
972.96	227.26
973.26	227.03
973.55	227.23
973.85	227.18
974.14	227.07
974.43	227.06
974.73	226.85
975.02	226.81
975.31	226.76
975.61	226.76
975.90	226.68
976.19	226.56
976.49	226.57
976.78	226.59
977.07	226.46
977.37	226.54
977.66	226.70
977.95	226.58
978.24	226.62
978.54	226.77
978.83	226.71
979.12	226.72
979.42	226.75
979.71	226.48
980.00	226.46
980.29	226.50
980.59	226.39
980.88	226.69
981.17	226.57
981.46	226.56
981.76	226.56
982.05	226.84
982.34	226.88
982.63	226.96
982.93	226.99
983.22	227.37
983.51	227.38
983.80	227.48
984.09	227.56
984.39	227.50
984.68	227.45
984.97	227.56
985.26	227.33
985.55	227.49
985.85	227.42
986.14	227.55
986.43	227.62
986.72	227.60
987.01	227.22
987.30	227.30
987.59	227.20
987.89	227.30
988.18	227.08
988.47	226.99
988.76	226.84
989.05	226.71
989.34	226.48
989.63	226.77
989.92	226.70
990.22	226.62
990.51	226.56
990.80	226.47
991.09	226.59
991.38	226.82
991.67	226.62
991.96	226.56
992.25	226.68
992.54	226.48
992.83	226.54
993.12	226.48
993.41	226.57
993.70	227.00
993.99	227.06
994.28	227.17
994.58	227.32
994.87	227.38
995.16	227.38
995.45	227.33
995.74	226.90
996.03	226.98
996.32	227.14
996.61	227.31
996.90	227.35
997.19	227.30
997.48	227.27
997.77	227.24
998.06	227.31
998.34	227.15
998.63	227.23
998.92	227.18
999.21	227.40
999.50	227.53
999.79	227.29
1000.08	227.28
1000.37	227.36
1000.66	227.23
1000.95	227.34
1001.24	227.40
1001.53	227.54
1001.82	227.60
1002.11	227.37
1002.40	227.45
1002.68	227.78
1002.97	228.40
1003.26	228.29
1003.55	228.15
1003.84	228.22
1004.13	228.63
1004.42	228.62
1004.71	228.63
1004.99	228.69
1005.28	228.97
1005.57	228.81
1005.86	228.64
1006.15	228.54
1006.44	228.31
1006.72	228.43
1007.01	228.23
1007.30	228.25
1007.59	228.05
1007.88	227.92
1008.17	227.93
1008.45	227.62
1008.74	227.16
1009.03	226.61
1009.32	226.62
1009.60	226.64
1009.89	226.55
1010.18	226.14
1010.47	226.11
1010.76	226.05
1011.04	226.00
1011.33	225.95
1011.62	226.01
1011.91	226.21
1012.19	226.26
1012.48	226.35
1012.77	226.38
1013.05	226.90
1013.34	226.89
1013.63	226.93
1013.92	227.07
1014.20	227.14
1014.49	227.28
1014.78	227.35
1015.06	227.22
1015.35	227.16
1015.64	227.31
1015.92	227.48
1016.21	227.46
1016.50	227.51
1016.78	227.64
1017.07	227.70
1017.36	227.50
1017.64	227.37
1017.93	227.28
1018.22	227.34
1018.50	227.35
1018.79	227.26
1019.08	226.81
1019.36	226.88
1019.65	226.82
1019.93	227.07
1020.22	227.20
1020.51	227.70
1020.79	227.65
1021.08	227.80
1021.36	226.50
1021.65	226.40
1021.94	226.60
1022.22	227.50
1022.51	225.50
1022.79	231.80
1023.08	229.50
1023.36	238.60
1023.65	225.60
>>>>>End Processed Spectral Data<<<<<
