SpectraSuite Data File
++++++++++++++++++++++++++++++++++++
Date: Wed Sep 04 17:29:13 EDT 2013
User: lab3
Dark Spectrum Present: Yes
Reference Spectrum Present: No
Number of Sampled Component Spectra: 1
Spectrometers: USB2E7196
Integration Time (usec): 337000 (USB2E7196)
Spectra Averaged: 10 (USB2E7196)
Boxcar Smoothing: 10 (USB2E7196)
Correct for Electrical Dark: No (USB2E7196)
Strobe/Lamp Enabled: No (USB2E7196)
Correct for Detector Non-linearity: No (USB2E7196)
Correct for Stray Light: No (USB2E7196)
Number of Pixels in Processed Spectrum: 2048
>>>>>Begin Processed Spectral Data<<<<<
339.09	0.00
339.48	212.70
339.86	215.10
340.24	216.40
340.63	215.50
341.01	234.10
341.39	218.70
341.78	223.30
342.16	226.20
342.54	223.80
342.93	213.16
343.31	223.86
343.69	224.35
344.07	224.80
344.46	225.30
344.84	225.90
345.22	225.59
345.60	225.90
345.99	226.12
346.37	226.10
346.75	226.24
347.13	226.32
347.52	226.51
347.90	226.76
348.28	226.85
348.66	227.15
349.05	226.81
349.43	227.05
349.81	227.11
350.19	227.15
350.57	227.21
350.96	227.47
351.34	227.63
351.72	227.89
352.10	227.97
352.48	228.01
352.87	227.97
353.25	228.02
353.63	228.10
354.01	228.04
354.39	228.16
354.77	228.16
355.15	228.43
355.54	228.29
355.92	228.02
356.30	227.99
356.68	228.55
357.06	228.68
357.44	228.56
357.82	228.66
358.20	229.54
358.58	229.59
358.97	229.61
359.35	229.77
359.73	229.88
360.11	229.96
360.49	230.10
360.87	230.08
361.25	230.19
361.63	230.46
362.01	230.66
362.39	230.64
362.77	230.81
363.15	230.82
363.53	230.89
363.91	230.97
364.29	231.06
364.67	230.21
365.05	230.25
365.43	230.38
365.81	230.53
366.19	230.13
366.57	230.52
366.95	230.49
367.33	230.32
367.71	230.41
368.09	230.57
368.47	230.51
368.85	230.59
369.23	230.75
369.61	230.59
369.99	230.80
370.37	230.98
370.75	231.31
371.13	231.04
371.51	230.98
371.89	231.15
372.27	231.24
372.65	231.35
373.03	231.45
373.41	231.33
373.78	231.21
374.16	230.83
374.54	230.55
374.92	230.42
375.30	230.49
375.68	230.22
376.06	230.21
376.44	230.16
376.82	230.22
377.19	230.09
377.57	229.93
377.95	229.63
378.33	229.42
378.71	228.87
379.09	229.12
379.47	229.09
379.84	228.95
380.22	228.80
380.60	228.53
380.98	228.35
381.36	228.26
381.73	228.10
382.11	228.19
382.49	228.20
382.87	228.14
383.25	228.07
383.62	229.15
384.00	228.91
384.38	228.79
384.76	228.97
385.13	229.17
385.51	229.16
385.89	228.98
386.27	229.03
386.64	229.10
387.02	228.92
387.40	228.86
387.78	228.87
388.15	228.97
388.53	228.95
388.91	228.85
389.29	228.76
389.66	228.85
390.04	228.63
390.42	228.64
390.79	228.68
391.17	228.56
391.55	227.39
391.92	227.36
392.30	227.47
392.68	227.15
393.05	227.20
393.43	227.30
393.81	227.52
394.18	227.45
394.56	227.54
394.94	227.80
395.31	227.71
395.69	227.96
396.06	228.06
396.44	228.18
396.82	228.22
397.19	228.84
397.57	228.86
397.95	229.16
398.32	229.02
398.70	229.10
399.07	229.43
399.45	229.65
399.82	229.86
400.20	229.90
400.58	230.03
400.95	229.71
401.33	230.11
401.70	230.84
402.08	231.06
402.45	231.24
402.83	231.68
403.20	232.13
403.58	232.32
403.95	232.76
404.33	233.14
404.71	233.56
405.08	234.33
405.46	234.79
405.83	235.22
406.21	235.66
406.58	236.25
406.96	236.70
407.33	237.32
407.70	238.12
408.08	239.59
408.45	240.47
408.83	241.55
409.20	242.13
409.58	242.39
409.95	243.57
410.33	244.62
410.70	245.23
411.08	246.50
411.45	247.74
411.82	248.89
412.20	250.59
412.57	252.57
412.95	253.34
413.32	255.10
413.69	256.84
414.07	258.76
414.44	260.80
414.82	263.04
415.19	265.48
415.56	267.93
415.94	270.09
416.31	273.02
416.68	275.90
417.06	279.35
417.43	282.83
417.81	286.49
418.18	290.39
418.55	294.53
418.93	298.78
419.30	303.36
419.67	308.09
420.04	312.99
420.42	318.00
420.79	324.70
421.16	330.83
421.54	337.47
421.91	344.11
422.28	350.97
422.66	358.17
423.03	365.79
423.40	373.04
423.77	381.00
424.15	389.19
424.52	397.85
424.89	407.13
425.26	416.06
425.64	424.56
426.01	433.91
426.38	443.78
426.75	453.92
427.13	464.32
427.50	475.02
427.87	486.11
428.24	497.50
428.61	507.85
428.99	519.97
429.36	532.55
429.73	545.17
430.10	557.65
430.47	570.72
430.85	583.86
431.22	598.29
431.59	614.00
431.96	628.71
432.33	644.85
432.70	660.48
433.08	678.95
433.45	696.40
433.82	714.07
434.19	733.66
434.56	753.27
434.93	771.57
435.30	790.50
435.68	811.25
436.05	831.68
436.42	851.84
436.79	870.61
437.16	890.96
437.53	912.66
437.90	934.18
438.27	955.28
438.64	977.64
439.01	998.43
439.38	1016.47
439.75	1034.18
440.13	1054.18
440.50	1073.43
440.87	1089.15
441.24	1105.96
441.61	1123.90
441.98	1137.45
442.35	1153.18
442.72	1169.42
443.09	1184.97
443.46	1194.89
443.83	1201.77
444.20	1208.31
444.57	1216.77
444.94	1221.04
445.31	1225.53
445.68	1230.40
446.05	1233.02
446.42	1231.66
446.79	1229.93
447.16	1228.04
447.53	1226.85
447.90	1219.73
448.27	1212.58
448.64	1202.74
449.01	1195.32
449.37	1182.06
449.74	1168.98
450.11	1153.20
450.48	1135.48
450.85	1117.37
451.22	1101.87
451.59	1087.26
451.96	1073.01
452.33	1053.82
452.70	1037.13
453.07	1016.86
453.43	995.76
453.80	975.70
454.17	956.65
454.54	938.53
454.91	918.98
455.28	900.07
455.65	882.99
456.02	866.44
456.38	851.24
456.75	832.68
457.12	817.21
457.49	802.16
457.86	787.07
458.23	774.69
458.59	760.89
458.96	747.12
459.33	734.63
459.70	722.61
460.07	713.15
460.43	701.92
460.80	691.54
461.17	682.63
461.54	673.26
461.91	663.84
462.27	654.65
462.64	647.04
463.01	638.53
463.38	630.26
463.74	620.93
464.11	613.60
464.48	607.18
464.85	600.25
465.21	595.13
465.58	589.58
465.95	582.88
466.32	577.65
466.68	572.10
467.05	566.98
467.42	561.35
467.78	555.55
468.15	550.38
468.52	546.50
468.88	541.23
469.25	536.61
469.62	533.26
469.98	529.14
470.35	525.28
470.72	521.73
471.08	517.45
471.45	514.45
471.82	511.49
472.18	508.01
472.55	505.58
472.92	502.42
473.28	499.62
473.65	497.04
474.02	494.29
474.38	492.14
474.75	490.28
475.11	488.20
475.48	486.58
475.85	485.10
476.21	483.61
476.58	482.39
476.94	481.29
477.31	480.07
477.67	479.13
478.04	478.41
478.41	477.84
478.77	478.46
479.14	477.72
479.50	477.35
479.87	477.45
480.23	477.47
480.60	477.35
480.96	477.33
481.33	478.10
481.69	478.65
482.06	479.19
482.42	479.64
482.79	480.33
483.15	481.37
483.52	482.58
483.88	483.67
484.25	484.78
484.61	486.20
484.98	487.50
485.34	489.65
485.71	491.55
486.07	493.64
486.44	494.93
486.80	496.93
487.17	499.10
487.53	501.91
487.90	504.52
488.26	508.05
488.62	511.52
488.99	514.50
489.35	517.94
489.72	521.36
490.08	524.92
490.44	528.85
490.81	533.05
491.17	536.86
491.54	541.36
491.90	545.82
492.26	550.57
492.63	555.57
492.99	560.32
493.36	565.57
493.72	571.24
494.08	576.84
494.45	583.06
494.81	589.40
495.17	595.47
495.54	602.25
495.90	608.52
496.26	615.33
496.63	622.03
496.99	629.03
497.35	636.79
497.72	644.59
498.08	652.26
498.44	660.18
498.80	668.91
499.17	676.94
499.53	685.22
499.89	694.03
500.26	702.76
500.62	711.61
500.98	720.91
501.34	729.54
501.71	739.01
502.07	748.12
502.43	757.15
502.79	766.45
503.16	775.94
503.52	785.48
503.88	794.95
504.24	805.15
504.60	815.50
504.97	825.77
505.33	835.94
505.69	846.72
506.05	857.04
506.41	867.09
506.78	877.42
507.14	888.25
507.50	898.77
507.86	909.33
508.22	920.14
508.59	930.29
508.95	941.34
509.31	952.66
509.67	963.37
510.03	974.19
510.39	984.65
510.75	995.01
511.12	1005.26
511.48	1015.77
511.84	1026.06
512.20	1035.99
512.56	1045.97
512.92	1056.20
513.28	1065.98
513.64	1075.81
514.00	1085.52
514.37	1095.40
514.73	1105.10
515.09	1114.60
515.45	1123.97
515.81	1132.72
516.17	1141.85
516.53	1149.89
516.89	1157.54
517.25	1166.35
517.61	1175.50
517.97	1184.49
518.33	1192.89
518.69	1201.54
519.05	1209.79
519.41	1217.68
519.77	1226.28
520.13	1234.15
520.49	1240.99
520.85	1248.32
521.21	1256.02
521.57	1263.14
521.93	1269.59
522.29	1276.57
522.65	1282.57
523.01	1288.63
523.37	1294.46
523.73	1300.54
524.09	1306.67
524.45	1312.20
524.81	1317.29
525.17	1322.20
525.53	1327.09
525.89	1332.08
526.25	1336.78
526.61	1340.77
526.97	1345.20
527.33	1349.66
527.68	1354.58
528.04	1359.65
528.40	1363.97
528.76	1368.15
529.12	1372.48
529.48	1377.25
529.84	1380.73
530.20	1385.46
530.56	1389.88
530.91	1394.60
531.27	1398.29
531.63	1402.65
531.99	1406.64
532.35	1410.81
532.71	1414.39
533.07	1418.67
533.42	1422.25
533.78	1426.06
534.14	1430.64
534.50	1434.57
534.86	1438.25
535.21	1440.92
535.57	1444.38
535.93	1447.31
536.29	1450.42
536.65	1453.73
537.00	1456.69
537.36	1459.60
537.72	1461.90
538.08	1464.73
538.44	1467.06
538.79	1470.05
539.15	1472.82
539.51	1475.98
539.87	1478.39
540.22	1480.52
540.58	1482.63
540.94	1484.72
541.29	1485.96
541.65	1487.31
542.01	1489.16
542.37	1489.79
542.72	1490.57
543.08	1491.13
543.44	1492.46
543.79	1492.73
544.15	1493.28
544.51	1493.76
544.87	1494.71
545.22	1495.13
545.58	1495.00
545.94	1494.49
546.29	1493.87
546.65	1492.90
547.01	1491.58
547.36	1490.61
547.72	1489.90
548.07	1488.20
548.43	1487.33
548.79	1486.72
549.14	1485.76
549.50	1484.56
549.86	1483.31
550.21	1482.62
550.57	1481.91
550.92	1480.40
551.28	1479.37
551.64	1478.52
551.99	1477.61
552.35	1476.09
552.70	1475.35
553.06	1474.84
553.41	1474.49
553.77	1474.30
554.13	1474.16
554.48	1474.07
554.84	1473.73
555.19	1473.55
555.55	1474.35
555.90	1473.48
556.26	1472.30
556.61	1471.05
556.97	1469.46
557.32	1468.65
557.68	1467.66
558.03	1466.65
558.39	1465.73
558.74	1465.27
559.10	1463.87
559.45	1462.42
559.81	1461.09
560.16	1459.00
560.52	1457.10
560.87	1455.78
561.23	1453.89
561.58	1452.46
561.94	1449.97
562.29	1447.70
562.64	1445.50
563.00	1442.25
563.35	1440.48
563.71	1439.20
564.06	1437.83
564.42	1436.50
564.77	1435.16
565.12	1433.56
565.48	1432.90
565.83	1431.77
566.19	1429.93
566.54	1428.01
566.89	1426.43
567.25	1425.13
567.60	1424.40
567.96	1423.99
568.31	1422.80
568.66	1421.16
569.02	1418.74
569.37	1417.13
569.72	1415.92
570.08	1413.94
570.43	1411.69
570.78	1409.60
571.14	1407.82
571.49	1405.02
571.84	1402.72
572.20	1399.82
572.55	1397.24
572.90	1393.50
573.26	1390.42
573.61	1387.55
573.96	1384.62
574.31	1381.20
574.67	1377.50
575.02	1373.47
575.37	1368.86
575.72	1364.23
576.08	1360.89
576.43	1357.06
576.78	1353.31
577.13	1349.20
577.49	1345.56
577.84	1342.77
578.19	1339.45
578.54	1335.75
578.90	1332.80
579.25	1329.54
579.60	1326.13
579.95	1322.22
580.30	1318.30
580.66	1314.17
581.01	1309.82
581.36	1305.42
581.71	1301.75
582.06	1298.19
582.42	1294.53
582.77	1290.95
583.12	1287.70
583.47	1283.69
583.82	1280.36
584.17	1276.75
584.53	1273.50
584.88	1269.29
585.23	1265.00
585.58	1260.20
585.93	1255.40
586.28	1250.65
586.63	1245.53
586.98	1240.61
587.34	1236.49
587.69	1231.78
588.04	1227.94
588.39	1223.88
588.74	1219.73
589.09	1215.83
589.44	1210.87
589.79	1206.38
590.14	1202.10
590.49	1197.80
590.84	1193.66
591.19	1189.50
591.54	1185.17
591.89	1180.20
592.25	1177.23
592.60	1172.90
592.95	1169.02
593.30	1164.71
593.65	1160.06
594.00	1155.34
594.35	1153.78
594.70	1148.89
595.05	1144.73
595.40	1139.42
595.75	1134.36
596.10	1130.00
596.45	1125.11
596.80	1121.29
597.15	1116.69
597.50	1111.96
597.85	1107.37
598.19	1102.35
598.54	1097.02
598.89	1092.18
599.24	1088.17
599.59	1082.60
599.94	1077.74
600.29	1072.88
600.64	1068.37
600.99	1064.20
601.34	1060.37
601.69	1053.37
602.04	1049.47
602.39	1045.12
602.74	1041.57
603.08	1037.83
603.43	1034.02
603.78	1029.52
604.13	1024.72
604.48	1020.53
604.83	1015.88
605.18	1011.26
605.53	1006.89
605.87	1002.98
606.22	999.21
606.57	994.80
606.92	990.52
607.27	986.63
607.62	983.02
607.96	979.18
608.31	975.48
608.66	971.46
609.01	967.48
609.36	963.23
609.70	959.19
610.05	954.75
610.40	950.51
610.75	946.08
611.10	941.93
611.44	937.76
611.79	933.48
612.14	929.50
612.49	925.22
612.83	921.35
613.18	917.00
613.53	912.56
613.88	907.79
614.22	903.32
614.57	898.23
614.92	893.35
615.27	888.93
615.61	883.95
615.96	879.51
616.31	874.81
616.65	870.80
617.00	866.30
617.35	862.08
617.70	857.37
618.04	852.67
618.39	848.39
618.74	844.56
619.08	840.23
619.43	835.85
619.78	831.51
620.12	826.70
620.47	822.26
620.82	817.84
621.16	813.62
621.51	809.90
621.85	806.32
622.20	802.23
622.55	797.78
622.89	793.64
623.24	789.44
623.59	785.29
623.93	780.76
624.28	776.54
624.62	773.25
624.97	770.04
625.32	766.21
625.66	762.19
626.01	757.82
626.35	753.95
626.70	749.85
627.04	746.57
627.39	742.95
627.73	739.52
628.08	735.66
628.43	731.71
628.77	727.41
629.12	723.44
629.46	719.91
629.81	716.86
630.15	713.19
630.50	709.69
630.84	706.14
631.19	702.56
631.53	699.25
631.88	694.84
632.22	690.62
632.57	687.29
632.91	683.65
633.26	680.35
633.60	676.79
633.95	673.22
634.29	668.96
634.64	665.35
634.98	661.25
635.32	658.03
635.67	655.10
636.01	651.79
636.36	648.35
636.70	645.08
637.05	641.25
637.39	638.16
637.73	634.68
638.08	631.66
638.42	628.27
638.77	624.80
639.11	621.00
639.45	617.48
639.80	613.67
640.14	610.39
640.49	606.80
640.83	603.44
641.17	600.30
641.52	597.31
641.86	594.13
642.20	591.80
642.55	588.45
642.89	585.13
643.23	582.30
643.58	579.70
643.92	576.27
644.26	573.28
644.61	570.52
644.95	567.58
645.29	564.23
645.64	561.30
645.98	558.15
646.32	555.51
646.66	552.73
647.01	550.17
647.35	547.46
647.69	545.08
648.04	542.47
648.38	539.93
648.72	537.13
649.06	534.34
649.41	531.14
649.75	528.26
650.09	525.39
650.43	522.38
650.78	519.34
651.12	516.50
651.46	513.86
651.80	510.92
652.14	508.24
652.49	506.20
652.83	503.86
653.17	501.56
653.51	499.04
653.85	496.62
654.20	494.33
654.54	491.75
654.88	489.07
655.22	487.13
655.56	484.70
655.90	482.44
656.25	480.12
656.59	477.83
656.93	475.72
657.27	473.88
657.61	471.48
657.95	469.25
658.29	467.22
658.64	465.05
658.98	462.76
659.32	460.39
659.66	457.80
660.00	455.54
660.34	453.41
660.68	451.15
661.02	448.89
661.36	446.65
661.70	444.63
662.05	442.57
662.39	440.14
662.73	438.40
663.07	436.81
663.41	434.81
663.75	432.69
664.09	430.69
664.43	428.35
664.77	426.57
665.11	424.56
665.45	422.70
665.79	421.00
666.13	419.00
666.47	417.19
666.81	415.39
667.15	413.37
667.49	411.59
667.83	410.36
668.17	408.77
668.51	407.01
668.85	405.53
669.19	404.26
669.53	402.44
669.87	400.43
670.21	398.48
670.55	397.02
670.89	395.82
671.23	394.22
671.57	392.70
671.91	391.10
672.25	389.62
672.58	388.38
672.92	386.39
673.26	385.13
673.60	383.70
673.94	382.45
674.28	381.12
674.62	379.81
674.96	378.15
675.30	376.70
675.64	375.16
675.97	373.58
676.31	371.78
676.65	370.34
676.99	369.33
677.33	367.81
677.67	366.38
678.01	364.69
678.34	363.40
678.68	362.29
679.02	360.87
679.36	359.56
679.70	358.02
680.04	357.05
680.37	355.79
680.71	354.57
681.05	353.37
681.39	352.06
681.73	350.65
682.06	349.30
682.40	348.16
682.74	347.23
683.08	346.30
683.42	345.17
683.75	344.14
684.09	342.84
684.43	341.82
684.77	340.76
685.10	339.77
685.44	338.69
685.78	337.46
686.12	336.47
686.45	335.38
686.79	334.18
687.13	333.19
687.46	332.07
687.80	331.27
688.14	329.99
688.48	328.97
688.81	328.04
689.15	327.29
689.49	326.28
689.82	325.33
690.16	323.95
690.50	323.10
690.83	322.11
691.17	320.84
691.51	319.86
691.84	318.94
692.18	317.73
692.52	316.74
692.85	315.97
693.19	315.49
693.52	314.72
693.86	313.78
694.20	312.71
694.53	311.80
694.87	310.69
695.21	309.79
695.54	308.98
695.88	307.93
696.21	306.71
696.55	305.71
696.88	304.70
697.22	303.85
697.56	303.09
697.89	302.21
698.23	301.60
698.56	300.77
698.90	300.07
699.23	299.41
699.57	298.67
699.90	297.72
700.24	296.58
700.58	295.88
700.91	295.37
701.25	295.49
701.58	295.53
701.92	295.02
702.25	294.39
702.59	293.71
702.92	293.25
703.26	292.88
703.59	292.34
703.93	292.57
704.26	292.18
704.60	291.51
704.93	290.90
705.26	290.07
705.60	289.64
705.93	288.74
706.27	288.41
706.60	288.10
706.94	288.01
707.27	287.57
707.61	287.05
707.94	286.48
708.27	285.15
708.61	283.89
708.94	283.24
709.28	282.75
709.61	282.12
709.94	281.59
710.28	280.91
710.61	280.31
710.95	278.93
711.28	278.93
711.61	278.31
711.95	277.98
712.28	277.57
712.61	276.98
712.95	277.00
713.28	276.87
713.61	276.24
713.95	275.34
714.28	274.84
714.61	274.13
714.95	273.57
715.28	272.94
715.61	272.35
715.95	271.98
716.28	271.30
716.61	271.01
716.95	270.37
717.28	269.91
717.61	269.56
717.94	269.10
718.28	268.03
718.61	267.62
718.94	267.09
719.27	266.68
719.61	266.27
719.94	265.79
720.27	264.86
720.60	264.38
720.94	264.10
721.27	263.58
721.60	263.43
721.93	263.05
722.27	263.04
722.60	262.89
722.93	262.46
723.26	262.31
723.59	261.87
723.93	261.70
724.26	261.40
724.59	261.04
724.92	260.84
725.25	260.72
725.59	260.36
725.92	260.08
726.25	259.78
726.58	259.54
726.91	259.14
727.24	259.10
727.57	258.72
727.91	258.24
728.24	258.08
728.57	257.68
728.90	257.60
729.23	257.10
729.56	257.28
729.89	257.06
730.22	256.64
730.55	256.30
730.89	255.94
731.22	255.65
731.55	255.36
731.88	254.97
732.21	254.57
732.54	254.31
732.87	254.10
733.20	253.84
733.53	253.70
733.86	253.41
734.19	253.03
734.52	253.00
734.85	253.40
735.18	253.12
735.51	253.12
735.84	252.85
736.17	252.85
736.50	252.00
736.83	252.91
737.16	252.73
737.49	252.59
737.82	252.32
738.15	252.24
738.48	251.98
738.81	251.80
739.14	251.45
739.47	251.19
739.80	250.92
740.13	250.93
740.46	250.52
740.79	250.21
741.12	249.86
741.45	249.46
741.78	248.77
742.11	248.76
742.44	248.43
742.77	248.30
743.10	247.94
743.43	247.78
743.75	246.45
744.08	247.47
744.41	247.25
744.74	247.06
745.07	246.67
745.40	246.80
745.73	246.99
746.06	246.96
746.39	246.86
746.71	246.74
747.04	246.38
747.37	246.10
747.70	246.20
748.03	246.09
748.36	246.17
748.68	246.09
749.01	245.72
749.34	245.54
749.67	245.36
750.00	245.33
750.33	246.00
750.65	245.99
750.98	244.69
751.31	244.50
751.64	244.45
751.97	244.78
752.29	244.52
752.62	244.04
752.95	243.81
753.28	243.59
753.60	243.37
753.93	243.45
754.26	243.43
754.59	242.94
754.91	242.78
755.24	242.44
755.57	242.28
755.90	242.01
756.22	241.81
756.55	241.65
756.88	241.30
757.20	240.41
757.53	239.98
757.86	239.84
758.19	239.83
758.51	239.62
758.84	239.09
759.17	238.86
759.49	238.81
759.82	239.21
760.15	239.23
760.47	239.10
760.80	238.77
761.13	238.83
761.45	238.68
761.78	238.60
762.11	238.54
762.43	238.30
762.76	238.33
763.08	238.33
763.41	238.27
763.74	238.26
764.06	238.21
764.39	238.21
764.71	238.10
765.04	237.89
765.37	237.90
765.69	237.82
766.02	237.70
766.34	237.50
766.67	236.98
767.00	237.01
767.32	237.40
767.65	237.82
767.97	237.72
768.30	237.76
768.62	237.56
768.95	237.45
769.27	237.35
769.60	237.38
769.92	237.04
770.25	236.78
770.57	236.56
770.90	236.47
771.22	236.27
771.55	236.23
771.87	236.12
772.20	235.94
772.52	236.65
772.85	237.69
773.17	237.60
773.50	237.55
773.82	237.29
774.15	236.74
774.47	236.15
774.80	235.89
775.12	235.83
775.45	235.89
775.77	235.75
776.09	235.83
776.42	235.71
776.74	236.00
777.07	235.90
777.39	235.83
777.72	235.74
778.04	235.86
778.36	235.78
778.69	235.86
779.01	235.92
779.33	235.00
779.66	233.86
779.98	233.78
780.31	233.63
780.63	234.00
780.95	234.15
781.28	234.05
781.60	233.87
781.92	233.72
782.25	233.60
782.57	233.59
782.89	233.37
783.22	233.26
783.54	233.01
783.86	232.96
784.19	232.88
784.51	233.13
784.83	232.93
785.16	232.83
785.48	232.80
785.80	232.69
786.12	232.74
786.45	232.71
786.77	232.73
787.09	232.67
787.42	232.24
787.74	232.16
788.06	232.18
788.38	232.27
788.71	232.13
789.03	232.07
789.35	232.17
789.67	232.09
789.99	232.14
790.32	231.90
790.64	232.00
790.96	232.71
791.28	232.31
791.61	232.27
791.93	232.29
792.25	232.17
792.57	232.79
792.89	232.54
793.21	232.57
793.54	232.40
793.86	232.32
794.18	232.39
794.50	232.13
794.82	232.08
795.14	232.09
795.47	232.29
795.79	232.31
796.11	232.10
796.43	232.00
796.75	231.94
797.07	232.04
797.39	231.85
797.71	231.15
798.04	231.12
798.36	231.12
798.68	231.11
799.00	231.19
799.32	230.63
799.64	230.86
799.96	230.85
800.28	231.03
800.60	230.94
800.92	230.98
801.24	231.02
801.56	231.12
801.89	231.05
802.21	231.12
802.53	230.97
802.85	231.10
803.17	231.59
803.49	231.40
803.81	231.29
804.13	231.35
804.45	231.24
804.77	231.37
805.09	231.34
805.41	231.26
805.73	231.07
806.05	230.90
806.37	230.79
806.69	230.60
807.01	230.60
807.33	230.69
807.65	230.41
807.97	230.74
808.28	230.65
808.60	230.76
808.92	230.66
809.24	231.21
809.56	231.06
809.88	230.70
810.20	230.80
810.52	231.09
810.84	230.99
811.16	230.95
811.48	230.92
811.80	231.22
812.12	231.28
812.43	231.49
812.75	231.60
813.07	231.53
813.39	231.63
813.71	231.42
814.03	231.30
814.35	231.33
814.67	230.96
814.98	230.89
815.30	230.79
815.62	230.54
815.94	229.97
816.26	230.46
816.58	230.29
816.89	230.30
817.21	229.98
817.53	230.07
817.85	230.05
818.17	229.97
818.48	229.56
818.80	229.64
819.12	229.41
819.44	229.16
819.76	229.17
820.07	229.17
820.39	229.08
820.71	229.18
821.03	229.17
821.34	229.23
821.66	229.27
821.98	229.32
822.30	229.30
822.61	229.87
822.93	229.38
823.25	229.34
823.57	229.27
823.88	229.53
824.20	229.42
824.52	229.59
824.83	229.57
825.15	229.50
825.47	229.49
825.79	229.60
826.10	229.50
826.42	229.39
826.74	229.45
827.05	229.44
827.37	229.52
827.69	229.37
828.00	229.37
828.32	229.37
828.64	229.25
828.95	229.74
829.27	229.42
829.58	229.31
829.90	229.43
830.22	229.49
830.53	229.20
830.85	229.23
831.17	228.92
831.48	228.96
831.80	229.01
832.11	228.83
832.43	228.65
832.75	228.67
833.06	229.23
833.38	229.00
833.69	229.06
834.01	229.03
834.32	229.07
834.64	228.95
834.96	228.95
835.27	228.88
835.59	228.52
835.90	228.39
836.22	228.41
836.53	228.24
836.85	228.10
837.16	229.02
837.48	228.94
837.79	229.33
838.11	229.37
838.42	229.48
838.74	229.61
839.05	229.50
839.37	229.57
839.68	228.92
840.00	228.91
840.31	229.12
840.63	229.03
840.94	228.91
841.26	228.76
841.57	228.66
841.88	228.80
842.20	228.66
842.51	228.57
842.83	228.59
843.14	229.60
843.46	229.68
843.77	229.20
844.08	229.16
844.40	228.85
844.71	228.80
845.03	228.54
845.34	228.40
845.65	228.55
845.97	228.57
846.28	228.70
846.60	228.77
846.91	228.59
847.22	228.57
847.54	228.85
847.85	229.03
848.16	229.04
848.48	228.87
848.79	229.38
849.10	229.53
849.42	229.66
849.73	228.60
850.04	228.49
850.36	228.12
850.67	228.36
850.98	228.43
851.30	228.40
851.61	228.46
851.92	228.51
852.23	228.82
852.55	228.81
852.86	228.78
853.17	228.86
853.49	228.97
853.80	229.15
854.11	229.18
854.42	229.21
854.74	229.20
855.05	229.21
855.36	228.63
855.67	228.59
855.99	228.45
856.30	229.66
856.61	229.65
856.92	229.70
857.23	229.66
857.55	229.57
857.86	229.47
858.17	229.68
858.48	229.50
858.79	229.26
859.11	229.45
859.42	229.39
859.73	229.27
860.04	229.27
860.35	229.03
860.66	228.79
860.98	228.83
861.29	228.97
861.60	228.91
861.91	229.16
862.22	228.99
862.53	228.89
862.84	227.75
863.16	228.01
863.47	227.85
863.78	227.78
864.09	227.80
864.40	227.94
864.71	227.78
865.02	227.86
865.33	227.72
865.64	227.43
865.95	227.45
866.27	228.08
866.58	227.94
866.89	227.88
867.20	227.84
867.51	227.68
867.82	227.47
868.13	227.85
868.44	227.64
868.75	227.84
869.06	227.89
869.37	227.96
869.68	227.65
869.99	227.79
870.30	227.76
870.61	227.81
870.92	227.68
871.23	227.73
871.54	227.87
871.85	228.10
872.16	228.20
872.47	228.00
872.78	227.41
873.09	227.54
873.40	227.49
873.71	227.50
874.02	227.40
874.33	227.33
874.64	227.04
874.95	227.18
875.26	226.95
875.56	226.90
875.87	226.86
876.18	226.80
876.49	227.79
876.80	227.68
877.11	227.66
877.42	227.70
877.73	227.72
878.04	227.64
878.35	227.55
878.66	227.54
878.96	227.63
879.27	227.59
879.58	227.57
879.89	227.58
880.20	227.84
880.51	227.92
880.82	227.92
881.12	227.95
881.43	227.80
881.74	227.74
882.05	227.73
882.36	227.80
882.67	227.86
882.97	226.89
883.28	226.93
883.59	226.90
883.90	226.98
884.21	227.10
884.51	227.10
884.82	227.05
885.13	227.12
885.44	227.18
885.74	227.20
886.05	227.03
886.36	227.07
886.67	226.89
886.98	227.35
887.28	227.55
887.59	227.54
887.90	227.67
888.20	227.64
888.51	227.87
888.82	227.80
889.13	227.95
889.43	228.63
889.74	228.53
890.05	228.50
890.35	228.37
890.66	228.34
890.97	228.21
891.28	228.12
891.58	228.14
891.89	228.14
892.20	228.11
892.50	228.12
892.81	228.07
893.12	227.96
893.42	227.49
893.73	227.51
894.04	227.58
894.34	227.57
894.65	227.63
894.95	227.55
895.26	227.56
895.57	227.97
895.87	227.11
896.18	227.27
896.48	227.31
896.79	227.34
897.10	227.44
897.40	227.48
897.71	227.68
898.01	227.59
898.32	227.66
898.63	227.52
898.93	227.51
899.24	227.66
899.54	227.66
899.85	227.70
900.15	227.69
900.46	227.62
900.76	227.70
901.07	227.70
901.38	227.68
901.68	227.77
901.99	227.31
902.29	227.45
902.60	227.39
902.90	227.26
903.21	227.32
903.51	227.17
903.82	227.47
904.12	227.36
904.43	227.50
904.73	227.43
905.03	227.60
905.34	228.57
905.64	228.40
905.95	228.48
906.25	228.40
906.56	228.31
906.86	228.29
907.17	228.19
907.47	228.20
907.77	228.08
908.08	227.86
908.38	227.79
908.69	227.80
908.99	228.02
909.30	228.11
909.60	228.13
909.90	228.16
910.21	227.87
910.51	227.78
910.81	227.70
911.12	227.79
911.42	227.74
911.73	226.80
912.03	226.90
912.33	227.02
912.64	227.00
912.94	226.90
913.24	226.74
913.55	226.64
913.85	226.59
914.15	226.81
914.46	226.97
914.76	226.91
915.06	226.77
915.37	226.57
915.67	226.55
915.97	226.40
916.27	226.27
916.58	226.30
916.88	226.30
917.18	226.20
917.49	226.79
917.79	226.81
918.09	226.85
918.39	227.07
918.70	227.00
919.00	227.06
919.30	227.55
919.60	227.57
919.91	227.47
920.21	227.57
920.51	227.30
920.81	227.27
921.12	227.51
921.42	227.63
921.72	227.64
922.02	227.71
922.32	227.86
922.63	227.90
922.93	228.33
923.23	228.47
923.53	228.43
923.83	227.89
924.13	227.99
924.44	228.05
924.74	228.33
925.04	228.55
925.34	228.53
925.64	228.12
925.94	228.16
926.24	228.76
926.55	228.71
926.85	228.91
927.15	228.89
927.45	228.87
927.75	228.77
928.05	228.79
928.35	228.68
928.65	228.90
928.95	229.00
929.26	228.74
929.56	228.79
929.86	228.93
930.16	228.76
930.46	228.71
930.76	228.81
931.06	228.25
931.36	228.03
931.66	228.19
931.96	228.32
932.26	228.32
932.56	227.94
932.86	227.96
933.16	227.99
933.46	227.94
933.76	227.71
934.06	228.02
934.36	228.38
934.66	228.29
934.96	228.04
935.26	228.05
935.56	228.11
935.86	227.85
936.16	227.76
936.46	227.75
936.76	227.59
937.06	227.43
937.36	227.62
937.66	227.60
937.96	227.43
938.26	227.22
938.56	227.18
938.86	227.24
939.16	227.46
939.46	227.46
939.76	227.49
940.06	227.55
940.35	227.32
940.65	226.85
940.95	227.02
941.25	226.89
941.55	226.80
941.85	226.65
942.15	226.88
942.45	227.12
942.75	227.16
943.04	227.26
943.34	227.40
943.64	227.21
943.94	227.13
944.24	227.30
944.54	227.38
944.84	227.37
945.13	227.24
945.43	227.04
945.73	227.00
946.03	226.94
946.33	226.81
946.62	226.80
946.92	226.85
947.22	226.83
947.52	226.90
947.82	226.93
948.11	226.84
948.41	226.70
948.71	226.34
949.01	226.38
949.31	226.23
949.60	226.18
949.90	226.22
950.20	226.20
950.50	226.15
950.79	226.10
951.09	226.23
951.39	226.18
951.69	226.17
951.98	226.32
952.28	226.38
952.58	226.39
952.87	226.40
953.17	226.39
953.47	226.41
953.76	226.37
954.06	226.30
954.36	226.19
954.66	226.06
954.95	226.42
955.25	226.46
955.55	226.61
955.84	226.53
956.14	226.69
956.44	226.78
956.73	226.69
957.03	226.74
957.32	226.79
957.62	226.86
957.92	226.94
958.21	226.83
958.51	227.91
958.81	228.14
959.10	228.28
959.40	228.42
959.69	228.44
959.99	228.66
960.29	228.62
960.58	228.60
960.88	229.09
961.17	228.92
961.47	229.02
961.76	228.95
962.06	229.09
962.36	228.99
962.65	229.00
962.95	229.05
963.24	228.96
963.54	228.98
963.83	228.99
964.13	228.95
964.42	228.87
964.72	228.05
965.01	228.00
965.31	227.81
965.60	227.77
965.90	228.38
966.19	228.11
966.49	228.25
966.78	228.33
967.08	228.14
967.37	228.17
967.67	228.03
967.96	228.24
968.26	228.17
968.55	228.39
968.85	228.30
969.14	228.25
969.43	228.26
969.73	228.26
970.02	228.23
970.32	228.22
970.61	228.07
970.91	227.86
971.20	227.78
971.49	227.70
971.79	227.83
972.08	227.13
972.38	227.28
972.67	227.23
972.96	227.30
973.26	227.16
973.55	227.43
973.85	227.46
974.14	227.38
974.43	227.42
974.73	227.18
975.02	227.18
975.31	227.08
975.61	227.14
975.90	227.02
976.19	227.03
976.49	227.09
976.78	227.30
977.07	227.29
977.37	227.30
977.66	227.38
977.95	227.24
978.24	227.36
978.54	227.51
978.83	227.41
979.12	227.34
979.42	227.31
979.71	227.13
980.00	227.03
980.29	227.05
980.59	226.79
980.88	226.99
981.17	227.04
981.46	227.17
981.76	227.12
982.05	227.45
982.34	227.51
982.63	227.56
982.93	227.51
983.22	227.91
983.51	227.94
983.80	228.14
984.09	228.17
984.39	228.10
984.68	227.94
984.97	228.06
985.26	228.01
985.55	228.13
985.85	227.90
986.14	228.04
986.43	228.09
986.72	228.12
987.01	227.80
987.30	227.66
987.59	227.57
987.89	227.57
988.18	227.25
988.47	227.19
988.76	227.02
989.05	226.97
989.34	226.64
989.63	226.95
989.92	226.71
990.22	226.66
990.51	226.59
990.80	226.48
991.09	226.52
991.38	226.64
991.67	226.50
991.96	226.48
992.25	226.37
992.54	226.17
992.83	226.17
993.12	226.20
993.41	226.49
993.70	226.86
993.99	227.00
994.28	227.10
994.58	227.16
994.87	227.16
995.16	227.10
995.45	227.03
995.74	226.64
996.03	226.80
996.32	226.91
996.61	227.14
996.90	227.09
997.19	226.92
997.48	226.96
997.77	227.00
998.06	227.03
998.34	227.00
998.63	227.07
998.92	227.11
999.21	227.25
999.50	227.16
999.79	226.80
1000.08	226.72
1000.37	226.77
1000.66	226.71
1000.95	226.88
1001.24	226.94
1001.53	226.98
1001.82	226.92
1002.11	226.71
1002.40	226.78
1002.68	227.06
1002.97	227.84
1003.26	227.82
1003.55	227.56
1003.84	227.52
1004.13	227.86
1004.42	227.84
1004.71	227.73
1004.99	227.65
1005.28	227.95
1005.57	227.87
1005.86	227.80
1006.15	227.74
1006.44	227.60
1006.72	227.58
1007.01	227.44
1007.30	227.34
1007.59	227.37
1007.88	227.38
1008.17	227.46
1008.45	227.24
1008.74	226.71
1009.03	226.13
1009.32	226.16
1009.60	226.25
1009.89	226.24
1010.18	225.87
1010.47	225.88
1010.76	225.89
1011.04	225.92
1011.33	225.85
1011.62	225.87
1011.91	225.91
1012.19	226.00
1012.48	225.97
1012.77	226.03
1013.05	226.40
1013.34	226.50
1013.63	226.39
1013.92	226.40
1014.20	226.33
1014.49	226.40
1014.78	226.52
1015.06	226.30
1015.35	226.29
1015.64	226.36
1015.92	226.43
1016.21	226.56
1016.50	226.57
1016.78	226.71
1017.07	226.73
1017.36	226.50
1017.64	226.41
1017.93	226.51
1018.22	226.33
1018.50	226.32
1018.79	226.30
1019.08	225.88
1019.36	225.93
1019.65	225.89
1019.93	226.24
1020.22	226.45
1020.51	226.93
1020.79	226.80
1021.08	223.80
1021.36	224.90
1021.65	227.00
1021.94	225.90
1022.22	227.30
1022.51	224.30
1022.79	232.20
1023.08	229.00
1023.36	237.70
1023.65	224.00
>>>>>End Processed Spectral Data<<<<<
