SpectraSuite Data File
++++++++++++++++++++++++++++++++++++
Date: Wed Sep 04 17:31:38 EDT 2013
User: lab3
Dark Spectrum Present: Yes
Reference Spectrum Present: No
Number of Sampled Component Spectra: 1
Spectrometers: USB2E7196
Integration Time (usec): 337000 (USB2E7196)
Spectra Averaged: 10 (USB2E7196)
Boxcar Smoothing: 10 (USB2E7196)
Correct for Electrical Dark: No (USB2E7196)
Strobe/Lamp Enabled: No (USB2E7196)
Correct for Detector Non-linearity: No (USB2E7196)
Correct for Stray Light: No (USB2E7196)
Number of Pixels in Processed Spectrum: 2048
>>>>>Begin Processed Spectral Data<<<<<
339.09	0.00
339.48	211.60
339.86	213.00
340.24	215.50
340.63	216.70
341.01	232.80
341.39	218.30
341.78	221.90
342.16	225.70
342.54	221.90
342.93	212.67
343.31	223.36
343.69	224.00
344.07	224.46
344.46	225.06
344.84	225.50
345.22	225.24
345.60	225.66
345.99	225.83
346.37	225.88
346.75	226.00
347.13	226.04
347.52	226.14
347.90	226.51
348.28	226.56
348.66	226.80
349.05	226.62
349.43	226.70
349.81	226.89
350.19	226.90
350.57	226.94
350.96	226.98
351.34	227.11
351.72	227.20
352.10	227.38
352.48	227.24
352.87	227.22
353.25	227.12
353.63	227.11
354.01	227.06
354.39	227.10
354.77	227.20
355.15	227.51
355.54	227.48
355.92	227.25
356.30	227.31
356.68	227.94
357.06	227.98
357.44	227.90
357.82	227.90
358.20	228.81
358.58	228.92
358.97	229.10
359.35	229.32
359.73	229.45
360.11	229.52
360.49	229.67
360.87	229.77
361.25	229.91
361.63	230.33
362.01	230.50
362.39	230.50
362.77	230.64
363.15	230.63
363.53	230.71
363.91	230.79
364.29	230.75
364.67	229.86
365.05	229.95
365.43	230.04
365.81	230.15
366.19	229.84
366.57	230.23
366.95	230.18
367.33	229.97
367.71	230.02
368.09	230.28
368.47	230.30
368.85	230.36
369.23	230.62
369.61	230.23
369.99	230.58
370.37	230.77
370.75	231.26
371.13	230.99
371.51	230.84
371.89	230.81
372.27	230.90
372.65	231.06
373.03	231.04
373.41	230.99
373.78	230.83
374.16	230.30
374.54	230.01
374.92	229.89
375.30	229.88
375.68	229.62
376.06	229.61
376.44	229.53
376.82	229.46
377.19	229.39
377.57	229.27
377.95	228.97
378.33	228.79
378.71	228.15
379.09	228.30
379.47	228.46
379.84	228.35
380.22	228.16
380.60	227.86
380.98	227.79
381.36	227.64
381.73	227.55
382.11	227.69
382.49	227.63
382.87	227.50
383.25	227.47
383.62	228.65
384.00	228.29
384.38	228.25
384.76	228.52
385.13	228.74
385.51	228.82
385.89	228.52
386.27	228.49
386.64	228.62
387.02	228.45
387.40	228.22
387.78	228.31
388.15	228.36
388.53	228.32
388.91	228.32
389.29	228.22
389.66	228.38
390.04	228.19
390.42	228.29
390.79	228.30
391.17	228.23
391.55	227.05
391.92	227.02
392.30	227.12
392.68	226.82
393.05	226.63
393.43	226.60
393.81	226.77
394.18	226.67
394.56	226.70
394.94	226.97
395.31	226.92
395.69	227.22
396.06	227.40
396.44	227.51
396.82	227.42
397.19	227.97
397.57	227.77
397.95	228.00
398.32	227.89
398.70	228.05
399.07	228.33
399.45	228.45
399.82	228.48
400.20	228.42
400.58	228.43
400.95	228.16
401.33	228.48
401.70	229.20
402.08	229.45
402.45	229.42
402.83	229.77
403.20	230.03
403.58	230.01
403.95	230.33
404.33	230.66
404.71	231.00
405.08	231.82
405.46	232.19
405.83	232.59
406.21	232.80
406.58	233.10
406.96	233.48
407.33	233.91
407.70	234.49
408.08	235.79
408.45	236.41
408.83	237.27
409.20	237.68
409.58	237.68
409.95	238.44
410.33	239.22
410.70	239.51
411.08	240.38
411.45	241.10
411.82	241.77
412.20	242.94
412.57	244.38
412.95	244.40
413.32	245.70
413.69	246.63
414.07	247.94
414.44	249.35
414.82	250.61
415.19	252.29
415.56	254.01
415.94	255.10
416.31	257.20
416.68	259.10
417.06	261.35
417.43	263.72
417.81	266.02
418.18	268.53
418.55	271.19
418.93	273.97
419.30	276.92
419.67	280.03
420.04	283.03
420.42	286.10
420.79	290.66
421.16	294.37
421.54	298.82
421.91	303.00
422.28	307.20
422.66	311.74
423.03	316.67
423.40	321.20
423.77	326.10
424.15	331.02
424.52	336.12
424.89	342.05
425.26	347.33
425.64	352.67
426.01	358.44
426.38	364.51
426.75	370.94
427.13	377.43
427.50	384.00
427.87	390.84
428.24	397.81
428.61	403.96
428.99	411.69
429.36	419.24
429.73	426.99
430.10	434.91
430.47	443.04
430.85	450.78
431.22	459.43
431.59	469.38
431.96	478.28
432.33	488.25
432.70	497.54
433.08	508.90
433.45	519.47
433.82	530.25
434.19	542.23
434.56	553.98
434.93	565.02
435.30	576.35
435.68	588.90
436.05	601.22
436.42	613.22
436.79	624.60
437.16	636.84
437.53	649.43
437.90	661.97
438.27	674.56
438.64	687.74
439.01	700.26
439.38	710.71
439.75	721.31
440.13	733.37
440.50	744.81
440.87	754.19
441.24	763.70
441.61	774.35
441.98	782.11
442.35	790.55
442.72	799.68
443.09	808.84
443.46	814.32
443.83	818.01
444.20	821.65
444.57	825.92
444.94	828.20
445.31	830.90
445.68	833.98
446.05	834.97
446.42	833.55
446.79	832.12
447.16	830.25
447.53	829.26
447.90	824.53
448.27	819.75
448.64	813.23
449.01	808.74
449.37	800.30
449.74	792.06
450.11	783.29
450.48	772.55
450.85	761.19
451.22	751.60
451.59	742.67
451.96	733.82
452.33	722.49
452.70	712.32
453.07	699.74
453.43	686.38
453.80	674.47
454.17	663.23
454.54	652.34
454.91	640.83
455.28	629.14
455.65	618.46
456.02	609.24
456.38	600.16
456.75	588.94
457.12	579.48
457.49	570.48
457.86	561.02
458.23	553.70
458.59	545.57
458.96	537.40
459.33	529.88
459.70	522.68
460.07	516.70
460.43	509.89
460.80	503.80
461.17	498.50
461.54	492.53
461.91	486.96
462.27	481.12
462.64	476.45
463.01	471.35
463.38	466.60
463.74	460.09
464.11	455.48
464.48	451.68
464.85	447.32
465.21	444.30
465.58	441.00
465.95	436.74
466.32	433.34
466.68	429.87
467.05	426.59
467.42	423.25
467.78	419.70
468.15	416.30
468.52	414.02
468.88	410.81
469.25	407.99
469.62	405.86
469.98	403.45
470.35	400.95
470.72	398.77
471.08	396.13
471.45	394.49
471.82	392.87
472.18	390.67
472.55	389.19
472.92	387.02
473.28	385.16
473.65	383.55
474.02	381.88
474.38	380.54
474.75	379.40
475.11	377.94
475.48	376.95
475.85	375.89
476.21	374.58
476.58	373.70
476.94	373.05
477.31	372.18
477.67	371.51
478.04	371.03
478.41	370.48
478.77	370.89
479.14	370.17
479.50	369.58
479.87	369.21
480.23	368.93
480.60	368.55
480.96	368.36
481.33	368.63
481.69	368.58
482.06	368.76
482.42	368.84
482.79	368.91
483.15	368.89
483.52	369.33
483.88	369.72
484.25	369.78
484.61	370.13
484.98	370.32
485.34	371.12
485.71	371.64
486.07	372.27
486.44	372.14
486.80	372.76
487.17	373.52
487.53	374.70
487.90	375.71
488.26	377.33
488.62	378.66
488.99	379.60
489.35	381.11
489.72	382.23
490.08	383.44
490.44	385.03
490.81	386.96
491.17	388.59
491.54	390.28
491.90	392.44
492.26	394.27
492.63	396.53
492.99	398.27
493.36	400.54
493.72	403.04
494.08	405.46
494.45	408.02
494.81	410.86
495.17	413.31
495.54	416.21
495.90	418.58
496.26	421.27
496.63	424.08
496.99	426.74
497.35	429.69
497.72	432.77
498.08	435.72
498.44	438.90
498.80	442.29
499.17	445.57
499.53	448.72
499.89	452.27
500.26	455.63
500.62	459.14
500.98	462.88
501.34	466.36
501.71	470.07
502.07	473.61
502.43	476.80
502.79	480.38
503.16	483.80
503.52	487.43
503.88	491.00
504.24	495.01
504.60	498.92
504.97	503.06
505.33	506.84
505.69	511.26
506.05	515.14
506.41	519.01
506.78	522.67
507.14	526.68
507.50	530.62
507.86	534.68
508.22	538.64
508.59	542.24
508.95	546.15
509.31	550.32
509.67	554.35
510.03	558.28
510.39	562.16
510.75	566.10
511.12	570.09
511.48	573.78
511.84	577.32
512.20	580.95
512.56	584.40
512.92	588.15
513.28	591.60
513.64	594.89
514.00	598.32
514.37	602.18
514.73	605.86
515.09	609.56
515.45	613.00
515.81	616.58
516.17	620.23
516.53	623.66
516.89	626.74
517.25	630.30
517.61	634.49
517.97	638.06
518.33	641.85
518.69	645.71
519.05	649.59
519.41	653.65
519.77	658.13
520.13	662.19
520.49	666.12
520.85	672.79
521.21	677.35
521.57	681.40
521.93	685.25
522.29	688.95
522.65	692.31
523.01	696.05
523.37	699.50
523.73	703.28
524.09	706.95
524.45	710.80
524.81	714.65
525.17	718.22
525.53	722.31
525.89	726.03
526.25	729.76
526.61	733.35
526.97	737.19
527.33	740.80
527.68	745.64
528.04	749.80
528.40	751.12
528.76	755.25
529.12	759.51
529.48	764.05
529.84	768.63
530.20	773.80
530.56	778.98
530.91	784.00
531.27	789.07
531.63	794.50
531.99	799.38
532.35	804.23
532.71	809.44
533.07	814.72
533.42	820.96
533.78	826.13
534.14	832.34
534.50	837.74
534.86	843.40
535.21	847.97
535.57	853.69
535.93	859.05
536.29	864.71
536.65	870.42
537.00	875.98
537.36	881.45
537.72	886.58
538.08	892.11
538.44	897.67
538.79	903.06
539.15	908.19
539.51	913.93
539.87	919.53
540.22	924.80
540.58	930.45
540.94	934.80
541.29	940.07
541.65	944.98
542.01	950.47
542.37	955.54
542.72	960.45
543.08	964.71
543.44	969.95
543.79	974.19
544.15	979.32
544.51	984.52
544.87	989.27
545.22	993.94
545.58	998.24
545.94	1002.48
546.29	1006.99
546.65	1011.25
547.01	1015.21
547.36	1019.60
547.72	1023.84
548.07	1027.47
548.43	1031.54
548.79	1036.01
549.14	1039.54
549.50	1043.20
549.86	1047.00
550.21	1051.04
550.57	1055.37
550.92	1058.68
551.28	1062.66
551.64	1065.93
551.99	1069.55
552.35	1073.30
552.70	1076.83
553.06	1080.68
553.41	1084.45
553.77	1088.32
554.13	1092.19
554.48	1095.99
554.84	1099.54
555.19	1102.95
555.55	1107.46
555.90	1110.63
556.26	1113.03
556.61	1115.95
556.97	1118.12
557.32	1120.71
557.68	1123.53
558.03	1126.12
558.39	1129.11
558.74	1131.87
559.10	1134.13
559.45	1136.14
559.81	1138.05
560.16	1140.15
560.52	1141.84
560.87	1144.10
561.23	1145.63
561.58	1148.04
561.94	1149.68
562.29	1150.88
562.64	1152.26
563.00	1152.43
563.35	1153.98
563.71	1155.82
564.06	1157.32
564.42	1159.09
564.77	1160.78
565.12	1162.31
565.48	1164.66
565.83	1166.39
566.19	1167.45
566.54	1168.88
566.89	1169.79
567.25	1171.16
567.60	1172.82
567.96	1174.92
568.31	1176.59
568.66	1177.57
569.02	1177.63
569.37	1177.99
569.72	1178.97
570.08	1179.38
570.43	1179.81
570.78	1179.86
571.14	1179.70
571.49	1179.70
571.84	1179.66
572.20	1179.02
572.55	1178.47
572.90	1176.79
573.26	1175.58
573.61	1174.51
573.96	1173.63
574.31	1172.76
574.67	1171.46
575.02	1169.51
575.37	1167.25
575.72	1164.54
576.08	1162.72
576.43	1160.79
576.78	1158.91
577.13	1156.64
577.49	1154.78
577.84	1153.11
578.19	1151.60
578.54	1150.04
578.90	1148.60
579.25	1146.89
579.60	1145.16
579.95	1142.71
580.30	1140.79
580.66	1138.35
581.01	1136.09
581.36	1133.27
581.71	1130.74
582.06	1128.75
582.42	1126.50
582.77	1123.90
583.12	1122.00
583.47	1119.81
583.82	1117.80
584.17	1115.80
584.53	1113.96
584.88	1110.85
585.23	1108.20
585.58	1104.91
585.93	1101.68
586.28	1098.21
586.63	1094.92
586.98	1091.52
587.34	1088.84
587.69	1085.48
588.04	1082.67
588.39	1079.91
588.74	1076.74
589.09	1074.15
589.44	1070.33
589.79	1067.28
590.14	1064.23
590.49	1060.75
590.84	1057.46
591.19	1054.51
591.54	1050.97
591.89	1047.03
592.25	1045.43
592.60	1042.10
592.95	1039.24
593.30	1036.14
593.65	1033.18
594.00	1029.58
594.35	1029.13
594.70	1025.18
595.05	1022.11
595.40	1018.53
595.75	1014.88
596.10	1011.38
596.45	1007.54
596.80	1004.46
597.15	1000.95
597.50	997.19
597.85	994.07
598.19	990.26
598.54	986.03
598.89	982.21
599.24	979.03
599.59	974.66
599.94	970.84
600.29	967.19
600.64	963.65
600.99	959.96
601.34	956.91
601.69	950.32
602.04	947.32
602.39	943.68
602.74	940.52
603.08	937.36
603.43	934.42
603.78	930.90
604.13	927.29
604.48	923.93
604.83	920.36
605.18	916.50
605.53	913.06
605.87	909.65
606.22	906.70
606.57	902.96
606.92	899.06
607.27	895.91
607.62	892.57
607.96	889.29
608.31	885.90
608.66	882.56
609.01	879.40
609.36	875.66
609.70	872.17
610.05	868.37
610.40	864.80
610.75	860.97
611.10	857.43
611.44	853.55
611.79	849.69
612.14	846.15
612.49	842.28
612.83	838.79
613.18	835.33
613.53	831.70
613.88	828.06
614.22	824.34
614.57	820.39
614.92	816.21
615.27	812.48
615.61	808.44
615.96	804.70
616.31	800.92
616.65	797.64
617.00	793.85
617.35	790.19
617.70	786.15
618.04	782.50
618.39	778.90
618.74	776.01
619.08	772.24
619.43	768.61
619.78	765.02
620.12	761.08
620.47	757.10
620.82	753.17
621.16	749.51
621.51	746.58
621.85	742.98
622.20	739.60
622.55	735.90
622.89	732.70
623.24	729.16
623.59	725.62
623.93	721.88
624.28	718.51
624.62	716.03
624.97	713.27
625.32	709.88
625.66	706.47
626.01	702.50
626.35	699.46
626.70	696.12
627.04	693.32
627.39	689.83
627.73	686.93
628.08	683.79
628.43	680.16
628.77	676.30
629.12	673.08
629.46	670.03
629.81	667.23
630.15	664.03
630.50	660.97
630.84	657.99
631.19	655.05
631.53	651.93
631.88	647.72
632.22	644.22
632.57	641.65
632.91	638.51
633.26	635.85
633.60	632.68
633.95	629.45
634.29	625.80
634.64	623.16
634.98	619.48
635.32	616.52
635.67	614.04
636.01	611.27
636.36	608.18
636.70	605.47
637.05	602.22
637.39	599.18
637.73	596.19
638.08	593.50
638.42	590.40
638.77	587.46
639.11	584.36
639.45	580.98
639.80	577.57
640.14	574.53
640.49	571.28
640.83	568.37
641.17	565.91
641.52	563.18
641.86	560.25
642.20	558.28
642.55	555.46
642.89	552.84
643.23	550.20
643.58	547.92
643.92	544.96
644.26	542.27
644.61	540.17
644.95	537.54
645.29	534.62
645.64	532.32
645.98	529.67
646.32	527.57
646.66	525.13
647.01	522.57
647.35	520.42
647.69	518.32
648.04	516.17
648.38	513.69
648.72	511.60
649.06	509.12
649.41	506.36
649.75	503.94
650.09	501.46
650.43	499.09
650.78	496.37
651.12	493.97
651.46	491.71
651.80	489.11
652.14	486.64
652.49	484.70
652.83	482.30
653.17	480.15
653.51	477.53
653.85	475.68
654.20	473.75
654.54	471.34
654.88	468.91
655.22	466.98
655.56	464.60
655.90	462.39
656.25	460.39
656.59	458.46
656.93	456.43
657.27	454.64
657.61	452.36
657.95	450.60
658.29	448.69
658.64	446.82
658.98	444.72
659.32	442.46
659.66	440.26
660.00	438.34
660.34	436.29
660.68	434.59
661.02	432.60
661.36	430.47
661.70	428.70
662.05	426.83
662.39	424.83
662.73	423.33
663.07	421.96
663.41	420.09
663.75	418.14
664.09	416.31
664.43	414.28
664.77	412.56
665.11	410.58
665.45	408.87
665.79	407.19
666.13	405.40
666.47	403.71
666.81	401.95
667.15	399.90
667.49	398.43
667.83	397.22
668.17	395.56
668.51	394.11
668.85	392.68
669.19	391.77
669.53	390.02
669.87	388.41
670.21	386.51
670.55	385.25
670.89	384.19
671.23	382.77
671.57	381.23
671.91	379.83
672.25	378.40
672.58	377.14
672.92	375.36
673.26	374.08
673.60	373.07
673.94	371.89
674.28	370.89
674.62	369.65
674.96	367.97
675.30	366.63
675.64	365.40
675.97	363.94
676.31	362.18
676.65	360.84
676.99	359.83
677.33	358.29
677.67	357.07
678.01	355.30
678.34	354.08
678.68	353.02
679.02	351.79
679.36	350.75
679.70	349.47
680.04	348.43
680.37	347.23
680.71	346.00
681.05	344.79
681.39	343.60
681.73	342.33
682.06	341.22
682.40	340.21
682.74	339.14
683.08	338.31
683.42	337.07
683.75	336.21
684.09	334.99
684.43	334.10
684.77	332.98
685.10	332.01
685.44	331.14
685.78	330.06
686.12	329.01
686.45	328.00
686.79	326.94
687.13	326.14
687.46	325.24
687.80	324.45
688.14	323.52
688.48	322.52
688.81	321.80
689.15	321.06
689.49	320.05
689.82	319.22
690.16	318.15
690.50	317.47
690.83	316.39
691.17	315.20
691.51	314.52
691.84	313.76
692.18	312.90
692.52	311.92
692.85	311.20
693.19	310.73
693.52	309.83
693.86	308.94
694.20	308.11
694.53	307.32
694.87	306.38
695.21	305.41
695.54	304.63
695.88	303.69
696.21	302.60
696.55	301.77
696.88	300.82
697.22	299.98
697.56	299.26
697.89	298.57
698.23	297.96
698.56	297.09
698.90	296.34
699.23	295.67
699.57	295.07
699.90	294.17
700.24	293.18
700.58	292.54
700.91	291.97
701.25	291.94
701.58	291.87
701.92	291.52
702.25	291.10
702.59	290.48
702.92	289.99
703.26	289.57
703.59	288.98
703.93	289.21
704.26	288.67
704.60	288.10
704.93	287.39
705.26	286.84
705.60	286.32
705.93	285.67
706.27	285.23
706.60	284.76
706.94	284.71
707.27	284.21
707.61	283.88
707.94	283.37
708.27	282.03
708.61	280.86
708.94	280.14
709.28	279.65
709.61	279.07
709.94	278.45
710.28	277.91
710.61	277.54
710.95	276.10
711.28	276.11
711.61	275.39
711.95	275.06
712.28	274.38
712.61	273.90
712.95	273.83
713.28	273.77
713.61	273.23
713.95	272.41
714.28	271.92
714.61	271.30
714.95	270.78
715.28	270.28
715.61	269.77
715.95	269.37
716.28	268.73
716.61	268.35
716.95	267.71
717.28	267.22
717.61	266.66
717.94	266.29
718.28	265.20
718.61	264.88
718.94	264.39
719.27	264.05
719.61	263.66
719.94	262.97
720.27	262.15
720.60	261.73
720.94	261.27
721.27	260.90
721.60	260.71
721.93	260.36
722.27	260.40
722.60	260.28
722.93	259.80
723.26	259.49
723.59	259.14
723.93	259.16
724.26	258.93
724.59	258.54
724.92	258.42
725.25	258.57
725.59	258.31
725.92	258.08
726.25	257.94
726.58	257.64
726.91	257.48
727.24	257.33
727.57	256.95
727.91	256.63
728.24	256.48
728.57	256.19
728.90	256.11
729.23	255.51
729.56	255.65
729.89	255.35
730.22	255.09
730.55	254.77
730.89	254.51
731.22	254.18
731.55	253.90
731.88	253.57
732.21	253.02
732.54	252.75
732.87	252.57
733.20	252.28
733.53	252.11
733.86	251.86
734.19	251.50
734.52	251.62
734.85	252.04
735.18	251.74
735.51	251.69
735.84	251.48
736.17	251.38
736.50	250.60
736.83	251.67
737.16	251.46
737.49	251.29
737.82	250.89
738.15	250.77
738.48	250.71
738.81	250.45
739.14	250.25
739.47	249.95
739.80	249.73
740.13	249.64
740.46	249.26
740.79	248.91
741.12	248.67
741.45	248.23
741.78	247.49
742.11	247.51
742.44	247.07
742.77	246.95
743.10	246.83
743.43	246.62
743.75	245.26
744.08	246.29
744.41	246.03
744.74	245.79
745.07	245.49
745.40	245.43
745.73	245.67
746.06	245.48
746.39	245.49
746.71	245.29
747.04	245.01
747.37	244.85
747.70	244.90
748.03	244.80
748.36	244.78
748.68	244.61
749.01	244.23
749.34	244.22
749.67	244.00
750.00	243.91
750.33	244.50
750.65	244.52
750.98	243.25
751.31	243.14
751.64	243.10
751.97	243.49
752.29	243.28
752.62	242.69
752.95	242.52
753.28	242.27
753.60	241.98
753.93	242.10
754.26	242.17
754.59	241.78
754.91	241.54
755.24	241.21
755.57	241.12
755.90	240.95
756.22	240.69
756.55	240.40
756.88	240.12
757.20	239.36
757.53	238.94
757.86	238.85
758.19	239.00
758.51	238.85
758.84	238.29
759.17	238.09
759.49	238.11
759.82	238.53
760.15	238.52
760.47	238.41
760.80	237.98
761.13	237.97
761.45	237.85
761.78	237.75
762.11	237.77
762.43	237.65
762.76	237.61
763.08	237.63
763.41	237.64
763.74	237.60
764.06	237.59
764.39	237.55
764.71	237.40
765.04	237.12
765.37	237.00
765.69	236.87
766.02	236.77
766.34	236.62
766.67	236.10
767.00	236.19
767.32	236.76
767.65	237.32
767.97	237.15
768.30	237.18
768.62	237.17
768.95	236.98
769.27	236.93
769.60	236.90
769.92	236.60
770.25	236.38
770.57	236.12
770.90	236.02
771.22	235.96
771.55	235.95
771.87	235.97
772.20	235.90
772.52	236.62
772.85	237.75
773.17	237.72
773.50	237.55
773.82	237.31
774.15	236.77
774.47	236.08
774.80	235.90
775.12	235.78
775.45	235.66
775.77	235.63
776.09	235.65
776.42	235.71
776.74	236.02
777.07	236.00
777.39	236.03
777.72	235.86
778.04	235.89
778.36	235.80
778.69	235.65
779.01	235.71
779.33	234.83
779.66	233.76
779.98	233.61
780.31	233.67
780.63	234.07
780.95	234.21
781.28	234.22
781.60	234.01
781.92	233.89
782.25	233.83
782.57	233.81
782.89	233.62
783.22	233.41
783.54	233.06
783.86	233.09
784.19	233.00
784.51	233.21
784.83	233.05
785.16	232.85
785.48	232.86
785.80	232.76
786.12	232.86
786.45	232.73
786.77	232.89
787.09	232.74
787.42	232.21
787.74	232.16
788.06	232.13
788.38	232.20
788.71	232.20
789.03	232.20
789.35	232.24
789.67	232.05
789.99	232.01
790.32	231.90
790.64	231.92
790.96	232.63
791.28	232.25
791.61	232.19
791.93	232.39
792.25	232.25
792.57	232.89
792.89	232.61
793.21	232.60
793.54	232.35
793.86	232.31
794.18	232.44
794.50	232.22
794.82	232.19
795.14	232.27
795.47	232.33
795.79	232.36
796.11	232.07
796.43	232.13
796.75	232.19
797.07	232.23
797.39	232.20
797.71	231.53
798.04	231.63
798.36	231.65
798.68	231.50
799.00	231.60
799.32	231.03
799.64	231.26
799.96	231.27
800.28	231.42
800.60	231.31
800.92	231.32
801.24	231.28
801.56	231.42
801.89	231.27
802.21	231.22
802.53	231.00
802.85	231.36
803.17	231.73
803.49	231.48
803.81	231.42
804.13	231.33
804.45	231.19
804.77	231.31
805.09	231.34
805.41	231.20
805.73	230.92
806.05	230.80
806.37	230.77
806.69	230.66
807.01	230.61
807.33	230.76
807.65	230.42
807.97	230.86
808.28	230.60
808.60	230.63
808.92	230.59
809.24	231.17
809.56	230.91
809.88	230.58
810.20	230.57
810.52	230.66
810.84	230.49
811.16	230.40
811.48	230.35
811.80	230.70
812.12	230.81
812.43	231.10
812.75	231.16
813.07	231.02
813.39	231.01
813.71	230.80
814.03	230.71
814.35	230.74
814.67	230.37
814.98	230.44
815.30	230.36
815.62	230.22
815.94	229.58
816.26	229.93
816.58	229.70
816.89	229.87
817.21	229.69
817.53	229.82
817.85	229.84
818.17	229.65
818.48	229.34
818.80	229.60
819.12	229.36
819.44	229.14
819.76	229.03
820.07	229.15
820.39	229.16
820.71	229.20
821.03	229.21
821.34	229.05
821.66	229.13
821.98	229.23
822.30	229.27
822.61	229.94
822.93	229.50
823.25	229.59
823.57	229.50
823.88	229.81
824.20	229.78
824.52	229.98
824.83	229.99
825.15	229.81
825.47	229.62
825.79	229.74
826.10	229.70
826.42	229.74
826.74	229.75
827.05	229.81
827.37	229.79
827.69	229.72
828.00	229.82
828.32	229.70
828.64	229.61
828.95	230.10
829.27	229.67
829.58	229.65
829.90	229.82
830.22	229.83
830.53	229.52
830.85	229.51
831.17	229.22
831.48	229.33
831.80	229.32
832.11	229.26
832.43	229.14
832.75	229.20
833.06	229.75
833.38	229.46
833.69	229.35
834.01	229.39
834.32	229.37
834.64	229.24
834.96	229.26
835.27	229.22
835.59	228.80
835.90	228.73
836.22	228.75
836.53	228.48
836.85	228.28
837.16	229.21
837.48	229.10
837.79	229.47
838.11	229.37
838.42	229.34
838.74	229.44
839.05	229.43
839.37	229.33
839.68	228.67
840.00	228.62
840.31	228.80
840.63	228.70
840.94	228.64
841.26	228.55
841.57	228.55
841.88	228.68
842.20	228.60
842.51	228.36
842.83	228.42
843.14	229.31
843.46	229.45
843.77	228.96
844.08	228.92
844.40	228.55
844.71	228.54
845.03	228.48
845.34	228.35
845.65	228.30
845.97	228.27
846.28	228.33
846.60	228.44
846.91	228.31
847.22	228.20
847.54	228.49
847.85	228.59
848.16	228.49
848.48	228.27
848.79	228.52
849.10	228.74
849.42	228.76
849.73	227.89
850.04	227.89
850.36	227.48
850.67	227.74
850.98	227.76
851.30	227.89
851.61	227.85
851.92	227.86
852.23	228.12
852.55	228.28
852.86	228.41
853.17	228.39
853.49	228.49
853.80	228.70
854.11	228.76
854.42	228.91
854.74	228.86
855.05	228.96
855.36	228.70
855.67	228.67
855.99	228.69
856.30	229.83
856.61	229.75
856.92	229.89
857.23	229.75
857.55	229.71
857.86	229.56
858.17	229.76
858.48	229.61
858.79	229.43
859.11	229.42
859.42	229.35
859.73	229.31
860.04	229.38
860.35	229.13
860.66	228.78
860.98	228.68
861.29	228.88
861.60	228.76
861.91	228.94
862.22	228.88
862.53	228.58
862.84	227.40
863.16	227.69
863.47	227.44
863.78	227.40
864.09	227.53
864.40	227.68
864.71	227.65
865.02	227.75
865.33	227.59
865.64	227.45
865.95	227.43
866.27	228.00
866.58	227.78
866.89	227.92
867.20	227.89
867.51	227.76
867.82	227.52
868.13	227.84
868.44	227.53
868.75	227.69
869.06	227.85
869.37	227.91
869.68	227.59
869.99	227.73
870.30	227.70
870.61	227.79
870.92	227.50
871.23	227.40
871.54	227.50
871.85	227.69
872.16	227.78
872.47	227.66
872.78	227.09
873.09	227.19
873.40	227.01
873.71	227.11
874.02	227.24
874.33	227.22
874.64	227.01
874.95	227.15
875.26	226.91
875.56	226.83
875.87	226.77
876.18	226.77
876.49	227.68
876.80	227.65
877.11	227.38
877.42	227.49
877.73	227.38
878.04	227.28
878.35	227.36
878.66	227.37
878.96	227.32
879.27	227.28
879.58	227.30
879.89	227.23
880.20	227.47
880.51	227.30
880.82	227.35
881.12	227.32
881.43	227.22
881.74	227.13
882.05	227.10
882.36	227.23
882.67	227.28
882.97	226.31
883.28	226.31
883.59	226.30
883.90	226.39
884.21	226.80
884.51	226.70
884.82	226.60
885.13	226.55
885.44	226.63
885.74	226.64
886.05	226.59
886.36	226.76
886.67	226.48
886.98	227.09
887.28	227.16
887.59	227.23
887.90	227.34
888.20	227.44
888.51	227.67
888.82	227.53
889.13	227.50
889.43	228.37
889.74	228.28
890.05	228.47
890.35	228.39
890.66	228.08
890.97	228.10
891.28	227.92
891.58	228.08
891.89	228.04
892.20	227.90
892.50	227.78
892.81	227.72
893.12	227.63
893.42	227.11
893.73	227.30
894.04	227.26
894.34	227.24
894.65	227.19
894.95	227.11
895.26	227.20
895.57	227.70
895.87	226.74
896.18	226.96
896.48	226.99
896.79	226.97
897.10	227.06
897.40	227.18
897.71	227.38
898.01	227.29
898.32	227.46
898.63	227.58
898.93	227.71
899.24	227.75
899.54	227.75
899.85	227.65
900.15	227.50
900.46	227.57
900.76	227.76
901.07	227.74
901.38	227.76
901.68	227.84
901.99	227.46
902.29	227.49
902.60	227.34
902.90	227.25
903.21	227.31
903.51	227.33
903.82	227.43
904.12	227.34
904.43	227.39
904.73	227.37
905.03	227.47
905.34	228.31
905.64	228.23
905.95	228.25
906.25	228.20
906.56	228.09
906.86	228.00
907.17	227.93
907.47	228.04
907.77	227.87
908.08	227.71
908.38	227.80
908.69	227.91
908.99	228.05
909.30	227.96
909.60	227.90
909.90	227.97
910.21	227.67
910.51	227.59
910.81	227.58
911.12	227.60
911.42	227.64
911.73	226.71
912.03	226.79
912.33	226.96
912.64	226.99
912.94	226.95
913.24	226.88
913.55	226.70
913.85	226.66
914.15	226.90
914.46	227.00
914.76	226.80
915.06	226.72
915.37	226.61
915.67	226.60
915.97	226.59
916.27	226.34
916.58	226.47
916.88	226.54
917.18	226.41
917.49	227.04
917.79	226.93
918.09	227.02
918.39	227.34
918.70	227.37
919.00	227.49
919.30	227.93
919.60	227.79
919.91	227.68
920.21	227.67
920.51	227.47
920.81	227.38
921.12	227.64
921.42	227.64
921.72	227.67
922.02	227.81
922.32	228.00
922.63	228.08
922.93	228.58
923.23	228.62
923.53	228.70
923.83	228.13
924.13	228.29
924.44	228.32
924.74	228.40
925.04	228.56
925.34	228.53
925.64	228.21
925.94	228.22
926.24	228.68
926.55	228.56
926.85	228.74
927.15	228.74
927.45	228.76
927.75	228.82
928.05	228.89
928.35	228.88
928.65	229.04
928.95	229.14
929.26	228.80
929.56	228.85
929.86	228.90
930.16	228.79
930.46	228.70
930.76	228.76
931.06	228.38
931.36	228.11
931.66	228.19
931.96	228.32
932.26	228.48
932.56	228.25
932.86	228.43
933.16	228.32
933.46	228.30
933.76	228.10
934.06	228.29
934.36	228.57
934.66	228.41
934.96	228.20
935.26	228.28
935.56	228.27
935.86	228.09
936.16	227.94
936.46	227.83
936.76	227.67
937.06	227.53
937.36	227.52
937.66	227.64
937.96	227.62
938.26	227.33
938.56	227.24
938.86	227.28
939.16	227.46
939.46	227.63
939.76	227.69
940.06	227.70
940.35	227.42
940.65	226.99
940.95	227.14
941.25	226.95
941.55	226.73
941.85	226.70
942.15	227.01
942.45	227.17
942.75	227.15
943.04	227.28
943.34	227.43
943.64	227.44
943.94	227.18
944.24	227.23
944.54	227.42
944.84	227.46
945.13	227.30
945.43	227.13
945.73	227.01
946.03	227.03
946.33	226.82
946.62	226.73
946.92	226.66
947.22	226.75
947.52	226.80
947.82	226.97
948.11	226.90
948.41	226.65
948.71	226.49
949.01	226.60
949.31	226.57
949.60	226.51
949.90	226.55
950.20	226.67
950.50	226.71
950.79	226.57
951.09	226.72
951.39	226.75
951.69	226.60
951.98	226.89
952.28	226.84
952.58	226.91
952.87	227.04
953.17	227.30
953.47	227.19
953.76	227.24
954.06	227.12
954.36	227.03
954.66	226.92
954.95	227.15
955.25	227.19
955.55	227.21
955.84	227.06
956.14	227.18
956.44	227.15
956.73	226.92
957.03	227.01
957.32	226.91
957.62	226.87
957.92	227.17
958.21	226.89
958.51	227.93
958.81	228.08
959.10	228.20
959.40	228.42
959.69	228.51
959.99	228.68
960.29	228.65
960.58	228.59
960.88	228.96
961.17	229.02
961.47	229.14
961.76	229.02
962.06	229.21
962.36	229.11
962.65	229.20
962.95	229.27
963.24	229.24
963.54	229.32
963.83	229.45
964.13	229.36
964.42	229.25
964.72	228.54
965.01	228.52
965.31	228.37
965.60	228.02
965.90	228.59
966.19	228.40
966.49	228.57
966.78	228.59
967.08	228.52
967.37	228.34
967.67	228.10
967.96	228.36
968.26	228.30
968.55	228.42
968.85	228.41
969.14	228.41
969.43	228.34
969.73	228.24
970.02	228.16
970.32	228.09
970.61	228.10
970.91	227.82
971.20	227.63
971.49	227.63
971.79	227.78
972.08	227.15
972.38	227.20
972.67	227.15
972.96	227.28
973.26	227.05
973.55	227.38
973.85	227.40
974.14	227.36
974.43	227.38
974.73	227.18
975.02	226.98
975.31	226.99
975.61	226.97
975.90	226.87
976.19	226.78
976.49	226.83
976.78	226.92
977.07	226.93
977.37	227.00
977.66	227.00
977.95	226.80
978.24	226.84
978.54	227.00
978.83	226.83
979.12	226.78
979.42	226.88
979.71	226.59
980.00	226.44
980.29	226.44
980.59	226.29
980.88	226.51
981.17	226.54
981.46	226.56
981.76	226.62
982.05	226.90
982.34	226.95
982.63	226.89
982.93	226.84
983.22	227.17
983.51	227.20
983.80	227.38
984.09	227.51
984.39	227.45
984.68	227.30
984.97	227.36
985.26	227.19
985.55	227.16
985.85	227.10
986.14	227.40
986.43	227.51
986.72	227.50
987.01	227.23
987.30	227.27
987.59	227.14
987.89	227.24
988.18	226.99
988.47	226.88
988.76	226.82
989.05	226.71
989.34	226.41
989.63	226.77
989.92	226.62
990.22	226.57
990.51	226.55
990.80	226.46
991.09	226.53
991.38	226.85
991.67	226.72
991.96	226.75
992.25	226.70
992.54	226.53
992.83	226.50
993.12	226.46
993.41	226.64
993.70	227.09
993.99	227.22
994.28	227.35
994.58	227.51
994.87	227.38
995.16	227.42
995.45	227.46
995.74	227.01
996.03	227.09
996.32	227.21
996.61	227.37
996.90	227.32
997.19	227.33
997.48	227.19
997.77	227.18
998.06	227.16
998.34	227.10
998.63	227.05
998.92	227.05
999.21	227.27
999.50	227.26
999.79	226.90
1000.08	226.79
1000.37	226.78
1000.66	226.64
1000.95	226.97
1001.24	227.05
1001.53	227.13
1001.82	227.19
1002.11	226.96
1002.40	227.09
1002.68	227.37
1002.97	228.16
1003.26	227.97
1003.55	227.84
1003.84	227.95
1004.13	228.20
1004.42	228.13
1004.71	228.17
1004.99	228.14
1005.28	228.37
1005.57	228.27
1005.86	228.07
1006.15	228.00
1006.44	227.82
1006.72	227.97
1007.01	227.74
1007.30	227.67
1007.59	227.56
1007.88	227.53
1008.17	227.69
1008.45	227.31
1008.74	226.79
1009.03	226.29
1009.32	226.25
1009.60	226.26
1009.89	226.12
1010.18	225.64
1010.47	225.59
1010.76	225.60
1011.04	225.55
1011.33	225.54
1011.62	225.53
1011.91	225.74
1012.19	225.79
1012.48	225.87
1012.77	225.84
1013.05	226.35
1013.34	226.36
1013.63	226.27
1013.92	226.32
1014.20	226.18
1014.49	226.38
1014.78	226.43
1015.06	226.02
1015.35	226.15
1015.64	226.32
1015.92	226.50
1016.21	226.68
1016.50	226.64
1016.78	226.66
1017.07	226.78
1017.36	226.49
1017.64	226.38
1017.93	226.34
1018.22	226.23
1018.50	226.15
1018.79	226.16
1019.08	225.71
1019.36	225.79
1019.65	225.75
1019.93	225.98
1020.22	226.20
1020.51	226.67
1020.79	226.64
1021.08	225.10
1021.36	224.20
1021.65	226.50
1021.94	227.10
1022.22	227.10
1022.51	224.70
1022.79	230.70
1023.08	228.80
1023.36	238.50
1023.65	224.80
>>>>>End Processed Spectral Data<<<<<
