SpectraSuite Data File
++++++++++++++++++++++++++++++++++++
Date: Wed Sep 04 17:29:02 EDT 2013
User: lab3
Dark Spectrum Present: Yes
Reference Spectrum Present: No
Number of Sampled Component Spectra: 1
Spectrometers: USB2E7196
Integration Time (usec): 337000 (USB2E7196)
Spectra Averaged: 10 (USB2E7196)
Boxcar Smoothing: 10 (USB2E7196)
Correct for Electrical Dark: No (USB2E7196)
Strobe/Lamp Enabled: No (USB2E7196)
Correct for Detector Non-linearity: No (USB2E7196)
Correct for Stray Light: No (USB2E7196)
Number of Pixels in Processed Spectrum: 2048
>>>>>Begin Processed Spectral Data<<<<<
339.09	0.00
339.48	212.30
339.86	214.10
340.24	213.90
340.63	214.30
341.01	232.50
341.39	220.30
341.78	222.00
342.16	224.90
342.54	222.80
342.93	212.49
343.31	223.16
343.69	223.82
344.07	224.31
344.46	224.95
344.84	225.51
345.22	225.16
345.60	225.46
345.99	225.70
346.37	225.75
346.75	225.98
347.13	226.13
347.52	226.28
347.90	226.59
348.28	226.66
348.66	227.07
349.05	226.89
349.43	227.04
349.81	227.19
350.19	227.26
350.57	227.32
350.96	227.52
351.34	227.74
351.72	227.70
352.10	227.90
352.48	227.82
352.87	227.91
353.25	227.94
353.63	227.97
354.01	227.93
354.39	228.16
354.77	228.12
355.15	228.42
355.54	228.34
355.92	228.08
356.30	228.14
356.68	228.73
357.06	228.70
357.44	228.57
357.82	228.61
358.20	229.55
358.58	229.50
358.97	229.55
359.35	229.69
359.73	229.98
360.11	230.01
360.49	230.22
360.87	230.16
361.25	230.42
361.63	230.74
362.01	230.96
362.39	230.86
362.77	230.96
363.15	230.96
363.53	231.12
363.91	231.35
364.29	231.34
364.67	230.47
365.05	230.53
365.43	230.76
365.81	230.91
366.19	230.46
366.57	230.92
366.95	230.90
367.33	230.69
367.71	230.76
368.09	230.90
368.47	230.88
368.85	230.98
369.23	231.26
369.61	230.94
369.99	231.20
370.37	231.36
370.75	231.84
371.13	231.56
371.51	231.49
371.89	231.52
372.27	231.62
372.65	231.73
373.03	231.77
373.41	231.62
373.78	231.55
374.16	231.12
374.54	230.78
374.92	230.78
375.30	230.80
375.68	230.52
376.06	230.46
376.44	230.38
376.82	230.45
377.19	230.21
377.57	230.14
377.95	229.76
378.33	229.63
378.71	229.11
379.09	229.23
379.47	229.20
379.84	229.02
380.22	228.90
380.60	228.75
380.98	228.60
381.36	228.55
381.73	228.36
382.11	228.57
382.49	228.55
382.87	228.32
383.25	228.29
383.62	229.39
384.00	229.19
384.38	229.22
384.76	229.35
385.13	229.56
385.51	229.50
385.89	229.37
386.27	229.42
386.64	229.41
387.02	229.30
387.40	229.24
387.78	229.31
388.15	229.24
388.53	229.10
388.91	229.12
389.29	228.99
389.66	229.06
390.04	228.86
390.42	229.01
390.79	229.09
391.17	229.09
391.55	227.91
391.92	227.88
392.30	227.90
392.68	227.66
393.05	227.61
393.43	227.75
393.81	227.86
394.18	227.69
394.56	227.78
394.94	227.96
395.31	227.90
395.69	228.20
396.06	228.39
396.44	228.55
396.82	228.56
397.19	229.20
397.57	229.23
397.95	229.53
398.32	229.33
398.70	229.49
399.07	229.82
399.45	229.96
399.82	230.00
400.20	230.06
400.58	230.22
400.95	230.00
401.33	230.36
401.70	231.16
402.08	231.32
402.45	231.51
402.83	231.92
403.20	232.28
403.58	232.41
403.95	232.80
404.33	233.14
404.71	233.53
405.08	234.40
405.46	234.80
405.83	235.22
406.21	235.67
406.58	236.18
406.96	236.59
407.33	237.29
407.70	238.12
408.08	239.56
408.45	240.38
408.83	241.46
409.20	242.15
409.58	242.44
409.95	243.62
410.33	244.62
410.70	245.36
411.08	246.59
411.45	247.84
411.82	248.93
412.20	250.53
412.57	252.53
412.95	253.27
413.32	255.11
413.69	256.77
414.07	258.71
414.44	260.80
414.82	262.96
415.19	265.54
415.56	268.02
415.94	270.04
416.31	273.12
416.68	275.98
417.06	279.46
417.43	282.95
417.81	286.65
418.18	290.60
418.55	294.93
418.93	299.31
419.30	303.75
419.67	308.65
420.04	313.68
420.42	318.80
420.79	325.37
421.16	331.40
421.54	338.10
421.91	344.80
422.28	351.73
422.66	358.95
423.03	366.43
423.40	373.74
423.77	381.70
424.15	389.48
424.52	397.94
424.89	407.29
425.26	416.17
425.64	424.66
426.01	434.02
426.38	443.77
426.75	454.04
427.13	464.60
427.50	475.50
427.87	486.65
428.24	497.74
428.61	508.25
428.99	520.50
429.36	533.04
429.73	545.62
430.10	558.19
430.47	571.32
430.85	584.50
431.22	599.16
431.59	615.00
431.96	629.84
432.33	646.13
432.70	661.86
433.08	680.45
433.45	698.05
433.82	715.65
434.19	735.16
434.56	754.38
434.93	772.83
435.30	791.50
435.68	812.44
436.05	832.94
436.42	853.27
436.79	871.93
437.16	892.48
437.53	914.08
437.90	935.44
438.27	956.55
438.64	978.54
439.01	998.83
439.38	1016.93
439.75	1035.09
440.13	1055.54
440.50	1074.67
440.87	1090.20
441.24	1106.40
441.61	1124.63
441.98	1138.37
442.35	1154.06
442.72	1169.86
443.09	1185.36
443.46	1194.99
443.83	1201.95
444.20	1208.05
444.57	1216.36
444.94	1220.51
445.31	1224.84
445.68	1229.90
446.05	1232.21
446.42	1231.07
446.79	1229.68
447.16	1227.40
447.53	1226.11
447.90	1218.81
448.27	1211.40
448.64	1201.58
449.01	1194.87
449.37	1181.33
449.74	1168.00
450.11	1152.27
450.48	1135.01
450.85	1116.92
451.22	1101.38
451.59	1086.88
451.96	1072.98
452.33	1054.20
452.70	1037.30
453.07	1017.20
453.43	996.06
453.80	976.40
454.17	957.18
454.54	939.26
454.91	920.24
455.28	901.08
455.65	883.66
456.02	867.34
456.38	852.02
456.75	833.18
457.12	817.80
457.49	802.89
457.86	788.06
458.23	775.68
458.59	762.11
458.96	748.44
459.33	736.13
459.70	723.76
460.07	713.92
460.43	702.79
460.80	692.50
461.17	683.25
461.54	673.88
461.91	664.85
462.27	655.33
462.64	647.47
463.01	639.01
463.38	630.84
463.74	621.39
464.11	614.30
464.48	608.13
464.85	600.86
465.21	595.77
465.58	590.31
465.95	583.23
466.32	577.76
466.68	572.20
467.05	566.75
467.42	561.34
467.78	555.66
468.15	550.33
468.52	546.18
468.88	541.02
469.25	536.07
469.62	532.69
469.98	528.77
470.35	525.04
470.72	521.42
471.08	517.35
471.45	514.27
471.82	511.10
472.18	507.43
472.55	505.11
472.92	501.85
473.28	498.92
473.65	496.55
474.02	493.86
474.38	491.76
474.75	489.86
475.11	487.65
475.48	486.27
475.85	484.88
476.21	483.48
476.58	482.20
476.94	481.49
477.31	480.19
477.67	479.24
478.04	478.33
478.41	477.96
478.77	478.25
479.14	477.65
479.50	477.38
479.87	477.68
480.23	477.70
480.60	477.52
480.96	477.52
481.33	478.11
481.69	478.44
482.06	478.89
482.42	479.26
482.79	480.10
483.15	480.85
483.52	482.28
483.88	483.25
484.25	484.57
484.61	485.74
484.98	487.21
485.34	489.18
485.71	491.17
486.07	493.12
486.44	494.50
486.80	496.55
487.17	498.74
487.53	501.08
487.90	503.80
488.26	507.20
488.62	510.60
488.99	513.44
489.35	516.90
489.72	520.44
490.08	524.56
490.44	528.38
490.81	532.64
491.17	536.50
491.54	541.20
491.90	545.65
492.26	550.54
492.63	555.48
492.99	560.23
493.36	565.55
493.72	571.07
494.08	576.80
494.45	583.20
494.81	589.86
495.17	596.19
495.54	602.89
495.90	609.28
496.26	615.98
496.63	623.31
496.99	630.46
497.35	637.70
497.72	644.93
498.08	652.59
498.44	660.45
498.80	668.70
499.17	676.93
499.53	685.16
499.89	693.91
500.26	702.62
500.62	711.49
500.98	720.78
501.34	729.80
501.71	738.94
502.07	747.94
502.43	757.07
502.79	766.56
503.16	776.40
503.52	786.00
503.88	795.81
504.24	805.76
504.60	816.17
504.97	826.34
505.33	836.60
505.69	847.49
506.05	857.90
506.41	868.39
506.78	878.86
507.14	889.76
507.50	900.11
507.86	910.73
508.22	921.45
508.59	931.68
508.95	942.28
509.31	953.88
509.67	964.92
510.03	975.34
510.39	985.76
510.75	995.86
511.12	1006.36
511.48	1016.83
511.84	1026.91
512.20	1036.77
512.56	1046.90
512.92	1057.23
513.28	1067.17
513.64	1077.20
514.00	1087.09
514.37	1096.66
514.73	1106.15
515.09	1115.99
515.45	1125.10
515.81	1134.17
516.17	1143.15
516.53	1151.75
516.89	1159.47
517.25	1168.09
517.61	1177.21
517.97	1185.84
518.33	1194.50
518.69	1202.84
519.05	1211.19
519.41	1219.55
519.77	1228.09
520.13	1236.24
520.49	1243.72
520.85	1250.86
521.21	1258.43
521.57	1265.57
521.93	1271.95
522.29	1278.63
522.65	1284.42
523.01	1290.74
523.37	1296.45
523.73	1302.48
524.09	1308.21
524.45	1313.19
524.81	1318.05
525.17	1323.00
525.53	1328.09
525.89	1332.50
526.25	1337.31
526.61	1341.06
526.97	1345.40
527.33	1350.26
527.68	1355.58
528.04	1360.23
528.40	1364.59
528.76	1368.56
529.12	1372.54
529.48	1377.24
529.84	1381.03
530.20	1385.61
530.56	1389.76
530.91	1394.33
531.27	1398.15
531.63	1402.52
531.99	1407.18
532.35	1411.33
532.71	1415.43
533.07	1419.69
533.42	1423.77
533.78	1427.55
534.14	1431.76
534.50	1435.26
534.86	1438.48
535.21	1440.75
535.57	1443.70
535.93	1446.30
536.29	1449.52
536.65	1452.91
537.00	1455.76
537.36	1458.70
537.72	1461.31
538.08	1464.61
538.44	1467.25
538.79	1470.43
539.15	1473.06
539.51	1475.64
539.87	1477.64
540.22	1479.20
540.58	1481.12
540.94	1482.84
541.29	1484.40
541.65	1485.59
542.01	1487.55
542.37	1488.55
542.72	1489.12
543.08	1490.24
543.44	1491.64
543.79	1491.80
544.15	1492.18
544.51	1493.10
544.87	1494.06
545.22	1493.80
545.58	1493.23
545.94	1492.53
546.29	1491.64
546.65	1490.96
547.01	1490.28
547.36	1489.81
547.72	1489.25
548.07	1487.82
548.43	1486.97
548.79	1486.31
549.14	1485.58
549.50	1484.36
549.86	1483.09
550.21	1482.82
550.57	1482.18
550.92	1480.99
551.28	1480.05
551.64	1479.07
551.99	1478.07
552.35	1476.92
552.70	1476.39
553.06	1475.92
553.41	1475.53
553.77	1475.36
554.13	1475.05
554.48	1474.50
554.84	1474.02
555.19	1473.44
555.55	1474.41
555.90	1473.60
556.26	1472.66
556.61	1471.77
556.97	1469.92
557.32	1469.20
557.68	1468.03
558.03	1466.86
558.39	1465.99
558.74	1465.33
559.10	1464.26
559.45	1462.89
559.81	1461.23
560.16	1459.27
560.52	1457.37
560.87	1456.21
561.23	1454.10
561.58	1452.91
561.94	1450.86
562.29	1448.61
562.64	1446.77
563.00	1443.43
563.35	1441.69
563.71	1439.79
564.06	1438.34
564.42	1437.43
564.77	1435.85
565.12	1434.46
565.48	1433.66
565.83	1432.26
566.19	1430.98
566.54	1429.46
566.89	1427.60
567.25	1426.15
567.60	1425.66
567.96	1425.30
568.31	1423.86
568.66	1422.77
569.02	1419.94
569.37	1418.47
569.72	1417.24
570.08	1415.30
570.43	1413.01
570.78	1411.39
571.14	1409.34
571.49	1406.54
571.84	1404.04
572.20	1401.20
572.55	1398.38
572.90	1394.60
573.26	1391.80
573.61	1388.13
573.96	1385.04
574.31	1381.58
574.67	1378.21
575.02	1374.00
575.37	1369.62
575.72	1365.44
576.08	1361.74
576.43	1358.06
576.78	1353.71
577.13	1349.39
577.49	1345.83
577.84	1342.95
578.19	1339.21
578.54	1335.56
578.90	1332.43
579.25	1329.08
579.60	1325.84
579.95	1322.09
580.30	1318.20
580.66	1313.93
581.01	1310.01
581.36	1305.15
581.71	1301.58
582.06	1297.77
582.42	1293.97
582.77	1289.70
583.12	1286.15
583.47	1282.13
583.82	1278.89
584.17	1275.65
584.53	1272.75
584.88	1268.44
585.23	1263.96
585.58	1259.20
585.93	1254.54
586.28	1249.81
586.63	1244.76
586.98	1239.63
587.34	1235.26
587.69	1230.71
588.04	1226.80
588.39	1222.80
588.74	1218.88
589.09	1215.00
589.44	1209.98
589.79	1205.77
590.14	1201.71
590.49	1197.36
590.84	1192.94
591.19	1188.49
591.54	1183.98
591.89	1178.93
592.25	1175.97
592.60	1171.68
592.95	1167.66
593.30	1163.51
593.65	1159.15
594.00	1154.60
594.35	1152.93
594.70	1148.16
595.05	1143.58
595.40	1138.62
595.75	1133.54
596.10	1129.11
596.45	1124.40
596.80	1120.77
597.15	1116.07
597.50	1111.10
597.85	1106.59
598.19	1101.96
598.54	1096.80
598.89	1091.75
599.24	1087.55
599.59	1081.98
599.94	1077.53
600.29	1073.01
600.64	1068.40
600.99	1063.81
601.34	1060.01
601.69	1053.08
602.04	1048.98
602.39	1044.86
602.74	1041.06
603.08	1036.87
603.43	1033.10
603.78	1028.67
604.13	1023.96
604.48	1019.55
604.83	1015.35
605.18	1010.81
605.53	1006.32
605.87	1002.30
606.22	998.87
606.57	994.52
606.92	990.25
607.27	986.20
607.62	982.08
607.96	978.64
608.31	975.27
608.66	971.50
609.01	967.70
609.36	963.51
609.70	959.56
610.05	955.14
610.40	951.41
610.75	946.80
611.10	942.44
611.44	937.97
611.79	933.93
612.14	929.86
612.49	925.58
612.83	921.57
613.18	917.19
613.53	912.67
613.88	908.30
614.22	903.73
614.57	898.64
614.92	893.96
615.27	889.28
615.61	884.33
615.96	879.50
616.31	874.84
616.65	870.69
617.00	866.06
617.35	861.46
617.70	856.89
618.04	852.47
618.39	848.30
618.74	844.56
619.08	840.04
619.43	835.57
619.78	831.14
620.12	826.67
620.47	822.38
620.82	817.63
621.16	812.97
621.51	809.20
621.85	805.53
622.20	801.43
622.55	796.76
622.89	792.69
623.24	788.74
623.59	784.59
623.93	780.33
624.28	776.03
624.62	773.07
624.97	769.56
625.32	765.49
625.66	761.37
626.01	757.08
626.35	753.54
626.70	749.73
627.04	746.39
627.39	742.35
627.73	739.01
628.08	735.37
628.43	731.51
628.77	727.30
629.12	723.44
629.46	719.95
629.81	716.94
630.15	713.10
630.50	709.13
630.84	705.60
631.19	702.16
631.53	698.74
631.88	694.07
632.22	689.86
632.57	686.78
632.91	683.19
633.26	679.83
633.60	676.27
633.95	672.52
634.29	668.33
634.64	665.08
634.98	661.05
635.32	657.80
635.67	654.71
636.01	651.29
636.36	647.60
636.70	644.57
637.05	640.73
637.39	637.65
637.73	634.68
638.08	631.52
638.42	627.92
638.77	624.71
639.11	621.16
639.45	617.71
639.80	613.86
640.14	610.52
640.49	607.07
640.83	603.49
641.17	600.73
641.52	597.92
641.86	594.65
642.20	592.34
642.55	589.20
642.89	586.05
643.23	583.17
643.58	580.62
643.92	576.95
644.26	574.06
644.61	571.15
644.95	567.85
645.29	564.65
645.64	561.92
645.98	558.81
646.32	556.33
646.66	553.42
647.01	550.72
647.35	548.15
647.69	545.47
648.04	543.12
648.38	540.17
648.72	537.30
649.06	534.55
649.41	531.31
649.75	528.37
650.09	525.89
650.43	523.27
650.78	520.33
651.12	517.79
651.46	514.99
651.80	512.30
652.14	509.83
652.49	507.41
652.83	504.93
653.17	502.53
653.51	499.66
653.85	497.45
654.20	494.96
654.54	492.36
654.88	489.81
655.22	487.73
655.56	485.41
655.90	483.00
656.25	480.64
656.59	478.12
656.93	475.98
657.27	473.87
657.61	471.21
657.95	469.01
658.29	466.68
658.64	464.78
658.98	462.44
659.32	459.97
659.66	457.74
660.00	455.42
660.34	453.32
660.68	451.32
661.02	449.06
661.36	447.06
661.70	444.84
662.05	442.83
662.39	440.58
662.73	438.64
663.07	437.19
663.41	435.13
663.75	433.38
664.09	431.34
664.43	429.00
664.77	427.19
665.11	425.22
665.45	423.48
665.79	421.49
666.13	419.39
666.47	417.48
666.81	415.64
667.15	413.69
667.49	412.01
667.83	410.65
668.17	408.91
668.51	407.22
668.85	405.80
669.19	404.56
669.53	402.62
669.87	400.77
670.21	398.69
670.55	397.25
670.89	395.83
671.23	394.35
671.57	392.67
671.91	391.15
672.25	389.50
672.58	388.13
672.92	386.41
673.26	385.09
673.60	383.82
673.94	382.35
674.28	381.23
674.62	379.92
674.96	378.01
675.30	376.73
675.64	375.34
675.97	373.83
676.31	372.08
676.65	370.60
676.99	369.47
677.33	367.96
677.67	366.61
678.01	364.89
678.34	363.49
678.68	362.47
679.02	361.09
679.36	359.85
679.70	358.40
680.04	357.26
680.37	356.08
680.71	354.82
681.05	353.80
681.39	352.38
681.73	350.98
682.06	349.87
682.40	348.53
682.74	347.37
683.08	346.54
683.42	345.32
683.75	344.50
684.09	343.22
684.43	342.26
684.77	341.03
685.10	340.03
685.44	338.95
685.78	337.61
686.12	336.63
686.45	335.58
686.79	334.39
687.13	333.63
687.46	332.67
687.80	331.70
688.14	330.41
688.48	329.32
688.81	328.34
689.15	327.60
689.49	326.57
689.82	325.61
690.16	324.10
690.50	323.15
690.83	321.98
691.17	320.85
691.51	319.82
691.84	319.04
692.18	318.09
692.52	317.00
692.85	316.34
693.19	315.90
693.52	314.92
693.86	314.12
694.20	313.04
694.53	312.10
694.87	311.14
695.21	310.20
695.54	309.35
695.88	308.32
696.21	307.08
696.55	306.45
696.88	305.52
697.22	304.80
697.56	304.12
697.89	303.26
698.23	302.61
698.56	301.74
698.90	301.00
699.23	300.20
699.57	299.65
699.90	298.66
700.24	297.55
700.58	297.13
700.91	296.48
701.25	296.48
701.58	296.37
701.92	295.99
702.25	295.43
702.59	294.77
702.92	294.21
703.26	293.79
703.59	293.08
703.93	293.25
704.26	292.82
704.60	292.19
704.93	291.52
705.26	290.82
705.60	290.39
705.93	289.55
706.27	289.18
706.60	288.75
706.94	288.65
707.27	287.97
707.61	287.30
707.94	286.71
708.27	285.43
708.61	284.22
708.94	283.55
709.28	283.02
709.61	282.40
709.94	281.79
710.28	281.18
710.61	280.65
710.95	279.29
711.28	279.21
711.61	278.58
711.95	278.40
712.28	277.80
712.61	277.26
712.95	277.34
713.28	277.19
713.61	276.51
713.95	275.60
714.28	275.18
714.61	274.47
714.95	273.94
715.28	273.26
715.61	272.75
715.95	272.16
716.28	271.52
716.61	271.20
716.95	270.66
717.28	270.29
717.61	269.80
717.94	269.27
718.28	268.13
718.61	267.67
718.94	266.93
719.27	266.55
719.61	266.20
719.94	265.51
720.27	264.58
720.60	264.14
720.94	263.80
721.27	263.39
721.60	263.24
721.93	262.86
722.27	262.91
722.60	262.74
722.93	262.34
723.26	262.11
723.59	261.66
723.93	261.53
724.26	261.32
724.59	260.79
724.92	260.57
725.25	260.50
725.59	260.18
725.92	260.10
726.25	259.86
726.58	259.57
726.91	259.12
727.24	258.90
727.57	258.62
727.91	258.25
728.24	258.01
728.57	257.72
728.90	257.51
729.23	257.00
729.56	257.14
729.89	256.94
730.22	256.52
730.55	256.14
730.89	255.79
731.22	255.36
731.55	255.24
731.88	254.99
732.21	254.51
732.54	254.30
732.87	253.95
733.20	253.74
733.53	253.45
733.86	253.37
734.19	253.03
734.52	252.89
734.85	253.30
735.18	252.87
735.51	252.83
735.84	252.57
736.17	252.44
736.50	251.68
736.83	252.52
737.16	252.32
737.49	252.30
737.82	252.04
738.15	251.96
738.48	251.66
738.81	251.31
739.14	251.07
739.47	250.65
739.80	250.40
740.13	250.21
740.46	249.78
740.79	249.30
741.12	249.02
741.45	248.68
741.78	247.85
742.11	248.00
742.44	247.76
742.77	247.65
743.10	247.37
743.43	247.04
743.75	245.81
744.08	246.82
744.41	246.50
744.74	246.36
745.07	245.90
745.40	245.96
745.73	246.23
746.06	246.01
746.39	246.10
746.71	245.91
747.04	245.61
747.37	245.54
747.70	245.58
748.03	245.60
748.36	245.59
748.68	245.51
749.01	245.14
749.34	244.80
749.67	244.76
750.00	244.74
750.33	245.43
750.65	245.31
750.98	244.07
751.31	243.86
751.64	243.70
751.97	244.12
752.29	243.91
752.62	243.30
752.95	243.16
753.28	242.80
753.60	242.58
753.93	242.72
754.26	242.72
754.59	242.39
754.91	242.07
755.24	241.87
755.57	241.64
755.90	241.45
756.22	241.27
756.55	240.88
756.88	240.56
757.20	239.76
757.53	239.46
757.86	239.38
758.19	239.43
758.51	239.35
758.84	238.68
759.17	238.45
759.49	238.41
759.82	238.88
760.15	238.80
760.47	238.70
760.80	238.34
761.13	238.28
761.45	238.02
761.78	238.04
762.11	237.95
762.43	237.87
762.76	237.78
763.08	237.88
763.41	237.93
763.74	237.85
764.06	237.80
764.39	237.75
764.71	237.49
765.04	237.29
765.37	237.06
765.69	237.09
766.02	236.92
766.34	236.81
766.67	236.24
767.00	236.48
767.32	236.91
767.65	237.47
767.97	237.28
768.30	237.44
768.62	237.31
768.95	237.12
769.27	236.97
769.60	237.03
769.92	236.72
770.25	236.55
770.57	236.33
770.90	236.14
771.22	235.82
771.55	235.81
771.87	235.74
772.20	235.70
772.52	236.38
772.85	237.58
773.17	237.50
773.50	237.42
773.82	237.15
774.15	236.63
774.47	235.90
774.80	235.80
775.12	235.73
775.45	235.70
775.77	235.56
776.09	235.66
776.42	235.57
776.74	235.81
777.07	235.72
777.39	235.75
777.72	235.61
778.04	235.89
778.36	235.77
778.69	235.86
779.01	235.80
779.33	234.90
779.66	233.70
779.98	233.63
780.31	233.58
780.63	233.88
780.95	234.04
781.28	233.88
781.60	233.72
781.92	233.60
782.25	233.50
782.57	233.60
782.89	233.40
783.22	233.36
783.54	233.03
783.86	233.09
784.19	232.97
784.51	233.27
784.83	233.02
785.16	233.03
785.48	233.01
785.80	233.10
786.12	233.27
786.45	233.24
786.77	233.25
787.09	233.21
787.42	232.83
787.74	232.66
788.06	232.80
788.38	232.75
788.71	232.59
789.03	232.60
789.35	232.67
789.67	232.64
789.99	232.59
790.32	232.53
790.64	232.50
790.96	233.27
791.28	232.90
791.61	232.89
791.93	232.90
792.25	232.72
792.57	233.27
792.89	232.98
793.21	233.02
793.54	232.90
793.86	232.75
794.18	232.87
794.50	232.72
794.82	232.66
795.14	232.85
795.47	233.04
795.79	233.00
796.11	232.69
796.43	232.59
796.75	232.62
797.07	232.53
797.39	232.42
797.71	231.77
798.04	231.85
798.36	231.86
798.68	231.83
799.00	231.90
799.32	231.38
799.64	231.56
799.96	231.57
800.28	231.73
800.60	231.81
800.92	231.84
801.24	231.78
801.56	231.92
801.89	231.79
802.21	231.82
802.53	231.67
802.85	231.95
803.17	232.30
803.49	231.96
803.81	232.00
804.13	231.94
804.45	231.82
804.77	231.89
805.09	231.90
805.41	231.85
805.73	231.55
806.05	231.29
806.37	231.25
806.69	231.03
807.01	230.92
807.33	230.83
807.65	230.39
807.97	230.82
808.28	230.50
808.60	230.50
808.92	230.28
809.24	230.91
809.56	230.75
809.88	230.44
810.20	230.55
810.52	230.64
810.84	230.52
811.16	230.35
811.48	230.28
811.80	230.53
812.12	230.50
812.43	230.72
812.75	230.82
813.07	230.76
813.39	230.95
813.71	230.80
814.03	230.82
814.35	230.99
814.67	230.59
814.98	230.55
815.30	230.44
815.62	230.28
815.94	229.57
816.26	229.98
816.58	229.88
816.89	229.96
817.21	229.74
817.53	229.78
817.85	229.94
818.17	229.78
818.48	229.40
818.80	229.51
819.12	229.31
819.44	229.13
819.76	228.90
820.07	228.80
820.39	228.82
820.71	228.84
821.03	228.84
821.34	228.78
821.66	229.07
821.98	229.21
822.30	229.25
822.61	229.84
822.93	229.29
823.25	229.21
823.57	229.14
823.88	229.32
824.20	229.35
824.52	229.36
824.83	229.44
825.15	229.29
825.47	229.17
825.79	229.36
826.10	229.42
826.42	229.47
826.74	229.47
827.05	229.55
827.37	229.64
827.69	229.59
828.00	229.65
828.32	229.59
828.64	229.51
828.95	230.04
829.27	229.80
829.58	229.90
829.90	230.08
830.22	230.07
830.53	229.89
830.85	229.80
831.17	229.55
831.48	229.59
831.80	229.74
832.11	229.78
832.43	229.62
832.75	229.43
833.06	230.05
833.38	229.91
833.69	229.82
834.01	229.81
834.32	229.76
834.64	229.69
834.96	229.65
835.27	229.50
835.59	229.19
835.90	229.03
836.22	228.97
836.53	228.85
836.85	228.75
837.16	229.76
837.48	229.75
837.79	230.06
838.11	230.06
838.42	229.95
838.74	230.00
839.05	229.97
839.37	230.02
839.68	229.43
840.00	229.40
840.31	229.48
840.63	229.41
840.94	229.33
841.26	229.20
841.57	229.24
841.88	229.32
842.20	229.24
842.51	229.10
842.83	229.05
843.14	229.81
843.46	229.86
843.77	229.22
844.08	229.12
844.40	228.89
844.71	228.69
845.03	228.63
845.34	228.47
845.65	228.43
845.97	228.49
846.28	228.52
846.60	228.54
846.91	228.34
847.22	228.17
847.54	228.36
847.85	228.36
848.16	228.21
848.48	228.02
848.79	228.40
849.10	228.50
849.42	228.68
849.73	227.70
850.04	227.72
850.36	227.40
850.67	227.73
850.98	227.75
851.30	227.82
851.61	227.81
851.92	227.81
852.23	228.07
852.55	228.08
852.86	228.00
853.17	228.10
853.49	228.34
853.80	228.55
854.11	228.66
854.42	228.86
854.74	228.75
855.05	228.84
855.36	228.17
855.67	228.20
855.99	228.14
856.30	229.33
856.61	229.33
856.92	229.41
857.23	229.28
857.55	229.10
857.86	229.24
858.17	229.41
858.48	229.30
858.79	229.08
859.11	229.18
859.42	229.20
859.73	228.97
860.04	228.94
860.35	228.76
860.66	228.47
860.98	228.46
861.29	228.60
861.60	228.51
861.91	228.89
862.22	228.68
862.53	228.43
862.84	227.36
863.16	227.61
863.47	227.29
863.78	227.16
864.09	227.43
864.40	227.31
864.71	227.27
865.02	227.37
865.33	227.33
865.64	227.15
865.95	227.16
866.27	227.82
866.58	227.79
866.89	227.80
867.20	227.78
867.51	227.54
867.82	227.47
868.13	227.86
868.44	227.60
868.75	227.90
869.06	228.05
869.37	228.23
869.68	227.99
869.99	228.30
870.30	228.43
870.61	228.44
870.92	228.29
871.23	228.41
871.54	228.61
871.85	228.83
872.16	228.92
872.47	228.82
872.78	228.29
873.09	228.35
873.40	228.41
873.71	228.41
874.02	228.49
874.33	228.45
874.64	228.14
874.95	228.42
875.26	228.16
875.56	228.09
875.87	228.06
876.18	227.97
876.49	228.96
876.80	228.86
877.11	228.72
877.42	228.89
877.73	228.79
878.04	228.48
878.35	228.51
878.66	228.61
878.96	228.64
879.27	228.57
879.58	228.50
879.89	228.36
880.20	228.66
880.51	228.68
880.82	228.68
881.12	228.83
881.43	228.53
881.74	228.49
882.05	228.46
882.36	228.37
882.67	228.43
882.97	227.28
883.28	227.20
883.59	227.15
883.90	227.26
884.21	227.40
884.51	227.48
884.82	227.29
885.13	227.22
885.44	227.21
885.74	227.27
886.05	227.20
886.36	227.23
886.67	226.90
886.98	227.41
887.28	227.40
887.59	227.36
887.90	227.50
888.20	227.51
888.51	227.75
888.82	227.67
889.13	227.77
889.43	228.62
889.74	228.55
890.05	228.50
890.35	228.40
890.66	228.20
890.97	228.08
891.28	227.99
891.58	228.02
891.89	227.96
892.20	227.84
892.50	227.76
892.81	227.73
893.12	227.75
893.42	227.21
893.73	227.38
894.04	227.32
894.34	227.38
894.65	227.28
894.95	227.12
895.26	227.20
895.57	227.55
895.87	226.71
896.18	226.92
896.48	227.09
896.79	227.09
897.10	227.37
897.40	227.46
897.71	227.59
898.01	227.52
898.32	227.75
898.63	227.66
898.93	227.82
899.24	227.86
899.54	227.83
899.85	227.81
900.15	227.74
900.46	227.81
900.76	227.84
901.07	227.99
901.38	228.03
901.68	228.07
901.99	227.60
902.29	227.63
902.60	227.54
902.90	227.35
903.21	227.24
903.51	227.03
903.82	227.24
904.12	227.28
904.43	227.34
904.73	227.23
905.03	227.39
905.34	228.25
905.64	228.25
905.95	228.17
906.25	228.23
906.56	228.12
906.86	228.07
907.17	227.91
907.47	227.90
907.77	227.74
908.08	227.65
908.38	227.74
908.69	227.93
908.99	228.13
909.30	228.33
909.60	228.29
909.90	228.41
910.21	228.12
910.51	228.03
910.81	228.09
911.12	228.13
911.42	228.14
911.73	227.12
912.03	227.19
912.33	227.40
912.64	227.37
912.94	227.32
913.24	227.20
913.55	227.25
913.85	227.10
914.15	227.41
914.46	227.43
914.76	227.30
915.06	227.23
915.37	227.00
915.67	226.93
915.97	226.97
916.27	226.77
916.58	226.86
916.88	226.76
917.18	226.66
917.49	227.23
917.79	227.23
918.09	227.32
918.39	227.54
918.70	227.56
919.00	227.64
919.30	228.18
919.60	228.25
919.91	228.08
920.21	228.17
920.51	227.77
920.81	227.80
921.12	228.01
921.42	227.86
921.72	227.97
922.02	227.92
922.32	228.10
922.63	228.16
922.93	228.57
923.23	228.59
923.53	228.50
923.83	227.97
924.13	228.06
924.44	228.04
924.74	228.17
925.04	228.38
925.34	228.21
925.64	227.76
925.94	227.68
926.24	228.34
926.55	228.32
926.85	228.54
927.15	228.41
927.45	228.38
927.75	228.42
928.05	228.38
928.35	228.37
928.65	228.43
928.95	228.49
929.26	228.13
929.56	228.40
929.86	228.40
930.16	228.24
930.46	228.20
930.76	228.30
931.06	227.96
931.36	227.66
931.66	227.80
931.96	227.92
932.26	227.95
932.56	227.50
932.86	227.52
933.16	227.49
933.46	227.47
933.76	227.43
934.06	227.64
934.36	228.00
934.66	227.99
934.96	227.86
935.26	227.90
935.56	228.14
935.86	227.83
936.16	227.81
936.46	227.85
936.76	227.70
937.06	227.56
937.36	227.50
937.66	227.61
937.96	227.52
938.26	227.28
938.56	227.31
938.86	227.29
939.16	227.49
939.46	227.70
939.76	227.92
940.06	227.76
940.35	227.50
940.65	226.96
940.95	226.99
941.25	226.82
941.55	226.63
941.85	226.54
942.15	226.81
942.45	227.07
942.75	227.00
943.04	227.04
943.34	227.22
943.64	227.12
943.94	226.98
944.24	227.15
944.54	227.22
944.84	227.17
945.13	227.04
945.43	226.98
945.73	226.80
946.03	226.65
946.33	226.68
946.62	226.65
946.92	226.77
947.22	226.82
947.52	226.87
947.82	227.12
948.11	226.94
948.41	226.70
948.71	226.48
949.01	226.56
949.31	226.63
949.60	226.61
949.90	226.78
950.20	226.70
950.50	226.66
950.79	226.68
951.09	226.75
951.39	226.77
951.69	226.62
951.98	226.97
952.28	226.97
952.58	226.95
952.87	227.06
953.17	227.14
953.47	227.12
953.76	227.18
954.06	226.88
954.36	226.83
954.66	226.82
954.95	227.06
955.25	227.12
955.55	227.08
955.84	226.93
956.14	227.12
956.44	227.23
956.73	227.12
957.03	227.17
957.32	227.16
957.62	227.23
957.92	227.43
958.21	227.20
958.51	228.16
958.81	228.23
959.10	228.28
959.40	228.55
959.69	228.52
959.99	228.69
960.29	228.77
960.58	228.68
960.88	229.23
961.17	229.09
961.47	229.13
961.76	229.13
962.06	229.32
962.36	229.13
962.65	229.17
962.95	229.15
963.24	229.00
963.54	229.06
963.83	229.14
964.13	229.00
964.42	228.81
964.72	228.15
965.01	228.19
965.31	228.13
965.60	227.72
965.90	228.40
966.19	228.13
966.49	228.15
966.78	228.17
967.08	227.88
967.37	227.93
967.67	227.73
967.96	227.86
968.26	227.74
968.55	227.80
968.85	227.76
969.14	227.69
969.43	227.85
969.73	227.77
970.02	227.63
970.32	227.65
970.61	227.68
970.91	227.40
971.20	227.28
971.49	227.16
971.79	227.35
972.08	226.62
972.38	226.75
972.67	226.70
972.96	226.93
973.26	226.76
973.55	226.97
973.85	226.94
974.14	226.92
974.43	227.00
974.73	226.86
975.02	226.78
975.31	226.85
975.61	226.78
975.90	226.65
976.19	226.50
976.49	226.49
976.78	226.49
977.07	226.49
977.37	226.58
977.66	226.66
977.95	226.50
978.24	226.61
978.54	226.76
978.83	226.70
979.12	226.52
979.42	226.51
979.71	226.30
980.00	226.31
980.29	226.33
980.59	226.07
980.88	226.32
981.17	226.36
981.46	226.39
981.76	226.37
982.05	226.80
982.34	227.05
982.63	227.14
982.93	227.14
983.22	227.54
983.51	227.51
983.80	227.70
984.09	227.84
984.39	227.81
984.68	227.62
984.97	227.72
985.26	227.67
985.55	227.82
985.85	227.80
986.14	227.96
986.43	228.05
986.72	228.05
987.01	227.77
987.30	227.75
987.59	227.62
987.89	227.66
988.18	227.34
988.47	227.23
988.76	227.13
989.05	227.18
989.34	226.85
989.63	227.08
989.92	226.98
990.22	226.87
990.51	226.83
990.80	226.83
991.09	226.84
991.38	226.98
991.67	226.83
991.96	226.65
992.25	226.62
992.54	226.35
992.83	226.40
993.12	226.29
993.41	226.40
993.70	226.87
993.99	226.99
994.28	227.09
994.58	227.24
994.87	227.17
995.16	227.15
995.45	227.15
995.74	226.90
996.03	226.97
996.32	227.12
996.61	227.29
996.90	227.26
997.19	227.29
997.48	227.30
997.77	227.19
998.06	227.24
998.34	227.21
998.63	227.33
998.92	227.42
999.21	227.62
999.50	227.67
999.79	227.37
1000.08	227.37
1000.37	227.33
1000.66	227.10
1000.95	227.37
1001.24	227.38
1001.53	227.47
1001.82	227.45
1002.11	227.34
1002.40	227.45
1002.68	227.70
1002.97	228.45
1003.26	228.35
1003.55	228.17
1003.84	228.29
1004.13	228.60
1004.42	228.59
1004.71	228.50
1004.99	228.49
1005.28	228.67
1005.57	228.57
1005.86	228.42
1006.15	228.27
1006.44	228.15
1006.72	228.33
1007.01	228.20
1007.30	228.13
1007.59	228.06
1007.88	228.00
1008.17	228.02
1008.45	227.79
1008.74	227.33
1009.03	226.81
1009.32	226.80
1009.60	226.76
1009.89	226.74
1010.18	226.38
1010.47	226.36
1010.76	226.36
1011.04	226.22
1011.33	226.30
1011.62	226.31
1011.91	226.26
1012.19	226.34
1012.48	226.40
1012.77	226.32
1013.05	226.68
1013.34	226.63
1013.63	226.59
1013.92	226.62
1014.20	226.50
1014.49	226.60
1014.78	226.64
1015.06	226.34
1015.35	226.37
1015.64	226.65
1015.92	226.66
1016.21	226.74
1016.50	226.69
1016.78	226.83
1017.07	226.87
1017.36	226.58
1017.64	226.53
1017.93	226.59
1018.22	226.46
1018.50	226.48
1018.79	226.45
1019.08	226.01
1019.36	226.08
1019.65	226.02
1019.93	226.33
1020.22	226.51
1020.51	226.88
1020.79	226.69
1021.08	224.60
1021.36	226.00
1021.65	225.90
1021.94	226.20
1022.22	226.40
1022.51	225.80
1022.79	232.10
1023.08	228.40
1023.36	236.70
1023.65	222.10
>>>>>End Processed Spectral Data<<<<<
