SpectraSuite Data File
++++++++++++++++++++++++++++++++++++
Date: Wed Sep 04 17:33:21 EDT 2013
User: lab3
Dark Spectrum Present: Yes
Reference Spectrum Present: No
Number of Sampled Component Spectra: 1
Spectrometers: USB2E7196
Integration Time (usec): 337000 (USB2E7196)
Spectra Averaged: 10 (USB2E7196)
Boxcar Smoothing: 10 (USB2E7196)
Correct for Electrical Dark: No (USB2E7196)
Strobe/Lamp Enabled: No (USB2E7196)
Correct for Detector Non-linearity: No (USB2E7196)
Correct for Stray Light: No (USB2E7196)
Number of Pixels in Processed Spectrum: 2048
>>>>>Begin Processed Spectral Data<<<<<
339.09	0.00
339.48	211.40
339.86	214.80
340.24	212.20
340.63	216.10
341.01	232.30
341.39	217.90
341.78	225.40
342.16	224.90
342.54	225.00
342.93	212.96
343.31	223.79
343.69	224.41
344.07	224.89
344.46	225.65
344.84	226.17
345.22	225.81
345.60	226.24
345.99	226.41
346.37	226.45
346.75	226.38
347.13	226.41
347.52	226.59
347.90	227.07
348.28	226.95
348.66	227.25
349.05	226.98
349.43	227.04
349.81	227.19
350.19	227.18
350.57	227.33
350.96	227.55
351.34	227.62
351.72	227.74
352.10	227.90
352.48	227.82
352.87	227.79
353.25	227.88
353.63	227.88
354.01	227.74
354.39	227.84
354.77	228.00
355.15	228.27
355.54	228.18
355.92	227.85
356.30	227.98
356.68	228.51
357.06	228.58
357.44	228.51
357.82	228.49
358.20	229.36
358.58	229.29
358.97	229.41
359.35	229.55
359.73	229.72
360.11	229.72
360.49	229.85
360.87	229.90
361.25	230.09
361.63	230.45
362.01	230.66
362.39	230.72
362.77	230.88
363.15	230.93
363.53	230.95
363.91	231.13
364.29	231.15
364.67	230.37
365.05	230.42
365.43	230.55
365.81	230.72
366.19	230.44
366.57	230.90
366.95	230.98
367.33	230.89
367.71	230.93
368.09	231.17
368.47	231.14
368.85	231.18
369.23	231.35
369.61	231.07
369.99	231.24
370.37	231.40
370.75	231.72
371.13	231.50
371.51	231.42
371.89	231.43
372.27	231.47
372.65	231.50
373.03	231.53
373.41	231.43
373.78	231.25
374.16	230.70
374.54	230.31
374.92	229.99
375.30	229.89
375.68	229.73
376.06	229.56
376.44	229.46
376.82	229.49
377.19	229.30
377.57	229.16
377.95	228.89
378.33	228.64
378.71	228.12
379.09	228.28
379.47	228.42
379.84	228.16
380.22	227.99
380.60	227.76
380.98	227.67
381.36	227.67
381.73	227.50
382.11	227.61
382.49	227.64
382.87	227.54
383.25	227.47
383.62	228.44
384.00	228.23
384.38	228.21
384.76	228.35
385.13	228.73
385.51	228.69
385.89	228.43
386.27	228.36
386.64	228.49
387.02	228.27
387.40	228.00
387.78	228.19
388.15	228.17
388.53	228.22
388.91	228.16
389.29	228.04
389.66	228.19
390.04	228.10
390.42	228.27
390.79	228.25
391.17	228.20
391.55	227.16
391.92	227.22
392.30	227.41
392.68	227.19
393.05	227.02
393.43	227.12
393.81	227.30
394.18	227.16
394.56	227.15
394.94	227.38
395.31	227.36
395.69	227.57
396.06	227.77
396.44	227.81
396.82	227.80
397.19	228.31
397.57	228.35
397.95	228.57
398.32	228.22
398.70	228.38
399.07	228.70
399.45	228.75
399.82	228.71
400.20	228.65
400.58	228.68
400.95	228.36
401.33	228.57
401.70	229.33
402.08	229.59
402.45	229.63
402.83	229.91
403.20	230.24
403.58	230.23
403.95	230.53
404.33	230.80
404.71	231.06
405.08	231.81
405.46	232.03
405.83	232.36
406.21	232.77
406.58	233.21
406.96	233.42
407.33	233.88
407.70	234.60
408.08	235.74
408.45	236.34
408.83	237.09
409.20	237.59
409.58	237.46
409.95	238.20
410.33	238.95
410.70	239.39
411.08	240.15
411.45	241.04
411.82	241.70
412.20	242.76
412.57	244.25
412.95	244.27
413.32	245.35
413.69	246.28
414.07	247.41
414.44	248.56
414.82	249.83
415.19	251.40
415.56	252.75
415.94	253.73
416.31	255.61
416.68	257.53
417.06	259.66
417.43	261.94
417.81	264.26
418.18	266.60
418.55	269.08
418.93	271.69
419.30	274.28
419.67	277.16
420.04	280.05
420.42	282.95
420.79	287.30
421.16	291.00
421.54	295.24
421.91	299.24
422.28	303.08
422.66	307.41
423.03	312.16
423.40	316.55
423.77	321.27
424.15	325.82
424.52	330.60
424.89	336.07
425.26	341.02
425.64	346.02
426.01	351.54
426.38	357.39
426.75	363.40
427.13	369.37
427.50	375.55
427.87	381.75
428.24	387.87
428.61	393.42
428.99	400.47
429.36	407.38
429.73	414.52
430.10	421.88
430.47	429.28
430.85	436.12
431.22	444.02
431.59	453.04
431.96	461.33
432.33	470.27
432.70	478.80
433.08	489.09
433.45	498.62
433.82	508.04
434.19	518.56
434.56	529.04
434.93	538.99
435.30	549.10
435.68	560.32
436.05	571.65
436.42	582.43
436.79	592.45
437.16	603.29
437.53	614.62
437.90	626.04
438.27	637.41
438.64	649.04
439.01	659.98
439.38	669.03
439.75	678.28
440.13	688.82
440.50	698.78
440.87	706.76
441.24	715.06
441.61	724.30
441.98	730.98
442.35	738.39
442.72	746.47
443.09	754.25
443.46	758.84
443.83	761.69
444.20	764.33
444.57	767.71
444.94	769.26
445.31	770.95
445.68	773.47
446.05	773.77
446.42	772.30
446.79	770.68
447.16	768.74
447.53	767.43
447.90	762.74
448.27	757.88
448.64	751.89
449.01	747.34
449.37	739.58
449.74	731.96
450.11	723.78
450.48	713.77
450.85	703.45
451.22	694.83
451.59	686.41
451.96	678.58
452.33	668.35
452.70	658.82
453.07	647.57
453.43	635.26
453.80	624.38
454.17	614.22
454.54	604.32
454.91	593.96
455.28	583.45
455.65	573.84
456.02	565.67
456.38	557.35
456.75	547.37
457.12	538.80
457.49	530.62
457.86	521.90
458.23	515.33
458.59	507.85
458.96	500.30
459.33	493.68
459.70	487.07
460.07	481.63
460.43	475.68
460.80	470.36
461.17	465.55
461.54	460.39
461.91	455.35
462.27	450.19
462.64	445.77
463.01	440.96
463.38	436.81
463.74	431.05
464.11	427.10
464.48	423.80
464.85	420.12
465.21	417.48
465.58	414.67
465.95	410.87
466.32	408.10
466.68	405.17
467.05	402.49
467.42	399.61
467.78	396.61
468.15	393.68
468.52	391.42
468.88	388.35
469.25	385.80
469.62	383.83
469.98	381.89
470.35	380.00
470.72	378.38
471.08	376.04
471.45	374.58
471.82	373.09
472.18	371.05
472.55	369.91
472.92	368.00
473.28	366.40
473.65	364.84
474.02	363.36
474.38	362.21
474.75	361.14
475.11	359.95
475.48	359.11
475.85	358.29
476.21	357.40
476.58	356.89
476.94	356.25
477.31	355.67
477.67	354.98
478.04	354.43
478.41	354.00
478.77	354.65
479.14	353.92
479.50	353.47
479.87	353.28
480.23	352.94
480.60	352.72
480.96	352.58
481.33	353.11
481.69	353.27
482.06	353.48
482.42	353.70
482.79	353.93
483.15	354.29
483.52	354.90
483.88	355.22
484.25	355.78
484.61	356.29
484.98	356.72
485.34	357.63
485.71	358.61
486.07	359.34
486.44	359.41
486.80	360.62
487.17	361.67
487.53	363.16
487.90	364.51
488.26	366.34
488.62	368.01
488.99	369.17
489.35	370.88
489.72	372.51
490.08	374.23
490.44	376.17
490.81	378.20
491.17	380.25
491.54	382.68
491.90	385.02
492.26	387.63
492.63	390.36
492.99	393.09
493.36	395.96
493.72	399.25
494.08	402.50
494.45	405.98
494.81	409.80
495.17	413.27
495.54	417.25
495.90	421.09
496.26	425.36
496.63	429.91
496.99	434.18
497.35	438.80
497.72	443.77
498.08	448.64
498.44	453.88
498.80	459.43
499.17	464.83
499.53	470.45
499.89	476.48
500.26	482.68
500.62	488.86
500.98	495.44
501.34	502.04
501.71	509.00
502.07	515.90
502.43	522.95
502.79	530.32
503.16	538.00
503.52	545.66
503.88	553.27
504.24	561.25
504.60	570.06
504.97	578.89
505.33	587.72
505.69	597.45
506.05	606.82
506.41	616.40
506.78	626.41
507.14	636.64
507.50	647.04
507.86	657.49
508.22	668.49
508.59	679.33
508.95	690.60
509.31	702.52
509.67	714.42
510.03	726.03
510.39	738.33
510.75	750.34
511.12	763.10
511.48	776.23
511.84	789.26
512.20	802.00
512.56	815.48
512.92	828.90
513.28	842.41
513.64	856.27
514.00	870.29
514.37	884.70
514.73	899.10
515.09	913.81
515.45	928.73
515.81	943.73
516.17	958.89
516.53	973.90
516.89	988.60
517.25	1004.15
517.61	1020.98
517.97	1037.40
518.33	1053.89
518.69	1070.49
519.05	1087.13
519.41	1104.15
519.77	1122.25
520.13	1138.97
520.49	1155.83
520.85	1175.80
521.21	1193.67
521.57	1211.35
521.93	1228.38
522.29	1245.89
522.65	1262.77
523.01	1280.01
523.37	1296.97
523.73	1314.43
524.09	1331.83
524.45	1349.15
524.81	1366.40
525.17	1383.41
525.53	1400.58
525.89	1418.06
526.25	1435.29
526.61	1452.20
526.97	1469.32
527.33	1486.23
527.68	1505.23
528.04	1523.27
528.40	1538.26
528.76	1555.89
529.12	1573.13
529.48	1591.09
529.84	1608.03
530.20	1626.41
530.56	1644.44
530.91	1662.40
531.27	1679.79
531.63	1697.92
531.99	1715.59
532.35	1733.38
532.71	1750.38
533.07	1768.12
533.42	1785.78
533.78	1802.80
534.14	1820.08
534.50	1837.46
534.86	1854.50
535.21	1869.28
535.57	1885.81
535.93	1901.17
536.29	1917.02
536.65	1933.55
537.00	1948.96
537.36	1964.85
537.72	1979.18
538.08	1994.25
538.44	2008.70
538.79	2023.17
539.15	2037.59
539.51	2052.41
539.87	2065.92
540.22	2079.27
540.58	2092.72
540.94	2104.36
541.29	2116.23
541.65	2127.79
542.01	2139.00
542.37	2149.05
542.72	2159.94
543.08	2169.80
543.44	2181.38
543.79	2190.59
544.15	2200.00
544.51	2209.71
544.87	2219.25
545.22	2228.64
545.58	2236.68
545.94	2244.72
546.29	2252.41
546.65	2259.04
547.01	2265.09
547.36	2271.43
547.72	2277.96
548.07	2282.72
548.43	2288.96
548.79	2294.82
549.14	2300.40
549.50	2305.99
549.86	2311.47
550.21	2316.35
550.57	2321.81
550.92	2324.62
551.28	2328.28
551.64	2331.55
551.99	2335.03
552.35	2338.05
552.70	2341.39
553.06	2344.91
553.41	2348.10
553.77	2351.78
554.13	2355.42
554.48	2359.08
554.84	2362.74
555.19	2365.64
555.55	2369.59
555.90	2371.35
556.26	2373.12
556.61	2374.17
556.97	2374.20
557.32	2375.30
557.68	2376.46
558.03	2377.12
558.39	2378.18
558.74	2379.73
559.10	2379.92
559.45	2379.66
559.81	2378.60
560.16	2376.77
560.52	2374.91
560.87	2373.76
561.23	2371.85
561.58	2369.99
561.94	2366.45
562.29	2362.16
562.64	2358.87
563.00	2354.40
563.35	2351.65
563.71	2348.73
564.06	2346.21
564.42	2343.41
564.77	2340.99
565.12	2338.07
565.48	2335.04
565.83	2331.72
566.19	2327.84
566.54	2324.27
566.89	2320.02
567.25	2316.41
567.60	2313.58
567.96	2310.89
568.31	2307.41
568.66	2303.27
569.02	2297.85
569.37	2293.67
569.72	2290.57
570.08	2286.00
570.43	2280.68
570.78	2275.86
571.14	2270.43
571.49	2264.26
571.84	2258.97
572.20	2252.25
572.55	2245.93
572.90	2238.34
573.26	2231.47
573.61	2223.94
573.96	2216.42
574.31	2208.72
574.67	2201.29
575.02	2192.76
575.37	2183.47
575.72	2173.97
576.08	2165.67
576.43	2157.20
576.78	2148.41
577.13	2138.60
577.49	2129.44
577.84	2121.41
578.19	2113.33
578.54	2104.92
578.90	2097.20
579.25	2089.06
579.60	2080.57
579.95	2071.48
580.30	2062.57
580.66	2053.34
581.01	2044.23
581.36	2034.71
581.71	2026.05
582.06	2016.89
582.42	2008.22
582.77	1999.49
583.12	1991.22
583.47	1982.11
583.82	1973.82
584.17	1965.70
584.53	1957.86
584.88	1948.64
585.23	1939.20
585.58	1928.55
585.93	1918.35
586.28	1908.42
586.63	1898.12
586.98	1887.27
587.34	1877.53
587.69	1867.99
588.04	1858.77
588.39	1849.95
588.74	1840.61
589.09	1831.82
589.44	1821.88
589.79	1812.52
590.14	1803.80
590.49	1794.56
590.84	1785.49
591.19	1776.50
591.54	1766.97
591.89	1757.52
592.25	1750.28
592.60	1741.78
592.95	1733.12
593.30	1724.58
593.65	1714.70
594.00	1704.91
594.35	1699.19
594.70	1689.53
595.05	1680.30
595.40	1670.64
595.75	1660.86
596.10	1652.15
596.45	1642.90
596.80	1634.47
597.15	1625.13
597.50	1615.60
597.85	1606.67
598.19	1597.21
598.54	1587.31
598.89	1577.91
599.24	1569.17
599.59	1559.29
599.94	1549.82
600.29	1541.22
600.64	1532.36
600.99	1523.99
601.34	1516.05
601.69	1504.83
602.04	1496.72
602.39	1488.45
602.74	1481.14
603.08	1473.11
603.43	1465.14
603.78	1456.89
604.13	1448.63
604.48	1440.14
604.83	1431.63
605.18	1422.41
605.53	1413.99
605.87	1405.99
606.22	1398.70
606.57	1390.30
606.92	1381.92
607.27	1373.83
607.62	1365.86
607.96	1358.08
608.31	1350.89
608.66	1343.38
609.01	1335.69
609.36	1327.87
609.70	1319.97
610.05	1311.74
610.40	1304.22
610.75	1296.23
611.10	1288.29
611.44	1280.28
611.79	1272.67
612.14	1265.01
612.49	1257.73
612.83	1250.62
613.18	1243.35
613.53	1235.75
613.88	1228.05
614.22	1220.32
614.57	1212.52
614.92	1204.66
615.27	1197.48
615.61	1189.26
615.96	1181.64
616.31	1174.00
616.65	1166.94
617.00	1159.96
617.35	1152.43
617.70	1144.97
618.04	1137.45
618.39	1130.33
618.74	1123.77
619.08	1116.53
619.43	1109.55
619.78	1102.40
620.12	1094.96
620.47	1087.79
620.82	1080.00
621.16	1072.75
621.51	1066.21
621.85	1059.91
622.20	1053.00
622.55	1045.54
622.89	1039.10
623.24	1032.34
623.59	1025.79
623.93	1019.24
624.28	1012.42
624.62	1006.86
624.97	1000.98
625.32	994.60
625.66	987.71
626.01	981.10
626.35	975.33
626.70	968.91
627.04	963.43
627.39	957.19
627.73	951.26
628.08	945.78
628.43	939.97
628.77	933.42
629.12	927.50
629.46	922.07
629.81	917.01
630.15	911.45
630.50	905.99
630.84	900.20
631.19	894.15
631.53	888.95
631.88	882.50
632.22	876.70
632.57	871.90
632.91	866.78
633.26	861.51
633.60	855.74
633.95	850.28
634.29	844.03
634.64	838.66
634.98	832.99
635.32	827.71
635.67	822.84
636.01	818.04
636.36	812.41
636.70	807.61
637.05	802.13
637.39	797.39
637.73	792.30
638.08	787.59
638.42	782.57
638.77	777.09
639.11	771.57
639.45	765.74
639.80	759.99
640.14	755.02
640.49	749.99
640.83	745.24
641.17	740.69
641.52	736.18
641.86	731.83
642.20	727.78
642.55	723.10
642.89	718.48
643.23	714.07
643.58	710.14
643.92	705.25
644.26	700.91
644.61	696.42
644.95	691.80
645.29	687.16
645.64	683.21
645.98	678.99
646.32	675.30
646.66	671.20
647.01	667.11
647.35	663.09
647.69	658.94
648.04	655.31
648.38	651.41
648.72	647.64
649.06	643.20
649.41	638.91
649.75	634.44
650.09	630.35
650.43	626.33
650.78	621.97
651.12	617.80
651.46	613.91
651.80	610.21
652.14	606.52
652.49	603.21
652.83	599.43
653.17	595.76
653.51	591.76
653.85	588.56
654.20	585.16
654.54	581.49
654.88	577.96
655.22	574.69
655.56	571.22
655.90	567.66
656.25	564.49
656.59	561.13
656.93	558.32
657.27	555.42
657.61	551.87
657.95	548.97
658.29	545.94
658.64	542.97
658.98	539.43
659.32	536.16
659.66	532.78
660.00	529.59
660.34	526.54
660.68	523.62
661.02	520.53
661.36	517.57
661.70	514.77
662.05	511.85
662.39	508.70
662.73	505.94
663.07	503.62
663.41	501.00
663.75	498.13
664.09	495.15
664.43	491.96
664.77	489.39
665.11	486.67
665.45	484.11
665.79	481.45
666.13	478.78
666.47	476.05
666.81	473.47
667.15	470.65
667.49	468.34
667.83	466.27
668.17	463.77
668.51	461.47
668.85	459.11
669.19	457.45
669.53	455.00
669.87	452.53
670.21	449.82
670.55	447.45
670.89	445.69
671.23	443.59
671.57	441.21
671.91	439.13
672.25	436.87
672.58	434.84
672.92	432.40
673.26	430.55
673.60	428.73
673.94	426.78
674.28	425.04
674.62	423.03
674.96	420.83
675.30	419.01
675.64	417.06
675.97	415.10
676.31	412.57
676.65	410.40
676.99	408.75
677.33	406.90
677.67	405.00
678.01	402.69
678.34	400.80
678.68	399.40
679.02	397.52
679.36	395.78
679.70	393.98
680.04	392.37
680.37	390.62
680.71	388.92
681.05	387.26
681.39	385.67
681.73	384.11
682.06	382.58
682.40	380.94
682.74	379.55
683.08	378.20
683.42	376.60
683.75	375.37
684.09	373.65
684.43	372.24
684.77	370.89
685.10	369.50
685.44	368.15
685.78	366.56
686.12	365.01
686.45	363.63
686.79	362.16
687.13	361.04
687.46	359.54
687.80	358.29
688.14	356.74
688.48	355.45
688.81	354.08
689.15	352.96
689.49	351.66
689.82	350.30
690.16	348.73
690.50	347.51
690.83	346.30
691.17	344.85
691.51	343.59
691.84	342.44
692.18	341.07
692.52	339.82
692.85	338.83
693.19	338.13
693.52	336.93
693.86	335.65
694.20	334.43
694.53	333.36
694.87	332.12
695.21	330.87
695.54	329.75
695.88	328.42
696.21	327.01
696.55	325.80
696.88	324.60
697.22	323.43
697.56	322.40
697.89	321.15
698.23	320.37
698.56	319.19
698.90	318.14
699.23	317.11
699.57	316.11
699.90	315.01
700.24	313.68
700.58	312.76
700.91	312.03
701.25	311.70
701.58	311.45
701.92	310.84
702.25	310.27
702.59	309.30
702.92	308.53
703.26	307.71
703.59	306.95
703.93	306.83
704.26	306.18
704.60	305.59
704.93	304.61
705.26	303.67
705.60	303.07
705.93	301.96
706.27	301.60
706.60	301.17
706.94	300.75
707.27	300.07
707.61	299.34
707.94	298.56
708.27	297.12
708.61	295.66
708.94	294.67
709.28	293.94
709.61	293.09
709.94	292.32
710.28	291.58
710.61	291.00
710.95	289.58
711.28	289.41
711.61	288.54
711.95	288.15
712.28	287.43
712.61	286.72
712.95	286.72
713.28	286.27
713.61	285.34
713.95	284.27
714.28	283.56
714.61	282.84
714.95	282.09
715.28	281.26
715.61	280.70
715.95	280.15
716.28	279.34
716.61	278.96
716.95	278.36
717.28	277.86
717.61	277.06
717.94	276.49
718.28	275.22
718.61	274.66
718.94	274.01
719.27	273.46
719.61	272.98
719.94	272.16
720.27	271.29
720.60	270.80
720.94	270.41
721.27	270.11
721.60	269.82
721.93	269.35
722.27	269.40
722.60	269.08
722.93	268.65
723.26	268.42
723.59	267.75
723.93	267.40
724.26	266.91
724.59	266.52
724.92	266.20
725.25	266.20
725.59	265.65
725.92	265.30
726.25	264.92
726.58	264.62
726.91	264.22
727.24	263.84
727.57	263.40
727.91	262.95
728.24	262.62
728.57	262.10
728.90	261.94
729.23	261.27
729.56	261.23
729.89	260.82
730.22	260.40
730.55	260.14
730.89	259.88
731.22	259.50
731.55	259.25
731.88	258.90
732.21	258.30
732.54	258.10
732.87	257.83
733.20	257.60
733.53	257.29
733.86	257.06
734.19	256.65
734.52	256.52
734.85	256.88
735.18	256.44
735.51	256.47
735.84	256.20
736.17	256.18
736.50	255.54
736.83	256.38
737.16	256.10
737.49	256.01
737.82	255.60
738.15	255.52
738.48	255.21
738.81	254.86
739.14	254.55
739.47	254.23
739.80	253.94
740.13	253.82
740.46	253.31
740.79	253.01
741.12	252.85
741.45	252.45
741.78	251.60
742.11	251.67
742.44	251.20
742.77	251.10
743.10	250.65
743.43	250.39
743.75	249.14
744.08	250.07
744.41	249.75
744.74	249.51
745.07	249.10
745.40	249.20
745.73	249.49
746.06	249.38
746.39	249.14
746.71	248.90
747.04	248.58
747.37	248.36
747.70	248.20
748.03	248.08
748.36	248.01
748.68	247.81
749.01	247.31
749.34	247.22
749.67	246.95
750.00	246.98
750.33	247.48
750.65	247.35
750.98	246.02
751.31	245.87
751.64	245.89
751.97	246.22
752.29	245.87
752.62	245.20
752.95	244.87
753.28	244.72
753.60	244.56
753.93	244.62
754.26	244.75
754.59	244.31
754.91	243.93
755.24	243.77
755.57	243.65
755.90	243.58
756.22	243.25
756.55	243.00
756.88	242.54
757.20	241.77
757.53	241.45
757.86	241.38
758.19	241.32
758.51	241.14
758.84	240.48
759.17	240.17
759.49	240.05
759.82	240.45
760.15	240.41
760.47	240.24
760.80	239.82
761.13	239.77
761.45	239.68
761.78	239.70
762.11	239.48
762.43	239.28
762.76	239.05
763.08	239.22
763.41	239.19
763.74	239.29
764.06	239.16
764.39	239.03
764.71	238.88
765.04	238.64
765.37	238.43
765.69	238.37
766.02	238.36
766.34	238.17
766.67	237.72
767.00	237.85
767.32	238.22
767.65	238.70
767.97	238.51
768.30	238.52
768.62	238.44
768.95	238.27
769.27	238.21
769.60	238.24
769.92	237.91
770.25	237.65
770.57	237.36
770.90	237.22
771.22	237.01
771.55	236.88
771.87	236.84
772.20	236.80
772.52	237.56
772.85	238.58
773.17	238.58
773.50	238.50
773.82	238.23
774.15	237.66
774.47	237.10
774.80	236.89
775.12	236.74
775.45	236.63
775.77	236.77
776.09	236.68
776.42	236.62
776.74	236.84
777.07	236.70
777.39	236.71
777.72	236.65
778.04	236.76
778.36	236.67
778.69	236.61
779.01	236.55
779.33	235.62
779.66	234.52
779.98	234.42
780.31	234.32
780.63	234.65
780.95	234.77
781.28	234.70
781.60	234.58
781.92	234.64
782.25	234.49
782.57	234.34
782.89	234.30
783.22	234.12
783.54	233.81
783.86	233.86
784.19	233.70
784.51	233.89
784.83	233.69
785.16	233.62
785.48	233.60
785.80	233.62
786.12	233.66
786.45	233.56
786.77	233.66
787.09	233.61
787.42	233.22
787.74	233.17
788.06	233.15
788.38	233.10
788.71	232.93
789.03	233.02
789.35	233.04
789.67	232.90
789.99	233.10
790.32	232.97
790.64	233.00
790.96	233.74
791.28	233.32
791.61	233.36
791.93	233.32
792.25	233.17
792.57	233.73
792.89	233.53
793.21	233.60
793.54	233.37
793.86	233.20
794.18	233.23
794.50	233.01
794.82	232.93
795.14	233.04
795.47	233.19
795.79	233.10
796.11	232.94
796.43	232.90
796.75	232.88
797.07	232.93
797.39	232.94
797.71	232.22
798.04	232.33
798.36	232.22
798.68	232.23
799.00	232.29
799.32	231.69
799.64	231.79
799.96	231.68
800.28	231.90
800.60	231.87
800.92	231.89
801.24	231.95
801.56	232.00
801.89	232.00
802.21	231.98
802.53	231.86
802.85	232.06
803.17	232.53
803.49	232.20
803.81	232.07
804.13	232.00
804.45	231.90
804.77	231.94
805.09	232.03
805.41	231.93
805.73	231.75
806.05	231.56
806.37	231.59
806.69	231.59
807.01	231.40
807.33	231.42
807.65	230.95
807.97	231.30
808.28	231.22
808.60	231.01
808.92	230.87
809.24	231.47
809.56	231.20
809.88	230.92
810.20	230.98
810.52	231.16
810.84	231.02
811.16	230.90
811.48	230.87
811.80	231.13
812.12	231.12
812.43	231.36
812.75	231.48
813.07	231.32
813.39	231.24
813.71	231.16
814.03	231.10
814.35	231.27
814.67	230.84
814.98	230.79
815.30	230.88
815.62	230.80
815.94	230.13
816.26	230.63
816.58	230.24
816.89	230.22
817.21	229.99
817.53	230.05
817.85	230.12
818.17	230.01
818.48	229.68
818.80	229.89
819.12	229.77
819.44	229.65
819.76	229.50
820.07	229.47
820.39	229.39
820.71	229.42
821.03	229.41
821.34	229.47
821.66	229.54
821.98	229.61
822.30	229.49
822.61	230.17
822.93	229.69
823.25	229.73
823.57	229.72
823.88	229.86
824.20	229.70
824.52	229.90
824.83	229.97
825.15	229.86
825.47	229.74
825.79	229.72
826.10	229.63
826.42	229.62
826.74	229.79
827.05	229.75
827.37	229.82
827.69	229.81
828.00	229.80
828.32	229.82
828.64	229.76
828.95	230.22
829.27	229.84
829.58	229.85
829.90	230.04
830.22	230.06
830.53	229.93
830.85	230.03
831.17	229.81
831.48	229.74
831.80	229.78
832.11	229.79
832.43	229.76
832.75	229.73
833.06	230.36
833.38	230.05
833.69	230.14
834.01	230.16
834.32	230.09
834.64	230.00
834.96	229.86
835.27	229.81
835.59	229.57
835.90	229.40
836.22	229.28
836.53	229.07
836.85	228.97
837.16	229.92
837.48	229.88
837.79	230.10
838.11	230.10
838.42	230.07
838.74	230.16
839.05	230.03
839.37	230.11
839.68	229.52
840.00	229.58
840.31	229.70
840.63	229.59
840.94	229.51
841.26	229.37
841.57	229.43
841.88	229.46
842.20	229.28
842.51	229.28
842.83	229.38
843.14	230.29
843.46	230.37
843.77	229.80
844.08	229.76
844.40	229.47
844.71	229.38
845.03	229.38
845.34	229.30
845.65	229.29
845.97	229.22
846.28	229.27
846.60	229.39
846.91	229.24
847.22	229.24
847.54	229.47
847.85	229.54
848.16	229.38
848.48	229.22
848.79	229.72
849.10	229.70
849.42	229.71
849.73	228.82
850.04	228.77
850.36	228.37
850.67	228.62
850.98	228.64
851.30	228.74
851.61	228.71
851.92	228.69
852.23	228.93
852.55	229.02
852.86	229.03
853.17	229.02
853.49	229.24
853.80	229.41
854.11	229.51
854.42	229.61
854.74	229.58
855.05	229.66
855.36	229.12
855.67	229.29
855.99	229.27
856.30	230.39
856.61	230.37
856.92	230.48
857.23	230.35
857.55	230.30
857.86	230.24
858.17	230.32
858.48	230.13
858.79	230.00
859.11	230.08
859.42	230.05
859.73	229.90
860.04	229.70
860.35	229.45
860.66	229.03
860.98	228.96
861.29	229.09
861.60	228.93
861.91	229.20
862.22	228.87
862.53	228.74
862.84	227.68
863.16	227.91
863.47	227.80
863.78	227.66
864.09	227.71
864.40	227.73
864.71	227.70
865.02	227.90
865.33	227.70
865.64	227.47
865.95	227.43
866.27	228.12
866.58	228.20
866.89	228.25
867.20	228.27
867.51	228.19
867.82	228.06
868.13	228.43
868.44	228.19
868.75	228.52
869.06	228.59
869.37	228.64
869.68	228.20
869.99	228.33
870.30	228.44
870.61	228.61
870.92	228.59
871.23	228.52
871.54	228.59
871.85	228.83
872.16	228.97
872.47	228.96
872.78	228.24
873.09	228.26
873.40	228.20
873.71	228.28
874.02	228.36
874.33	228.30
874.64	228.06
874.95	228.13
875.26	227.92
875.56	227.80
875.87	227.73
876.18	227.76
876.49	228.71
876.80	228.60
877.11	228.34
877.42	228.30
877.73	228.29
878.04	228.15
878.35	228.17
878.66	228.16
878.96	228.09
879.27	228.19
879.58	228.15
879.89	228.21
880.20	228.48
880.51	228.42
880.82	228.47
881.12	228.45
881.43	228.31
881.74	228.20
882.05	228.24
882.36	228.22
882.67	228.39
882.97	227.30
883.28	227.23
883.59	227.22
883.90	227.35
884.21	227.44
884.51	227.37
884.82	227.23
885.13	227.25
885.44	227.26
885.74	227.32
886.05	227.32
886.36	227.25
886.67	226.94
886.98	227.58
887.28	227.65
887.59	227.71
887.90	227.80
888.20	227.71
888.51	227.88
888.82	227.78
889.13	227.86
889.43	228.64
889.74	228.63
890.05	228.58
890.35	228.42
890.66	228.38
890.97	228.36
891.28	228.34
891.58	228.30
891.89	228.30
892.20	228.05
892.50	227.93
892.81	227.90
893.12	228.03
893.42	227.49
893.73	227.65
894.04	227.76
894.34	227.81
894.65	227.84
894.95	227.72
895.26	227.71
895.57	228.17
895.87	227.30
896.18	227.46
896.48	227.60
896.79	227.76
897.10	227.89
897.40	227.84
897.71	227.90
898.01	227.80
898.32	227.91
898.63	227.95
898.93	228.05
899.24	228.13
899.54	228.01
899.85	227.94
900.15	227.80
900.46	227.67
900.76	227.76
901.07	227.71
901.38	227.66
901.68	227.90
901.99	227.32
902.29	227.40
902.60	227.27
902.90	227.15
903.21	227.04
903.51	226.88
903.82	227.12
904.12	227.00
904.43	227.07
904.73	227.08
905.03	227.15
905.34	228.01
905.64	227.95
905.95	227.90
906.25	227.85
906.56	227.84
906.86	227.87
907.17	227.70
907.47	227.77
907.77	227.66
908.08	227.43
908.38	227.46
908.69	227.54
908.99	227.74
909.30	227.72
909.60	227.66
909.90	227.75
910.21	227.42
910.51	227.43
910.81	227.43
911.12	227.42
911.42	227.41
911.73	226.33
912.03	226.38
912.33	226.58
912.64	226.63
912.94	226.58
913.24	226.47
913.55	226.44
913.85	226.43
914.15	226.70
914.46	226.80
914.76	226.70
915.06	226.55
915.37	226.40
915.67	226.51
915.97	226.52
916.27	226.29
916.58	226.43
916.88	226.40
917.18	226.29
917.49	226.95
917.79	226.96
918.09	227.21
918.39	227.48
918.70	227.45
919.00	227.44
919.30	227.86
919.60	227.88
919.91	227.79
920.21	227.90
920.51	227.70
920.81	227.71
921.12	227.93
921.42	227.98
921.72	228.09
922.02	228.10
922.32	228.22
922.63	228.28
922.93	228.80
923.23	228.87
923.53	228.81
923.83	228.25
924.13	228.27
924.44	228.30
924.74	228.31
925.04	228.49
925.34	228.49
925.64	228.07
925.94	228.02
926.24	228.54
926.55	228.35
926.85	228.57
927.15	228.52
927.45	228.56
927.75	228.64
928.05	228.58
928.35	228.39
928.65	228.56
928.95	228.73
929.26	228.32
929.56	228.43
929.86	228.59
930.16	228.51
930.46	228.47
930.76	228.46
931.06	228.05
931.36	227.77
931.66	227.86
931.96	228.04
932.26	228.01
932.56	227.70
932.86	227.88
933.16	227.72
933.46	227.51
933.76	227.25
934.06	227.43
934.36	227.78
934.66	227.75
934.96	227.58
935.26	227.45
935.56	227.60
935.86	227.37
936.16	227.26
936.46	227.09
936.76	227.14
937.06	226.90
937.36	226.98
937.66	227.10
937.96	227.01
938.26	226.74
938.56	226.77
938.86	226.85
939.16	226.92
939.46	226.95
939.76	227.06
940.06	227.11
940.35	226.91
940.65	226.40
940.95	226.49
941.25	226.30
941.55	226.25
941.85	226.07
942.15	226.24
942.45	226.53
942.75	226.50
943.04	226.58
943.34	226.86
943.64	226.74
943.94	226.49
944.24	226.56
944.54	226.59
944.84	226.49
945.13	226.26
945.43	226.12
945.73	226.20
946.03	226.20
946.33	226.09
946.62	226.01
946.92	226.12
947.22	226.28
947.52	226.37
947.82	226.49
948.11	226.43
948.41	226.24
948.71	225.95
949.01	226.06
949.31	225.85
949.60	225.75
949.90	226.06
950.20	226.07
950.50	226.07
950.79	226.00
951.09	226.15
951.39	226.19
951.69	226.14
951.98	226.29
952.28	226.36
952.58	226.40
952.87	226.42
953.17	226.45
953.47	226.24
953.76	226.25
954.06	226.15
954.36	226.15
954.66	226.31
954.95	226.64
955.25	226.71
955.55	226.90
955.84	226.77
956.14	226.90
956.44	226.99
956.73	226.86
957.03	226.98
957.32	227.07
957.62	227.01
957.92	227.14
958.21	227.00
958.51	228.05
958.81	228.19
959.10	228.35
959.40	228.55
959.69	228.70
959.99	228.88
960.29	228.96
960.58	228.79
960.88	229.08
961.17	228.93
961.47	229.07
961.76	228.96
962.06	229.19
962.36	228.89
962.65	228.94
962.95	228.98
963.24	228.91
963.54	228.90
963.83	229.03
964.13	229.02
964.42	228.88
964.72	228.12
965.01	228.23
965.31	228.20
965.60	227.99
965.90	228.66
966.19	228.50
966.49	228.51
966.78	228.62
967.08	228.60
967.37	228.66
967.67	228.48
967.96	228.70
968.26	228.57
968.55	228.72
968.85	228.70
969.14	228.74
969.43	228.83
969.73	228.81
970.02	228.81
970.32	228.76
970.61	228.72
970.91	228.50
971.20	228.30
971.49	228.18
971.79	228.40
972.08	227.68
972.38	227.66
972.67	227.61
972.96	227.73
973.26	227.48
973.55	227.67
973.85	227.60
974.14	227.53
974.43	227.54
974.73	227.37
975.02	227.31
975.31	227.28
975.61	227.26
975.90	227.21
976.19	227.09
976.49	227.18
976.78	227.32
977.07	227.31
977.37	227.34
977.66	227.41
977.95	227.13
978.24	227.14
978.54	227.33
978.83	227.19
979.12	227.15
979.42	227.17
979.71	226.95
980.00	226.93
980.29	226.88
980.59	226.75
980.88	227.02
981.17	226.96
981.46	226.94
981.76	226.86
982.05	227.06
982.34	227.22
982.63	227.21
982.93	227.11
983.22	227.44
983.51	227.40
983.80	227.56
984.09	227.75
984.39	227.70
984.68	227.63
984.97	227.71
985.26	227.47
985.55	227.54
985.85	227.37
986.14	227.49
986.43	227.54
986.72	227.56
987.01	227.26
987.30	227.37
987.59	227.37
987.89	227.37
988.18	227.01
988.47	226.84
988.76	226.81
989.05	226.73
989.34	226.45
989.63	226.61
989.92	226.46
990.22	226.35
990.51	226.46
990.80	226.31
991.09	226.45
991.38	226.73
991.67	226.74
991.96	226.69
992.25	226.70
992.54	226.41
992.83	226.50
993.12	226.55
993.41	226.63
993.70	226.94
993.99	227.17
994.28	227.41
994.58	227.52
994.87	227.39
995.16	227.42
995.45	227.33
995.74	227.14
996.03	227.23
996.32	227.40
996.61	227.48
996.90	227.52
997.19	227.45
997.48	227.43
997.77	227.24
998.06	227.29
998.34	227.16
998.63	227.34
998.92	227.26
999.21	227.29
999.50	227.29
999.79	227.06
1000.08	227.08
1000.37	227.03
1000.66	227.03
1000.95	227.28
1001.24	227.40
1001.53	227.53
1001.82	227.48
1002.11	227.28
1002.40	227.28
1002.68	227.61
1002.97	228.29
1003.26	228.12
1003.55	227.95
1003.84	228.05
1004.13	228.47
1004.42	228.55
1004.71	228.54
1004.99	228.58
1005.28	228.79
1005.57	228.64
1005.86	228.46
1006.15	228.36
1006.44	228.24
1006.72	228.28
1007.01	228.11
1007.30	228.05
1007.59	227.91
1007.88	227.92
1008.17	228.00
1008.45	227.74
1008.74	227.20
1009.03	226.83
1009.32	226.73
1009.60	226.72
1009.89	226.59
1010.18	226.11
1010.47	225.98
1010.76	226.00
1011.04	225.85
1011.33	225.90
1011.62	226.04
1011.91	226.18
1012.19	226.14
1012.48	226.16
1012.77	226.12
1013.05	226.57
1013.34	226.58
1013.63	226.60
1013.92	226.64
1014.20	226.56
1014.49	226.69
1014.78	226.80
1015.06	226.39
1015.35	226.54
1015.64	226.61
1015.92	226.76
1016.21	226.78
1016.50	226.80
1016.78	226.91
1017.07	227.07
1017.36	226.94
1017.64	226.67
1017.93	226.74
1018.22	226.67
1018.50	226.66
1018.79	226.65
1019.08	226.26
1019.36	226.38
1019.65	226.35
1019.93	226.53
1020.22	226.64
1020.51	227.07
1020.79	226.97
1021.08	225.30
1021.36	226.00
1021.65	227.00
1021.94	228.00
1022.22	228.60
1022.51	226.10
1022.79	228.90
1023.08	227.40
1023.36	237.30
1023.65	224.50
>>>>>End Processed Spectral Data<<<<<
