SpectraSuite Data File
++++++++++++++++++++++++++++++++++++
Date: Wed Sep 04 17:33:00 EDT 2013
User: lab3
Dark Spectrum Present: Yes
Reference Spectrum Present: No
Number of Sampled Component Spectra: 1
Spectrometers: USB2E7196
Integration Time (usec): 337000 (USB2E7196)
Spectra Averaged: 10 (USB2E7196)
Boxcar Smoothing: 10 (USB2E7196)
Correct for Electrical Dark: No (USB2E7196)
Strobe/Lamp Enabled: No (USB2E7196)
Correct for Detector Non-linearity: No (USB2E7196)
Correct for Stray Light: No (USB2E7196)
Number of Pixels in Processed Spectrum: 2048
>>>>>Begin Processed Spectral Data<<<<<
339.09	0.00
339.48	212.10
339.86	213.70
340.24	217.20
340.63	217.40
341.01	233.00
341.39	220.40
341.78	224.00
342.16	225.30
342.54	224.30
342.93	213.32
343.31	224.13
343.69	224.72
344.07	225.18
344.46	225.70
344.84	226.16
345.22	225.81
345.60	226.03
345.99	226.12
346.37	226.17
346.75	226.24
347.13	226.34
347.52	226.38
347.90	226.73
348.28	226.75
348.66	227.04
349.05	226.77
349.43	226.85
349.81	227.06
350.19	226.96
350.57	227.01
350.96	227.17
351.34	227.21
351.72	227.30
352.10	227.44
352.48	227.43
352.87	227.48
353.25	227.56
353.63	227.59
354.01	227.71
354.39	227.93
354.77	227.99
355.15	228.27
355.54	228.20
355.92	227.99
356.30	228.10
356.68	228.74
357.06	228.86
357.44	228.81
357.82	228.76
358.20	229.71
358.58	229.70
358.97	229.70
359.35	229.95
359.73	230.14
360.11	230.19
360.49	230.34
360.87	230.31
361.25	230.45
361.63	230.88
362.01	230.90
362.39	230.76
362.77	230.87
363.15	230.84
363.53	230.97
363.91	231.08
364.29	230.98
364.67	230.04
365.05	230.06
365.43	230.22
365.81	230.36
366.19	230.02
366.57	230.42
366.95	230.35
367.33	230.12
367.71	230.14
368.09	230.31
368.47	230.20
368.85	230.19
369.23	230.40
369.61	230.07
369.99	230.43
370.37	230.66
370.75	231.09
371.13	230.92
371.51	230.78
371.89	230.82
372.27	231.03
372.65	231.15
373.03	231.21
373.41	231.02
373.78	230.94
374.16	230.47
374.54	230.13
374.92	230.08
375.30	230.03
375.68	229.82
376.06	229.86
376.44	229.74
376.82	229.75
377.19	229.51
377.57	229.44
377.95	229.02
378.33	228.76
378.71	228.09
379.09	228.12
379.47	228.22
379.84	228.15
380.22	227.90
380.60	227.66
380.98	227.41
381.36	227.29
381.73	227.08
382.11	227.12
382.49	227.18
382.87	227.06
383.25	226.98
383.62	228.15
384.00	227.78
384.38	227.80
384.76	227.98
385.13	228.34
385.51	228.26
385.89	228.06
386.27	228.08
386.64	228.26
387.02	228.16
387.40	227.90
387.78	227.82
388.15	227.89
388.53	227.85
388.91	227.80
389.29	227.72
389.66	227.82
390.04	227.64
390.42	227.79
390.79	227.88
391.17	227.95
391.55	226.80
391.92	226.90
392.30	227.04
392.68	226.81
393.05	226.70
393.43	226.80
393.81	226.91
394.18	226.72
394.56	226.68
394.94	226.93
395.31	226.96
395.69	227.24
396.06	227.34
396.44	227.39
396.82	227.44
397.19	228.12
397.57	228.10
397.95	228.36
398.32	228.06
398.70	228.10
399.07	228.30
399.45	228.31
399.82	228.45
400.20	228.32
400.58	228.34
400.95	228.13
401.33	228.34
401.70	229.13
402.08	229.39
402.45	229.57
402.83	229.80
403.20	230.07
403.58	230.07
403.95	230.50
404.33	230.81
404.71	231.17
405.08	231.85
405.46	232.15
405.83	232.45
406.21	232.81
406.58	233.24
406.96	233.52
407.33	233.96
407.70	234.46
408.08	235.60
408.45	236.30
408.83	237.00
409.20	237.50
409.58	237.46
409.95	238.15
410.33	238.84
410.70	239.20
411.08	240.02
411.45	240.84
411.82	241.36
412.20	242.41
412.57	243.63
412.95	243.61
413.32	244.85
413.69	245.90
414.07	247.01
414.44	248.26
414.82	249.50
415.19	251.02
415.56	252.41
415.94	253.51
416.31	255.30
416.68	257.03
417.06	259.08
417.43	261.19
417.81	263.47
418.18	265.70
418.55	268.11
418.93	270.69
419.30	273.29
419.67	276.22
420.04	278.90
420.42	281.94
420.79	286.17
421.16	289.50
421.54	293.50
421.91	297.39
422.28	301.13
422.66	305.21
423.03	309.77
423.40	313.87
423.77	318.31
424.15	322.71
424.52	327.56
424.89	332.90
425.26	337.76
425.64	342.44
426.01	347.74
426.38	353.30
426.75	359.00
427.13	364.85
427.50	370.75
427.87	377.12
428.24	383.21
428.61	388.75
428.99	395.66
429.36	402.31
429.73	409.21
430.10	416.29
430.47	423.59
430.85	430.51
431.22	438.54
431.59	447.47
431.96	455.41
432.33	464.20
432.70	472.58
433.08	482.51
433.45	492.20
433.82	501.38
434.19	511.91
434.56	522.34
434.93	531.98
435.30	541.84
435.68	552.91
436.05	563.70
436.42	574.26
436.79	584.11
437.16	594.70
437.53	605.78
437.90	617.03
438.27	628.21
438.64	639.57
439.01	650.34
439.38	659.16
439.75	668.43
440.13	678.73
440.50	688.49
440.87	696.65
441.24	704.86
441.61	713.93
441.98	720.49
442.35	727.90
442.72	735.99
443.09	743.88
443.46	748.26
443.83	751.51
444.20	754.15
444.57	757.65
444.94	759.66
445.31	761.50
445.68	763.76
446.05	764.20
446.42	762.95
446.79	761.30
447.16	759.58
447.53	758.30
447.90	753.59
448.27	748.97
448.64	742.91
449.01	738.38
449.37	730.90
449.74	723.51
450.11	715.42
450.48	705.65
450.85	695.47
451.22	686.81
451.59	678.54
451.96	670.80
452.33	660.68
452.70	651.24
453.07	640.40
453.43	628.61
453.80	617.87
454.17	607.67
454.54	597.90
454.91	587.60
455.28	577.33
455.65	568.00
456.02	560.10
456.38	552.11
456.75	542.14
457.12	533.90
457.49	525.72
457.86	517.19
458.23	510.59
458.59	503.28
458.96	496.23
459.33	489.63
459.70	483.23
460.07	478.13
460.43	472.07
460.80	466.71
461.17	462.02
461.54	456.83
461.91	451.79
462.27	446.73
462.64	442.39
463.01	437.90
463.38	433.90
463.74	428.20
464.11	424.08
464.48	420.94
464.85	417.26
465.21	414.79
465.58	411.87
465.95	408.12
466.32	405.27
466.68	402.10
467.05	399.24
467.42	396.39
467.78	393.20
468.15	390.61
468.52	388.47
468.88	385.42
469.25	383.04
469.62	381.30
469.98	379.25
470.35	377.58
470.72	375.58
471.08	373.12
471.45	371.53
471.82	370.13
472.18	368.07
472.55	366.81
472.92	364.87
473.28	363.39
473.65	362.00
474.02	360.59
474.38	359.54
474.75	358.58
475.11	357.27
475.48	356.32
475.85	355.54
476.21	354.53
476.58	353.89
476.94	353.29
477.31	352.70
477.67	352.19
478.04	351.61
478.41	351.30
478.77	351.89
479.14	351.24
479.50	350.89
479.87	350.80
480.23	350.59
480.60	350.47
480.96	350.31
481.33	350.60
481.69	350.70
482.06	350.66
482.42	350.81
482.79	351.02
483.15	351.37
483.52	351.68
483.88	351.86
484.25	352.14
484.61	352.54
484.98	352.90
485.34	353.75
485.71	354.42
486.07	355.23
486.44	355.29
486.80	356.13
487.17	357.03
487.53	358.25
487.90	359.37
488.26	360.83
488.62	362.28
488.99	363.36
489.35	364.78
489.72	366.45
490.08	368.00
490.44	369.61
490.81	371.50
491.17	373.05
491.54	375.15
491.90	377.47
492.26	379.63
492.63	381.86
492.99	384.00
493.36	386.51
493.72	389.14
494.08	391.88
494.45	394.82
494.81	397.96
495.17	400.72
495.54	404.09
495.90	407.33
496.26	410.73
496.63	414.61
496.99	418.23
497.35	421.98
497.72	425.90
498.08	429.98
498.44	434.12
498.80	438.84
499.17	443.16
499.53	447.54
499.89	452.73
500.26	457.57
500.62	462.51
500.98	467.79
501.34	473.12
501.71	478.64
502.07	484.24
502.43	489.76
502.79	495.70
503.16	501.83
503.52	508.01
503.88	514.23
504.24	520.67
504.60	527.61
504.97	534.51
505.33	541.55
505.69	549.27
506.05	556.81
506.41	564.40
506.78	572.29
507.14	580.21
507.50	588.16
507.86	596.45
508.22	605.08
508.59	613.49
508.95	622.20
509.31	631.37
509.67	640.43
510.03	649.65
510.39	659.06
510.75	668.37
511.12	677.89
511.48	687.70
511.84	697.32
512.20	707.05
512.56	717.10
512.92	727.18
513.28	737.31
513.64	747.54
514.00	757.95
514.37	768.69
514.73	779.95
515.09	791.16
515.45	802.50
515.81	813.65
516.17	825.24
516.53	836.52
516.89	847.83
517.25	859.59
517.61	872.21
517.97	884.72
518.33	897.15
518.69	909.78
519.05	922.61
519.41	935.67
519.77	949.10
520.13	962.24
520.49	975.39
520.85	988.66
521.21	1002.38
521.57	1015.84
521.93	1028.49
522.29	1041.57
522.65	1054.32
523.01	1067.82
523.37	1080.79
523.73	1094.10
524.09	1107.21
524.45	1120.22
524.81	1133.52
525.17	1146.61
525.53	1159.74
525.89	1172.78
526.25	1185.81
526.61	1198.74
526.97	1212.14
527.33	1225.78
527.68	1240.29
528.04	1254.39
528.40	1268.00
528.76	1281.88
529.12	1295.74
529.48	1310.02
529.84	1323.62
530.20	1338.10
530.56	1352.03
530.91	1366.16
531.27	1379.98
531.63	1394.56
531.99	1408.95
532.35	1422.95
532.71	1437.00
533.07	1451.31
533.42	1466.16
533.78	1480.45
534.14	1494.69
534.50	1508.12
534.86	1521.62
535.21	1533.94
535.57	1547.37
535.93	1560.19
536.29	1573.07
536.65	1586.34
537.00	1599.40
537.36	1611.99
537.72	1623.59
538.08	1636.34
538.44	1648.66
538.79	1661.03
539.15	1672.99
539.51	1684.72
539.87	1696.24
540.22	1707.10
540.58	1717.90
540.94	1727.75
541.29	1737.81
541.65	1747.79
542.01	1757.87
542.37	1766.91
542.72	1775.88
543.08	1784.14
543.44	1793.76
543.79	1802.06
544.15	1810.14
544.51	1819.01
544.87	1827.50
545.22	1835.70
545.58	1842.50
545.94	1849.43
546.29	1855.95
546.65	1862.06
547.01	1868.16
547.36	1874.23
547.72	1879.95
548.07	1885.06
548.43	1890.81
548.79	1896.13
549.14	1901.36
549.50	1906.65
549.86	1911.60
550.21	1916.49
550.57	1921.45
550.92	1924.80
551.28	1928.52
551.64	1932.73
551.99	1936.20
552.35	1939.91
552.70	1943.54
553.06	1947.43
553.41	1951.28
553.77	1955.00
554.13	1958.97
554.48	1962.57
554.84	1966.19
555.19	1969.59
555.55	1974.05
555.90	1976.39
556.26	1978.85
556.61	1980.30
556.97	1981.15
557.32	1983.31
557.68	1985.23
558.03	1987.11
558.39	1989.00
558.74	1991.02
559.10	1991.55
559.45	1992.19
559.81	1991.94
560.16	1991.54
560.52	1991.07
560.87	1990.79
561.23	1990.07
561.58	1989.38
561.94	1987.62
562.29	1985.33
562.64	1983.80
563.00	1980.60
563.35	1978.91
563.71	1977.32
564.06	1976.20
564.42	1974.89
564.77	1973.35
565.12	1971.32
565.48	1969.92
565.83	1967.99
566.19	1965.79
566.54	1963.58
566.89	1960.90
567.25	1959.10
567.60	1957.68
567.96	1956.28
568.31	1954.31
568.66	1951.84
569.02	1948.63
569.37	1946.29
569.72	1944.32
570.08	1941.02
570.43	1937.62
570.78	1934.22
571.14	1930.80
571.49	1927.04
571.84	1923.37
572.20	1918.59
572.55	1914.55
572.90	1908.90
573.26	1904.18
573.61	1898.41
573.96	1893.56
574.31	1888.09
574.67	1882.22
575.02	1875.90
575.37	1869.10
575.72	1862.31
576.08	1856.26
576.43	1849.72
576.78	1842.89
577.13	1835.96
577.49	1829.26
577.84	1823.50
578.19	1817.54
578.54	1811.00
578.90	1804.87
579.25	1798.80
579.60	1792.63
579.95	1785.79
580.30	1778.85
580.66	1771.66
581.01	1765.01
581.36	1757.09
581.71	1750.00
582.06	1743.65
582.42	1737.27
582.77	1730.40
583.12	1723.95
583.47	1716.63
583.82	1710.16
584.17	1703.50
584.53	1697.18
584.88	1690.04
585.23	1682.51
585.58	1674.25
585.93	1666.51
586.28	1658.40
586.63	1650.22
586.98	1641.55
587.34	1633.63
587.69	1626.01
588.04	1618.88
588.39	1611.56
588.74	1604.57
589.09	1597.75
589.44	1589.42
589.79	1581.66
590.14	1574.51
590.49	1566.98
590.84	1559.89
591.19	1552.60
591.54	1545.31
591.89	1537.41
592.25	1531.92
592.60	1524.37
592.95	1518.08
593.30	1510.81
593.65	1503.16
594.00	1495.44
594.35	1491.07
594.70	1483.79
595.05	1476.43
595.40	1468.41
595.75	1460.76
596.10	1453.42
596.45	1445.87
596.80	1438.77
597.15	1431.20
597.50	1423.15
597.85	1415.77
598.19	1408.20
598.54	1400.11
598.89	1392.25
599.24	1385.34
599.59	1376.72
599.94	1369.62
600.29	1362.04
600.64	1354.95
600.99	1347.53
601.34	1341.15
601.69	1331.86
602.04	1324.92
602.39	1318.09
602.74	1311.84
603.08	1305.17
603.43	1298.91
603.78	1291.91
604.13	1285.06
604.48	1278.11
604.83	1271.06
605.18	1263.85
605.53	1256.69
605.87	1250.15
606.22	1244.32
606.57	1237.30
606.92	1230.19
607.27	1223.51
607.62	1216.89
607.96	1210.45
608.31	1204.73
608.66	1198.39
609.01	1191.86
609.36	1185.42
609.70	1179.16
610.05	1172.29
610.40	1166.06
610.75	1158.91
611.10	1152.53
611.44	1145.98
611.79	1139.66
612.14	1133.71
612.49	1127.29
612.83	1121.34
613.18	1115.38
613.53	1108.66
613.88	1102.12
614.22	1095.80
614.57	1089.53
614.92	1082.93
615.27	1076.63
615.61	1070.08
615.96	1063.56
616.31	1057.14
616.65	1051.16
617.00	1044.89
617.35	1039.02
617.70	1032.71
618.04	1026.89
618.39	1020.95
618.74	1015.47
619.08	1009.55
619.43	1003.40
619.78	997.26
620.12	990.69
620.47	984.52
620.82	978.51
621.16	972.50
621.51	967.23
621.85	961.38
622.20	955.68
622.55	949.64
622.89	943.88
623.24	938.31
623.59	932.78
623.93	926.96
624.28	921.50
624.62	916.62
624.97	911.55
625.32	906.10
625.66	900.45
626.01	894.57
626.35	889.21
626.70	883.82
627.04	879.05
627.39	874.19
627.73	869.32
628.08	864.22
628.43	858.96
628.77	853.43
629.12	848.37
629.46	843.55
629.81	839.16
630.15	834.52
630.50	829.49
630.84	824.43
631.19	819.75
631.53	815.12
631.88	809.66
632.22	804.35
632.57	799.83
632.91	795.22
633.26	791.07
633.60	786.39
633.95	781.71
634.29	776.56
634.64	771.99
634.98	766.65
635.32	762.27
635.67	758.32
636.01	753.73
636.36	749.07
636.70	744.89
637.05	740.06
637.39	735.59
637.73	731.29
638.08	727.32
638.42	722.76
638.77	717.79
639.11	712.85
639.45	708.05
639.80	703.08
640.14	698.48
640.49	693.74
640.83	689.47
641.17	685.50
641.52	681.52
641.86	677.39
642.20	674.07
642.55	669.80
642.89	665.65
643.23	662.04
643.58	658.58
643.92	654.21
644.26	650.49
644.61	646.67
644.95	642.76
645.29	638.64
645.64	635.13
645.98	631.66
646.32	628.25
646.66	624.94
647.01	621.51
647.35	618.36
647.69	615.02
648.04	611.73
648.38	608.25
648.72	604.71
649.06	601.04
649.41	597.25
649.75	593.71
650.09	590.13
650.43	586.47
650.78	582.65
651.12	579.24
651.46	575.78
651.80	572.36
652.14	569.16
652.49	566.12
652.83	562.89
653.17	559.60
653.51	556.30
653.85	553.40
654.20	550.37
654.54	547.12
654.88	543.96
655.22	541.26
655.56	538.19
655.90	535.29
656.25	532.55
656.59	529.71
656.93	527.08
657.27	524.61
657.61	521.56
657.95	518.80
658.29	515.96
658.64	513.34
658.98	510.59
659.32	507.43
659.66	504.65
660.00	501.84
660.34	499.26
660.68	496.52
661.02	493.62
661.36	490.98
661.70	488.30
662.05	485.61
662.39	482.86
662.73	480.51
663.07	478.49
663.41	475.98
663.75	473.28
664.09	470.70
664.43	467.80
664.77	465.66
665.11	463.27
665.45	461.05
665.79	458.70
666.13	456.33
666.47	454.07
666.81	451.56
667.15	448.96
667.49	446.90
667.83	445.20
668.17	443.10
668.51	441.05
668.85	439.17
669.19	437.74
669.53	435.29
669.87	433.14
670.21	430.73
670.55	428.75
670.89	427.31
671.23	425.36
671.57	423.41
671.91	421.60
672.25	419.70
672.58	417.97
672.92	415.75
673.26	413.95
673.60	412.27
673.94	410.49
674.28	408.86
674.62	407.10
674.96	405.09
675.30	403.49
675.64	401.56
675.97	399.49
676.31	397.20
676.65	395.43
676.99	394.02
677.33	392.10
677.67	390.48
678.01	388.27
678.34	386.56
678.68	385.20
679.02	383.33
679.36	381.72
679.70	380.07
680.04	378.65
680.37	377.00
680.71	375.39
681.05	373.95
681.39	372.62
681.73	371.00
682.06	369.60
682.40	368.06
682.74	366.88
683.08	366.02
683.42	364.59
683.75	363.49
684.09	361.77
684.43	360.65
684.77	359.10
685.10	357.85
685.44	356.55
685.78	355.05
686.12	353.75
686.45	352.43
686.79	351.05
687.13	350.03
687.46	348.79
687.80	347.84
688.14	346.50
688.48	345.16
688.81	343.80
689.15	342.72
689.49	341.43
689.82	340.21
690.16	338.59
690.50	337.41
690.83	336.26
691.17	335.07
691.51	333.96
691.84	332.96
692.18	331.84
692.52	330.64
692.85	329.64
693.19	328.98
693.52	328.06
693.86	326.93
694.20	325.66
694.53	324.73
694.87	323.39
695.21	322.32
695.54	321.43
695.88	320.39
696.21	319.14
696.55	318.16
696.88	317.03
697.22	315.95
697.56	315.15
697.89	313.88
698.23	312.99
698.56	311.91
698.90	311.11
699.23	310.09
699.57	309.17
699.90	308.18
700.24	307.03
700.58	306.18
700.91	305.50
701.25	305.53
701.58	305.37
701.92	305.02
702.25	304.36
702.59	303.37
702.92	302.65
703.26	302.03
703.59	301.33
703.93	301.53
704.26	301.06
704.60	300.36
704.93	299.71
705.26	298.93
705.60	298.40
705.93	297.41
706.27	297.07
706.60	296.71
706.94	296.45
707.27	295.62
707.61	295.00
707.94	294.19
708.27	292.63
708.61	291.22
708.94	290.21
709.28	289.53
709.61	288.87
709.94	288.30
710.28	287.50
710.61	286.89
710.95	285.33
711.28	285.26
711.61	284.45
711.95	284.10
712.28	283.38
712.61	282.76
712.95	282.72
713.28	282.45
713.61	281.66
713.95	280.78
714.28	280.26
714.61	279.49
714.95	278.80
715.28	278.17
715.61	277.50
715.95	277.13
716.28	276.38
716.61	276.00
716.95	275.29
717.28	274.71
717.61	274.04
717.94	273.55
718.28	272.19
718.61	271.66
718.94	270.95
719.27	270.56
719.61	270.12
719.94	269.30
720.27	268.30
720.60	267.74
720.94	267.32
721.27	266.93
721.60	266.68
721.93	266.27
722.27	266.24
722.60	265.94
722.93	265.46
723.26	265.19
723.59	264.63
723.93	264.46
724.26	264.11
724.59	263.82
724.92	263.47
725.25	263.51
725.59	263.21
725.92	262.98
726.25	262.64
726.58	262.27
726.91	261.84
727.24	261.73
727.57	261.38
727.91	260.86
728.24	260.63
728.57	260.22
728.90	260.03
729.23	259.47
729.56	259.61
729.89	259.22
730.22	258.87
730.55	258.57
730.89	258.18
731.22	257.90
731.55	257.55
731.88	257.25
732.21	256.64
732.54	256.18
732.87	255.92
733.20	255.60
733.53	255.35
733.86	255.24
734.19	254.88
734.52	254.74
734.85	255.12
735.18	254.75
735.51	254.79
735.84	254.69
736.17	254.68
736.50	253.98
736.83	254.94
737.16	254.78
737.49	254.61
737.82	254.42
738.15	254.37
738.48	254.20
738.81	253.96
739.14	253.81
739.47	253.79
739.80	253.47
740.13	253.43
740.46	253.07
740.79	252.78
741.12	252.54
741.45	252.18
741.78	251.48
742.11	251.49
742.44	251.06
742.77	251.01
743.10	250.58
743.43	250.47
743.75	249.20
744.08	250.18
744.41	249.88
744.74	249.60
745.07	249.09
745.40	248.99
745.73	249.16
746.06	248.93
746.39	248.79
746.71	248.57
747.04	248.25
747.37	248.12
747.70	248.04
748.03	247.86
748.36	247.85
748.68	247.60
749.01	247.13
749.34	246.94
749.67	246.64
750.00	246.70
750.33	247.21
750.65	247.11
750.98	245.77
751.31	245.70
751.64	245.59
751.97	246.07
752.29	245.82
752.62	245.15
752.95	244.93
753.28	244.69
753.60	244.51
753.93	244.50
754.26	244.40
754.59	244.02
754.91	243.72
755.24	243.49
755.57	243.37
755.90	243.20
756.22	242.87
756.55	242.48
756.88	242.02
757.20	241.19
757.53	240.80
757.86	240.56
758.19	240.41
758.51	240.29
758.84	239.60
759.17	239.40
759.49	239.40
759.82	239.68
760.15	239.61
760.47	239.42
760.80	239.10
761.13	238.99
761.45	238.84
761.78	238.69
762.11	238.64
762.43	238.52
762.76	238.40
763.08	238.44
763.41	238.55
763.74	238.51
764.06	238.40
764.39	238.30
764.71	238.28
765.04	238.10
765.37	237.77
765.69	237.63
766.02	237.53
766.34	237.29
766.67	236.92
767.00	236.96
767.32	237.47
767.65	237.97
767.97	237.77
768.30	237.76
768.62	237.78
768.95	237.55
769.27	237.41
769.60	237.34
769.92	237.22
770.25	236.86
770.57	236.59
770.90	236.47
771.22	236.32
771.55	236.27
771.87	236.29
772.20	236.38
772.52	237.19
772.85	238.30
773.17	238.35
773.50	238.10
773.82	237.85
774.15	237.30
774.47	236.63
774.80	236.64
775.12	236.54
775.45	236.41
775.77	236.33
776.09	236.36
776.42	236.51
776.74	236.67
777.07	236.69
777.39	236.76
777.72	236.62
778.04	236.75
778.36	236.60
778.69	236.47
779.01	236.43
779.33	235.56
779.66	234.33
779.98	234.25
780.31	234.32
780.63	234.65
780.95	234.67
781.28	234.54
781.60	234.29
781.92	234.28
782.25	234.24
782.57	234.30
782.89	234.11
783.22	233.92
783.54	233.62
783.86	233.68
784.19	233.52
784.51	233.84
784.83	233.54
785.16	233.53
785.48	233.47
785.80	233.40
786.12	233.41
786.45	233.37
786.77	233.41
787.09	233.45
787.42	233.13
787.74	233.10
788.06	233.15
788.38	233.16
788.71	232.97
789.03	232.92
789.35	233.00
789.67	232.89
789.99	232.94
790.32	232.88
790.64	232.90
790.96	233.63
791.28	233.23
791.61	233.25
791.93	233.20
792.25	233.21
792.57	233.93
792.89	233.64
793.21	233.71
793.54	233.50
793.86	233.29
794.18	233.35
794.50	233.18
794.82	233.14
795.14	233.23
795.47	233.51
795.79	233.58
796.11	233.26
796.43	233.32
796.75	233.26
797.07	233.26
797.39	233.10
797.71	232.42
798.04	232.37
798.36	232.28
798.68	232.30
799.00	232.29
799.32	231.59
799.64	231.87
799.96	231.90
800.28	232.06
800.60	232.04
800.92	231.95
801.24	231.90
801.56	231.99
801.89	231.91
802.21	231.90
802.53	231.63
802.85	231.80
803.17	232.18
803.49	231.96
803.81	231.84
804.13	231.79
804.45	231.66
804.77	231.75
805.09	231.87
805.41	231.70
805.73	231.54
806.05	231.43
806.37	231.28
806.69	231.15
807.01	231.15
807.33	231.16
807.65	230.85
807.97	231.33
808.28	231.18
808.60	231.12
808.92	230.91
809.24	231.56
809.56	231.46
809.88	231.12
810.20	231.22
810.52	231.46
810.84	231.39
811.16	231.35
811.48	231.22
811.80	231.52
812.12	231.53
812.43	231.67
812.75	231.74
813.07	231.69
813.39	231.67
813.71	231.47
814.03	231.38
814.35	231.44
814.67	230.97
814.98	230.87
815.30	230.83
815.62	230.65
815.94	230.02
816.26	230.36
816.58	230.09
816.89	230.07
817.21	229.93
817.53	229.90
817.85	230.02
818.17	230.08
818.48	229.71
818.80	229.80
819.12	229.70
819.44	229.52
819.76	229.40
820.07	229.40
820.39	229.32
820.71	229.36
821.03	229.39
821.34	229.26
821.66	229.41
821.98	229.43
822.30	229.48
822.61	230.08
822.93	229.70
823.25	229.72
823.57	229.64
823.88	229.77
824.20	229.72
824.52	229.79
824.83	229.79
825.15	229.67
825.47	229.65
825.79	229.68
826.10	229.55
826.42	229.47
826.74	229.60
827.05	229.69
827.37	229.77
827.69	229.70
828.00	229.82
828.32	229.77
828.64	229.73
828.95	230.23
829.27	229.92
829.58	229.83
829.90	229.94
830.22	230.08
830.53	229.75
830.85	229.72
831.17	229.43
831.48	229.40
831.80	229.41
832.11	229.49
832.43	229.42
832.75	229.45
833.06	230.04
833.38	229.69
833.69	229.57
834.01	229.56
834.32	229.48
834.64	229.33
834.96	229.32
835.27	229.38
835.59	229.00
835.90	228.89
836.22	228.94
836.53	228.83
836.85	228.64
837.16	229.67
837.48	229.70
837.79	230.01
838.11	230.00
838.42	230.04
838.74	229.98
839.05	229.85
839.37	229.90
839.68	229.29
840.00	229.35
840.31	229.57
840.63	229.50
840.94	229.45
841.26	229.40
841.57	229.36
841.88	229.37
842.20	229.22
842.51	229.15
842.83	229.10
843.14	229.84
843.46	229.88
843.77	229.29
844.08	229.26
844.40	229.00
844.71	228.77
845.03	228.72
845.34	228.65
845.65	228.70
845.97	228.74
846.28	228.86
846.60	228.90
846.91	228.67
847.22	228.56
847.54	228.72
847.85	228.82
848.16	228.73
848.48	228.51
848.79	228.99
849.10	229.02
849.42	229.05
849.73	228.20
850.04	228.12
850.36	227.82
850.67	227.90
850.98	227.98
851.30	228.26
851.61	228.17
851.92	228.20
852.23	228.53
852.55	228.48
852.86	228.42
853.17	228.53
853.49	228.78
853.80	229.11
854.11	229.34
854.42	229.49
854.74	229.50
855.05	229.58
855.36	229.02
855.67	229.06
855.99	229.17
856.30	230.31
856.61	230.38
856.92	230.40
857.23	230.43
857.55	230.22
857.86	230.10
858.17	230.33
858.48	230.07
858.79	229.80
859.11	229.90
859.42	229.88
859.73	229.73
860.04	229.67
860.35	229.34
860.66	229.00
860.98	228.86
861.29	228.87
861.60	228.78
861.91	229.03
862.22	228.84
862.53	228.59
862.84	227.49
863.16	227.79
863.47	227.68
863.78	227.63
864.09	227.84
864.40	227.89
864.71	227.88
865.02	228.06
865.33	227.96
865.64	227.88
865.95	228.03
866.27	228.68
866.58	228.53
866.89	228.59
867.20	228.52
867.51	228.48
867.82	228.52
868.13	228.83
868.44	228.53
868.75	228.78
869.06	228.88
869.37	228.94
869.68	228.57
869.99	228.68
870.30	228.70
870.61	228.64
870.92	228.46
871.23	228.34
871.54	228.52
871.85	228.70
872.16	228.69
872.47	228.50
872.78	227.81
873.09	227.93
873.40	227.87
873.71	228.03
874.02	228.07
874.33	227.91
874.64	227.65
874.95	227.91
875.26	227.70
875.56	227.68
875.87	227.67
876.18	227.63
876.49	228.68
876.80	228.55
877.11	228.50
877.42	228.56
877.73	228.54
878.04	228.32
878.35	228.29
878.66	228.37
878.96	228.24
879.27	228.26
879.58	228.20
879.89	228.10
880.20	228.27
880.51	228.11
880.82	228.14
881.12	228.28
881.43	228.07
881.74	227.90
882.05	227.80
882.36	227.89
882.67	227.88
882.97	226.76
883.28	226.70
883.59	226.64
883.90	226.85
884.21	226.91
884.51	226.92
884.82	226.81
885.13	226.88
885.44	226.92
885.74	227.01
886.05	226.91
886.36	226.97
886.67	226.58
886.98	227.06
887.28	227.18
887.59	227.12
887.90	227.17
888.20	227.13
888.51	227.30
888.82	227.24
889.13	227.36
889.43	228.10
889.74	228.08
890.05	227.99
890.35	227.80
890.66	227.68
890.97	227.59
891.28	227.50
891.58	227.50
891.89	227.61
892.20	227.39
892.50	227.34
892.81	227.31
893.12	227.36
893.42	227.05
893.73	227.09
894.04	227.12
894.34	227.28
894.65	227.34
894.95	227.32
895.26	227.31
895.57	227.80
895.87	227.02
896.18	227.23
896.48	227.38
896.79	227.41
897.10	227.56
897.40	227.64
897.71	227.86
898.01	227.74
898.32	227.76
898.63	227.82
898.93	228.04
899.24	228.12
899.54	228.19
899.85	228.09
900.15	227.97
900.46	227.88
900.76	227.97
901.07	227.97
901.38	227.93
901.68	228.09
901.99	227.48
902.29	227.53
902.60	227.48
902.90	227.37
903.21	227.40
903.51	227.40
903.82	227.62
904.12	227.58
904.43	227.66
904.73	227.63
905.03	227.75
905.34	228.55
905.64	228.38
905.95	228.32
906.25	228.39
906.56	228.48
906.86	228.54
907.17	228.30
907.47	228.41
907.77	228.27
908.08	227.99
908.38	228.12
908.69	228.19
908.99	228.35
909.30	228.47
909.60	228.43
909.90	228.43
910.21	228.18
910.51	228.05
910.81	228.03
911.12	228.09
911.42	228.02
911.73	227.06
912.03	227.38
912.33	227.58
912.64	227.38
912.94	227.25
913.24	227.11
913.55	227.16
913.85	227.03
914.15	227.16
914.46	227.27
914.76	227.18
915.06	227.16
915.37	226.96
915.67	226.90
915.97	226.96
916.27	226.77
916.58	226.80
916.88	226.76
917.18	226.60
917.49	227.18
917.79	227.14
918.09	227.31
918.39	227.41
918.70	227.32
919.00	227.41
919.30	227.82
919.60	227.76
919.91	227.67
920.21	227.69
920.51	227.53
920.81	227.54
921.12	227.74
921.42	227.60
921.72	227.64
922.02	227.60
922.32	227.56
922.63	227.61
922.93	228.05
923.23	228.10
923.53	228.00
923.83	227.39
924.13	227.48
924.44	227.38
924.74	227.45
925.04	227.68
925.34	227.67
925.64	227.25
925.94	227.31
926.24	227.85
926.55	227.79
926.85	227.94
927.15	227.84
927.45	227.82
927.75	227.84
928.05	227.76
928.35	227.77
928.65	228.02
928.95	228.06
929.26	227.61
929.56	227.78
929.86	227.99
930.16	227.96
930.46	227.88
930.76	228.01
931.06	227.55
931.36	227.30
931.66	227.48
931.96	227.73
932.26	227.83
932.56	227.44
932.86	227.54
933.16	227.51
933.46	227.48
933.76	227.36
934.06	227.64
934.36	228.13
934.66	228.17
934.96	228.09
935.26	228.15
935.56	228.31
935.86	228.13
936.16	228.02
936.46	227.92
936.76	227.99
937.06	227.88
937.36	228.00
937.66	228.02
937.96	228.04
938.26	227.85
938.56	227.76
938.86	227.81
939.16	228.09
939.46	228.23
939.76	228.28
940.06	228.28
940.35	227.96
940.65	227.47
940.95	227.41
941.25	227.08
941.55	226.97
941.85	227.09
942.15	227.35
942.45	227.61
942.75	227.74
943.04	227.70
943.34	227.86
943.64	227.75
943.94	227.59
944.24	227.62
944.54	227.70
944.84	227.65
945.13	227.58
945.43	227.43
945.73	227.37
946.03	227.37
946.33	227.31
946.62	227.33
946.92	227.35
947.22	227.48
947.52	227.72
947.82	227.84
948.11	227.69
948.41	227.50
948.71	227.24
949.01	227.20
949.31	227.16
949.60	227.07
949.90	227.26
950.20	227.21
950.50	227.16
950.79	227.10
951.09	227.24
951.39	227.18
951.69	226.94
951.98	227.16
952.28	227.17
952.58	227.05
952.87	227.05
953.17	227.21
953.47	227.14
953.76	227.11
954.06	226.91
954.36	226.71
954.66	226.64
954.95	226.91
955.25	227.06
955.55	227.18
955.84	227.01
956.14	227.02
956.44	227.11
956.73	226.90
957.03	226.81
957.32	226.81
957.62	226.70
957.92	227.00
958.21	226.94
958.51	228.00
958.81	228.22
959.10	228.36
959.40	228.49
959.69	228.54
959.99	228.61
960.29	228.72
960.58	228.66
960.88	229.12
961.17	228.93
961.47	228.96
961.76	228.82
962.06	229.04
962.36	228.95
962.65	229.03
962.95	229.08
963.24	229.03
963.54	229.16
963.83	229.38
964.13	229.40
964.42	229.09
964.72	228.30
965.01	228.32
965.31	228.20
965.60	227.89
965.90	228.55
966.19	228.39
966.49	228.32
966.78	228.36
967.08	228.19
967.37	228.30
967.67	228.04
967.96	228.19
968.26	228.10
968.55	228.39
968.85	228.38
969.14	228.40
969.43	228.47
969.73	228.30
970.02	228.11
970.32	227.87
970.61	227.91
970.91	227.71
971.20	227.59
971.49	227.54
971.79	227.80
972.08	227.04
972.38	227.08
972.67	227.16
972.96	227.36
973.26	227.19
973.55	227.46
973.85	227.47
974.14	227.45
974.43	227.52
974.73	227.27
975.02	227.19
975.31	227.28
975.61	227.19
975.90	227.06
976.19	227.05
976.49	227.25
976.78	227.29
977.07	227.30
977.37	227.41
977.66	227.54
977.95	227.35
978.24	227.37
978.54	227.56
978.83	227.40
979.12	227.29
979.42	227.22
979.71	227.01
980.00	227.03
980.29	227.02
980.59	226.82
980.88	226.97
981.17	226.98
981.46	226.95
981.76	226.96
982.05	227.29
982.34	227.31
982.63	227.20
982.93	227.26
983.22	227.49
983.51	227.37
983.80	227.45
984.09	227.50
984.39	227.55
984.68	227.39
984.97	227.40
985.26	227.44
985.55	227.52
985.85	227.33
986.14	227.45
986.43	227.50
986.72	227.48
987.01	227.16
987.30	227.08
987.59	227.03
987.89	227.08
988.18	226.80
988.47	226.77
988.76	226.71
989.05	226.60
989.34	226.44
989.63	226.73
989.92	226.58
990.22	226.49
990.51	226.48
990.80	226.40
991.09	226.53
991.38	226.60
991.67	226.53
991.96	226.52
992.25	226.54
992.54	226.41
992.83	226.43
993.12	226.46
993.41	226.62
993.70	226.97
993.99	227.22
994.28	227.30
994.58	227.49
994.87	227.40
995.16	227.35
995.45	227.22
995.74	226.73
996.03	226.87
996.32	227.05
996.61	227.20
996.90	227.19
997.19	227.11
997.48	227.04
997.77	226.90
998.06	226.86
998.34	226.80
998.63	226.80
998.92	226.81
999.21	226.98
999.50	227.00
999.79	226.71
1000.08	226.64
1000.37	226.68
1000.66	226.50
1000.95	226.83
1001.24	226.95
1001.53	227.11
1001.82	227.17
1002.11	227.06
1002.40	227.14
1002.68	227.36
1002.97	228.02
1003.26	227.93
1003.55	227.81
1003.84	227.94
1004.13	228.29
1004.42	228.22
1004.71	228.18
1004.99	228.12
1005.28	228.28
1005.57	228.20
1005.86	227.95
1006.15	227.83
1006.44	227.70
1006.72	227.83
1007.01	227.60
1007.30	227.58
1007.59	227.41
1007.88	227.46
1008.17	227.44
1008.45	227.18
1008.74	226.78
1009.03	226.34
1009.32	226.40
1009.60	226.36
1009.89	226.28
1010.18	225.93
1010.47	225.95
1010.76	225.96
1011.04	225.91
1011.33	226.03
1011.62	226.19
1011.91	226.32
1012.19	226.31
1012.48	226.38
1012.77	226.36
1013.05	226.74
1013.34	226.70
1013.63	226.66
1013.92	226.81
1014.20	226.71
1014.49	226.79
1014.78	226.83
1015.06	226.53
1015.35	226.53
1015.64	226.75
1015.92	226.97
1016.21	226.98
1016.50	226.91
1016.78	227.13
1017.07	227.21
1017.36	227.02
1017.64	226.81
1017.93	226.95
1018.22	226.90
1018.50	226.90
1018.79	226.87
1019.08	226.50
1019.36	226.57
1019.65	226.58
1019.93	226.78
1020.22	226.90
1020.51	227.45
1020.79	227.38
1021.08	225.50
1021.36	225.80
1021.65	226.80
1021.94	226.80
1022.22	226.50
1022.51	225.80
1022.79	231.90
1023.08	226.60
1023.36	239.40
1023.65	224.90
>>>>>End Processed Spectral Data<<<<<
