SpectraSuite Data File
++++++++++++++++++++++++++++++++++++
Date: Wed Sep 04 17:29:27 EDT 2013
User: lab3
Dark Spectrum Present: Yes
Reference Spectrum Present: No
Number of Sampled Component Spectra: 1
Spectrometers: USB2E7196
Integration Time (usec): 337000 (USB2E7196)
Spectra Averaged: 10 (USB2E7196)
Boxcar Smoothing: 10 (USB2E7196)
Correct for Electrical Dark: No (USB2E7196)
Strobe/Lamp Enabled: No (USB2E7196)
Correct for Detector Non-linearity: No (USB2E7196)
Correct for Stray Light: No (USB2E7196)
Number of Pixels in Processed Spectrum: 2048
>>>>>Begin Processed Spectral Data<<<<<
339.09	0.00
339.48	212.80
339.86	214.00
340.24	215.60
340.63	215.60
341.01	231.50
341.39	219.20
341.78	221.20
342.16	226.40
342.54	221.00
342.93	212.68
343.31	223.38
343.69	224.00
344.07	224.47
344.46	224.95
344.84	225.53
345.22	225.30
345.60	225.69
345.99	226.03
346.37	226.06
346.75	226.24
347.13	226.26
347.52	226.31
347.90	226.71
348.28	226.74
348.66	227.00
349.05	226.76
349.43	226.99
349.81	227.10
350.19	227.15
350.57	227.28
350.96	227.37
351.34	227.48
351.72	227.44
352.10	227.51
352.48	227.52
352.87	227.46
353.25	227.49
353.63	227.40
354.01	227.34
354.39	227.40
354.77	227.49
355.15	227.87
355.54	227.84
355.92	227.57
356.30	227.56
356.68	228.25
357.06	228.30
357.44	228.02
357.82	228.08
358.20	228.93
358.58	228.95
358.97	229.04
359.35	229.30
359.73	229.66
360.11	229.80
360.49	229.92
360.87	230.06
361.25	230.19
361.63	230.71
362.01	230.82
362.39	230.80
362.77	230.90
363.15	230.82
363.53	230.94
363.91	231.05
364.29	231.15
364.67	230.24
365.05	230.34
365.43	230.58
365.81	230.66
366.19	230.35
366.57	230.70
366.95	230.75
367.33	230.57
367.71	230.53
368.09	230.68
368.47	230.68
368.85	230.57
369.23	230.77
369.61	230.42
369.99	230.72
370.37	230.83
370.75	231.32
371.13	231.09
371.51	230.98
371.89	231.12
372.27	231.20
372.65	231.27
373.03	231.26
373.41	231.21
373.78	231.09
374.16	230.56
374.54	230.29
374.92	230.18
375.30	230.10
375.68	229.87
376.06	229.79
376.44	229.80
376.82	229.85
377.19	229.76
377.57	229.58
377.95	229.16
378.33	229.11
378.71	228.49
379.09	228.75
379.47	228.87
379.84	228.64
380.22	228.50
380.60	228.33
380.98	228.26
381.36	228.25
381.73	228.24
382.11	228.40
382.49	228.20
382.87	228.01
383.25	228.03
383.62	229.08
384.00	228.92
384.38	228.86
384.76	229.06
385.13	229.31
385.51	229.30
385.89	229.24
386.27	229.08
386.64	229.21
387.02	229.00
387.40	228.83
387.78	228.83
388.15	228.83
388.53	228.74
388.91	228.75
389.29	228.65
389.66	228.74
390.04	228.54
390.42	228.84
390.79	228.90
391.17	228.81
391.55	227.73
391.92	227.68
392.30	227.72
392.68	227.50
393.05	227.48
393.43	227.49
393.81	227.60
394.18	227.60
394.56	227.64
394.94	227.92
395.31	227.94
395.69	228.36
396.06	228.55
396.44	228.70
396.82	228.68
397.19	229.18
397.57	229.07
397.95	229.42
398.32	229.21
398.70	229.37
399.07	229.66
399.45	229.71
399.82	229.88
400.20	229.99
400.58	230.10
400.95	229.78
401.33	230.20
401.70	230.91
402.08	231.17
402.45	231.39
402.83	231.61
403.20	231.81
403.58	231.85
403.95	232.24
404.33	232.69
404.71	233.14
405.08	233.97
405.46	234.43
405.83	234.82
406.21	235.32
406.58	235.95
406.96	236.38
407.33	237.13
407.70	237.90
408.08	239.35
408.45	240.23
408.83	241.33
409.20	242.05
409.58	242.44
409.95	243.50
410.33	244.56
410.70	245.40
411.08	246.68
411.45	247.87
411.82	249.01
412.20	250.56
412.57	252.47
412.95	253.26
413.32	255.07
413.69	256.82
414.07	258.73
414.44	260.72
414.82	263.05
415.19	265.49
415.56	267.96
415.94	270.11
416.31	273.09
416.68	275.94
417.06	279.32
417.43	282.92
417.81	286.67
418.18	290.51
418.55	294.71
418.93	299.12
419.30	303.88
419.67	308.74
420.04	313.61
420.42	318.68
420.79	325.31
421.16	331.46
421.54	338.13
421.91	344.72
422.28	351.52
422.66	358.66
423.03	366.26
423.40	373.62
423.77	381.50
424.15	389.57
424.52	398.20
424.89	407.57
425.26	416.28
425.64	424.77
426.01	434.18
426.38	444.03
426.75	454.10
427.13	464.40
427.50	475.31
427.87	486.64
428.24	497.81
428.61	508.10
428.99	520.18
429.36	532.76
429.73	545.51
430.10	558.38
430.47	571.59
430.85	584.78
431.22	599.26
431.59	614.78
431.96	629.32
432.33	645.35
432.70	661.00
433.08	679.48
433.45	696.95
433.82	714.27
434.19	733.80
434.56	752.90
434.93	771.24
435.30	789.96
435.68	810.40
436.05	830.92
436.42	851.10
436.79	869.80
437.16	890.27
437.53	911.74
437.90	932.83
438.27	953.77
438.64	975.67
439.01	996.00
439.38	1014.61
439.75	1032.88
440.13	1053.46
440.50	1072.58
440.87	1088.56
441.24	1104.93
441.61	1123.19
441.98	1136.62
442.35	1152.68
442.72	1168.67
443.09	1184.07
443.46	1194.04
443.83	1200.80
444.20	1207.36
444.57	1215.66
444.94	1219.94
445.31	1224.32
445.68	1229.47
446.05	1232.01
446.42	1230.90
446.79	1229.53
447.16	1227.42
447.53	1225.90
447.90	1218.78
448.27	1211.74
448.64	1201.48
449.01	1194.42
449.37	1181.15
449.74	1168.23
450.11	1152.65
450.48	1135.03
450.85	1116.66
451.22	1101.30
451.59	1086.84
451.96	1072.54
452.33	1053.70
452.70	1036.79
453.07	1016.66
453.43	995.41
453.80	975.57
454.17	956.64
454.54	938.83
454.91	919.26
455.28	900.31
455.65	882.65
456.02	865.89
456.38	850.89
456.75	832.38
457.12	816.80
457.49	801.69
457.86	786.76
458.23	774.60
458.59	761.11
458.96	747.29
459.33	735.16
459.70	723.14
460.07	713.47
460.43	702.21
460.80	691.91
461.17	682.86
461.54	673.37
461.91	664.08
462.27	654.52
462.64	646.74
463.01	638.26
463.38	630.12
463.74	620.97
464.11	613.62
464.48	607.52
464.85	600.62
465.21	595.49
465.58	589.73
465.95	582.81
466.32	577.45
466.68	571.96
467.05	566.34
467.42	560.82
467.78	555.26
468.15	549.90
468.52	546.04
468.88	540.85
469.25	536.08
469.62	532.60
469.98	528.76
470.35	525.06
470.72	521.48
471.08	517.38
471.45	514.26
471.82	511.18
472.18	507.35
472.55	504.96
472.92	501.73
473.28	499.00
473.65	496.42
474.02	493.80
474.38	491.79
474.75	490.11
475.11	487.89
475.48	486.40
475.85	485.00
476.21	483.33
476.58	482.13
476.94	481.42
477.31	480.33
477.67	479.15
478.04	478.16
478.41	477.75
478.77	478.33
479.14	477.50
479.50	477.27
479.87	477.61
480.23	477.57
480.60	477.49
480.96	477.44
481.33	478.26
481.69	478.60
482.06	479.00
482.42	479.29
482.79	480.10
483.15	480.79
483.52	482.12
483.88	483.42
484.25	484.41
484.61	485.61
484.98	486.81
485.34	488.84
485.71	490.81
486.07	492.90
486.44	494.00
486.80	496.37
487.17	498.61
487.53	501.19
487.90	503.79
488.26	507.25
488.62	510.56
488.99	513.47
489.35	517.00
489.72	520.34
490.08	524.19
490.44	527.96
490.81	532.09
491.17	536.08
491.54	540.49
491.90	545.29
492.26	549.97
492.63	554.96
492.99	559.65
493.36	565.09
493.72	570.53
494.08	576.33
494.45	582.46
494.81	588.95
495.17	594.89
495.54	601.73
495.90	608.09
496.26	614.61
496.63	621.54
496.99	628.72
497.35	636.44
497.72	643.90
498.08	651.56
498.44	659.37
498.80	667.90
499.17	675.94
499.53	684.29
499.89	693.16
500.26	702.04
500.62	711.01
500.98	720.20
501.34	729.42
501.71	738.79
502.07	747.93
502.43	757.13
502.79	766.59
503.16	776.03
503.52	785.77
503.88	795.93
504.24	806.08
504.60	816.30
504.97	826.63
505.33	836.95
505.69	847.92
506.05	858.40
506.41	868.62
506.78	879.26
507.14	889.72
507.50	900.47
507.86	911.23
508.22	922.01
508.59	932.21
508.95	942.78
509.31	953.91
509.67	964.76
510.03	974.94
510.39	985.80
510.75	996.29
511.12	1006.36
511.48	1016.60
511.84	1026.74
512.20	1036.70
512.56	1046.47
512.92	1056.77
513.28	1066.38
513.64	1076.22
514.00	1085.91
514.37	1095.37
514.73	1105.00
515.09	1114.24
515.45	1123.31
515.81	1132.11
516.17	1140.94
516.53	1149.46
516.89	1157.10
517.25	1165.79
517.61	1175.37
517.97	1184.11
518.33	1192.48
518.69	1200.90
519.05	1209.58
519.41	1217.63
519.77	1226.21
520.13	1234.02
520.49	1241.12
520.85	1248.87
521.21	1256.70
521.57	1264.59
521.93	1271.35
522.29	1278.16
522.65	1284.03
523.01	1290.18
523.37	1296.25
523.73	1302.21
524.09	1307.71
524.45	1313.28
524.81	1318.63
525.17	1323.44
525.53	1328.25
525.89	1333.39
526.25	1338.17
526.61	1341.87
526.97	1346.39
527.33	1350.73
527.68	1356.03
528.04	1360.90
528.40	1365.03
528.76	1369.21
529.12	1372.58
529.48	1377.09
529.84	1380.63
530.20	1385.34
530.56	1389.62
530.91	1394.19
531.27	1398.46
531.63	1402.88
531.99	1407.05
532.35	1410.58
532.71	1414.55
533.07	1418.82
533.42	1422.22
533.78	1426.42
534.14	1430.46
534.50	1434.13
534.86	1437.99
535.21	1440.44
535.57	1443.84
535.93	1446.66
536.29	1449.80
536.65	1453.36
537.00	1456.35
537.36	1460.00
537.72	1462.63
538.08	1465.64
538.44	1468.15
538.79	1471.04
539.15	1473.37
539.51	1476.58
539.87	1478.93
540.22	1480.47
540.58	1482.48
540.94	1484.35
541.29	1485.67
541.65	1487.62
542.01	1489.42
542.37	1490.11
542.72	1491.11
543.08	1491.49
543.44	1493.34
543.79	1493.32
544.15	1493.42
544.51	1493.94
544.87	1494.12
545.22	1494.41
545.58	1494.25
545.94	1493.74
546.29	1493.11
546.65	1492.86
547.01	1491.55
547.36	1490.83
547.72	1490.26
548.07	1488.74
548.43	1488.27
548.79	1487.38
549.14	1485.90
549.50	1484.83
549.86	1483.44
550.21	1482.68
550.57	1482.38
550.92	1480.18
551.28	1479.46
551.64	1478.79
551.99	1478.07
552.35	1476.98
552.70	1475.88
553.06	1475.08
553.41	1474.70
553.77	1474.67
554.13	1474.00
554.48	1473.41
554.84	1472.99
555.19	1472.72
555.55	1473.37
555.90	1472.30
556.26	1471.40
556.61	1470.40
556.97	1468.44
557.32	1467.77
557.68	1466.61
558.03	1465.59
558.39	1464.78
558.74	1463.86
559.10	1462.12
559.45	1460.53
559.81	1459.28
560.16	1457.35
560.52	1455.58
560.87	1454.02
561.23	1451.76
561.58	1450.61
561.94	1448.73
562.29	1446.72
562.64	1444.68
563.00	1441.77
563.35	1440.00
563.71	1438.49
564.06	1437.13
564.42	1436.50
564.77	1435.32
565.12	1434.00
565.48	1433.12
565.83	1432.02
566.19	1430.51
566.54	1429.37
566.89	1428.04
567.25	1426.62
567.60	1426.03
567.96	1425.58
568.31	1424.24
568.66	1422.89
569.02	1420.39
569.37	1418.65
569.72	1417.24
570.08	1414.91
570.43	1412.60
570.78	1410.69
571.14	1408.44
571.49	1406.08
571.84	1403.48
572.20	1400.59
572.55	1397.93
572.90	1393.98
573.26	1390.72
573.61	1387.61
573.96	1384.58
574.31	1380.65
574.67	1377.19
575.02	1373.08
575.37	1368.61
575.72	1364.37
576.08	1360.53
576.43	1356.74
576.78	1352.79
577.13	1348.73
577.49	1345.26
577.84	1342.00
578.19	1338.69
578.54	1334.82
578.90	1331.28
579.25	1327.89
579.60	1324.30
579.95	1320.24
580.30	1316.70
580.66	1312.97
581.01	1309.20
581.36	1304.60
581.71	1300.89
582.06	1297.26
582.42	1293.46
582.77	1289.57
583.12	1286.17
583.47	1282.54
583.82	1279.11
584.17	1275.87
584.53	1272.41
584.88	1268.30
585.23	1264.00
585.58	1259.11
585.93	1254.44
586.28	1249.90
586.63	1245.05
586.98	1240.30
587.34	1236.09
587.69	1231.37
588.04	1227.41
588.39	1222.94
588.74	1218.73
589.09	1215.01
589.44	1210.18
589.79	1206.24
590.14	1202.26
590.49	1197.83
590.84	1193.55
591.19	1189.58
591.54	1184.92
591.89	1180.33
592.25	1177.63
592.60	1173.45
592.95	1169.27
593.30	1165.40
593.65	1160.89
594.00	1156.35
594.35	1154.44
594.70	1149.82
595.05	1145.56
595.40	1140.35
595.75	1135.65
596.10	1131.30
596.45	1126.22
596.80	1121.94
597.15	1117.23
597.50	1112.30
597.85	1108.05
598.19	1103.10
598.54	1097.91
598.89	1093.19
599.24	1088.90
599.59	1083.14
599.94	1078.57
600.29	1074.07
600.64	1069.52
600.99	1065.11
601.34	1060.91
601.69	1054.13
602.04	1049.84
602.39	1045.73
602.74	1042.30
603.08	1038.33
603.43	1034.71
603.78	1030.75
604.13	1026.17
604.48	1021.90
604.83	1017.73
605.18	1012.95
605.53	1008.41
605.87	1004.38
606.22	1000.39
606.57	995.85
606.92	991.22
607.27	987.36
607.62	983.35
607.96	979.51
608.31	975.79
608.66	972.08
609.01	967.98
609.36	963.89
609.70	959.47
610.05	954.66
610.40	950.22
610.75	945.54
611.10	941.30
611.44	937.02
611.79	932.67
612.14	928.39
612.49	924.15
612.83	920.26
613.18	915.73
613.53	911.57
613.88	907.16
614.22	902.69
614.57	897.79
614.92	893.15
615.27	888.75
615.61	883.88
615.96	879.13
616.31	874.41
616.65	870.34
617.00	865.78
617.35	861.44
617.70	857.14
618.04	852.74
618.39	848.12
618.74	844.30
619.08	839.77
619.43	835.00
619.78	830.43
620.12	825.88
620.47	821.44
620.82	816.47
621.16	811.92
621.51	808.38
621.85	804.24
622.20	800.21
622.55	795.63
622.89	791.56
623.24	787.46
623.59	783.26
623.93	779.03
624.28	775.09
624.62	771.99
624.97	768.50
625.32	764.57
625.66	760.58
626.01	756.00
626.35	752.25
626.70	748.61
627.04	745.41
627.39	741.45
627.73	738.24
628.08	734.85
628.43	731.14
628.77	727.18
629.12	723.34
629.46	719.64
629.81	716.57
630.15	712.89
630.50	709.03
630.84	705.62
631.19	701.97
631.53	698.46
631.88	693.71
632.22	689.41
632.57	685.91
632.91	682.50
633.26	679.37
633.60	675.72
633.95	671.99
634.29	667.76
634.64	664.40
634.98	660.27
635.32	656.90
635.67	653.71
636.01	650.08
636.36	646.46
636.70	643.40
637.05	639.81
637.39	636.69
637.73	633.67
638.08	630.58
638.42	627.15
638.77	623.73
639.11	620.19
639.45	616.74
639.80	613.30
640.14	609.80
640.49	606.40
640.83	602.94
641.17	599.95
641.52	596.99
641.86	593.85
642.20	591.53
642.55	588.58
642.89	585.68
643.23	582.76
643.58	580.30
643.92	576.74
644.26	573.63
644.61	570.75
644.95	567.59
645.29	564.26
645.64	561.26
645.98	558.20
646.32	555.90
646.66	552.96
647.01	550.02
647.35	547.47
647.69	544.83
648.04	542.48
648.38	539.85
648.72	536.91
649.06	534.01
649.41	530.62
649.75	527.57
650.09	524.79
650.43	522.12
650.78	519.15
651.12	516.59
651.46	513.90
651.80	511.12
652.14	508.48
652.49	506.36
652.83	503.89
653.17	501.43
653.51	498.55
653.85	496.45
654.20	493.97
654.54	491.55
654.88	488.83
655.22	486.73
655.56	484.31
655.90	482.18
656.25	480.00
656.59	477.98
656.93	475.75
657.27	473.51
657.61	470.86
657.95	468.57
658.29	466.30
658.64	464.18
658.98	461.80
659.32	459.39
659.66	456.94
660.00	454.74
660.34	452.71
660.68	450.50
661.02	448.13
661.36	446.12
661.70	443.81
662.05	441.90
662.39	439.60
662.73	437.86
663.07	436.37
663.41	434.46
663.75	432.27
664.09	430.50
664.43	428.18
664.77	426.50
665.11	424.60
665.45	422.84
665.79	421.04
666.13	419.24
666.47	417.42
666.81	415.63
667.15	413.58
667.49	411.83
667.83	410.62
668.17	409.02
668.51	407.25
668.85	405.87
669.19	404.72
669.53	402.85
669.87	400.84
670.21	398.79
670.55	397.09
670.89	395.80
671.23	394.07
671.57	392.70
671.91	391.14
672.25	389.55
672.58	388.22
672.92	386.42
673.26	385.10
673.60	383.75
673.94	382.30
674.28	381.10
674.62	379.74
674.96	378.01
675.30	376.47
675.64	374.97
675.97	373.26
676.31	371.46
676.65	370.13
676.99	369.10
677.33	367.69
677.67	366.60
678.01	364.86
678.34	363.65
678.68	362.55
679.02	361.16
679.36	359.95
679.70	358.60
680.04	357.44
680.37	356.15
680.71	354.92
681.05	353.96
681.39	352.99
681.73	351.71
682.06	350.44
682.40	349.44
682.74	348.47
683.08	347.85
683.42	346.65
683.75	345.58
684.09	344.19
684.43	343.16
684.77	341.73
685.10	340.83
685.44	339.66
685.78	338.31
686.12	337.20
686.45	335.96
686.79	334.58
687.13	333.81
687.46	332.77
687.80	331.81
688.14	330.54
688.48	329.40
688.81	328.38
689.15	327.65
689.49	326.60
689.82	325.57
690.16	324.11
690.50	323.18
690.83	322.13
691.17	320.95
691.51	320.06
691.84	319.21
692.18	318.20
692.52	317.16
692.85	316.40
693.19	315.94
693.52	315.14
693.86	314.30
694.20	313.20
694.53	312.33
694.87	311.39
695.21	310.43
695.54	309.45
695.88	308.44
696.21	307.22
696.55	306.28
696.88	305.41
697.22	304.50
697.56	303.69
697.89	302.88
698.23	302.18
698.56	301.04
698.90	300.30
699.23	299.38
699.57	298.71
699.90	297.79
700.24	296.73
700.58	295.97
700.91	295.35
701.25	295.37
701.58	295.28
701.92	294.78
702.25	294.12
702.59	293.35
702.92	292.79
703.26	292.38
703.59	291.78
703.93	292.05
704.26	291.59
704.60	291.10
704.93	290.47
705.26	289.83
705.60	289.47
705.93	288.64
706.27	288.31
706.60	287.97
706.94	287.97
707.27	287.27
707.61	286.91
707.94	286.45
708.27	285.19
708.61	283.97
708.94	283.37
709.28	282.87
709.61	282.31
709.94	281.79
710.28	281.26
710.61	280.75
710.95	279.30
711.28	279.46
711.61	278.78
711.95	278.44
712.28	277.81
712.61	277.35
712.95	277.42
713.28	277.28
713.61	276.50
713.95	275.46
714.28	275.10
714.61	274.46
714.95	273.79
715.28	273.06
715.61	272.49
715.95	271.90
716.28	271.36
716.61	271.05
716.95	270.40
717.28	269.79
717.61	269.27
717.94	268.76
718.28	267.41
718.61	267.05
718.94	266.42
719.27	266.05
719.61	265.66
719.94	265.06
720.27	264.16
720.60	263.71
720.94	263.42
721.27	263.14
721.60	262.93
721.93	262.51
722.27	262.63
722.60	262.45
722.93	261.96
723.26	261.73
723.59	261.15
723.93	260.99
724.26	260.79
724.59	260.40
724.92	260.22
725.25	260.28
725.59	259.84
725.92	259.60
726.25	259.44
726.58	259.12
726.91	258.70
727.24	258.57
727.57	258.41
727.91	257.87
728.24	257.55
728.57	257.17
728.90	257.04
729.23	256.43
729.56	256.57
729.89	256.46
730.22	256.06
730.55	255.88
730.89	255.54
731.22	255.14
731.55	254.89
731.88	254.61
732.21	254.14
732.54	253.71
732.87	253.41
733.20	253.05
733.53	252.82
733.86	252.77
734.19	252.41
734.52	252.24
734.85	252.83
735.18	252.48
735.51	252.50
735.84	252.34
736.17	252.28
736.50	251.57
736.83	252.33
737.16	252.09
737.49	252.05
737.82	251.82
738.15	251.76
738.48	251.59
738.81	251.30
739.14	250.95
739.47	250.81
739.80	250.60
740.13	250.52
740.46	250.13
740.79	249.63
741.12	249.37
741.45	249.01
741.78	248.16
742.11	248.22
742.44	247.70
742.77	247.52
743.10	247.23
743.43	246.95
743.75	245.73
744.08	246.89
744.41	246.54
744.74	246.29
745.07	245.84
745.40	245.78
745.73	246.09
746.06	246.01
746.39	246.01
746.71	245.83
747.04	245.53
747.37	245.32
747.70	245.38
748.03	245.27
748.36	245.19
748.68	245.09
749.01	244.61
749.34	244.51
749.67	244.36
750.00	244.40
750.33	244.96
750.65	244.96
750.98	243.55
751.31	243.42
751.64	243.40
751.97	243.76
752.29	243.53
752.62	242.90
752.95	242.76
753.28	242.49
753.60	242.28
753.93	242.43
754.26	242.48
754.59	242.08
754.91	241.86
755.24	241.66
755.57	241.55
755.90	241.40
756.22	241.23
756.55	240.88
756.88	240.51
757.20	239.76
757.53	239.30
757.86	239.17
758.19	239.18
758.51	238.99
758.84	238.47
759.17	238.21
759.49	238.11
759.82	238.43
760.15	238.44
760.47	238.35
760.80	237.84
761.13	237.80
761.45	237.77
761.78	237.66
762.11	237.62
762.43	237.43
762.76	237.30
763.08	237.28
763.41	237.40
763.74	237.39
764.06	237.25
764.39	237.30
764.71	237.18
765.04	237.00
765.37	236.90
765.69	236.81
766.02	236.79
766.34	236.75
766.67	236.36
767.00	236.45
767.32	236.92
767.65	237.49
767.97	237.42
768.30	237.38
768.62	237.28
768.95	237.08
769.27	236.98
769.60	237.16
769.92	236.85
770.25	236.56
770.57	236.37
770.90	236.35
771.22	236.09
771.55	236.17
771.87	236.15
772.20	236.08
772.52	236.87
772.85	238.06
773.17	237.95
773.50	237.88
773.82	237.62
774.15	237.08
774.47	236.50
774.80	236.31
775.12	236.29
775.45	236.38
775.77	236.38
776.09	236.41
776.42	236.36
776.74	236.72
777.07	236.69
777.39	236.59
777.72	236.34
778.04	236.50
778.36	236.29
778.69	236.23
779.01	236.30
779.33	235.39
779.66	234.20
779.98	234.13
780.31	234.00
780.63	234.35
780.95	234.50
781.28	234.46
781.60	234.38
781.92	234.25
782.25	234.12
782.57	234.07
782.89	233.91
783.22	233.69
783.54	233.35
783.86	233.32
784.19	233.28
784.51	233.67
784.83	233.52
785.16	233.41
785.48	233.30
785.80	233.31
786.12	233.30
786.45	233.26
786.77	233.27
787.09	233.18
787.42	232.68
787.74	232.55
788.06	232.50
788.38	232.29
788.71	232.29
789.03	232.28
789.35	232.36
789.67	232.24
789.99	232.35
790.32	232.22
790.64	232.29
790.96	232.97
791.28	232.57
791.61	232.50
791.93	232.58
792.25	232.50
792.57	233.03
792.89	232.91
793.21	232.90
793.54	232.72
793.86	232.58
794.18	232.73
794.50	232.48
794.82	232.51
795.14	232.65
795.47	232.72
795.79	232.68
796.11	232.39
796.43	232.26
796.75	232.17
797.07	232.21
797.39	232.17
797.71	231.55
798.04	231.55
798.36	231.57
798.68	231.50
799.00	231.58
799.32	230.94
799.64	231.03
799.96	230.97
800.28	231.12
800.60	231.17
800.92	231.15
801.24	231.23
801.56	231.26
801.89	231.11
802.21	231.09
802.53	230.97
802.85	231.27
803.17	231.83
803.49	231.63
803.81	231.55
804.13	231.47
804.45	231.27
804.77	231.32
805.09	231.38
805.41	231.24
805.73	231.09
806.05	230.95
806.37	230.93
806.69	230.88
807.01	230.91
807.33	230.98
807.65	230.68
807.97	231.02
808.28	230.79
808.60	230.85
808.92	230.77
809.24	231.27
809.56	231.05
809.88	230.64
810.20	230.65
810.52	230.87
810.84	230.66
811.16	230.60
811.48	230.60
811.80	230.86
812.12	230.90
812.43	231.01
812.75	231.09
813.07	230.98
813.39	231.00
813.71	230.78
814.03	230.65
814.35	230.72
814.67	230.40
814.98	230.41
815.30	230.36
815.62	230.17
815.94	229.50
816.26	230.00
816.58	229.86
816.89	229.96
817.21	229.77
817.53	229.98
817.85	230.06
818.17	230.00
818.48	229.58
818.80	229.79
819.12	229.71
819.44	229.56
819.76	229.47
820.07	229.44
820.39	229.49
820.71	229.58
821.03	229.48
821.34	229.34
821.66	229.51
821.98	229.63
822.30	229.64
822.61	230.29
822.93	229.79
823.25	229.78
823.57	229.72
823.88	229.89
824.20	229.80
824.52	229.90
824.83	229.87
825.15	229.80
825.47	229.67
825.79	229.76
826.10	229.75
826.42	229.81
826.74	229.86
827.05	229.80
827.37	229.88
827.69	229.82
828.00	229.97
828.32	229.93
828.64	229.85
828.95	230.29
829.27	229.99
829.58	229.92
829.90	230.12
830.22	230.20
830.53	229.99
830.85	229.95
831.17	229.71
831.48	229.65
831.80	229.65
832.11	229.67
832.43	229.47
832.75	229.52
833.06	230.01
833.38	229.80
833.69	229.70
834.01	229.60
834.32	229.62
834.64	229.42
834.96	229.33
835.27	229.30
835.59	229.00
835.90	229.01
836.22	228.93
836.53	228.62
836.85	228.49
837.16	229.37
837.48	229.44
837.79	229.72
838.11	229.75
838.42	229.78
838.74	229.88
839.05	229.80
839.37	229.67
839.68	229.01
840.00	228.92
840.31	229.12
840.63	229.10
840.94	228.96
841.26	228.89
841.57	228.91
841.88	229.05
842.20	228.81
842.51	228.52
842.83	228.63
843.14	229.41
843.46	229.41
843.77	228.82
844.08	228.66
844.40	228.32
844.71	228.26
845.03	228.13
845.34	227.98
845.65	227.94
845.97	228.06
846.28	228.15
846.60	228.39
846.91	228.16
847.22	228.09
847.54	228.37
847.85	228.46
848.16	228.37
848.48	228.12
848.79	228.55
849.10	228.76
849.42	228.88
849.73	228.14
850.04	228.10
850.36	227.94
850.67	228.15
850.98	228.29
851.30	228.42
851.61	228.46
851.92	228.45
852.23	228.77
852.55	228.82
852.86	228.91
853.17	228.93
853.49	229.13
853.80	229.38
854.11	229.47
854.42	229.70
854.74	229.67
855.05	229.70
855.36	229.17
855.67	229.10
855.99	229.08
856.30	230.18
856.61	230.24
856.92	230.19
857.23	230.17
857.55	230.10
857.86	230.03
858.17	230.15
858.48	229.98
858.79	229.79
859.11	229.80
859.42	229.71
859.73	229.60
860.04	229.64
860.35	229.36
860.66	229.06
860.98	228.92
861.29	229.15
861.60	229.13
861.91	229.48
862.22	229.44
862.53	229.23
862.84	228.18
863.16	228.44
863.47	228.26
863.78	228.17
864.09	228.17
864.40	228.18
864.71	228.26
865.02	228.35
865.33	228.30
865.64	228.10
865.95	228.11
866.27	228.66
866.58	228.56
866.89	228.62
867.20	228.60
867.51	228.49
867.82	228.34
868.13	228.61
868.44	228.38
868.75	228.47
869.06	228.51
869.37	228.64
869.68	228.27
869.99	228.49
870.30	228.57
870.61	228.80
870.92	228.68
871.23	228.59
871.54	228.77
871.85	228.93
872.16	229.02
872.47	228.91
872.78	228.39
873.09	228.49
873.40	228.36
873.71	228.50
874.02	228.46
874.33	228.30
874.64	228.04
874.95	228.16
875.26	227.94
875.56	227.96
875.87	227.80
876.18	227.73
876.49	228.58
876.80	228.50
877.11	228.17
877.42	228.20
877.73	228.19
878.04	228.01
878.35	227.98
878.66	227.91
878.96	227.86
879.27	227.77
879.58	227.66
879.89	227.68
880.20	227.90
880.51	227.87
880.82	227.84
881.12	227.90
881.43	227.70
881.74	227.54
882.05	227.40
882.36	227.42
882.67	227.49
882.97	226.45
883.28	226.21
883.59	226.24
883.90	226.36
884.21	226.41
884.51	226.40
884.82	226.20
885.13	226.30
885.44	226.32
885.74	226.35
886.05	226.39
886.36	226.28
886.67	225.85
886.98	226.34
887.28	226.42
887.59	226.41
887.90	226.46
888.20	226.46
888.51	226.64
888.82	226.67
889.13	226.85
889.43	227.70
889.74	227.88
890.05	227.86
890.35	227.75
890.66	227.67
890.97	227.61
891.28	227.68
891.58	227.71
891.89	227.76
892.20	227.62
892.50	227.50
892.81	227.63
893.12	227.70
893.42	227.32
893.73	227.44
894.04	227.50
894.34	227.71
894.65	227.78
894.95	227.76
895.26	227.75
895.57	228.05
895.87	227.24
896.18	227.34
896.48	227.48
896.79	227.57
897.10	227.77
897.40	227.82
897.71	227.90
898.01	227.90
898.32	228.07
898.63	228.17
898.93	228.29
899.24	228.37
899.54	228.39
899.85	228.37
900.15	228.30
900.46	228.34
900.76	228.37
901.07	228.32
901.38	228.27
901.68	228.37
901.99	227.93
902.29	228.00
902.60	228.00
902.90	227.94
903.21	227.89
903.51	227.68
903.82	227.88
904.12	227.87
904.43	227.82
904.73	227.70
905.03	227.79
905.34	228.59
905.64	228.43
905.95	228.44
906.25	228.41
906.56	228.45
906.86	228.49
907.17	228.44
907.47	228.51
907.77	228.45
908.08	228.34
908.38	228.41
908.69	228.47
908.99	228.56
909.30	228.59
909.60	228.49
909.90	228.69
910.21	228.37
910.51	228.20
910.81	228.27
911.12	228.32
911.42	228.35
911.73	227.34
912.03	227.40
912.33	227.65
912.64	227.65
912.94	227.54
913.24	227.36
913.55	227.26
913.85	227.15
914.15	227.34
914.46	227.39
914.76	227.26
915.06	227.11
915.37	226.88
915.67	226.76
915.97	226.83
916.27	226.47
916.58	226.60
916.88	226.67
917.18	226.50
917.49	227.10
917.79	227.00
918.09	227.20
918.39	227.45
918.70	227.33
919.00	227.26
919.30	227.73
919.60	227.63
919.91	227.54
920.21	227.72
920.51	227.41
920.81	227.35
921.12	227.52
921.42	227.52
921.72	227.70
922.02	227.76
922.32	227.92
922.63	228.07
922.93	228.43
923.23	228.38
923.53	228.24
923.83	227.64
924.13	227.65
924.44	227.58
924.74	227.58
925.04	227.72
925.34	227.74
925.64	227.26
925.94	227.30
926.24	227.76
926.55	227.59
926.85	227.81
927.15	227.83
927.45	227.81
927.75	227.79
928.05	227.73
928.35	227.69
928.65	227.82
928.95	227.88
929.26	227.60
929.56	227.82
929.86	228.14
930.16	228.03
930.46	228.13
930.76	228.17
931.06	227.91
931.36	227.70
931.66	227.91
931.96	228.04
932.26	228.05
932.56	227.70
932.86	227.81
933.16	227.80
933.46	227.70
933.76	227.59
934.06	227.88
934.36	228.19
934.66	228.09
934.96	227.89
935.26	227.93
935.56	228.05
935.86	227.78
936.16	227.59
936.46	227.50
936.76	227.31
937.06	227.20
937.36	227.23
937.66	227.29
937.96	227.17
938.26	226.98
938.56	227.04
938.86	227.08
939.16	227.26
939.46	227.32
939.76	227.43
940.06	227.42
940.35	227.17
940.65	226.66
940.95	226.87
941.25	226.78
941.55	226.71
941.85	226.68
942.15	226.94
942.45	227.18
942.75	227.21
943.04	227.23
943.34	227.37
943.64	227.29
943.94	227.10
944.24	227.11
944.54	227.13
944.84	227.04
945.13	226.97
945.43	226.86
945.73	226.75
946.03	226.66
946.33	226.53
946.62	226.48
946.92	226.53
947.22	226.51
947.52	226.61
947.82	226.64
948.11	226.54
948.41	226.32
948.71	225.96
949.01	225.98
949.31	225.92
949.60	225.94
949.90	226.08
950.20	226.02
950.50	226.05
950.79	226.03
951.09	226.19
951.39	226.06
951.69	225.87
951.98	226.11
952.28	226.09
952.58	226.20
952.87	226.17
953.17	226.33
953.47	226.23
953.76	226.11
954.06	225.98
954.36	225.81
954.66	225.74
954.95	226.10
955.25	226.33
955.55	226.50
955.84	226.28
956.14	226.35
956.44	226.50
956.73	226.22
957.03	226.29
957.32	226.22
957.62	226.36
957.92	226.63
958.21	226.48
958.51	227.57
958.81	227.61
959.10	227.68
959.40	227.80
959.69	227.94
959.99	228.13
960.29	228.22
960.58	228.16
960.88	228.59
961.17	228.50
961.47	228.49
961.76	228.38
962.06	228.56
962.36	228.51
962.65	228.49
962.95	228.67
963.24	228.60
963.54	228.67
963.83	228.65
964.13	228.59
964.42	228.34
964.72	227.69
965.01	227.78
965.31	227.88
965.60	227.68
965.90	228.24
966.19	228.07
966.49	228.12
966.78	228.25
967.08	228.28
967.37	228.32
967.67	228.15
967.96	228.37
968.26	228.41
968.55	228.47
968.85	228.50
969.14	228.49
969.43	228.60
969.73	228.54
970.02	228.55
970.32	228.45
970.61	228.48
970.91	228.07
971.20	227.86
971.49	227.62
971.79	227.78
972.08	227.08
972.38	227.11
972.67	227.04
972.96	227.05
973.26	226.72
973.55	226.89
973.85	226.88
974.14	226.74
974.43	226.74
974.73	226.61
975.02	226.53
975.31	226.54
975.61	226.50
975.90	226.40
976.19	226.38
976.49	226.55
976.78	226.70
977.07	226.68
977.37	226.81
977.66	227.01
977.95	226.85
978.24	226.94
978.54	227.13
978.83	227.16
979.12	227.22
979.42	227.26
979.71	227.09
980.00	227.10
980.29	227.20
980.59	227.08
980.88	227.50
981.17	227.55
981.46	227.55
981.76	227.61
982.05	227.89
982.34	227.97
982.63	227.87
982.93	227.83
983.22	228.24
983.51	228.17
983.80	228.32
984.09	228.50
984.39	228.42
984.68	228.24
984.97	228.35
985.26	228.27
985.55	228.43
985.85	228.27
986.14	228.36
986.43	228.40
986.72	228.34
987.01	227.90
987.30	227.84
987.59	227.76
987.89	227.70
988.18	227.42
988.47	227.37
988.76	227.27
989.05	227.24
989.34	227.01
989.63	227.35
989.92	227.13
990.22	226.90
990.51	226.94
990.80	226.91
991.09	226.85
991.38	226.97
991.67	226.89
991.96	226.85
992.25	226.91
992.54	226.80
992.83	226.82
993.12	226.80
993.41	226.93
993.70	227.42
993.99	227.63
994.28	227.84
994.58	227.88
994.87	227.84
995.16	227.86
995.45	227.81
995.74	227.40
996.03	227.61
996.32	227.77
996.61	227.95
996.90	227.92
997.19	227.92
997.48	227.91
997.77	227.65
998.06	227.76
998.34	227.64
998.63	227.60
998.92	227.66
999.21	227.79
999.50	227.82
999.79	227.45
1000.08	227.30
1000.37	227.31
1000.66	227.16
1000.95	227.48
1001.24	227.43
1001.53	227.47
1001.82	227.42
1002.11	227.11
1002.40	227.27
1002.68	227.46
1002.97	228.14
1003.26	228.07
1003.55	227.90
1003.84	228.06
1004.13	228.33
1004.42	228.30
1004.71	228.38
1004.99	228.25
1005.28	228.48
1005.57	228.47
1005.86	228.32
1006.15	228.31
1006.44	228.08
1006.72	228.19
1007.01	227.90
1007.30	227.92
1007.59	227.83
1007.88	227.90
1008.17	228.01
1008.45	227.70
1008.74	227.34
1009.03	226.91
1009.32	226.89
1009.60	226.87
1009.89	226.70
1010.18	226.31
1010.47	226.19
1010.76	226.04
1011.04	226.06
1011.33	226.04
1011.62	226.01
1011.91	226.07
1012.19	226.02
1012.48	226.00
1012.77	226.12
1013.05	226.56
1013.34	226.57
1013.63	226.54
1013.92	226.69
1014.20	226.60
1014.49	226.71
1014.78	226.80
1015.06	226.38
1015.35	226.40
1015.64	226.54
1015.92	226.72
1016.21	226.80
1016.50	226.85
1016.78	226.96
1017.07	227.01
1017.36	226.71
1017.64	226.65
1017.93	226.83
1018.22	226.84
1018.50	226.79
1018.79	226.58
1019.08	226.19
1019.36	226.13
1019.65	226.09
1019.93	226.26
1020.22	226.47
1020.51	226.93
1020.79	226.75
1021.08	225.90
1021.36	223.60
1021.65	225.10
1021.94	226.30
1022.22	225.40
1022.51	224.70
1022.79	231.30
1023.08	228.70
1023.36	238.40
1023.65	224.10
>>>>>End Processed Spectral Data<<<<<
