SpectraSuite Data File
++++++++++++++++++++++++++++++++++++
Date: Wed Sep 04 17:32:02 EDT 2013
User: lab3
Dark Spectrum Present: Yes
Reference Spectrum Present: No
Number of Sampled Component Spectra: 1
Spectrometers: USB2E7196
Integration Time (usec): 337000 (USB2E7196)
Spectra Averaged: 10 (USB2E7196)
Boxcar Smoothing: 10 (USB2E7196)
Correct for Electrical Dark: No (USB2E7196)
Strobe/Lamp Enabled: No (USB2E7196)
Correct for Detector Non-linearity: No (USB2E7196)
Correct for Stray Light: No (USB2E7196)
Number of Pixels in Processed Spectrum: 2048
>>>>>Begin Processed Spectral Data<<<<<
339.09	0.00
339.48	211.70
339.86	214.50
340.24	214.90
340.63	217.20
341.01	232.10
341.39	220.70
341.78	223.00
342.16	225.20
342.54	222.60
342.93	213.02
343.31	223.70
343.69	224.30
344.07	224.84
344.46	225.35
344.84	225.83
345.22	225.48
345.60	225.77
345.99	225.98
346.37	226.05
346.75	226.14
347.13	226.10
347.52	226.17
347.90	226.54
348.28	226.50
348.66	226.71
349.05	226.47
349.43	226.58
349.81	226.61
350.19	226.71
350.57	226.70
350.96	226.90
351.34	227.07
351.72	227.20
352.10	227.24
352.48	227.22
352.87	227.18
353.25	227.25
353.63	227.16
354.01	227.11
354.39	227.17
354.77	227.30
355.15	227.66
355.54	227.65
355.92	227.33
356.30	227.37
356.68	227.88
357.06	228.00
357.44	227.93
357.82	227.88
358.20	228.70
358.58	228.64
358.97	228.74
359.35	229.03
359.73	229.21
360.11	229.21
360.49	229.34
360.87	229.41
361.25	229.57
361.63	230.03
362.01	230.18
362.39	230.12
362.77	230.17
363.15	230.19
363.53	230.18
363.91	230.38
364.29	230.39
364.67	229.53
365.05	229.66
365.43	229.89
365.81	230.08
366.19	229.78
366.57	230.35
366.95	230.26
367.33	230.04
367.71	229.97
368.09	230.22
368.47	230.26
368.85	230.25
369.23	230.37
369.61	230.03
369.99	230.34
370.37	230.58
370.75	231.12
371.13	230.92
371.51	230.94
371.89	231.00
372.27	231.13
372.65	231.33
373.03	231.37
373.41	231.13
373.78	231.01
374.16	230.42
374.54	230.10
374.92	229.98
375.30	229.86
375.68	229.66
376.06	229.66
376.44	229.65
376.82	229.72
377.19	229.71
377.57	229.78
377.95	229.45
378.33	229.20
378.71	228.54
379.09	228.65
379.47	228.65
379.84	228.39
380.22	228.19
380.60	227.90
380.98	227.62
381.36	227.74
381.73	227.65
382.11	227.82
382.49	227.82
382.87	227.68
383.25	227.69
383.62	228.76
384.00	228.53
384.38	228.39
384.76	228.49
385.13	228.80
385.51	228.63
385.89	228.50
386.27	228.51
386.64	228.66
387.02	228.56
387.40	228.33
387.78	228.43
388.15	228.46
388.53	228.43
388.91	228.37
389.29	228.21
389.66	228.23
390.04	228.05
390.42	228.03
390.79	228.06
391.17	227.94
391.55	226.96
391.92	226.88
392.30	227.00
392.68	226.65
393.05	226.50
393.43	226.50
393.81	226.40
394.18	226.23
394.56	226.13
394.94	226.25
395.31	226.22
395.69	226.39
396.06	226.48
396.44	226.55
396.82	226.52
397.19	227.01
397.57	226.94
397.95	227.26
398.32	227.07
398.70	227.30
399.07	227.63
399.45	227.64
399.82	227.80
400.20	227.74
400.58	227.86
400.95	227.63
401.33	227.97
401.70	228.70
402.08	228.92
402.45	229.12
402.83	229.46
403.20	229.73
403.58	229.85
403.95	230.16
404.33	230.43
404.71	230.74
405.08	231.44
405.46	231.76
405.83	232.01
406.21	232.31
406.58	232.58
406.96	232.87
407.33	233.28
407.70	233.73
408.08	234.92
408.45	235.51
408.83	236.20
409.20	236.54
409.58	236.63
409.95	237.35
410.33	237.91
410.70	238.25
411.08	239.10
411.45	239.91
411.82	240.67
412.20	241.73
412.57	243.20
412.95	243.36
413.32	244.62
413.69	245.63
414.07	246.82
414.44	248.03
414.82	249.32
415.19	250.86
415.56	252.32
415.94	253.31
416.31	255.27
416.68	257.09
417.06	259.15
417.43	261.37
417.81	263.63
418.18	266.06
418.55	268.56
418.93	271.11
419.30	273.80
419.67	276.70
420.04	279.51
420.42	282.36
420.79	286.73
421.16	290.23
421.54	294.39
421.91	298.52
422.28	302.65
422.66	306.89
423.03	311.74
423.40	316.30
423.77	321.14
424.15	325.80
424.52	330.80
424.89	336.50
425.26	341.70
425.64	346.79
426.01	352.36
426.38	358.23
426.75	364.30
427.13	370.50
427.50	376.80
427.87	383.35
428.24	389.96
428.61	395.65
428.99	402.91
429.36	410.14
429.73	417.47
430.10	424.85
430.47	432.55
430.85	439.86
431.22	448.15
431.59	457.48
431.96	465.85
432.33	475.14
432.70	484.18
433.08	494.90
433.45	505.07
433.82	515.22
434.19	526.37
434.56	537.24
434.93	547.49
435.30	558.16
435.68	569.99
436.05	581.47
436.42	592.85
436.79	603.39
437.16	614.98
437.53	626.97
437.90	638.86
438.27	650.98
438.64	663.22
439.01	674.76
439.38	684.51
439.75	694.46
440.13	705.59
440.50	716.00
440.87	724.62
441.24	733.37
441.61	742.97
441.98	750.10
442.35	758.47
442.72	767.24
443.09	775.92
443.46	780.93
443.83	784.40
444.20	787.42
444.57	791.50
444.94	793.25
445.31	795.22
445.68	798.13
446.05	798.54
446.42	797.43
446.79	795.88
447.16	794.04
447.53	793.05
447.90	788.47
448.27	783.88
448.64	777.40
449.01	772.81
449.37	764.99
449.74	757.41
450.11	748.86
450.48	738.53
450.85	727.53
451.22	718.50
451.59	710.15
451.96	701.99
452.33	691.16
452.70	681.32
453.07	669.58
453.43	656.82
453.80	645.48
454.17	634.49
454.54	624.06
454.91	613.15
455.28	602.23
455.65	592.17
456.02	583.57
456.38	575.12
456.75	564.77
457.12	555.80
457.49	547.18
457.86	538.17
458.23	531.48
458.59	523.66
458.96	515.92
459.33	508.67
459.70	501.82
460.07	496.28
460.43	489.93
460.80	484.34
461.17	479.55
461.54	474.21
461.91	469.00
462.27	463.82
462.64	459.20
463.01	454.26
463.38	449.99
463.74	443.79
464.11	439.63
464.48	435.96
464.85	432.13
465.21	429.35
465.58	426.26
465.95	422.05
466.32	419.10
466.68	415.81
467.05	413.00
467.42	409.82
467.78	406.70
468.15	403.66
468.52	401.38
468.88	398.05
469.25	395.31
469.62	393.40
469.98	391.05
470.35	389.12
470.72	387.19
471.08	384.56
471.45	383.03
471.82	381.44
472.18	379.37
472.55	377.98
472.92	375.89
473.28	374.18
473.65	372.70
474.02	371.10
474.38	370.01
474.75	368.77
475.11	367.48
475.48	366.49
475.85	365.66
476.21	364.56
476.58	363.79
476.94	363.23
477.31	362.28
477.67	361.59
478.04	360.79
478.41	360.31
478.77	360.93
479.14	360.22
479.50	359.76
479.87	359.60
480.23	359.24
480.60	358.98
480.96	358.79
481.33	359.16
481.69	359.13
482.06	359.17
482.42	359.19
482.79	359.29
483.15	359.24
483.52	359.68
483.88	359.82
484.25	360.17
484.61	360.40
484.98	360.80
485.34	361.66
485.71	362.33
486.07	363.00
486.44	362.64
486.80	363.40
487.17	364.01
487.53	365.18
487.90	366.19
488.26	367.60
488.62	368.76
488.99	369.49
489.35	370.58
489.72	371.72
490.08	372.93
490.44	374.40
490.81	375.99
491.17	377.31
491.54	379.21
491.90	381.02
492.26	382.89
492.63	384.80
492.99	386.45
493.36	388.57
493.72	390.73
494.08	393.06
494.45	395.33
494.81	398.05
495.17	400.23
495.54	402.73
495.90	404.91
496.26	407.68
496.63	410.47
496.99	413.29
497.35	416.27
497.72	419.37
498.08	422.34
498.44	425.63
498.80	429.07
499.17	432.04
499.53	435.20
499.89	438.52
500.26	441.97
500.62	445.42
500.98	449.25
501.34	452.78
501.71	456.39
502.07	459.82
502.43	463.28
502.79	466.90
503.16	470.85
503.52	474.77
503.88	478.50
504.24	482.59
504.60	486.71
504.97	490.87
505.33	494.86
505.69	499.47
506.05	503.60
506.41	507.63
506.78	511.99
507.14	516.28
507.50	520.61
507.86	524.90
508.22	529.32
508.59	533.18
508.95	537.61
509.31	542.50
509.67	547.15
510.03	551.68
510.39	556.18
510.75	560.49
511.12	564.75
511.48	569.20
511.84	573.46
512.20	577.88
512.56	582.15
512.92	586.79
513.28	591.02
513.64	595.41
514.00	599.97
514.37	604.62
514.73	609.25
515.09	614.05
515.45	618.74
515.81	623.41
516.17	628.49
516.53	633.07
516.89	637.47
517.25	642.28
517.61	647.54
517.97	652.85
518.33	658.24
518.69	663.73
519.05	669.37
519.41	674.90
519.77	680.95
520.13	686.48
520.49	691.80
520.85	699.92
521.21	705.99
521.57	711.82
521.93	717.30
522.29	722.85
522.65	727.98
523.01	733.44
523.37	738.77
523.73	744.28
524.09	749.95
524.45	755.54
524.81	761.26
525.17	766.51
525.53	771.97
525.89	777.50
526.25	783.20
526.61	788.32
526.97	793.97
527.33	799.69
527.68	806.45
528.04	812.53
528.40	816.01
528.76	822.18
529.12	828.18
529.48	834.51
529.84	840.67
530.20	847.60
530.56	854.47
530.91	861.54
531.27	868.19
531.63	875.08
531.99	881.92
532.35	888.88
532.71	895.91
533.07	903.27
533.42	911.14
533.78	918.25
534.14	925.65
534.50	932.78
534.86	939.95
535.21	946.15
535.57	953.50
535.93	960.14
536.29	967.16
536.65	974.55
537.00	981.41
537.36	988.60
537.72	995.14
538.08	1002.31
538.44	1008.92
538.79	1016.06
539.15	1022.93
539.51	1029.93
539.87	1036.39
540.22	1042.68
540.58	1048.92
540.94	1054.42
541.29	1060.71
541.65	1066.67
542.01	1073.20
542.37	1078.82
542.72	1084.51
543.08	1089.93
543.44	1095.90
543.79	1101.11
544.15	1106.71
544.51	1112.89
544.87	1118.71
545.22	1124.26
545.58	1129.05
545.94	1134.24
546.29	1139.13
546.65	1143.96
547.01	1148.27
547.36	1153.20
547.72	1158.15
548.07	1162.76
548.43	1167.09
548.79	1171.55
549.14	1176.12
549.50	1180.47
549.86	1184.55
550.21	1189.45
550.57	1194.20
550.92	1198.39
551.28	1202.38
551.64	1206.27
551.99	1210.36
552.35	1214.02
552.70	1217.74
553.06	1221.76
553.41	1225.65
553.77	1229.86
554.13	1233.66
554.48	1237.70
554.84	1241.75
555.19	1245.19
555.55	1250.01
555.90	1253.33
556.26	1256.44
556.61	1259.28
556.97	1261.41
557.32	1264.71
557.68	1267.32
558.03	1269.91
558.39	1272.01
558.74	1274.89
559.10	1276.95
559.45	1278.63
559.81	1280.49
560.16	1282.22
560.52	1284.05
560.87	1285.74
561.23	1286.97
561.58	1288.79
561.94	1289.51
562.29	1289.83
562.64	1291.12
563.00	1290.62
563.35	1291.78
563.71	1292.76
564.06	1293.92
564.42	1295.28
564.77	1296.20
565.12	1297.10
565.48	1299.03
565.83	1300.35
566.19	1300.69
566.54	1301.36
566.89	1301.69
567.25	1302.71
567.60	1304.19
567.96	1305.46
568.31	1306.64
568.66	1307.00
569.02	1306.58
569.37	1307.27
569.72	1308.15
570.08	1308.13
570.43	1307.83
570.78	1307.53
571.14	1307.14
571.49	1306.38
571.84	1305.82
572.20	1304.70
572.55	1303.49
572.90	1301.17
573.26	1299.96
573.61	1298.52
573.96	1296.95
574.31	1295.16
574.67	1293.04
575.02	1290.35
575.37	1287.23
575.72	1284.06
576.08	1281.50
576.43	1278.84
576.78	1275.92
577.13	1273.41
577.49	1270.46
577.84	1268.35
578.19	1266.06
578.54	1263.73
578.90	1261.43
579.25	1258.69
579.60	1256.09
579.95	1253.23
580.30	1250.07
580.66	1246.75
581.01	1243.50
581.36	1240.04
581.71	1237.10
582.06	1234.29
582.42	1230.91
582.77	1227.84
583.12	1224.97
583.47	1221.92
583.82	1219.39
584.17	1216.42
584.53	1213.49
584.88	1210.00
585.23	1206.35
585.58	1202.02
585.93	1197.79
586.28	1193.75
586.63	1189.49
586.98	1185.30
587.34	1181.51
587.69	1177.72
588.04	1174.13
588.39	1170.83
588.74	1167.06
589.09	1163.72
589.44	1159.05
589.79	1155.55
590.14	1151.97
590.49	1148.24
590.84	1144.47
591.19	1140.45
591.54	1136.48
591.89	1131.76
592.25	1129.52
592.60	1125.57
592.95	1122.44
593.30	1118.58
593.65	1114.66
594.00	1110.52
594.35	1109.16
594.70	1104.86
595.05	1100.76
595.40	1096.39
595.75	1091.87
596.10	1088.06
596.45	1083.72
596.80	1079.93
597.15	1075.59
597.50	1071.07
597.85	1066.94
598.19	1062.50
598.54	1057.84
598.89	1053.48
599.24	1049.32
599.59	1044.17
599.94	1039.40
600.29	1035.08
600.64	1030.93
600.99	1026.47
601.34	1022.71
601.69	1016.18
602.04	1012.06
602.39	1007.77
602.74	1004.16
603.08	1000.13
603.43	996.16
603.78	992.01
604.13	988.07
604.48	984.11
604.83	979.76
605.18	975.12
605.53	970.97
605.87	967.27
606.22	963.60
606.57	959.48
606.92	954.87
607.27	951.16
607.62	946.63
607.96	942.78
608.31	939.28
608.66	935.70
609.01	931.50
609.36	927.31
609.70	923.47
610.05	919.20
610.40	915.47
610.75	911.22
611.10	906.96
611.44	902.85
611.79	898.51
612.14	894.70
612.49	890.66
612.83	886.61
613.18	882.35
613.53	878.14
613.88	873.85
614.22	869.97
614.57	865.69
614.92	861.62
615.27	857.54
615.61	852.94
615.96	848.48
616.31	844.20
616.65	840.72
617.00	836.60
617.35	832.50
617.70	828.07
618.04	824.06
618.39	820.20
618.74	816.33
619.08	812.34
619.43	808.14
619.78	803.79
620.12	799.45
620.47	795.48
620.82	791.28
621.16	787.20
621.51	783.80
621.85	780.23
622.20	776.35
622.55	772.33
622.89	768.73
623.24	764.94
623.59	761.30
623.93	757.23
624.28	753.14
624.62	750.30
624.97	747.08
625.32	743.24
625.66	739.30
626.01	735.06
626.35	731.50
626.70	727.88
627.04	724.61
627.39	721.06
627.73	717.58
628.08	714.26
628.43	710.63
628.77	706.19
629.12	702.45
629.46	699.14
629.81	695.86
630.15	692.41
630.50	688.95
630.84	685.35
631.19	681.86
631.53	678.78
631.88	674.54
632.22	670.74
632.57	667.93
632.91	664.84
633.26	661.93
633.60	658.58
633.95	655.16
634.29	651.36
634.64	648.32
634.98	644.72
635.32	641.38
635.67	638.60
636.01	635.70
636.36	632.29
636.70	629.24
637.05	625.95
637.39	622.96
637.73	619.84
638.08	617.12
638.42	613.85
638.77	610.63
639.11	606.93
639.45	603.48
639.80	599.72
640.14	596.27
640.49	593.03
640.83	590.00
641.17	587.12
641.52	584.54
641.86	581.45
642.20	578.94
642.55	575.97
642.89	572.89
643.23	570.06
643.58	567.76
643.92	564.63
644.26	561.57
644.61	558.84
644.95	555.82
645.29	552.65
645.64	550.05
645.98	547.18
646.32	544.99
646.66	542.25
647.01	539.54
647.35	537.09
647.69	534.47
648.04	531.99
648.38	529.42
648.72	526.84
649.06	524.00
649.41	521.08
649.75	518.14
650.09	515.70
650.43	512.90
650.78	509.96
651.12	507.59
651.46	505.30
651.80	502.78
652.14	500.44
652.49	498.37
652.83	495.95
653.17	493.70
653.51	491.21
653.85	489.21
654.20	486.90
654.54	484.48
654.88	482.04
655.22	480.26
655.56	477.93
655.90	475.65
656.25	473.64
656.59	471.44
656.93	469.52
657.27	467.55
657.61	465.24
657.95	463.17
658.29	460.92
658.64	458.81
658.98	456.51
659.32	454.21
659.66	451.95
660.00	449.77
660.34	447.69
660.68	445.54
661.02	443.26
661.36	441.13
661.70	439.12
662.05	437.26
662.39	435.02
662.73	433.29
663.07	431.69
663.41	429.71
663.75	427.64
664.09	425.86
664.43	423.53
664.77	421.84
665.11	419.96
665.45	418.10
665.79	416.34
666.13	414.40
666.47	412.53
666.81	410.57
667.15	408.68
667.49	407.03
667.83	405.69
668.17	404.12
668.51	402.63
668.85	401.17
669.19	399.89
669.53	398.06
669.87	396.14
670.21	394.24
670.55	392.65
670.89	391.64
671.23	389.92
671.57	388.45
671.91	387.02
672.25	385.51
672.58	384.20
672.92	382.21
673.26	380.86
673.60	379.48
673.94	378.29
674.28	377.10
674.62	375.77
674.96	374.20
675.30	372.85
675.64	371.45
675.97	369.90
676.31	368.06
676.65	366.53
676.99	365.66
677.33	364.29
677.67	363.04
678.01	361.19
678.34	359.97
678.68	358.86
679.02	357.34
679.36	355.98
679.70	354.71
680.04	353.69
680.37	352.44
680.71	351.40
681.05	350.23
681.39	349.04
681.73	347.88
682.06	346.51
682.40	345.45
682.74	344.48
683.08	343.76
683.42	342.60
683.75	341.60
684.09	340.33
684.43	339.31
684.77	338.06
685.10	337.19
685.44	336.08
685.78	334.92
686.12	333.88
686.45	332.89
686.79	331.70
687.13	330.88
687.46	329.77
687.80	328.88
688.14	327.74
688.48	326.80
688.81	325.73
689.15	325.06
689.49	323.93
689.82	323.01
690.16	321.51
690.50	320.73
690.83	319.70
691.17	318.47
691.51	317.39
691.84	316.57
692.18	315.58
692.52	314.58
692.85	313.79
693.19	313.39
693.52	312.58
693.86	311.65
694.20	310.72
694.53	309.96
694.87	308.92
695.21	307.97
695.54	307.08
695.88	306.13
696.21	305.01
696.55	304.20
696.88	303.28
697.22	302.49
697.56	301.63
697.89	300.83
698.23	300.24
698.56	299.50
698.90	298.88
699.23	297.92
699.57	297.42
699.90	296.59
700.24	295.51
700.58	294.80
700.91	294.21
701.25	294.22
701.58	294.12
701.92	293.65
702.25	293.01
702.59	292.18
702.92	291.51
703.26	291.00
703.59	290.48
703.93	290.59
704.26	290.07
704.60	289.50
704.93	288.86
705.26	288.08
705.60	287.61
705.93	286.73
706.27	286.58
706.60	286.09
706.94	285.89
707.27	285.23
707.61	284.67
707.94	284.01
708.27	282.67
708.61	281.50
708.94	280.90
709.28	280.34
709.61	279.84
709.94	279.37
710.28	278.77
710.61	278.17
710.95	276.80
711.28	276.93
711.61	276.37
711.95	276.18
712.28	275.58
712.61	275.08
712.95	275.24
713.28	275.09
713.61	274.21
713.95	273.43
714.28	273.06
714.61	272.45
714.95	272.03
715.28	271.39
715.61	270.82
715.95	270.35
716.28	269.86
716.61	269.46
716.95	268.82
717.28	268.30
717.61	267.80
717.94	267.39
718.28	266.27
718.61	265.88
718.94	265.15
719.27	264.86
719.61	264.46
719.94	263.71
720.27	262.75
720.60	262.50
720.94	262.08
721.27	261.70
721.60	261.56
721.93	261.11
722.27	261.17
722.60	260.99
722.93	260.62
723.26	260.37
723.59	259.93
723.93	259.78
724.26	259.54
724.59	259.17
724.92	258.91
725.25	258.86
725.59	258.45
725.92	258.32
726.25	258.05
726.58	257.87
726.91	257.55
727.24	257.53
727.57	257.13
727.91	256.79
728.24	256.61
728.57	256.17
728.90	255.97
729.23	255.51
729.56	255.65
729.89	255.39
730.22	255.14
730.55	255.01
730.89	254.70
731.22	254.45
731.55	254.24
731.88	254.03
732.21	253.56
732.54	253.34
732.87	253.02
733.20	252.84
733.53	252.61
733.86	252.37
734.19	251.94
734.52	252.02
734.85	252.49
735.18	252.05
735.51	252.20
735.84	252.20
736.17	252.19
736.50	251.50
736.83	252.44
737.16	252.14
737.49	251.98
737.82	251.70
738.15	251.67
738.48	251.52
738.81	251.35
739.14	251.14
739.47	250.89
739.80	250.68
740.13	250.58
740.46	250.14
740.79	249.97
741.12	249.84
741.45	249.45
741.78	248.69
742.11	248.80
742.44	248.39
742.77	248.26
743.10	247.99
743.43	247.84
743.75	246.57
744.08	247.64
744.41	247.33
744.74	247.20
745.07	246.74
745.40	246.72
745.73	246.84
746.06	246.78
746.39	246.73
746.71	246.55
747.04	246.17
747.37	246.00
747.70	246.00
748.03	245.78
748.36	245.76
748.68	245.53
749.01	245.04
749.34	244.83
749.67	244.56
750.00	244.46
750.33	244.94
750.65	244.83
750.98	243.46
751.31	243.33
751.64	243.27
751.97	243.73
752.29	243.39
752.62	242.85
752.95	242.52
753.28	242.36
753.60	242.17
753.93	242.24
754.26	242.23
754.59	241.69
754.91	241.59
755.24	241.25
755.57	241.10
755.90	241.06
756.22	240.87
756.55	240.62
756.88	240.24
757.20	239.39
757.53	238.94
757.86	238.87
758.19	238.73
758.51	238.52
758.84	237.83
759.17	237.68
759.49	237.56
759.82	238.03
760.15	237.84
760.47	237.61
760.80	237.13
761.13	237.08
761.45	237.03
761.78	236.81
762.11	236.81
762.43	236.54
762.76	236.38
763.08	236.40
763.41	236.36
763.74	236.34
764.06	236.29
764.39	236.30
764.71	236.09
765.04	235.93
765.37	235.73
765.69	235.60
766.02	235.47
766.34	235.30
766.67	234.70
767.00	234.93
767.32	235.41
767.65	236.02
767.97	235.84
768.30	235.76
768.62	235.67
768.95	235.47
769.27	235.46
769.60	235.60
769.92	235.29
770.25	235.00
770.57	234.71
770.90	234.59
771.22	234.40
771.55	234.52
771.87	234.55
772.20	234.54
772.52	235.34
772.85	236.41
773.17	236.38
773.50	236.31
773.82	236.01
774.15	235.55
774.47	234.98
774.80	234.90
775.12	234.94
775.45	234.86
775.77	234.90
776.09	234.87
776.42	234.75
776.74	235.05
777.07	234.98
777.39	235.05
777.72	234.96
778.04	235.04
778.36	234.85
778.69	234.85
779.01	234.85
779.33	233.99
779.66	232.94
779.98	232.84
780.31	232.88
780.63	233.24
780.95	233.30
781.28	233.21
781.60	233.00
781.92	232.94
782.25	232.89
782.57	232.91
782.89	232.87
783.22	232.85
783.54	232.60
783.86	232.71
784.19	232.74
784.51	233.09
784.83	233.04
785.16	233.06
785.48	232.99
785.80	233.04
786.12	233.15
786.45	233.09
786.77	233.13
787.09	233.14
787.42	232.73
787.74	232.66
788.06	232.69
788.38	232.74
788.71	232.59
789.03	232.69
789.35	232.76
789.67	232.65
789.99	232.57
790.32	232.48
790.64	232.55
790.96	233.30
791.28	232.93
791.61	232.79
791.93	232.73
792.25	232.57
792.57	233.21
792.89	232.94
793.21	233.02
793.54	232.94
793.86	232.73
794.18	232.82
794.50	232.77
794.82	232.84
795.14	232.93
795.47	233.03
795.79	233.04
796.11	232.70
796.43	232.67
796.75	232.70
797.07	232.70
797.39	232.67
797.71	231.93
798.04	231.99
798.36	232.10
798.68	232.07
799.00	232.26
799.32	231.63
799.64	231.82
799.96	231.73
800.28	231.82
800.60	231.85
800.92	231.79
801.24	231.68
801.56	231.64
801.89	231.53
802.21	231.71
802.53	231.47
802.85	231.78
803.17	232.20
803.49	231.97
803.81	231.81
804.13	231.69
804.45	231.57
804.77	231.49
805.09	231.37
805.41	231.27
805.73	231.00
806.05	230.74
806.37	230.66
806.69	230.43
807.01	230.38
807.33	230.38
807.65	230.04
807.97	230.47
808.28	230.41
808.60	230.46
808.92	230.17
809.24	230.76
809.56	230.58
809.88	230.31
810.20	230.37
810.52	230.59
810.84	230.31
811.16	230.14
811.48	230.13
811.80	230.47
812.12	230.43
812.43	230.59
812.75	230.71
813.07	230.62
813.39	230.80
813.71	230.69
814.03	230.58
814.35	230.70
814.67	230.33
814.98	230.07
815.30	229.99
815.62	229.89
815.94	229.29
816.26	229.67
816.58	229.43
816.89	229.48
817.21	229.16
817.53	229.38
817.85	229.48
818.17	229.52
818.48	229.16
818.80	229.34
819.12	229.25
819.44	228.96
819.76	228.83
820.07	228.81
820.39	228.83
820.71	228.84
821.03	228.81
821.34	228.70
821.66	228.98
821.98	229.01
822.30	228.97
822.61	229.54
822.93	229.10
823.25	229.15
823.57	229.13
823.88	229.40
824.20	229.33
824.52	229.44
824.83	229.32
825.15	229.14
825.47	229.11
825.79	229.19
826.10	229.33
826.42	229.30
826.74	229.39
827.05	229.35
827.37	229.52
827.69	229.48
828.00	229.47
828.32	229.49
828.64	229.39
828.95	230.00
829.27	229.65
829.58	229.62
829.90	229.73
830.22	229.75
830.53	229.63
830.85	229.53
831.17	229.40
831.48	229.52
831.80	229.60
832.11	229.50
832.43	229.40
832.75	229.33
833.06	229.92
833.38	229.60
833.69	229.55
834.01	229.51
834.32	229.50
834.64	229.40
834.96	229.30
835.27	229.37
835.59	228.91
835.90	228.83
836.22	228.78
836.53	228.51
836.85	228.33
837.16	229.32
837.48	229.40
837.79	229.69
838.11	229.68
838.42	229.64
838.74	229.76
839.05	229.73
839.37	229.78
839.68	229.17
840.00	229.13
840.31	229.30
840.63	229.16
840.94	229.10
841.26	229.01
841.57	228.98
841.88	229.00
842.20	228.82
842.51	228.64
842.83	228.69
843.14	229.71
843.46	229.80
843.77	229.21
844.08	229.13
844.40	228.81
844.71	228.68
845.03	228.67
845.34	228.64
845.65	228.57
845.97	228.58
846.28	228.72
846.60	228.76
846.91	228.63
847.22	228.61
847.54	228.73
847.85	228.88
848.16	228.74
848.48	228.62
848.79	229.10
849.10	229.19
849.42	229.21
849.73	228.30
850.04	228.24
850.36	227.81
850.67	228.14
850.98	228.19
851.30	228.26
851.61	228.30
851.92	228.28
852.23	228.49
852.55	228.54
852.86	228.52
853.17	228.71
853.49	228.92
853.80	229.20
854.11	229.36
854.42	229.50
854.74	229.47
855.05	229.60
855.36	229.09
855.67	229.21
855.99	229.19
856.30	230.21
856.61	230.20
856.92	230.31
857.23	230.15
857.55	230.06
857.86	230.04
858.17	230.15
858.48	229.98
858.79	229.95
859.11	230.06
859.42	230.12
859.73	229.96
860.04	229.93
860.35	229.57
860.66	229.30
860.98	229.27
861.29	229.44
861.60	229.29
861.91	229.58
862.22	229.38
862.53	229.19
862.84	228.17
863.16	228.42
863.47	228.20
863.78	228.15
864.09	228.16
864.40	228.33
864.71	228.34
865.02	228.54
865.33	228.29
865.64	228.01
865.95	227.93
866.27	228.46
866.58	228.35
866.89	228.60
867.20	228.60
867.51	228.42
867.82	228.35
868.13	228.60
868.44	228.30
868.75	228.52
869.06	228.77
869.37	228.90
869.68	228.65
869.99	228.81
870.30	228.82
870.61	229.00
870.92	228.75
871.23	228.69
871.54	228.68
871.85	228.95
872.16	229.18
872.47	229.18
872.78	228.75
873.09	228.80
873.40	228.68
873.71	228.76
874.02	228.82
874.33	228.71
874.64	228.44
874.95	228.66
875.26	228.49
875.56	228.34
875.87	228.20
876.18	228.08
876.49	229.07
876.80	229.00
877.11	228.81
877.42	228.94
877.73	228.92
878.04	228.76
878.35	228.64
878.66	228.59
878.96	228.42
879.27	228.30
879.58	228.18
879.89	228.02
880.20	228.28
880.51	228.17
880.82	228.18
881.12	228.23
881.43	228.12
881.74	228.01
882.05	227.93
882.36	228.01
882.67	228.15
882.97	227.06
883.28	226.97
883.59	226.94
883.90	226.92
884.21	226.96
884.51	227.03
884.82	226.96
885.13	226.90
885.44	227.01
885.74	227.07
886.05	227.12
886.36	227.20
886.67	226.80
886.98	227.30
887.28	227.45
887.59	227.55
887.90	227.48
888.20	227.47
888.51	227.69
888.82	227.50
889.13	227.56
889.43	228.37
889.74	228.36
890.05	228.33
890.35	228.19
890.66	228.13
890.97	228.06
891.28	228.02
891.58	228.14
891.89	228.10
892.20	228.00
892.50	227.92
892.81	227.87
893.12	227.94
893.42	227.57
893.73	227.53
894.04	227.52
894.34	227.59
894.65	227.58
894.95	227.55
895.26	227.60
895.57	228.07
895.87	227.18
896.18	227.32
896.48	227.46
896.79	227.55
897.10	227.62
897.40	227.61
897.71	227.76
898.01	227.64
898.32	227.71
898.63	227.70
898.93	227.71
899.24	227.86
899.54	227.83
899.85	227.84
900.15	227.82
900.46	227.78
900.76	227.88
901.07	227.87
901.38	227.71
901.68	227.85
901.99	227.28
902.29	227.41
902.60	227.39
902.90	227.23
903.21	227.20
903.51	227.14
903.82	227.33
904.12	227.30
904.43	227.36
904.73	227.31
905.03	227.43
905.34	228.41
905.64	228.34
905.95	228.29
906.25	228.16
906.56	228.20
906.86	228.14
907.17	228.07
907.47	228.24
907.77	228.21
908.08	228.08
908.38	228.13
908.69	228.17
908.99	228.30
909.30	228.41
909.60	228.33
909.90	228.46
910.21	228.16
910.51	228.04
910.81	228.03
911.12	228.16
911.42	228.18
911.73	227.17
912.03	227.14
912.33	227.35
912.64	227.31
912.94	227.10
913.24	226.99
913.55	226.85
913.85	226.64
914.15	226.86
914.46	226.89
914.76	226.89
915.06	226.78
915.37	226.50
915.67	226.40
915.97	226.42
916.27	226.15
916.58	226.19
916.88	226.13
917.18	226.11
917.49	226.72
917.79	226.60
918.09	226.67
918.39	227.00
918.70	226.92
919.00	226.96
919.30	227.50
919.60	227.53
919.91	227.54
920.21	227.58
920.51	227.43
920.81	227.44
921.12	227.57
921.42	227.60
921.72	227.71
922.02	227.82
922.32	227.97
922.63	228.10
922.93	228.55
923.23	228.67
923.53	228.62
923.83	227.88
924.13	227.99
924.44	228.00
924.74	228.01
925.04	228.24
925.34	228.26
925.64	227.90
925.94	227.85
926.24	228.39
926.55	228.30
926.85	228.34
927.15	228.25
927.45	228.12
927.75	228.10
928.05	228.10
928.35	228.04
928.65	228.22
928.95	228.30
929.26	228.04
929.56	228.18
929.86	228.13
930.16	228.16
930.46	228.10
930.76	228.06
931.06	227.64
931.36	227.36
931.66	227.50
931.96	227.55
932.26	227.58
932.56	227.16
932.86	227.23
933.16	227.23
933.46	227.18
933.76	227.06
934.06	227.37
934.36	227.77
934.66	227.74
934.96	227.56
935.26	227.52
935.56	227.60
935.86	227.29
936.16	227.27
936.46	227.22
936.76	227.20
937.06	227.14
937.36	227.22
937.66	227.18
937.96	227.09
938.26	226.96
938.56	227.04
938.86	227.08
939.16	227.28
939.46	227.34
939.76	227.53
940.06	227.63
940.35	227.29
940.65	226.79
940.95	226.82
941.25	226.63
941.55	226.47
941.85	226.30
942.15	226.60
942.45	226.85
942.75	226.82
943.04	226.87
943.34	227.06
943.64	226.99
943.94	226.96
944.24	226.95
944.54	226.97
944.84	226.85
945.13	226.68
945.43	226.53
945.73	226.52
946.03	226.37
946.33	226.19
946.62	226.20
946.92	226.21
947.22	226.32
947.52	226.39
947.82	226.60
948.11	226.57
948.41	226.27
948.71	226.10
949.01	226.11
949.31	226.00
949.60	225.86
949.90	226.02
950.20	226.04
950.50	226.03
950.79	225.94
951.09	226.13
951.39	226.22
951.69	226.10
951.98	226.28
952.28	226.39
952.58	226.48
952.87	226.46
953.17	226.57
953.47	226.50
953.76	226.55
954.06	226.32
954.36	226.19
954.66	226.19
954.95	226.33
955.25	226.45
955.55	226.52
955.84	226.45
956.14	226.59
956.44	226.61
956.73	226.55
957.03	226.68
957.32	226.62
957.62	226.46
957.92	226.75
958.21	226.61
958.51	227.66
958.81	227.79
959.10	227.88
959.40	228.04
959.69	228.04
959.99	228.15
960.29	228.22
960.58	228.27
960.88	228.62
961.17	228.61
961.47	228.64
961.76	228.63
962.06	228.83
962.36	228.72
962.65	228.78
962.95	228.89
963.24	228.81
963.54	228.82
963.83	229.03
964.13	228.92
964.42	228.79
964.72	228.05
965.01	228.06
965.31	227.95
965.60	227.78
965.90	228.45
966.19	228.21
966.49	228.17
966.78	228.10
967.08	228.07
967.37	228.03
967.67	227.89
967.96	228.15
968.26	228.09
968.55	228.14
968.85	228.09
969.14	228.06
969.43	228.10
969.73	228.06
970.02	227.94
970.32	227.98
970.61	227.98
970.91	227.71
971.20	227.53
971.49	227.55
971.79	227.63
972.08	226.92
972.38	227.06
972.67	227.14
972.96	227.33
973.26	227.16
973.55	227.50
973.85	227.51
974.14	227.39
974.43	227.40
974.73	227.26
975.02	227.23
975.31	227.25
975.61	227.30
975.90	227.28
976.19	227.20
976.49	227.20
976.78	227.25
977.07	227.16
977.37	227.31
977.66	227.41
977.95	227.29
978.24	227.37
978.54	227.55
978.83	227.40
979.12	227.30
979.42	227.37
979.71	227.11
980.00	227.02
980.29	226.95
980.59	226.85
980.88	227.03
981.17	226.99
981.46	226.95
981.76	226.88
982.05	227.10
982.34	227.20
982.63	227.30
982.93	227.20
983.22	227.55
983.51	227.44
983.80	227.52
984.09	227.65
984.39	227.55
984.68	227.38
984.97	227.52
985.26	227.44
985.55	227.40
985.85	227.29
986.14	227.55
986.43	227.69
986.72	227.52
987.01	227.21
987.30	227.23
987.59	227.12
987.89	227.11
988.18	226.70
988.47	226.56
988.76	226.40
989.05	226.39
989.34	226.09
989.63	226.40
989.92	226.19
990.22	226.13
990.51	226.04
990.80	225.93
991.09	225.94
991.38	226.09
991.67	226.11
991.96	225.94
992.25	225.81
992.54	225.62
992.83	225.63
993.12	225.64
993.41	225.76
993.70	226.21
993.99	226.40
994.28	226.71
994.58	226.95
994.87	226.86
995.16	226.89
995.45	226.78
995.74	226.42
996.03	226.67
996.32	226.77
996.61	227.04
996.90	227.02
997.19	227.01
997.48	227.04
997.77	226.86
998.06	226.97
998.34	226.94
998.63	226.92
998.92	227.09
999.21	227.27
999.50	227.26
999.79	226.89
1000.08	226.81
1000.37	226.78
1000.66	226.59
1000.95	226.86
1001.24	226.84
1001.53	227.03
1001.82	226.95
1002.11	226.69
1002.40	226.78
1002.68	227.06
1002.97	227.84
1003.26	227.69
1003.55	227.55
1003.84	227.57
1004.13	227.93
1004.42	227.95
1004.71	228.00
1004.99	227.89
1005.28	228.09
1005.57	227.97
1005.86	227.95
1006.15	227.88
1006.44	227.76
1006.72	227.91
1007.01	227.75
1007.30	227.84
1007.59	227.67
1007.88	227.76
1008.17	227.94
1008.45	227.67
1008.74	227.25
1009.03	226.72
1009.32	226.91
1009.60	226.84
1009.89	226.85
1010.18	226.33
1010.47	226.33
1010.76	226.26
1011.04	226.29
1011.33	226.34
1011.62	226.50
1011.91	226.48
1012.19	226.53
1012.48	226.52
1012.77	226.51
1013.05	226.92
1013.34	226.93
1013.63	227.00
1013.92	227.08
1014.20	226.92
1014.49	226.95
1014.78	226.91
1015.06	226.63
1015.35	226.43
1015.64	226.61
1015.92	226.76
1016.21	226.89
1016.50	226.87
1016.78	226.96
1017.07	226.97
1017.36	226.74
1017.64	226.59
1017.93	226.78
1018.22	226.66
1018.50	226.63
1018.79	226.65
1019.08	226.24
1019.36	226.25
1019.65	226.14
1019.93	226.36
1020.22	226.53
1020.51	227.10
1020.79	227.16
1021.08	224.60
1021.36	224.30
1021.65	228.00
1021.94	226.80
1022.22	227.30
1022.51	224.70
1022.79	231.40
1023.08	228.10
1023.36	239.50
1023.65	226.20
>>>>>End Processed Spectral Data<<<<<
