SpectraSuite Data File
++++++++++++++++++++++++++++++++++++
Date: Wed Sep 04 17:30:29 EDT 2013
User: lab3
Dark Spectrum Present: Yes
Reference Spectrum Present: No
Number of Sampled Component Spectra: 1
Spectrometers: USB2E7196
Integration Time (usec): 337000 (USB2E7196)
Spectra Averaged: 10 (USB2E7196)
Boxcar Smoothing: 10 (USB2E7196)
Correct for Electrical Dark: No (USB2E7196)
Strobe/Lamp Enabled: No (USB2E7196)
Correct for Detector Non-linearity: No (USB2E7196)
Correct for Stray Light: No (USB2E7196)
Number of Pixels in Processed Spectrum: 2048
>>>>>Begin Processed Spectral Data<<<<<
339.09	0.00
339.48	213.90
339.86	213.20
340.24	215.50
340.63	215.80
341.01	233.20
341.39	218.70
341.78	223.10
342.16	226.30
342.54	224.40
342.93	213.19
343.31	223.79
343.69	224.29
344.07	224.80
344.46	225.33
344.84	225.84
345.22	225.52
345.60	225.92
345.99	226.11
346.37	226.07
346.75	226.12
347.13	226.14
347.52	226.26
347.90	226.60
348.28	226.68
348.66	226.93
349.05	226.66
349.43	226.83
349.81	226.79
350.19	226.88
350.57	226.93
350.96	226.99
351.34	227.18
351.72	227.24
352.10	227.32
352.48	227.29
352.87	227.24
353.25	227.25
353.63	227.19
354.01	227.16
354.39	227.22
354.77	227.25
355.15	227.58
355.54	227.49
355.92	227.25
356.30	227.27
356.68	227.77
357.06	227.81
357.44	227.63
357.82	227.62
358.20	228.40
358.58	228.36
358.97	228.47
359.35	228.76
359.73	229.10
360.11	229.24
360.49	229.36
360.87	229.42
361.25	229.54
361.63	229.91
362.01	229.96
362.39	230.00
362.77	230.19
363.15	230.13
363.53	230.22
363.91	230.29
364.29	230.35
364.67	229.54
365.05	229.67
365.43	229.90
365.81	230.18
366.19	229.88
366.57	230.20
366.95	230.24
367.33	230.00
367.71	229.91
368.09	229.97
368.47	230.01
368.85	230.10
369.23	230.36
369.61	229.99
369.99	230.38
370.37	230.53
370.75	231.01
371.13	230.91
371.51	230.75
371.89	230.79
372.27	230.82
372.65	230.91
373.03	230.85
373.41	230.73
373.78	230.63
374.16	230.24
374.54	229.99
374.92	229.88
375.30	229.90
375.68	229.74
376.06	229.77
376.44	229.70
376.82	229.72
377.19	229.56
377.57	229.61
377.95	229.21
378.33	229.17
378.71	228.40
379.09	228.51
379.47	228.64
379.84	228.54
380.22	228.37
380.60	228.25
380.98	228.21
381.36	228.27
381.73	228.16
382.11	228.20
382.49	228.34
382.87	228.21
383.25	228.19
383.62	229.27
384.00	229.13
384.38	229.01
384.76	229.09
385.13	229.41
385.51	229.40
385.89	229.30
386.27	229.17
386.64	229.43
387.02	229.33
387.40	229.24
387.78	229.34
388.15	229.39
388.53	229.31
388.91	229.37
389.29	229.18
389.66	229.20
390.04	229.01
390.42	229.19
390.79	229.10
391.17	229.00
391.55	227.91
391.92	227.90
392.30	228.09
392.68	227.87
393.05	227.78
393.43	227.78
393.81	227.96
394.18	227.82
394.56	227.86
394.94	228.08
395.31	227.98
395.69	228.29
396.06	228.44
396.44	228.59
396.82	228.47
397.19	229.12
397.57	229.14
397.95	229.48
398.32	229.08
398.70	229.35
399.07	229.71
399.45	229.78
399.82	229.77
400.20	229.73
400.58	229.85
400.95	229.65
401.33	230.06
401.70	230.76
402.08	231.08
402.45	231.24
402.83	231.53
403.20	231.85
403.58	231.89
403.95	232.27
404.33	232.59
404.71	232.94
405.08	233.59
405.46	233.90
405.83	234.33
406.21	234.69
406.58	235.08
406.96	235.40
407.33	235.89
407.70	236.61
408.08	237.96
408.45	238.72
408.83	239.55
409.20	239.95
409.58	239.99
409.95	240.93
410.33	241.74
410.70	242.20
411.08	243.30
411.45	244.33
411.82	245.32
412.20	246.64
412.57	248.35
412.95	248.85
413.32	250.38
413.69	251.60
414.07	253.29
414.44	254.98
414.82	256.76
415.19	258.83
415.56	260.78
415.94	262.40
416.31	264.81
416.68	267.18
417.06	270.02
417.43	272.86
417.81	275.85
418.18	279.01
418.55	282.43
418.93	285.92
419.30	289.50
419.67	293.28
420.04	297.10
420.42	301.08
420.79	306.56
421.16	311.46
421.54	317.03
421.91	322.35
422.28	327.77
422.66	333.66
423.03	339.87
423.40	346.02
423.77	352.50
424.15	358.97
424.52	365.80
424.89	373.32
425.26	380.66
425.64	387.45
426.01	394.98
426.38	402.85
426.75	411.09
427.13	419.36
427.50	428.08
427.87	437.15
428.24	446.15
428.61	454.28
428.99	464.12
429.36	474.06
429.73	484.17
430.10	494.41
430.47	504.78
430.85	515.24
431.22	526.40
431.59	539.01
431.96	550.46
432.33	563.35
432.70	575.72
433.08	590.39
433.45	604.44
433.82	618.20
434.19	633.89
434.56	649.33
434.93	663.82
435.30	678.76
435.68	695.10
436.05	711.15
436.42	727.11
436.79	742.00
437.16	758.27
437.53	774.98
437.90	791.88
438.27	808.89
438.64	826.20
439.01	842.70
439.38	856.72
439.75	871.16
440.13	887.20
440.50	902.67
440.87	914.93
441.24	927.86
441.61	942.34
441.98	952.90
442.35	964.69
442.72	977.28
443.09	989.65
443.46	997.34
443.83	1002.94
444.20	1008.09
444.57	1014.29
444.94	1017.40
445.31	1021.20
445.68	1025.20
446.05	1026.49
446.42	1025.25
446.79	1023.85
447.16	1022.13
447.53	1021.20
447.90	1015.14
448.27	1009.16
448.64	1001.06
449.01	995.29
449.37	984.52
449.74	974.02
450.11	962.16
450.48	948.35
450.85	933.35
451.22	920.92
451.59	909.00
451.96	897.47
452.33	882.50
452.70	869.02
453.07	852.69
453.43	835.61
453.80	820.10
454.17	805.16
454.54	790.84
454.91	775.29
455.28	760.01
455.65	746.10
456.02	733.08
456.38	721.37
456.75	706.26
457.12	693.78
457.49	681.81
457.86	669.36
458.23	659.69
458.59	648.88
458.96	637.97
459.33	628.40
459.70	618.87
460.07	611.00
460.43	602.05
460.80	593.98
461.17	586.90
461.54	579.30
461.91	572.09
462.27	564.64
462.64	558.45
463.01	551.64
463.38	545.42
463.74	537.57
464.11	531.59
464.48	526.78
464.85	521.15
465.21	517.03
465.58	512.72
465.95	507.13
466.32	502.95
466.68	498.59
467.05	494.20
467.42	489.66
467.78	485.17
468.15	481.08
468.52	478.03
468.88	473.54
469.25	469.64
469.62	466.74
469.98	463.45
470.35	460.49
470.72	457.59
471.08	454.29
471.45	451.98
471.82	449.45
472.18	446.57
472.55	444.80
472.92	442.09
473.28	439.95
473.65	437.91
474.02	435.86
474.38	433.98
474.75	432.66
475.11	431.01
475.48	429.81
475.85	428.49
476.21	427.06
476.58	426.14
476.94	425.51
477.31	424.50
477.67	423.56
478.04	422.96
478.41	422.58
478.77	422.86
479.14	422.33
479.50	422.01
479.87	421.83
480.23	421.50
480.60	421.32
480.96	421.03
481.33	421.42
481.69	421.56
482.06	421.91
482.42	422.09
482.79	422.43
483.15	422.80
483.52	423.66
483.88	424.21
484.25	424.95
484.61	425.61
484.98	426.26
485.34	427.52
485.71	428.80
486.07	430.00
486.44	430.42
486.80	431.58
487.17	432.87
487.53	434.73
487.90	436.62
488.26	438.90
488.62	441.06
488.99	442.73
489.35	445.00
489.72	447.30
490.08	449.58
490.44	452.10
490.81	454.80
491.17	457.24
491.54	460.40
491.90	463.39
492.26	466.45
492.63	469.82
492.99	473.01
493.36	476.38
493.72	480.01
494.08	483.73
494.45	487.99
494.81	492.31
495.17	496.33
495.54	500.75
495.90	504.93
496.26	509.36
496.63	514.08
496.99	518.42
497.35	523.19
497.72	528.15
498.08	533.15
498.44	538.15
498.80	543.70
499.17	548.61
499.53	553.84
499.89	559.39
500.26	564.62
500.62	570.18
500.98	576.02
501.34	581.41
501.71	587.27
502.07	592.64
502.43	598.26
502.79	603.92
503.16	609.71
503.52	615.51
503.88	621.31
504.24	627.33
504.60	633.58
504.97	639.83
505.33	645.60
505.69	652.05
506.05	658.33
506.41	664.07
506.78	670.23
507.14	676.20
507.50	682.31
507.86	688.47
508.22	694.46
508.59	700.04
508.95	706.09
509.31	712.21
509.67	718.11
510.03	723.55
510.39	729.28
510.75	734.80
511.12	740.04
511.48	745.49
511.84	750.59
512.20	755.84
512.56	760.76
512.92	766.05
513.28	770.89
513.64	775.52
514.00	780.70
514.37	785.50
514.73	790.31
515.09	794.80
515.45	799.40
515.81	804.00
516.17	808.37
516.53	812.44
516.89	816.32
517.25	820.39
517.61	825.25
517.97	829.58
518.33	833.43
518.69	837.91
519.05	842.17
519.41	846.32
519.77	850.71
520.13	854.47
520.49	857.80
520.85	864.04
521.21	868.29
521.57	871.52
521.93	874.62
522.29	878.10
522.65	881.02
523.01	883.96
523.37	886.46
523.73	889.42
524.09	892.28
524.45	894.99
524.81	897.62
525.17	899.88
525.53	902.31
525.89	905.33
526.25	907.79
526.61	909.57
526.97	912.08
527.33	914.37
527.68	917.85
528.04	920.88
528.40	920.76
528.76	923.00
529.12	925.82
529.48	928.91
529.84	931.19
530.20	934.54
530.56	937.50
530.91	940.80
531.27	943.71
531.63	946.70
531.99	949.83
532.35	953.05
532.71	956.03
533.07	959.32
533.42	963.00
533.78	966.14
534.14	969.75
534.50	972.90
534.86	976.21
535.21	978.43
535.57	981.63
535.93	984.55
536.29	988.00
536.65	991.11
537.00	994.16
537.36	997.42
537.72	1000.03
538.08	1003.35
538.44	1006.44
538.79	1009.79
539.15	1012.89
539.51	1015.95
539.87	1018.83
540.22	1021.50
540.58	1024.27
540.94	1026.03
541.29	1028.40
541.65	1030.80
542.01	1033.40
542.37	1035.47
542.72	1037.63
543.08	1039.64
543.44	1042.34
543.79	1044.15
544.15	1046.33
544.51	1048.59
544.87	1050.85
545.22	1052.87
545.58	1054.51
545.94	1055.85
546.29	1057.39
546.65	1059.23
547.01	1060.83
547.36	1062.66
547.72	1064.87
548.07	1066.53
548.43	1068.46
548.79	1070.49
549.14	1072.64
549.50	1074.63
549.86	1076.34
550.21	1078.35
550.57	1080.42
550.92	1081.67
551.28	1083.49
551.64	1085.69
551.99	1087.41
552.35	1089.17
552.70	1091.25
553.06	1093.34
553.41	1095.39
553.77	1098.14
554.13	1100.01
554.48	1102.15
554.84	1104.24
555.19	1106.05
555.55	1108.89
555.90	1110.56
556.26	1111.94
556.61	1112.97
556.97	1113.61
557.32	1115.48
557.68	1116.92
558.03	1118.53
558.39	1119.93
558.74	1121.32
559.10	1122.14
559.45	1123.12
559.81	1124.28
560.16	1124.93
560.52	1125.82
560.87	1127.18
561.23	1127.27
561.58	1128.88
561.94	1129.10
562.29	1129.31
562.64	1129.87
563.00	1129.11
563.35	1129.79
563.71	1130.60
564.06	1131.54
564.42	1132.47
564.77	1132.99
565.12	1133.81
565.48	1135.29
565.83	1136.24
566.19	1136.80
566.54	1137.03
566.89	1137.84
567.25	1138.69
567.60	1139.94
567.96	1141.43
568.31	1142.34
568.66	1143.17
569.02	1142.66
569.37	1143.18
569.72	1144.16
570.08	1144.03
570.43	1144.21
570.78	1143.97
571.14	1143.96
571.49	1143.69
571.84	1143.68
572.20	1143.11
572.55	1142.56
572.90	1140.71
573.26	1139.71
573.61	1138.61
573.96	1138.03
574.31	1136.59
574.67	1135.00
575.02	1133.00
575.37	1130.52
575.72	1128.10
576.08	1126.02
576.43	1124.39
576.78	1122.54
577.13	1120.03
577.49	1118.19
577.84	1116.43
578.19	1114.80
578.54	1113.00
578.90	1111.51
579.25	1109.59
579.60	1107.89
579.95	1105.61
580.30	1103.41
580.66	1101.11
581.01	1099.07
581.36	1096.40
581.71	1094.42
582.06	1092.70
582.42	1090.49
582.77	1088.21
583.12	1086.34
583.47	1084.59
583.82	1082.30
584.17	1080.22
584.53	1078.55
584.88	1076.14
585.23	1073.79
585.58	1070.84
585.93	1067.78
586.28	1064.71
586.63	1061.60
586.98	1058.02
587.34	1055.39
587.69	1052.24
588.04	1050.02
588.39	1047.54
588.74	1044.81
589.09	1042.36
589.44	1038.60
589.79	1035.85
590.14	1033.13
590.49	1030.27
590.84	1026.93
591.19	1024.23
591.54	1021.33
591.89	1017.81
592.25	1015.97
592.60	1012.88
592.95	1010.24
593.30	1007.50
593.65	1004.36
594.00	1001.18
594.35	1001.28
594.70	997.71
595.05	995.13
595.40	991.66
595.75	987.91
596.10	984.67
596.45	981.28
596.80	978.37
597.15	975.29
597.50	971.92
597.85	969.07
598.19	965.67
598.54	961.84
598.89	958.10
599.24	955.36
599.59	951.20
599.94	948.11
600.29	944.82
600.64	941.41
600.99	937.99
601.34	935.18
601.69	929.04
602.04	925.95
602.39	922.55
602.74	919.72
603.08	916.76
603.43	914.12
603.78	910.64
604.13	907.27
604.48	903.82
604.83	900.33
605.18	896.50
605.53	893.24
605.87	890.40
606.22	887.53
606.57	883.90
606.92	880.57
607.27	876.99
607.62	873.61
607.96	870.57
608.31	867.76
608.66	864.52
609.01	861.32
609.36	858.22
609.70	854.85
610.05	851.06
610.40	847.77
610.75	844.00
611.10	840.61
611.44	837.03
611.79	833.33
612.14	830.10
612.49	826.50
612.83	823.10
613.18	819.54
613.53	816.24
613.88	812.80
614.22	809.02
614.57	805.46
614.92	801.86
615.27	798.27
615.61	794.29
615.96	790.42
616.31	786.82
616.65	783.46
617.00	779.99
617.35	776.39
617.70	772.77
618.04	769.10
618.39	765.59
618.74	762.87
619.08	759.51
619.43	755.91
619.78	752.29
620.12	748.68
620.47	745.18
620.82	741.18
621.16	737.37
621.51	734.62
621.85	731.24
622.20	727.70
622.55	724.04
622.89	720.86
623.24	717.92
623.59	714.47
623.93	710.95
624.28	707.38
624.62	705.00
624.97	702.25
625.32	699.20
625.66	695.80
626.01	691.76
626.35	688.73
626.70	685.37
627.04	682.29
627.39	679.11
627.73	676.20
628.08	673.19
628.43	669.99
628.77	666.22
629.12	662.97
629.46	660.29
629.81	657.64
630.15	654.44
630.50	651.11
630.84	648.17
631.19	645.24
631.53	642.65
631.88	638.81
632.22	635.25
632.57	632.40
632.91	629.50
633.26	626.93
633.60	623.95
633.95	621.06
634.29	618.15
634.64	615.33
634.98	612.03
635.32	609.35
635.67	606.78
636.01	604.10
636.36	601.31
636.70	598.47
637.05	595.47
637.39	592.84
637.73	590.17
638.08	587.48
638.42	584.64
638.77	581.69
639.11	578.54
639.45	575.43
639.80	572.16
640.14	569.38
640.49	566.62
640.83	563.67
641.17	561.10
641.52	558.30
641.86	555.50
642.20	553.35
642.55	550.52
642.89	547.82
643.23	545.40
643.58	543.14
643.92	540.25
644.26	537.57
644.61	535.25
644.95	532.64
645.29	529.94
645.64	527.60
645.98	524.82
646.32	522.71
646.66	520.12
647.01	517.85
647.35	515.50
647.69	512.95
648.04	510.79
648.38	508.53
648.72	506.25
649.06	503.79
649.41	501.02
649.75	498.40
650.09	496.04
650.43	493.44
650.78	490.86
651.12	488.45
651.46	486.10
651.80	483.53
652.14	481.15
652.49	479.28
652.83	476.82
653.17	474.78
653.51	472.40
653.85	470.60
654.20	468.51
654.54	466.20
654.88	463.89
655.22	462.10
655.56	459.78
655.90	457.70
656.25	455.80
656.59	453.79
656.93	452.06
657.27	450.26
657.61	447.94
657.95	445.94
658.29	443.98
658.64	442.20
658.98	440.19
659.32	438.10
659.66	435.82
660.00	433.83
660.34	431.92
660.68	430.01
661.02	428.10
661.36	426.25
661.70	424.28
662.05	422.60
662.39	420.59
662.73	419.10
663.07	417.80
663.41	416.00
663.75	414.10
664.09	412.24
664.43	410.32
664.77	408.94
665.11	407.20
665.45	405.71
665.79	404.12
666.13	402.37
666.47	400.68
666.81	399.09
667.15	397.47
667.49	396.05
667.83	394.91
668.17	393.37
668.51	391.78
668.85	390.67
669.19	389.57
669.53	387.97
669.87	386.38
670.21	384.46
670.55	383.01
670.89	382.07
671.23	380.65
671.57	379.07
671.91	377.59
672.25	376.25
672.58	375.00
672.92	373.33
673.26	372.12
673.60	370.96
673.94	369.72
674.28	368.50
674.62	367.36
674.96	365.76
675.30	364.49
675.64	363.24
675.97	361.74
676.31	360.16
676.65	358.79
676.99	357.78
677.33	356.52
677.67	355.38
678.01	353.76
678.34	352.72
678.68	351.79
679.02	350.45
679.36	349.30
679.70	348.05
680.04	346.97
680.37	345.98
680.71	344.79
681.05	343.76
681.39	342.73
681.73	341.55
682.06	340.51
682.40	339.38
682.74	338.40
683.08	337.75
683.42	336.64
683.75	335.77
684.09	334.56
684.43	333.55
684.77	332.29
685.10	331.31
685.44	330.22
685.78	329.19
686.12	328.28
686.45	327.21
686.79	326.06
687.13	325.24
687.46	324.10
687.80	323.43
688.14	322.40
688.48	321.52
688.81	320.54
689.15	319.91
689.49	318.95
689.82	318.20
690.16	316.86
690.50	316.07
690.83	315.05
691.17	313.84
691.51	312.99
691.84	312.27
692.18	311.30
692.52	310.47
692.85	309.75
693.19	309.39
693.52	308.60
693.86	307.82
694.20	306.90
694.53	306.32
694.87	305.27
695.21	304.40
695.54	303.57
695.88	302.63
696.21	301.45
696.55	300.82
696.88	299.82
697.22	298.96
697.56	298.23
697.89	297.45
698.23	296.95
698.56	296.08
698.90	295.48
699.23	294.81
699.57	294.11
699.90	293.17
700.24	292.14
700.58	291.66
700.91	291.13
701.25	291.12
701.58	291.11
701.92	290.75
702.25	290.14
702.59	289.37
702.92	288.91
703.26	288.44
703.59	287.78
703.93	288.10
704.26	287.80
704.60	287.34
704.93	286.72
705.26	285.89
705.60	285.52
705.93	284.73
706.27	284.46
706.60	284.02
706.94	283.86
707.27	283.37
707.61	282.72
707.94	282.21
708.27	281.12
708.61	279.84
708.94	279.26
709.28	278.73
709.61	278.22
709.94	277.77
710.28	277.20
710.61	276.75
710.95	275.28
711.28	275.30
711.61	274.70
711.95	274.44
712.28	274.04
712.61	273.51
712.95	273.58
713.28	273.45
713.61	272.84
713.95	272.09
714.28	271.49
714.61	271.01
714.95	270.44
715.28	269.81
715.61	269.23
715.95	268.80
716.28	268.29
716.61	267.94
716.95	267.34
717.28	267.00
717.61	266.55
717.94	266.22
718.28	265.06
718.61	264.52
718.94	264.00
719.27	263.66
719.61	263.36
719.94	262.76
720.27	261.84
720.60	261.43
720.94	261.14
721.27	261.10
721.60	260.86
721.93	260.47
722.27	260.47
722.60	260.40
722.93	259.88
723.26	259.69
723.59	259.32
723.93	259.16
724.26	258.87
724.59	258.53
724.92	258.37
725.25	258.51
725.59	258.29
725.92	258.17
726.25	257.97
726.58	257.75
726.91	257.39
727.24	257.22
727.57	256.92
727.91	256.45
728.24	256.11
728.57	255.67
728.90	255.64
729.23	255.06
729.56	255.16
729.89	255.00
730.22	254.70
730.55	254.38
730.89	254.09
731.22	253.74
731.55	253.42
731.88	253.11
732.21	252.70
732.54	252.35
732.87	251.99
733.20	251.77
733.53	251.49
733.86	251.44
734.19	251.26
734.52	251.29
734.85	251.71
735.18	251.32
735.51	251.57
735.84	251.38
736.17	251.60
736.50	250.92
736.83	251.92
737.16	251.74
737.49	251.67
737.82	251.42
738.15	251.44
738.48	251.29
738.81	251.11
739.14	250.71
739.47	250.58
739.80	250.40
740.13	250.23
740.46	249.95
740.79	249.46
741.12	249.12
741.45	248.74
741.78	248.20
742.11	248.31
742.44	247.80
742.77	247.60
743.10	247.30
743.43	247.12
743.75	245.91
744.08	246.90
744.41	246.57
744.74	246.38
745.07	245.97
745.40	245.96
745.73	246.15
746.06	246.08
746.39	246.05
746.71	245.82
747.04	245.45
747.37	245.27
747.70	245.40
748.03	245.36
748.36	245.33
748.68	244.97
749.01	244.56
749.34	244.39
749.67	244.35
750.00	244.21
750.33	244.77
750.65	244.57
750.98	243.29
751.31	243.21
751.64	243.13
751.97	243.49
752.29	243.30
752.62	242.74
752.95	242.54
753.28	242.21
753.60	242.09
753.93	242.30
754.26	242.20
754.59	241.72
754.91	241.52
755.24	241.40
755.57	241.40
755.90	241.28
756.22	241.04
756.55	240.73
756.88	240.52
757.20	239.71
757.53	239.39
757.86	239.16
758.19	239.12
758.51	239.03
758.84	238.45
759.17	238.18
759.49	238.10
759.82	238.50
760.15	238.48
760.47	238.36
760.80	237.97
761.13	237.98
761.45	238.02
761.78	237.82
762.11	237.72
762.43	237.48
762.76	237.37
763.08	237.43
763.41	237.39
763.74	237.28
764.06	237.22
764.39	237.17
764.71	237.16
765.04	236.97
765.37	236.78
765.69	236.73
766.02	236.67
766.34	236.52
766.67	236.07
767.00	236.20
767.32	236.54
767.65	237.09
767.97	236.90
768.30	236.69
768.62	236.65
768.95	236.42
769.27	236.27
769.60	236.31
769.92	236.14
770.25	235.85
770.57	235.49
770.90	235.31
771.22	235.14
771.55	234.99
771.87	234.99
772.20	234.88
772.52	235.60
772.85	236.65
773.17	236.79
773.50	236.68
773.82	236.47
774.15	236.03
774.47	235.30
774.80	235.22
775.12	235.20
775.45	235.20
775.77	235.22
776.09	235.33
776.42	235.25
776.74	235.59
777.07	235.49
777.39	235.47
777.72	235.41
778.04	235.46
778.36	235.41
778.69	235.43
779.01	235.50
779.33	234.57
779.66	233.47
779.98	233.19
780.31	233.14
780.63	233.46
780.95	233.70
781.28	233.65
781.60	233.56
781.92	233.55
782.25	233.43
782.57	233.39
782.89	233.27
783.22	233.17
783.54	232.82
783.86	232.95
784.19	232.92
784.51	233.27
784.83	233.10
785.16	233.00
785.48	232.87
785.80	232.67
786.12	232.69
786.45	232.69
786.77	232.66
787.09	232.54
787.42	232.13
787.74	231.88
788.06	231.92
788.38	231.86
788.71	231.75
789.03	231.67
789.35	231.74
789.67	231.60
789.99	231.71
790.32	231.43
790.64	231.37
790.96	232.15
791.28	231.67
791.61	231.69
791.93	231.77
792.25	231.71
792.57	232.54
792.89	232.37
793.21	232.40
793.54	232.38
793.86	232.30
794.18	232.35
794.50	232.14
794.82	232.11
795.14	232.15
795.47	232.40
795.79	232.50
796.11	232.27
796.43	232.26
796.75	232.12
797.07	232.21
797.39	232.29
797.71	231.68
798.04	231.67
798.36	231.63
798.68	231.67
799.00	231.70
799.32	231.08
799.64	231.35
799.96	231.32
800.28	231.43
800.60	231.33
800.92	231.35
801.24	231.31
801.56	231.43
801.89	231.36
802.21	231.30
802.53	231.09
802.85	231.31
803.17	231.79
803.49	231.54
803.81	231.45
804.13	231.32
804.45	231.15
804.77	231.33
805.09	231.38
805.41	231.15
805.73	230.98
806.05	230.82
806.37	230.68
806.69	230.54
807.01	230.42
807.33	230.52
807.65	230.21
807.97	230.72
808.28	230.50
808.60	230.44
808.92	230.25
809.24	230.76
809.56	230.56
809.88	230.22
810.20	230.32
810.52	230.59
810.84	230.46
811.16	230.41
811.48	230.17
811.80	230.37
812.12	230.33
812.43	230.54
812.75	230.56
813.07	230.49
813.39	230.54
813.71	230.37
814.03	230.27
814.35	230.20
814.67	229.74
814.98	229.69
815.30	229.66
815.62	229.57
815.94	228.90
816.26	229.32
816.58	229.10
816.89	229.17
817.21	228.95
817.53	229.04
817.85	229.05
818.17	229.06
818.48	228.75
818.80	229.08
819.12	228.86
819.44	228.72
819.76	228.54
820.07	228.57
820.39	228.66
820.71	228.86
821.03	229.00
821.34	228.98
821.66	229.13
821.98	229.18
822.30	229.20
822.61	229.84
822.93	229.34
823.25	229.34
823.57	229.18
823.88	229.34
824.20	229.29
824.52	229.40
824.83	229.43
825.15	229.35
825.47	229.20
825.79	229.17
826.10	229.12
826.42	229.20
826.74	229.19
827.05	229.03
827.37	228.98
827.69	228.85
828.00	228.83
828.32	228.72
828.64	228.77
828.95	229.18
829.27	228.96
829.58	228.91
829.90	229.04
830.22	229.13
830.53	228.82
830.85	228.68
831.17	228.39
831.48	228.36
831.80	228.31
832.11	228.24
832.43	228.31
832.75	228.21
833.06	228.74
833.38	228.51
833.69	228.63
834.01	228.62
834.32	228.56
834.64	228.56
834.96	228.51
835.27	228.30
835.59	227.98
835.90	227.70
836.22	227.72
836.53	227.55
836.85	227.41
837.16	228.30
837.48	228.35
837.79	228.70
838.11	228.68
838.42	228.74
838.74	228.70
839.05	228.54
839.37	228.57
839.68	227.91
840.00	227.99
840.31	228.00
840.63	227.98
840.94	227.87
841.26	227.70
841.57	227.78
841.88	228.03
842.20	227.93
842.51	227.82
842.83	227.75
843.14	228.67
843.46	228.66
843.77	228.24
844.08	228.21
844.40	227.89
844.71	227.79
845.03	227.78
845.34	227.84
845.65	227.80
845.97	227.86
846.28	227.95
846.60	227.87
846.91	227.81
847.22	227.67
847.54	227.96
847.85	228.09
848.16	228.00
848.48	227.76
848.79	228.25
849.10	228.42
849.42	228.46
849.73	227.50
850.04	227.51
850.36	227.20
850.67	227.35
850.98	227.42
851.30	227.53
851.61	227.44
851.92	227.48
852.23	227.75
852.55	227.76
852.86	227.93
853.17	228.10
853.49	228.27
853.80	228.57
854.11	228.62
854.42	228.82
854.74	228.80
855.05	228.91
855.36	228.24
855.67	228.27
855.99	228.33
856.30	229.51
856.61	229.55
856.92	229.56
857.23	229.68
857.55	229.60
857.86	229.62
858.17	229.84
858.48	229.63
858.79	229.49
859.11	229.52
859.42	229.35
859.73	229.29
860.04	229.25
860.35	228.86
860.66	228.61
860.98	228.55
861.29	228.62
861.60	228.50
861.91	228.93
862.22	228.80
862.53	228.62
862.84	227.47
863.16	227.70
863.47	227.57
863.78	227.41
864.09	227.39
864.40	227.30
864.71	227.29
865.02	227.41
865.33	227.35
865.64	227.31
865.95	227.25
866.27	227.84
866.58	227.76
866.89	227.92
867.20	227.93
867.51	227.70
867.82	227.67
868.13	227.93
868.44	227.60
868.75	227.90
869.06	227.94
869.37	228.05
869.68	227.73
869.99	227.87
870.30	227.80
870.61	227.91
870.92	227.85
871.23	227.72
871.54	227.82
871.85	228.05
872.16	228.14
872.47	228.09
872.78	227.38
873.09	227.36
873.40	227.27
873.71	227.39
874.02	227.47
874.33	227.29
874.64	227.13
874.95	227.32
875.26	226.96
875.56	227.03
875.87	226.97
876.18	227.01
876.49	227.92
876.80	227.92
877.11	227.77
877.42	227.82
877.73	227.84
878.04	227.74
878.35	227.65
878.66	227.63
878.96	227.67
879.27	227.82
879.58	227.83
879.89	227.84
880.20	228.01
880.51	227.95
880.82	228.05
881.12	228.10
881.43	227.81
881.74	227.82
882.05	227.76
882.36	227.87
882.67	227.93
882.97	226.86
883.28	226.82
883.59	226.92
883.90	226.98
884.21	227.23
884.51	227.15
884.82	227.14
885.13	227.10
885.44	227.14
885.74	227.00
886.05	227.04
886.36	227.06
886.67	226.77
886.98	227.30
887.28	227.40
887.59	227.41
887.90	227.56
888.20	227.50
888.51	227.70
888.82	227.59
889.13	227.65
889.43	228.42
889.74	228.39
890.05	228.34
890.35	228.29
890.66	228.08
890.97	227.97
891.28	227.82
891.58	227.80
891.89	227.85
892.20	227.87
892.50	227.71
892.81	227.67
893.12	227.71
893.42	227.28
893.73	227.34
894.04	227.29
894.34	227.32
894.65	227.34
894.95	227.25
895.26	227.33
895.57	227.77
895.87	226.92
896.18	227.19
896.48	227.30
896.79	227.33
897.10	227.48
897.40	227.71
897.71	227.82
898.01	227.79
898.32	227.90
898.63	227.91
898.93	228.00
899.24	228.05
899.54	227.97
899.85	228.00
900.15	227.96
900.46	228.00
900.76	228.18
901.07	228.25
901.38	228.22
901.68	228.29
901.99	227.79
902.29	227.98
902.60	227.78
902.90	227.72
903.21	227.72
903.51	227.62
903.82	227.74
904.12	227.85
904.43	227.98
904.73	227.89
905.03	227.92
905.34	228.89
905.64	228.81
905.95	228.77
906.25	228.75
906.56	228.71
906.86	228.72
907.17	228.67
907.47	228.69
907.77	228.68
908.08	228.41
908.38	228.52
908.69	228.52
908.99	228.73
909.30	228.72
909.60	228.71
909.90	228.81
910.21	228.48
910.51	228.26
910.81	228.23
911.12	228.27
911.42	228.20
911.73	227.13
912.03	227.14
912.33	227.43
912.64	227.33
912.94	227.27
913.24	227.10
913.55	226.96
913.85	226.95
914.15	227.03
914.46	227.20
914.76	227.09
915.06	227.05
915.37	226.79
915.67	226.78
915.97	226.73
916.27	226.44
916.58	226.53
916.88	226.52
917.18	226.38
917.49	226.91
917.79	226.97
918.09	227.09
918.39	227.36
918.70	227.26
919.00	227.24
919.30	227.61
919.60	227.50
919.91	227.22
920.21	227.20
920.51	227.04
920.81	226.94
921.12	227.10
921.42	226.97
921.72	227.16
922.02	227.20
922.32	227.38
922.63	227.40
922.93	227.82
923.23	227.85
923.53	227.73
923.83	227.19
924.13	227.25
924.44	227.32
924.74	227.48
925.04	227.70
925.34	227.81
925.64	227.41
925.94	227.48
926.24	228.20
926.55	228.13
926.85	228.30
927.15	228.37
927.45	228.31
927.75	228.38
928.05	228.33
928.35	228.25
928.65	228.37
928.95	228.54
929.26	228.23
929.56	228.39
929.86	228.56
930.16	228.49
930.46	228.39
930.76	228.47
931.06	227.95
931.36	227.75
931.66	227.83
931.96	228.01
932.26	228.08
932.56	227.54
932.86	227.61
933.16	227.62
933.46	227.52
933.76	227.45
934.06	227.64
934.36	227.99
934.66	227.97
934.96	227.83
935.26	227.88
935.56	228.08
935.86	227.82
936.16	227.83
936.46	227.69
936.76	227.69
937.06	227.50
937.36	227.72
937.66	227.74
937.96	227.70
938.26	227.47
938.56	227.38
938.86	227.63
939.16	227.85
939.46	227.87
939.76	227.88
940.06	227.81
940.35	227.65
940.65	227.15
940.95	227.21
941.25	227.03
941.55	226.98
941.85	226.86
942.15	227.05
942.45	227.33
942.75	227.40
943.04	227.46
943.34	227.74
943.64	227.60
943.94	227.50
944.24	227.56
944.54	227.70
944.84	227.85
945.13	227.64
945.43	227.48
945.73	227.44
946.03	227.40
946.33	227.39
946.62	227.29
946.92	227.35
947.22	227.38
947.52	227.44
947.82	227.51
948.11	227.42
948.41	227.34
948.71	226.93
949.01	227.06
949.31	227.07
949.60	226.88
949.90	226.99
950.20	226.94
950.50	226.82
950.79	226.67
951.09	226.65
951.39	226.67
951.69	226.55
951.98	226.81
952.28	226.84
952.58	226.69
952.87	226.81
953.17	226.90
953.47	226.85
953.76	226.77
954.06	226.58
954.36	226.41
954.66	226.31
954.95	226.63
955.25	226.64
955.55	226.60
955.84	226.44
956.14	226.49
956.44	226.54
956.73	226.41
957.03	226.43
957.32	226.44
957.62	226.42
957.92	226.66
958.21	226.45
958.51	227.47
958.81	227.82
959.10	227.86
959.40	228.03
959.69	228.05
959.99	228.28
960.29	228.29
960.58	228.20
960.88	228.63
961.17	228.52
961.47	228.63
961.76	228.54
962.06	228.80
962.36	228.68
962.65	228.68
962.95	228.76
963.24	228.75
963.54	228.78
963.83	228.75
964.13	228.67
964.42	228.40
964.72	227.73
965.01	227.59
965.31	227.50
965.60	227.26
965.90	227.91
966.19	227.66
966.49	227.72
966.78	227.93
967.08	227.86
967.37	227.92
967.67	227.75
967.96	227.95
968.26	227.85
968.55	228.00
968.85	227.97
969.14	227.92
969.43	227.98
969.73	227.83
970.02	227.76
970.32	227.74
970.61	227.88
970.91	227.55
971.20	227.43
971.49	227.40
971.79	227.54
972.08	226.83
972.38	226.94
972.67	226.84
972.96	226.79
973.26	226.66
973.55	226.91
973.85	226.77
974.14	226.67
974.43	226.85
974.73	226.65
975.02	226.60
975.31	226.60
975.61	226.50
975.90	226.49
976.19	226.50
976.49	226.54
976.78	226.46
977.07	226.44
977.37	226.55
977.66	226.61
977.95	226.47
978.24	226.51
978.54	226.71
978.83	226.60
979.12	226.62
979.42	226.48
979.71	226.21
980.00	226.38
980.29	226.44
980.59	226.10
980.88	226.40
981.17	226.34
981.46	226.43
981.76	226.50
982.05	226.80
982.34	226.89
982.63	226.87
982.93	226.88
983.22	227.25
983.51	227.18
983.80	227.29
984.09	227.39
984.39	227.31
984.68	227.09
984.97	227.26
985.26	227.15
985.55	227.25
985.85	227.10
986.14	227.07
986.43	227.07
986.72	227.10
987.01	226.74
987.30	226.75
987.59	226.67
987.89	226.70
988.18	226.41
988.47	226.22
988.76	226.10
989.05	226.10
989.34	225.90
989.63	226.18
989.92	226.06
990.22	225.83
990.51	225.88
990.80	225.87
991.09	225.85
991.38	225.91
991.67	225.77
991.96	225.71
992.25	225.79
992.54	225.67
992.83	225.68
993.12	225.67
993.41	225.80
993.70	226.16
993.99	226.33
994.28	226.43
994.58	226.70
994.87	226.63
995.16	226.54
995.45	226.48
995.74	226.15
996.03	226.27
996.32	226.49
996.61	226.70
996.90	226.70
997.19	226.68
997.48	226.72
997.77	226.71
998.06	226.89
998.34	226.82
998.63	226.84
998.92	226.84
999.21	227.04
999.50	227.05
999.79	226.73
1000.08	226.64
1000.37	226.69
1000.66	226.62
1000.95	226.97
1001.24	227.06
1001.53	227.18
1001.82	227.20
1002.11	227.09
1002.40	227.19
1002.68	227.43
1002.97	228.07
1003.26	228.08
1003.55	227.94
1003.84	228.01
1004.13	228.22
1004.42	228.24
1004.71	228.20
1004.99	228.13
1005.28	228.30
1005.57	228.24
1005.86	228.16
1006.15	228.13
1006.44	228.07
1006.72	228.15
1007.01	227.97
1007.30	227.92
1007.59	227.94
1007.88	227.97
1008.17	227.96
1008.45	227.73
1008.74	227.28
1009.03	226.87
1009.32	226.80
1009.60	226.85
1009.89	226.78
1010.18	226.42
1010.47	226.26
1010.76	226.30
1011.04	226.34
1011.33	226.45
1011.62	226.49
1011.91	226.58
1012.19	226.56
1012.48	226.60
1012.77	226.57
1013.05	226.97
1013.34	227.01
1013.63	226.86
1013.92	226.88
1014.20	226.80
1014.49	226.92
1014.78	227.04
1015.06	226.75
1015.35	226.76
1015.64	226.95
1015.92	227.16
1016.21	227.19
1016.50	227.33
1016.78	227.51
1017.07	227.64
1017.36	227.39
1017.64	227.32
1017.93	227.47
1018.22	227.36
1018.50	227.25
1018.79	227.21
1019.08	226.73
1019.36	226.89
1019.65	226.79
1019.93	227.01
1020.22	227.14
1020.51	227.50
1020.79	227.39
1021.08	224.10
1021.36	224.20
1021.65	227.80
1021.94	225.50
1022.22	228.50
1022.51	224.90
1022.79	230.80
1023.08	227.00
1023.36	236.60
1023.65	225.10
>>>>>End Processed Spectral Data<<<<<
