SpectraSuite Data File
++++++++++++++++++++++++++++++++++++
Date: Wed Sep 04 17:29:33 EDT 2013
User: lab3
Dark Spectrum Present: Yes
Reference Spectrum Present: No
Number of Sampled Component Spectra: 1
Spectrometers: USB2E7196
Integration Time (usec): 337000 (USB2E7196)
Spectra Averaged: 10 (USB2E7196)
Boxcar Smoothing: 10 (USB2E7196)
Correct for Electrical Dark: No (USB2E7196)
Strobe/Lamp Enabled: No (USB2E7196)
Correct for Detector Non-linearity: No (USB2E7196)
Correct for Stray Light: No (USB2E7196)
Number of Pixels in Processed Spectrum: 2048
>>>>>Begin Processed Spectral Data<<<<<
339.09	0.00
339.48	212.60
339.86	213.50
340.24	216.30
340.63	217.00
341.01	232.70
341.39	219.40
341.78	222.80
342.16	227.30
342.54	224.00
342.93	213.16
343.31	223.81
343.69	224.34
344.07	224.76
344.46	225.23
344.84	225.60
345.22	225.23
345.60	225.62
345.99	225.79
346.37	225.77
346.75	225.88
347.13	226.01
347.52	226.11
347.90	226.61
348.28	226.63
348.66	226.94
349.05	226.61
349.43	226.80
349.81	226.83
350.19	226.92
350.57	226.98
350.96	227.07
351.34	227.32
351.72	227.48
352.10	227.74
352.48	227.75
352.87	227.83
353.25	227.89
353.63	227.88
354.01	227.85
354.39	227.97
354.77	227.98
355.15	228.38
355.54	228.30
355.92	227.97
356.30	228.02
356.68	228.71
357.06	228.83
357.44	228.65
357.82	228.68
358.20	229.54
358.58	229.50
358.97	229.59
359.35	229.86
359.73	230.06
360.11	230.06
360.49	230.14
360.87	230.17
361.25	230.38
361.63	230.81
362.01	231.01
362.39	230.93
362.77	231.03
363.15	230.93
363.53	230.92
363.91	231.06
364.29	231.09
364.67	230.22
365.05	230.39
365.43	230.56
365.81	230.85
366.19	230.57
366.57	230.99
366.95	230.89
367.33	230.65
367.71	230.67
368.09	230.84
368.47	230.94
368.85	230.93
369.23	231.13
369.61	230.71
369.99	230.96
370.37	231.10
370.75	231.70
371.13	231.47
371.51	231.42
371.89	231.43
372.27	231.46
372.65	231.52
373.03	231.42
373.41	231.30
373.78	231.08
374.16	230.53
374.54	230.19
374.92	230.17
375.30	230.18
375.68	229.90
376.06	229.94
376.44	229.82
376.82	229.93
377.19	229.82
377.57	229.78
377.95	229.44
378.33	229.30
378.71	228.61
379.09	228.68
379.47	228.67
379.84	228.45
380.22	228.24
380.60	228.02
380.98	227.93
381.36	227.89
381.73	227.64
382.11	227.79
382.49	227.79
382.87	227.66
383.25	227.47
383.62	228.56
384.00	228.26
384.38	228.17
384.76	228.32
385.13	228.60
385.51	228.55
385.89	228.40
386.27	228.34
386.64	228.43
387.02	228.33
387.40	228.32
387.78	228.43
388.15	228.49
388.53	228.42
388.91	228.48
389.29	228.43
389.66	228.67
390.04	228.60
390.42	228.83
390.79	228.89
391.17	228.96
391.55	227.88
391.92	227.91
392.30	228.09
392.68	227.79
393.05	227.74
393.43	227.83
393.81	227.91
394.18	227.83
394.56	227.81
394.94	228.10
395.31	227.96
395.69	228.29
396.06	228.48
396.44	228.76
396.82	228.75
397.19	229.22
397.57	229.20
397.95	229.44
398.32	229.17
398.70	229.36
399.07	229.66
399.45	229.77
399.82	229.86
400.20	229.79
400.58	230.00
400.95	229.73
401.33	230.03
401.70	230.93
402.08	231.21
402.45	231.47
402.83	231.88
403.20	232.21
403.58	232.29
403.95	232.72
404.33	232.97
404.71	233.34
405.08	234.19
405.46	234.55
405.83	234.89
406.21	235.49
406.58	236.05
406.96	236.49
407.33	237.12
407.70	237.88
408.08	239.45
408.45	240.30
408.83	241.27
409.20	241.98
409.58	242.18
409.95	243.39
410.33	244.43
410.70	245.20
411.08	246.59
411.45	247.85
411.82	249.01
412.20	250.62
412.57	252.63
412.95	253.46
413.32	255.41
413.69	257.18
414.07	259.06
414.44	261.10
414.82	263.24
415.19	265.66
415.56	268.16
415.94	270.27
416.31	273.25
416.68	276.11
417.06	279.64
417.43	283.19
417.81	286.81
418.18	290.63
418.55	294.80
418.93	299.10
419.30	303.54
419.67	308.36
420.04	313.29
420.42	318.43
420.79	324.93
421.16	330.84
421.54	337.38
421.91	343.99
422.28	350.81
422.66	358.00
423.03	365.70
423.40	373.07
423.77	380.90
424.15	388.97
424.52	397.51
424.89	406.64
425.26	415.49
425.64	423.98
426.01	433.42
426.38	443.20
426.75	453.32
427.13	463.70
427.50	474.25
427.87	485.47
428.24	496.78
428.61	507.20
428.99	519.40
429.36	532.15
429.73	544.79
430.10	557.32
430.47	570.65
430.85	583.84
431.22	598.32
431.59	613.93
431.96	628.72
432.33	644.94
432.70	660.54
433.08	679.12
433.45	696.82
433.82	714.45
434.19	734.17
434.56	753.28
434.93	771.83
435.30	790.86
435.68	811.54
436.05	831.67
436.42	852.12
436.79	870.75
437.16	891.10
437.53	912.43
437.90	934.13
438.27	955.18
438.64	977.09
439.01	997.83
439.38	1016.15
439.75	1033.93
440.13	1054.39
440.50	1073.96
440.87	1089.76
441.24	1106.23
441.61	1124.46
441.98	1137.88
442.35	1153.72
442.72	1169.54
443.09	1185.10
443.46	1194.83
443.83	1202.01
444.20	1208.06
444.57	1216.31
444.94	1220.63
445.31	1225.30
445.68	1229.91
446.05	1231.87
446.42	1230.63
446.79	1229.01
447.16	1226.94
447.53	1225.95
447.90	1218.80
448.27	1211.70
448.64	1201.49
449.01	1194.31
449.37	1180.68
449.74	1167.60
450.11	1151.97
450.48	1134.59
450.85	1116.31
451.22	1101.23
451.59	1086.50
451.96	1072.68
452.33	1053.95
452.70	1037.16
453.07	1016.85
453.43	995.61
453.80	976.40
454.17	957.49
454.54	939.42
454.91	920.16
455.28	901.12
455.65	883.58
456.02	866.81
456.38	851.98
456.75	833.30
457.12	818.02
457.49	803.02
457.86	788.30
458.23	775.92
458.59	762.24
458.96	748.31
459.33	736.06
459.70	723.77
460.07	714.30
460.43	703.09
460.80	692.92
461.17	684.18
461.54	674.55
461.91	665.64
462.27	656.37
462.64	648.59
463.01	639.81
463.38	631.84
463.74	622.44
464.11	614.97
464.48	608.64
464.85	601.50
465.21	596.25
465.58	590.58
465.95	583.79
466.32	578.48
466.68	573.06
467.05	567.43
467.42	561.90
467.78	556.08
468.15	550.78
468.52	546.74
468.88	541.32
469.25	536.55
469.62	532.82
469.98	528.80
470.35	525.02
470.72	521.60
471.08	517.29
471.45	514.26
471.82	511.12
472.18	507.49
472.55	505.01
472.92	501.86
473.28	499.17
473.65	496.60
474.02	493.99
474.38	491.71
474.75	490.08
475.11	488.21
475.48	486.73
475.85	485.17
476.21	483.73
476.58	482.63
476.94	481.80
477.31	480.51
477.67	479.41
478.04	478.59
478.41	478.12
478.77	478.80
479.14	478.08
479.50	477.88
479.87	477.96
480.23	477.97
480.60	477.78
480.96	477.62
481.33	478.53
481.69	479.10
482.06	479.58
482.42	479.98
482.79	480.51
483.15	481.46
483.52	482.72
483.88	483.89
484.25	484.96
484.61	486.11
484.98	487.62
485.34	489.69
485.71	491.78
486.07	493.55
486.44	494.65
486.80	496.77
487.17	499.04
487.53	501.73
487.90	504.38
488.26	507.87
488.62	511.25
488.99	513.88
489.35	517.24
489.72	520.64
490.08	524.41
490.44	528.21
490.81	532.27
491.17	536.37
491.54	540.73
491.90	545.39
492.26	550.10
492.63	554.83
492.99	559.64
493.36	564.86
493.72	570.84
494.08	576.43
494.45	582.80
494.81	589.04
495.17	595.38
495.54	602.03
495.90	608.46
496.26	615.36
496.63	622.73
496.99	629.62
497.35	637.25
497.72	645.18
498.08	652.99
498.44	661.06
498.80	669.60
499.17	677.65
499.53	686.06
499.89	695.05
500.26	703.96
500.62	712.76
500.98	721.92
501.34	730.67
501.71	739.76
502.07	748.71
502.43	758.33
502.79	767.54
503.16	777.35
503.52	786.70
503.88	796.26
504.24	806.08
504.60	816.47
504.97	826.73
505.33	836.67
505.69	847.40
506.05	857.56
506.41	867.50
506.78	878.01
507.14	888.65
507.50	899.21
507.86	909.84
508.22	920.59
508.59	930.83
508.95	941.78
509.31	953.08
509.67	964.00
510.03	974.31
510.39	985.01
510.75	995.12
511.12	1005.70
511.48	1016.30
511.84	1026.57
512.20	1036.55
512.56	1046.47
512.92	1056.71
513.28	1066.43
513.64	1076.28
514.00	1086.03
514.37	1095.86
514.73	1105.46
515.09	1114.86
515.45	1124.27
515.81	1133.10
516.17	1142.70
516.53	1151.01
516.89	1159.41
517.25	1168.34
517.61	1177.48
517.97	1186.30
518.33	1195.15
518.69	1203.62
519.05	1211.91
519.41	1220.04
519.77	1228.71
520.13	1236.64
520.49	1243.77
520.85	1251.40
521.21	1258.88
521.57	1266.28
521.93	1272.72
522.29	1279.20
522.65	1285.04
523.01	1290.94
523.37	1296.46
523.73	1301.76
524.09	1307.25
524.45	1312.45
524.81	1317.20
525.17	1322.46
525.53	1327.45
525.89	1332.22
526.25	1336.65
526.61	1340.47
526.97	1345.12
527.33	1349.62
527.68	1354.85
528.04	1359.69
528.40	1363.90
528.76	1368.61
529.12	1372.86
529.48	1377.56
529.84	1381.45
530.20	1386.30
530.56	1390.79
530.91	1395.42
531.27	1399.67
531.63	1404.00
531.99	1408.03
532.35	1412.12
532.71	1415.66
533.07	1419.72
533.42	1424.30
533.78	1428.42
534.14	1432.56
534.50	1436.30
534.86	1439.66
535.21	1441.88
535.57	1445.54
535.93	1448.24
536.29	1451.25
536.65	1454.41
537.00	1457.47
537.36	1460.38
537.72	1462.69
538.08	1465.86
538.44	1468.92
538.79	1472.02
539.15	1474.45
539.51	1477.50
539.87	1480.20
540.22	1482.04
540.58	1484.20
540.94	1485.45
541.29	1486.95
541.65	1488.51
542.01	1490.23
542.37	1491.00
542.72	1492.19
543.08	1492.53
543.44	1494.19
543.79	1494.02
544.15	1494.58
544.51	1495.41
544.87	1496.37
545.22	1496.46
545.58	1496.00
545.94	1495.50
546.29	1494.40
546.65	1494.00
547.01	1492.69
547.36	1491.35
547.72	1490.64
548.07	1489.08
548.43	1487.95
548.79	1486.92
549.14	1485.99
549.50	1484.47
549.86	1483.44
550.21	1482.36
550.57	1481.54
550.92	1480.07
551.28	1479.03
551.64	1477.90
551.99	1476.58
552.35	1475.47
552.70	1474.75
553.06	1474.26
553.41	1473.56
553.77	1473.56
554.13	1473.31
554.48	1472.92
554.84	1472.53
555.19	1472.33
555.55	1473.07
555.90	1472.08
556.26	1471.45
556.61	1470.30
556.97	1468.70
557.32	1468.01
557.68	1467.50
558.03	1466.45
558.39	1465.47
558.74	1464.71
559.10	1463.13
559.45	1461.49
559.81	1459.50
560.16	1457.92
560.52	1455.94
560.87	1454.44
561.23	1452.51
561.58	1451.10
561.94	1449.16
562.29	1447.39
562.64	1445.31
563.00	1442.10
563.35	1440.57
563.71	1438.74
564.06	1437.10
564.42	1436.21
564.77	1434.62
565.12	1433.15
565.48	1432.52
565.83	1431.17
566.19	1429.90
566.54	1429.03
566.89	1427.70
567.25	1426.77
567.60	1425.91
567.96	1425.34
568.31	1424.39
568.66	1423.29
569.02	1421.02
569.37	1419.41
569.72	1418.02
570.08	1416.11
570.43	1414.01
570.78	1411.90
571.14	1409.95
571.49	1407.58
571.84	1405.31
572.20	1402.63
572.55	1399.75
572.90	1396.16
573.26	1393.22
573.61	1390.14
573.96	1386.69
574.31	1383.23
574.67	1379.60
575.02	1375.48
575.37	1371.11
575.72	1366.68
576.08	1362.79
576.43	1359.06
576.78	1355.01
577.13	1350.53
577.49	1346.69
577.84	1343.52
578.19	1340.00
578.54	1336.41
578.90	1333.44
579.25	1329.50
579.60	1325.77
579.95	1322.06
580.30	1317.90
580.66	1313.62
581.01	1309.56
581.36	1305.31
581.71	1301.17
582.06	1297.50
582.42	1293.77
582.77	1289.91
583.12	1286.60
583.47	1282.60
583.82	1278.89
584.17	1275.40
584.53	1272.38
584.88	1268.27
585.23	1263.80
585.58	1259.49
585.93	1254.73
586.28	1250.10
586.63	1245.61
586.98	1241.04
587.34	1236.64
587.69	1232.13
588.04	1227.95
588.39	1223.62
588.74	1219.33
589.09	1215.76
589.44	1210.87
589.79	1206.54
590.14	1202.55
590.49	1197.83
590.84	1193.29
591.19	1189.52
591.54	1185.06
591.89	1180.17
592.25	1176.95
592.60	1172.81
592.95	1168.50
593.30	1164.49
593.65	1159.69
594.00	1154.97
594.35	1153.26
594.70	1148.47
595.05	1144.32
595.40	1139.75
595.75	1134.77
596.10	1130.40
596.45	1125.84
596.80	1121.73
597.15	1117.27
597.50	1112.43
597.85	1108.33
598.19	1103.65
598.54	1098.28
598.89	1093.01
599.24	1088.43
599.59	1082.95
599.94	1078.20
600.29	1073.58
600.64	1069.00
600.99	1064.69
601.34	1060.76
601.69	1053.88
602.04	1049.53
602.39	1045.08
602.74	1041.30
603.08	1037.55
603.43	1033.77
603.78	1029.48
604.13	1024.99
604.48	1020.69
604.83	1015.74
605.18	1010.70
605.53	1006.36
605.87	1002.13
606.22	998.70
606.57	994.80
606.92	990.60
607.27	986.88
607.62	983.27
607.96	979.40
608.31	975.92
608.66	972.08
609.01	968.00
609.36	964.10
609.70	960.10
610.05	955.70
610.40	951.59
610.75	946.86
611.10	942.54
611.44	938.13
611.79	933.74
612.14	930.09
612.49	926.08
612.83	921.97
613.18	917.94
613.53	913.71
613.88	908.81
614.22	904.12
614.57	899.36
614.92	894.13
615.27	889.81
615.61	884.79
615.96	879.76
616.31	875.22
616.65	871.08
617.00	866.50
617.35	862.01
617.70	857.25
618.04	852.95
618.39	848.40
618.74	844.66
619.08	840.40
619.43	835.90
619.78	831.17
620.12	826.57
620.47	821.90
620.82	817.43
621.16	813.12
621.51	809.35
621.85	805.19
622.20	801.11
622.55	796.47
622.89	791.91
623.24	788.18
623.59	783.81
623.93	779.45
624.28	775.38
624.62	772.26
624.97	769.02
625.32	764.97
625.66	760.85
626.01	756.51
626.35	752.54
626.70	748.61
627.04	745.51
627.39	741.66
627.73	738.32
628.08	734.61
628.43	730.84
628.77	726.88
629.12	722.94
629.46	719.55
629.81	716.45
630.15	713.22
630.50	709.14
630.84	705.64
631.19	702.15
631.53	698.90
631.88	694.24
632.22	689.95
632.57	686.84
632.91	683.28
633.26	679.93
633.60	676.33
633.95	672.86
634.29	668.80
634.64	665.44
634.98	661.32
635.32	658.00
635.67	654.98
636.01	651.56
636.36	648.02
636.70	644.76
637.05	640.99
637.39	637.68
637.73	634.69
638.08	631.58
638.42	628.20
638.77	624.48
639.11	620.81
639.45	617.34
639.80	613.53
640.14	610.17
640.49	606.90
640.83	603.77
641.17	600.63
641.52	597.64
641.86	594.50
642.20	592.10
642.55	588.86
642.89	585.64
643.23	582.50
643.58	580.05
643.92	576.60
644.26	573.62
644.61	570.90
644.95	568.01
645.29	564.83
645.64	561.97
645.98	559.23
646.32	556.85
646.66	554.18
647.01	551.43
647.35	548.83
647.69	546.17
648.04	543.47
648.38	540.62
648.72	537.76
649.06	534.80
649.41	531.51
649.75	528.58
650.09	525.98
650.43	523.43
650.78	520.42
651.12	517.78
651.46	515.18
651.80	512.50
652.14	509.66
652.49	507.36
652.83	504.86
653.17	502.32
653.51	499.42
653.85	497.07
654.20	494.75
654.54	492.15
654.88	489.48
655.22	487.45
655.56	485.05
655.90	482.67
656.25	480.43
656.59	478.36
656.93	476.19
657.27	474.08
657.61	471.50
657.95	469.26
658.29	467.01
658.64	464.84
658.98	462.46
659.32	460.10
659.66	457.69
660.00	455.36
660.34	453.20
660.68	451.29
661.02	449.04
661.36	446.78
661.70	444.80
662.05	442.76
662.39	440.60
662.73	438.88
663.07	437.42
663.41	435.56
663.75	433.40
664.09	431.50
664.43	429.25
664.77	427.49
665.11	425.50
665.45	423.65
665.79	421.75
666.13	419.80
666.47	417.88
666.81	416.07
667.15	414.02
667.49	412.39
667.83	410.88
668.17	409.09
668.51	407.40
668.85	405.88
669.19	404.50
669.53	402.55
669.87	400.73
670.21	398.77
670.55	397.16
670.89	396.13
671.23	394.55
671.57	392.98
671.91	391.49
672.25	390.00
672.58	388.77
672.92	386.94
673.26	385.58
673.60	384.14
673.94	382.81
674.28	381.54
674.62	380.06
674.96	378.39
675.30	377.10
675.64	375.70
675.97	374.20
676.31	372.56
676.65	371.06
676.99	369.93
677.33	368.34
677.67	366.98
678.01	365.11
678.34	363.59
678.68	362.37
679.02	360.90
679.36	359.58
679.70	358.04
680.04	357.05
680.37	355.85
680.71	354.76
681.05	353.47
681.39	352.48
681.73	351.19
682.06	349.90
682.40	348.67
682.74	347.56
683.08	346.75
683.42	345.51
683.75	344.57
684.09	343.24
684.43	342.34
684.77	341.08
685.10	340.01
685.44	339.10
685.78	337.87
686.12	336.83
686.45	335.77
686.79	334.72
687.13	333.75
687.46	332.66
687.80	331.75
688.14	330.63
688.48	329.42
688.81	328.44
689.15	327.75
689.49	326.68
689.82	325.65
690.16	324.23
690.50	323.34
690.83	322.37
691.17	321.19
691.51	320.23
691.84	319.40
692.18	318.40
692.52	317.33
692.85	316.64
693.19	316.14
693.52	315.25
693.86	314.39
694.20	313.40
694.53	312.50
694.87	311.48
695.21	310.44
695.54	309.54
695.88	308.52
696.21	307.23
696.55	306.40
696.88	305.47
697.22	304.56
697.56	303.76
697.89	302.83
698.23	302.20
698.56	301.13
698.90	300.47
699.23	299.70
699.57	299.05
699.90	298.11
700.24	296.98
700.58	296.31
700.91	295.65
701.25	295.73
701.58	295.60
701.92	295.19
702.25	294.63
702.59	293.96
702.92	293.39
703.26	293.00
703.59	292.33
703.93	292.56
704.26	292.04
704.60	291.40
704.93	290.66
705.26	289.90
705.60	289.50
705.93	288.80
706.27	288.42
706.60	287.96
706.94	287.76
707.27	287.19
707.61	286.58
707.94	286.01
708.27	284.65
708.61	283.41
708.94	282.62
709.28	282.20
709.61	281.46
709.94	280.85
710.28	280.19
710.61	279.61
710.95	278.25
711.28	278.28
711.61	277.68
711.95	277.40
712.28	276.80
712.61	276.24
712.95	276.09
713.28	275.94
713.61	275.21
713.95	274.32
714.28	273.89
714.61	273.31
714.95	272.63
715.28	272.01
715.61	271.50
715.95	271.18
716.28	270.43
716.61	270.13
716.95	269.67
717.28	269.24
717.61	268.85
717.94	268.41
718.28	267.34
718.61	266.99
718.94	266.48
719.27	266.07
719.61	265.76
719.94	265.06
720.27	264.21
720.60	263.76
720.94	263.45
721.27	263.01
721.60	262.80
721.93	262.48
722.27	262.46
722.60	262.31
722.93	261.80
723.26	261.50
723.59	261.13
723.93	260.87
724.26	260.60
724.59	260.23
724.92	260.00
725.25	260.03
725.59	259.69
725.92	259.48
726.25	259.23
726.58	258.99
726.91	258.71
727.24	258.53
727.57	258.24
727.91	257.80
728.24	257.70
728.57	257.38
728.90	257.34
729.23	256.79
729.56	256.94
729.89	256.73
730.22	256.51
730.55	256.24
730.89	256.09
731.22	255.74
731.55	255.46
731.88	255.19
732.21	254.64
732.54	254.48
732.87	254.20
733.20	254.01
733.53	253.79
733.86	253.55
734.19	253.19
734.52	253.25
734.85	253.73
735.18	253.31
735.51	253.26
735.84	253.04
736.17	253.09
736.50	252.25
736.83	253.13
737.16	252.95
737.49	252.73
737.82	252.46
738.15	252.37
738.48	252.18
738.81	251.83
739.14	251.40
739.47	250.97
739.80	250.74
740.13	250.58
740.46	250.22
740.79	249.84
741.12	249.53
741.45	249.12
741.78	248.42
742.11	248.50
742.44	248.00
742.77	247.86
743.10	247.57
743.43	247.41
743.75	246.13
744.08	247.12
744.41	246.96
744.74	246.61
745.07	246.16
745.40	246.13
745.73	246.39
746.06	246.41
746.39	246.37
746.71	246.01
747.04	245.74
747.37	245.44
747.70	245.44
748.03	245.38
748.36	245.29
748.68	245.03
749.01	244.50
749.34	244.38
749.67	244.18
750.00	244.11
750.33	244.63
750.65	244.60
750.98	243.41
751.31	243.16
751.64	243.14
751.97	243.62
752.29	243.43
752.62	242.77
752.95	242.56
753.28	242.31
753.60	242.24
753.93	242.28
754.26	242.34
754.59	241.94
754.91	241.74
755.24	241.47
755.57	241.33
755.90	241.23
756.22	241.18
756.55	240.86
756.88	240.49
757.20	239.76
757.53	239.37
757.86	239.09
758.19	239.01
758.51	238.89
758.84	238.33
759.17	238.13
759.49	238.17
759.82	238.48
760.15	238.55
760.47	238.48
760.80	238.17
761.13	238.10
761.45	238.01
761.78	237.92
762.11	237.96
762.43	237.89
762.76	237.72
763.08	237.65
763.41	237.65
763.74	237.64
764.06	237.45
764.39	237.42
764.71	237.39
765.04	237.27
765.37	237.08
765.69	236.85
766.02	236.73
766.34	236.62
766.67	236.19
767.00	236.14
767.32	236.55
767.65	237.11
767.97	237.01
768.30	237.14
768.62	237.07
768.95	236.91
769.27	236.76
769.60	236.95
769.92	236.82
770.25	236.56
770.57	236.39
770.90	236.46
771.22	236.26
771.55	236.20
771.87	236.28
772.20	236.24
772.52	237.02
772.85	238.14
773.17	237.99
773.50	237.90
773.82	237.73
774.15	237.14
774.47	236.39
774.80	236.24
775.12	236.07
775.45	236.10
775.77	236.10
776.09	236.15
776.42	236.01
776.74	236.18
777.07	236.09
777.39	236.15
777.72	235.91
778.04	236.02
778.36	235.97
778.69	235.84
779.01	235.87
779.33	235.05
779.66	233.87
779.98	233.84
780.31	233.86
780.63	234.25
780.95	234.38
781.28	234.40
781.60	234.21
781.92	234.23
782.25	234.10
782.57	234.08
782.89	233.92
783.22	233.80
783.54	233.50
783.86	233.64
784.19	233.52
784.51	233.68
784.83	233.48
785.16	233.33
785.48	233.35
785.80	233.25
786.12	233.20
786.45	233.16
786.77	233.23
787.09	233.14
787.42	232.80
787.74	232.86
788.06	232.85
788.38	232.83
788.71	232.72
789.03	232.72
789.35	232.69
789.67	232.50
789.99	232.55
790.32	232.40
790.64	232.42
790.96	233.08
791.28	232.92
791.61	232.88
791.93	232.93
792.25	232.82
792.57	233.57
792.89	233.40
793.21	233.45
793.54	233.31
793.86	233.14
794.18	233.03
794.50	232.75
794.82	232.73
795.14	232.85
795.47	232.95
795.79	232.98
796.11	232.81
796.43	232.89
796.75	232.87
797.07	232.88
797.39	232.74
797.71	232.09
798.04	232.03
798.36	232.12
798.68	232.06
799.00	232.03
799.32	231.48
799.64	231.72
799.96	231.68
800.28	231.84
800.60	231.83
800.92	231.90
801.24	231.86
801.56	231.89
801.89	231.80
802.21	231.86
802.53	231.69
802.85	231.81
803.17	232.20
803.49	232.02
803.81	232.12
804.13	232.06
804.45	231.92
804.77	232.07
805.09	231.97
805.41	231.87
805.73	231.76
806.05	231.42
806.37	231.30
806.69	231.15
807.01	231.07
807.33	231.11
807.65	230.69
807.97	231.12
808.28	230.91
808.60	230.85
808.92	230.56
809.24	231.07
809.56	230.98
809.88	230.70
810.20	230.64
810.52	230.64
810.84	230.50
811.16	230.40
811.48	230.22
811.80	230.53
812.12	230.52
812.43	230.66
812.75	230.76
813.07	230.62
813.39	230.68
813.71	230.59
814.03	230.45
814.35	230.64
814.67	230.20
814.98	230.24
815.30	230.26
815.62	230.12
815.94	229.52
816.26	229.93
816.58	229.73
816.89	229.97
817.21	229.82
817.53	230.00
817.85	230.07
818.17	230.02
818.48	229.73
818.80	229.93
819.12	229.73
819.44	229.58
819.76	229.57
820.07	229.60
820.39	229.49
820.71	229.74
821.03	229.66
821.34	229.66
821.66	229.74
821.98	229.80
822.30	229.90
822.61	230.53
822.93	229.99
823.25	229.96
823.57	229.80
823.88	230.02
824.20	229.87
824.52	229.96
824.83	229.93
825.15	229.75
825.47	229.71
825.79	229.90
826.10	229.88
826.42	229.78
826.74	229.92
827.05	229.95
827.37	229.95
827.69	229.89
828.00	229.95
828.32	229.91
828.64	229.76
828.95	230.25
829.27	229.87
829.58	229.89
829.90	229.97
830.22	229.93
830.53	229.62
830.85	229.52
831.17	229.30
831.48	229.38
831.80	229.45
832.11	229.28
832.43	229.12
832.75	229.11
833.06	229.73
833.38	229.35
833.69	229.28
834.01	229.21
834.32	229.16
834.64	228.85
834.96	228.87
835.27	228.92
835.59	228.59
835.90	228.49
836.22	228.57
836.53	228.40
836.85	228.33
837.16	229.25
837.48	229.24
837.79	229.60
838.11	229.57
838.42	229.57
838.74	229.76
839.05	229.70
839.37	229.61
839.68	229.07
840.00	229.08
840.31	229.21
840.63	229.09
840.94	229.02
841.26	229.05
841.57	229.02
841.88	229.08
842.20	228.91
842.51	228.72
842.83	228.64
843.14	229.56
843.46	229.65
843.77	229.09
844.08	229.12
844.40	228.88
844.71	228.75
845.03	228.65
845.34	228.50
845.65	228.41
845.97	228.41
846.28	228.38
846.60	228.43
846.91	228.29
847.22	228.20
847.54	228.44
847.85	228.64
848.16	228.49
848.48	228.28
848.79	228.63
849.10	228.84
849.42	228.81
849.73	227.98
850.04	227.82
850.36	227.60
850.67	227.79
850.98	227.73
851.30	227.78
851.61	227.78
851.92	227.77
852.23	228.10
852.55	228.27
852.86	228.32
853.17	228.40
853.49	228.56
853.80	228.90
854.11	229.01
854.42	229.03
854.74	228.96
855.05	229.02
855.36	228.63
855.67	228.55
855.99	228.63
856.30	229.71
856.61	229.76
856.92	229.75
857.23	229.68
857.55	229.59
857.86	229.67
858.17	229.80
858.48	229.68
858.79	229.48
859.11	229.54
859.42	229.50
859.73	229.27
860.04	229.25
860.35	228.87
860.66	228.55
860.98	228.50
861.29	228.71
861.60	228.62
861.91	228.83
862.22	228.78
862.53	228.62
862.84	227.46
863.16	227.75
863.47	227.66
863.78	227.57
864.09	227.77
864.40	227.78
864.71	227.81
865.02	227.82
865.33	227.73
865.64	227.63
865.95	227.59
866.27	228.26
866.58	228.30
866.89	228.50
867.20	228.44
867.51	228.36
867.82	228.30
868.13	228.65
868.44	228.43
868.75	228.63
869.06	228.60
869.37	228.70
869.68	228.31
869.99	228.45
870.30	228.57
870.61	228.58
870.92	228.50
871.23	228.43
871.54	228.58
871.85	228.85
872.16	228.88
872.47	228.82
872.78	228.30
873.09	228.23
873.40	228.10
873.71	228.17
874.02	228.18
874.33	228.04
874.64	227.77
874.95	227.93
875.26	227.61
875.56	227.67
875.87	227.62
876.18	227.66
876.49	228.57
876.80	228.40
877.11	228.13
877.42	228.10
877.73	228.12
878.04	228.09
878.35	228.06
878.66	228.05
878.96	228.02
879.27	228.00
879.58	227.89
879.89	227.85
880.20	228.12
880.51	228.15
880.82	228.16
881.12	228.20
881.43	227.95
881.74	227.85
882.05	227.89
882.36	227.98
882.67	228.02
882.97	227.02
883.28	227.02
883.59	227.12
883.90	227.25
884.21	227.39
884.51	227.29
884.82	227.10
885.13	227.12
885.44	227.14
885.74	227.19
886.05	227.30
886.36	227.31
886.67	226.99
886.98	227.41
887.28	227.46
887.59	227.50
887.90	227.63
888.20	227.67
888.51	227.79
888.82	227.65
889.13	227.80
889.43	228.58
889.74	228.50
890.05	228.48
890.35	228.35
890.66	228.20
890.97	228.10
891.28	228.01
891.58	228.07
891.89	228.00
892.20	227.91
892.50	227.77
892.81	227.77
893.12	227.85
893.42	227.33
893.73	227.47
894.04	227.46
894.34	227.51
894.65	227.57
894.95	227.40
895.26	227.40
895.57	227.80
895.87	226.91
896.18	227.06
896.48	227.12
896.79	227.11
897.10	227.28
897.40	227.33
897.71	227.54
898.01	227.38
898.32	227.70
898.63	227.67
898.93	227.82
899.24	227.80
899.54	227.73
899.85	227.76
900.15	227.67
900.46	227.62
900.76	227.76
901.07	227.70
901.38	227.69
901.68	227.89
901.99	227.26
902.29	227.36
902.60	227.30
902.90	227.21
903.21	227.27
903.51	227.12
903.82	227.32
904.12	227.23
904.43	227.35
904.73	227.18
905.03	227.30
905.34	228.19
905.64	228.14
905.95	228.17
906.25	228.12
906.56	228.09
906.86	228.10
907.17	227.88
907.47	228.02
907.77	227.94
908.08	227.74
908.38	227.91
908.69	227.97
908.99	228.18
909.30	228.15
909.60	228.09
909.90	228.10
910.21	227.82
910.51	227.58
910.81	227.57
911.12	227.57
911.42	227.49
911.73	226.42
912.03	226.52
912.33	226.71
912.64	226.71
912.94	226.58
913.24	226.37
913.55	226.30
913.85	226.15
914.15	226.39
914.46	226.46
914.76	226.37
915.06	226.23
915.37	225.96
915.67	225.94
915.97	226.00
916.27	225.81
916.58	225.87
916.88	225.95
917.18	225.83
917.49	226.58
917.79	226.64
918.09	226.75
918.39	226.94
918.70	226.87
919.00	226.88
919.30	227.44
919.60	227.50
919.91	227.50
920.21	227.63
920.51	227.37
920.81	227.32
921.12	227.44
921.42	227.46
921.72	227.56
922.02	227.68
922.32	227.78
922.63	227.85
922.93	228.39
923.23	228.47
923.53	228.34
923.83	227.62
924.13	227.70
924.44	227.81
924.74	227.95
925.04	228.16
925.34	228.14
925.64	227.64
925.94	227.70
926.24	228.27
926.55	228.13
926.85	228.32
927.15	228.24
927.45	228.20
927.75	228.18
928.05	228.17
928.35	227.99
928.65	228.11
928.95	228.20
929.26	227.80
929.56	227.93
929.86	228.16
930.16	228.04
930.46	227.87
930.76	227.85
931.06	227.32
931.36	227.11
931.66	227.34
931.96	227.51
932.26	227.39
932.56	226.98
932.86	227.04
933.16	227.04
933.46	227.08
933.76	226.93
934.06	227.26
934.36	227.69
934.66	227.79
934.96	227.62
935.26	227.60
935.56	227.74
935.86	227.56
936.16	227.36
936.46	227.38
936.76	227.41
937.06	227.31
937.36	227.50
937.66	227.49
937.96	227.44
938.26	227.29
938.56	227.36
938.86	227.42
939.16	227.55
939.46	227.69
939.76	227.72
940.06	227.81
940.35	227.46
940.65	226.90
940.95	226.97
941.25	226.73
941.55	226.70
941.85	226.63
942.15	226.81
942.45	227.15
942.75	227.15
943.04	227.13
943.34	227.20
943.64	227.21
943.94	227.08
944.24	227.04
944.54	227.03
944.84	227.05
945.13	226.83
945.43	226.82
945.73	226.63
946.03	226.58
946.33	226.50
946.62	226.50
946.92	226.53
947.22	226.50
947.52	226.70
947.82	226.82
948.11	226.72
948.41	226.53
948.71	226.16
949.01	226.27
949.31	226.14
949.60	226.16
949.90	226.24
950.20	226.20
950.50	226.19
950.79	226.21
951.09	226.40
951.39	226.50
951.69	226.34
951.98	226.57
952.28	226.63
952.58	226.60
952.87	226.54
953.17	226.59
953.47	226.50
953.76	226.53
954.06	226.32
954.36	226.14
954.66	226.14
954.95	226.53
955.25	226.57
955.55	226.76
955.84	226.55
956.14	226.52
956.44	226.63
956.73	226.53
957.03	226.55
957.32	226.41
957.62	226.33
957.92	226.59
958.21	226.49
958.51	227.58
958.81	227.69
959.10	227.82
959.40	228.07
959.69	228.20
959.99	228.22
960.29	228.30
960.58	228.30
960.88	228.69
961.17	228.51
961.47	228.61
961.76	228.54
962.06	228.76
962.36	228.70
962.65	228.69
962.95	228.71
963.24	228.60
963.54	228.62
963.83	228.68
964.13	228.60
964.42	228.38
964.72	227.59
965.01	227.61
965.31	227.59
965.60	227.37
965.90	227.95
966.19	227.73
966.49	227.78
966.78	227.80
967.08	227.73
967.37	227.73
967.67	227.49
967.96	227.66
968.26	227.60
968.55	227.71
968.85	227.80
969.14	227.79
969.43	227.85
969.73	227.87
970.02	227.89
970.32	227.78
970.61	227.82
970.91	227.49
971.20	227.44
971.49	227.35
971.79	227.40
972.08	226.91
972.38	227.07
972.67	227.06
972.96	227.23
973.26	227.04
973.55	227.33
973.85	227.33
974.14	227.20
974.43	227.29
974.73	227.08
975.02	226.90
975.31	226.87
975.61	226.85
975.90	226.75
976.19	226.62
976.49	226.71
976.78	226.71
977.07	226.74
977.37	226.84
977.66	226.91
977.95	226.77
978.24	226.69
978.54	226.84
978.83	226.74
979.12	226.65
979.42	226.62
979.71	226.35
980.00	226.38
980.29	226.52
980.59	226.32
980.88	226.70
981.17	226.60
981.46	226.61
981.76	226.48
982.05	226.75
982.34	226.80
982.63	226.80
982.93	226.84
983.22	227.16
983.51	227.06
983.80	227.22
984.09	227.39
984.39	227.35
984.68	227.20
984.97	227.25
985.26	227.17
985.55	227.22
985.85	227.11
986.14	227.14
986.43	227.26
986.72	227.31
987.01	226.90
987.30	226.94
987.59	227.05
987.89	227.18
988.18	226.91
988.47	226.87
988.76	226.80
989.05	226.73
989.34	226.53
989.63	226.81
989.92	226.66
990.22	226.58
990.51	226.57
990.80	226.50
991.09	226.60
991.38	226.81
991.67	226.80
991.96	226.70
992.25	226.82
992.54	226.51
992.83	226.42
993.12	226.51
993.41	226.76
993.70	227.13
993.99	227.33
994.28	227.49
994.58	227.64
994.87	227.53
995.16	227.46
995.45	227.34
995.74	226.98
996.03	227.27
996.32	227.34
996.61	227.51
996.90	227.47
997.19	227.37
997.48	227.35
997.77	227.24
998.06	227.40
998.34	227.28
998.63	227.35
998.92	227.37
999.21	227.49
999.50	227.46
999.79	227.03
1000.08	226.87
1000.37	226.87
1000.66	226.65
1000.95	226.97
1001.24	227.14
1001.53	227.29
1001.82	227.35
1002.11	226.98
1002.40	227.14
1002.68	227.31
1002.97	228.04
1003.26	227.98
1003.55	227.70
1003.84	227.65
1004.13	227.95
1004.42	227.88
1004.71	227.89
1004.99	227.90
1005.28	228.13
1005.57	228.02
1005.86	227.79
1006.15	227.77
1006.44	227.62
1006.72	227.77
1007.01	227.53
1007.30	227.40
1007.59	227.27
1007.88	227.25
1008.17	227.27
1008.45	227.00
1008.74	226.63
1009.03	226.25
1009.32	226.28
1009.60	226.37
1009.89	226.35
1010.18	225.83
1010.47	225.76
1010.76	225.70
1011.04	225.66
1011.33	225.64
1011.62	225.73
1011.91	225.94
1012.19	226.10
1012.48	226.16
1012.77	226.24
1013.05	226.69
1013.34	226.82
1013.63	226.75
1013.92	226.82
1014.20	226.76
1014.49	226.91
1014.78	227.00
1015.06	226.57
1015.35	226.51
1015.64	226.61
1015.92	226.78
1016.21	226.97
1016.50	227.04
1016.78	227.12
1017.07	227.22
1017.36	226.94
1017.64	226.85
1017.93	226.99
1018.22	226.77
1018.50	226.76
1018.79	226.64
1019.08	226.15
1019.36	226.19
1019.65	226.28
1019.93	226.50
1020.22	226.66
1020.51	227.10
1020.79	226.96
1021.08	224.50
1021.36	225.70
1021.65	225.90
1021.94	225.50
1022.22	227.90
1022.51	227.20
1022.79	231.30
1023.08	227.00
1023.36	238.20
1023.65	224.00
>>>>>End Processed Spectral Data<<<<<
