SpectraSuite Data File
++++++++++++++++++++++++++++++++++++
Date: Wed Sep 04 17:30:39 EDT 2013
User: lab3
Dark Spectrum Present: Yes
Reference Spectrum Present: No
Number of Sampled Component Spectra: 1
Spectrometers: USB2E7196
Integration Time (usec): 337000 (USB2E7196)
Spectra Averaged: 10 (USB2E7196)
Boxcar Smoothing: 10 (USB2E7196)
Correct for Electrical Dark: No (USB2E7196)
Strobe/Lamp Enabled: No (USB2E7196)
Correct for Detector Non-linearity: No (USB2E7196)
Correct for Stray Light: No (USB2E7196)
Number of Pixels in Processed Spectrum: 2048
>>>>>Begin Processed Spectral Data<<<<<
339.09	0.00
339.48	212.30
339.86	213.50
340.24	217.90
340.63	216.90
341.01	233.60
341.39	218.80
341.78	224.00
342.16	225.10
342.54	224.20
342.93	213.24
343.31	223.98
343.69	224.55
344.07	225.06
344.46	225.51
344.84	225.94
345.22	225.54
345.60	225.92
345.99	226.05
346.37	226.11
346.75	226.07
347.13	226.21
347.52	226.24
347.90	226.56
348.28	226.62
348.66	226.82
349.05	226.60
349.43	226.89
349.81	226.95
350.19	226.91
350.57	226.88
350.96	226.94
351.34	226.92
351.72	227.05
352.10	227.13
352.48	227.10
352.87	227.09
353.25	227.21
353.63	227.23
354.01	227.26
354.39	227.34
354.77	227.50
355.15	227.78
355.54	227.77
355.92	227.52
356.30	227.63
356.68	228.20
357.06	228.25
357.44	228.06
357.82	228.07
358.20	228.83
358.58	228.91
358.97	229.03
359.35	229.36
359.73	229.60
360.11	229.70
360.49	229.73
360.87	229.93
361.25	230.01
361.63	230.31
362.01	230.37
362.39	230.34
362.77	230.46
363.15	230.45
363.53	230.53
363.91	230.62
364.29	230.63
364.67	229.86
365.05	229.88
365.43	229.98
365.81	230.18
366.19	229.90
366.57	230.20
366.95	230.24
367.33	230.18
367.71	230.05
368.09	230.24
368.47	230.25
368.85	230.15
369.23	230.33
369.61	229.98
369.99	230.31
370.37	230.44
370.75	230.86
371.13	230.66
371.51	230.48
371.89	230.53
372.27	230.53
372.65	230.60
373.03	230.69
373.41	230.59
373.78	230.40
374.16	230.00
374.54	229.71
374.92	229.51
375.30	229.39
375.68	229.20
376.06	229.22
376.44	229.08
376.82	229.12
377.19	229.05
377.57	229.02
377.95	228.63
378.33	228.43
378.71	227.84
379.09	228.01
379.47	228.15
379.84	228.06
380.22	227.99
380.60	227.68
380.98	227.57
381.36	227.44
381.73	227.29
382.11	227.35
382.49	227.37
382.87	227.31
383.25	227.20
383.62	228.28
384.00	227.98
384.38	227.98
384.76	228.10
385.13	228.41
385.51	228.37
385.89	228.35
386.27	228.53
386.64	228.63
387.02	228.41
387.40	228.26
387.78	228.22
388.15	228.20
388.53	228.24
388.91	228.26
389.29	228.27
389.66	228.46
390.04	228.38
390.42	228.57
390.79	228.59
391.17	228.64
391.55	227.46
391.92	227.34
392.30	227.54
392.68	227.30
393.05	227.17
393.43	227.20
393.81	227.25
394.18	226.97
394.56	227.01
394.94	227.24
395.31	227.18
395.69	227.56
396.06	227.75
396.44	227.90
396.82	227.84
397.19	228.38
397.57	228.26
397.95	228.41
398.32	228.11
398.70	228.24
399.07	228.38
399.45	228.59
399.82	228.85
400.20	228.82
400.58	228.90
400.95	228.63
401.33	228.87
401.70	229.70
402.08	229.97
402.45	230.16
402.83	230.53
403.20	230.80
403.58	230.85
403.95	231.15
404.33	231.43
404.71	231.74
405.08	232.37
405.46	232.79
405.83	233.20
406.21	233.55
406.58	234.08
406.96	234.45
407.33	234.99
407.70	235.52
408.08	236.82
408.45	237.63
408.83	238.38
409.20	239.05
409.58	239.05
409.95	239.97
410.33	240.85
410.70	241.31
411.08	242.40
411.45	243.37
411.82	244.32
412.20	245.61
412.57	247.30
412.95	247.76
413.32	249.21
413.69	250.58
414.07	252.14
414.44	253.72
414.82	255.50
415.19	257.39
415.56	259.33
415.94	260.87
416.31	263.15
416.68	265.51
417.06	268.15
417.43	270.93
417.81	273.76
418.18	276.70
418.55	280.06
418.93	283.38
419.30	286.99
419.67	290.70
420.04	294.63
420.42	298.53
420.79	304.07
421.16	308.73
421.54	313.97
421.91	319.23
422.28	324.58
422.66	330.22
423.03	336.37
423.40	342.08
423.77	348.24
424.15	354.36
424.52	360.83
424.89	368.15
425.26	374.94
425.64	381.66
426.01	388.98
426.38	396.67
426.75	404.62
427.13	412.66
427.50	420.91
427.87	429.44
428.24	438.02
428.61	445.63
428.99	454.99
429.36	464.55
429.73	474.33
430.10	484.11
430.47	494.21
430.85	504.05
431.22	515.44
431.59	527.69
431.96	539.04
432.33	551.57
432.70	563.63
433.08	577.91
433.45	591.37
433.82	604.87
434.19	619.82
434.56	634.66
434.93	648.72
435.30	662.95
435.68	678.85
436.05	694.21
436.42	709.83
436.79	724.26
437.16	739.78
437.53	756.07
437.90	772.40
438.27	788.67
438.64	805.52
439.01	820.91
439.38	834.44
439.75	848.07
440.13	863.65
440.50	878.17
440.87	890.27
441.24	902.66
441.61	916.16
441.98	926.20
442.35	937.80
442.72	949.60
443.09	961.33
443.46	968.41
443.83	973.87
444.20	978.37
444.57	984.12
444.94	987.29
445.31	990.56
445.68	994.41
446.05	995.73
446.42	994.49
446.79	993.11
447.16	991.44
447.53	990.31
447.90	984.33
448.27	978.53
448.64	970.44
449.01	964.69
449.37	954.09
449.74	944.04
450.11	932.49
450.48	919.14
450.85	905.37
451.22	893.51
451.59	882.24
451.96	871.58
452.33	857.49
452.70	844.44
453.07	828.69
453.43	811.97
453.80	796.90
454.17	782.25
454.54	768.20
454.91	753.31
455.28	738.86
455.65	725.52
456.02	713.34
456.38	701.69
456.75	687.40
457.12	675.78
457.49	664.27
457.86	652.41
458.23	642.90
458.59	632.38
458.96	621.94
459.33	612.46
459.70	602.99
460.07	595.40
460.43	586.78
460.80	579.12
461.17	572.40
461.54	565.21
461.91	558.42
462.27	551.47
462.64	545.42
463.01	538.74
463.38	532.61
463.74	525.01
464.11	519.41
464.48	514.67
464.85	509.42
465.21	505.63
465.58	501.29
465.95	496.16
466.32	492.08
466.68	487.81
467.05	483.60
467.42	479.42
467.78	475.11
468.15	471.05
468.52	468.09
468.88	463.83
469.25	460.17
469.62	457.42
469.98	454.28
470.35	451.51
470.72	448.86
471.08	445.73
471.45	443.42
471.82	441.10
472.18	438.39
472.55	436.53
472.92	433.81
473.28	431.60
473.65	429.51
474.02	427.30
474.38	425.64
474.75	424.18
475.11	422.45
475.48	421.21
475.85	420.07
476.21	418.77
476.58	418.00
476.94	416.95
477.31	416.10
477.67	415.25
478.04	414.36
478.41	413.80
478.77	414.22
479.14	413.40
479.50	413.01
479.87	412.90
480.23	412.54
480.60	412.23
480.96	412.08
481.33	412.54
481.69	412.66
482.06	412.74
482.42	412.92
482.79	413.24
483.15	413.61
483.52	414.39
483.88	414.68
484.25	415.18
484.61	416.03
484.98	416.44
485.34	417.69
485.71	418.90
486.07	420.03
486.44	420.27
486.80	421.59
487.17	422.78
487.53	424.40
487.90	426.16
488.26	428.30
488.62	430.49
488.99	432.09
489.35	434.14
489.72	436.52
490.08	438.85
490.44	441.10
490.81	443.64
491.17	446.00
491.54	448.80
491.90	451.60
492.26	454.57
492.63	457.78
492.99	460.61
493.36	463.80
493.72	467.31
494.08	470.82
494.45	474.50
494.81	478.53
495.17	482.31
495.54	486.52
495.90	490.30
496.26	494.22
496.63	498.47
496.99	502.99
497.35	507.33
497.72	511.78
498.08	516.44
498.44	521.17
498.80	526.23
499.17	531.10
499.53	535.97
499.89	540.92
500.26	545.76
500.62	550.89
500.98	556.32
501.34	561.27
501.71	566.61
502.07	571.85
502.43	576.97
502.79	582.10
503.16	587.17
503.52	592.57
503.88	597.71
504.24	603.26
504.60	608.57
504.97	614.07
505.33	619.45
505.69	625.50
506.05	631.05
506.41	636.44
506.78	641.84
507.14	647.16
507.50	652.49
507.86	658.04
508.22	663.66
508.59	668.50
508.95	674.10
509.31	679.90
509.67	684.98
510.03	690.01
510.39	695.09
510.75	700.09
511.12	705.00
511.48	709.93
511.84	714.58
512.20	719.19
512.56	723.64
512.92	728.28
513.28	732.31
513.64	736.57
514.00	740.90
514.37	745.20
514.73	749.50
515.09	753.64
515.45	757.85
515.81	761.50
516.17	765.50
516.53	769.00
516.89	772.06
517.25	776.09
517.61	780.20
517.97	783.81
518.33	787.54
518.69	791.20
519.05	795.00
519.41	798.69
519.77	802.87
520.13	806.43
520.49	809.43
520.85	815.48
521.21	819.02
521.57	822.14
521.93	825.04
522.29	828.15
522.65	830.91
523.01	833.45
523.37	835.86
523.73	838.52
524.09	841.18
524.45	843.65
524.81	845.93
525.17	848.35
525.53	850.78
525.89	852.82
526.25	855.07
526.61	856.87
526.97	859.05
527.33	861.31
527.68	864.56
528.04	867.43
528.40	867.06
528.76	869.58
529.12	871.90
529.48	874.94
529.84	877.46
530.20	880.55
530.56	883.55
530.91	886.88
531.27	890.05
531.63	893.02
531.99	896.20
532.35	899.52
532.71	902.65
533.07	906.12
533.42	910.47
533.78	913.56
534.14	917.25
534.50	920.57
534.86	923.89
535.21	926.21
535.57	929.93
535.93	932.91
536.29	936.33
536.65	940.03
537.00	942.89
537.36	946.10
537.72	949.28
538.08	952.67
538.44	955.66
538.79	958.66
539.15	962.35
539.51	965.59
539.87	968.47
540.22	971.45
540.58	974.54
540.94	976.73
541.29	979.46
541.65	982.20
542.01	985.28
542.37	987.67
542.72	990.08
543.08	992.17
543.44	995.31
543.79	997.45
544.15	1000.10
544.51	1003.05
544.87	1005.54
545.22	1007.64
545.58	1009.51
545.94	1011.79
546.29	1014.15
546.65	1015.85
547.01	1018.06
547.36	1020.20
547.72	1022.50
548.07	1024.60
548.43	1026.60
548.79	1029.15
549.14	1031.35
549.50	1033.37
549.86	1035.50
550.21	1038.15
550.57	1040.25
550.92	1042.17
551.28	1044.40
551.64	1046.30
551.99	1048.53
552.35	1050.94
552.70	1053.30
553.06	1056.11
553.41	1058.38
553.77	1061.02
554.13	1063.32
554.48	1065.74
554.84	1068.21
555.19	1070.52
555.55	1073.58
555.90	1075.39
556.26	1077.25
556.61	1078.82
556.97	1079.99
557.32	1081.70
557.68	1083.30
558.03	1085.40
558.39	1087.18
558.74	1088.64
559.10	1090.02
559.45	1091.21
559.81	1092.50
560.16	1093.66
560.52	1094.45
560.87	1096.32
561.23	1097.00
561.58	1098.72
561.94	1099.08
562.29	1099.86
562.64	1100.88
563.00	1100.43
563.35	1101.55
563.71	1102.45
564.06	1103.69
564.42	1104.93
564.77	1106.35
565.12	1107.63
565.48	1109.46
565.83	1110.42
566.19	1111.49
566.54	1112.39
566.89	1113.43
567.25	1114.38
567.60	1115.97
567.96	1117.80
568.31	1118.53
568.66	1119.88
569.02	1119.65
569.37	1120.75
569.72	1121.49
570.08	1121.12
570.43	1121.10
570.78	1121.52
571.14	1121.57
571.49	1121.25
571.84	1121.40
572.20	1120.84
572.55	1120.33
572.90	1118.47
573.26	1117.81
573.61	1116.73
573.96	1116.06
574.31	1114.69
574.67	1113.31
575.02	1111.19
575.37	1108.85
575.72	1106.76
576.08	1104.92
576.43	1103.60
576.78	1101.80
577.13	1100.00
577.49	1098.51
577.84	1097.59
578.19	1095.90
578.54	1094.81
578.90	1093.30
579.25	1091.80
579.60	1090.17
579.95	1088.03
580.30	1086.22
580.66	1084.14
581.01	1082.10
581.36	1079.57
581.71	1077.70
582.06	1075.87
582.42	1073.87
582.77	1071.76
583.12	1070.02
583.47	1067.92
583.82	1065.75
584.17	1063.66
584.53	1061.92
584.88	1059.39
585.23	1057.01
585.58	1053.93
585.93	1050.27
586.28	1047.92
586.63	1044.83
586.98	1041.93
587.34	1039.62
587.69	1036.84
588.04	1034.51
588.39	1032.32
588.74	1029.67
589.09	1027.29
589.44	1023.94
589.79	1021.28
590.14	1018.83
590.49	1015.80
590.84	1012.90
591.19	1010.43
591.54	1007.73
591.89	1004.33
592.25	1002.93
592.60	999.76
592.95	997.50
593.30	995.17
593.65	992.19
594.00	988.79
594.35	988.36
594.70	984.68
595.05	981.90
595.40	978.30
595.75	974.54
596.10	971.71
596.45	968.28
596.80	965.54
597.15	962.53
597.50	959.30
597.85	956.50
598.19	953.04
598.54	949.22
598.89	945.60
599.24	942.67
599.59	938.22
599.94	934.97
600.29	931.55
600.64	928.31
600.99	924.82
601.34	922.30
601.69	916.51
602.04	913.40
602.39	910.04
602.74	907.27
603.08	904.58
603.43	901.76
603.78	898.80
604.13	895.43
604.48	891.85
604.83	888.45
605.18	885.12
605.53	882.00
605.87	878.92
606.22	876.16
606.57	872.60
606.92	869.42
607.27	866.44
607.62	863.29
607.96	860.41
608.31	857.50
608.66	854.26
609.01	850.97
609.36	848.19
609.70	845.02
610.05	841.51
610.40	838.22
610.75	834.65
611.10	831.52
611.44	828.12
611.79	825.03
612.14	821.94
612.49	818.46
612.83	815.09
613.18	811.82
613.53	808.16
613.88	804.58
614.22	801.14
614.57	797.38
614.92	793.69
615.27	790.23
615.61	786.57
615.96	783.10
616.31	779.54
616.65	776.14
617.00	772.67
617.35	769.27
617.70	766.02
618.04	762.38
618.39	758.44
618.74	755.80
619.08	752.49
619.43	748.69
619.78	745.04
620.12	741.60
620.47	738.10
620.82	734.56
621.16	731.20
621.51	728.37
621.85	725.18
622.20	721.80
622.55	718.17
622.89	714.92
623.24	711.64
623.59	708.27
623.93	704.95
624.28	701.61
624.62	699.41
624.97	696.63
625.32	693.46
625.66	690.23
626.01	686.52
626.35	683.58
626.70	680.56
627.04	677.59
627.39	674.29
627.73	671.42
628.08	668.54
628.43	665.61
628.77	661.96
629.12	658.87
629.46	656.26
629.81	653.81
630.15	650.85
630.50	647.76
630.84	644.95
631.19	641.96
631.53	639.20
631.88	635.17
632.22	631.44
632.57	629.09
632.91	626.25
633.26	623.57
633.60	620.25
633.95	617.07
634.29	613.76
634.64	611.13
634.98	607.80
635.32	605.25
635.67	602.65
636.01	600.04
636.36	597.21
636.70	594.42
637.05	591.33
637.39	588.58
637.73	585.87
638.08	583.10
638.42	580.17
638.77	577.17
639.11	574.19
639.45	571.29
639.80	567.79
640.14	565.22
640.49	562.19
640.83	559.52
641.17	557.13
641.52	554.73
641.86	551.92
642.20	550.01
642.55	547.06
642.89	544.35
643.23	541.78
643.58	539.52
643.92	536.59
644.26	534.06
644.61	531.61
644.95	529.17
645.29	526.39
645.64	524.00
645.98	521.62
646.32	519.50
646.66	517.20
647.01	514.92
647.35	512.55
647.69	510.42
648.04	508.22
648.38	506.02
648.72	503.60
649.06	501.09
649.41	498.42
649.75	496.00
650.09	493.52
650.43	491.05
650.78	488.32
651.12	485.99
651.46	483.62
651.80	481.30
652.14	478.99
652.49	477.31
652.83	475.01
653.17	472.82
653.51	470.47
653.85	468.40
654.20	466.31
654.54	464.05
654.88	461.71
655.22	460.02
655.56	457.82
655.90	455.92
656.25	454.00
656.59	451.85
656.93	449.92
657.27	448.29
657.61	446.10
657.95	444.32
658.29	442.48
658.64	440.56
658.98	438.36
659.32	436.14
659.66	434.00
660.00	432.18
660.34	430.11
660.68	428.24
661.02	426.27
661.36	424.43
661.70	422.45
662.05	420.59
662.39	418.55
662.73	416.98
663.07	415.65
663.41	414.19
663.75	412.38
664.09	410.69
664.43	408.73
664.77	407.24
665.11	405.37
665.45	403.79
665.79	402.22
666.13	400.71
666.47	399.15
666.81	397.45
667.15	395.70
667.49	394.58
667.83	393.40
668.17	392.07
668.51	390.47
668.85	389.25
669.19	388.28
669.53	386.60
669.87	385.03
670.21	383.18
670.55	381.52
670.89	380.62
671.23	379.15
671.57	377.70
671.91	376.30
672.25	375.01
672.58	373.93
672.92	372.25
673.26	370.98
673.60	369.71
673.94	368.45
674.28	367.36
674.62	366.07
674.96	364.57
675.30	363.18
675.64	362.00
675.97	360.56
676.31	358.97
676.65	357.60
676.99	356.60
677.33	355.24
677.67	354.15
678.01	352.52
678.34	351.43
678.68	350.58
679.02	349.26
679.36	348.13
679.70	346.73
680.04	345.75
680.37	344.69
680.71	343.57
681.05	342.64
681.39	341.54
681.73	340.33
682.06	339.27
682.40	338.15
682.74	337.16
683.08	336.50
683.42	335.42
683.75	334.60
684.09	333.42
684.43	332.59
684.77	331.57
685.10	330.66
685.44	329.61
685.78	328.50
686.12	327.72
686.45	326.80
686.79	325.77
687.13	324.97
687.46	323.96
687.80	323.31
688.14	322.11
688.48	321.14
688.81	320.13
689.15	319.49
689.49	318.61
689.82	317.89
690.16	316.54
690.50	315.75
690.83	314.75
691.17	313.72
691.51	312.73
691.84	311.92
692.18	310.91
692.52	309.96
692.85	309.07
693.19	308.61
693.52	307.88
693.86	306.90
694.20	306.07
694.53	305.30
694.87	304.32
695.21	303.55
695.54	302.76
695.88	302.03
696.21	300.91
696.55	300.18
696.88	299.27
697.22	298.48
697.56	297.84
697.89	297.14
698.23	296.45
698.56	295.74
698.90	295.11
699.23	294.35
699.57	293.72
699.90	292.99
700.24	291.91
700.58	291.24
700.91	290.79
701.25	290.77
701.58	290.81
701.92	290.33
702.25	289.85
702.59	289.14
702.92	288.58
703.26	288.08
703.59	287.55
703.93	287.60
704.26	287.23
704.60	286.64
704.93	286.02
705.26	285.41
705.60	284.96
705.93	284.14
706.27	284.09
706.60	283.77
706.94	283.61
707.27	283.04
707.61	282.55
707.94	282.11
708.27	280.91
708.61	279.69
708.94	279.11
709.28	278.57
709.61	278.01
709.94	277.46
710.28	277.04
710.61	276.40
710.95	275.11
711.28	275.15
711.61	274.54
711.95	274.38
712.28	273.78
712.61	273.27
712.95	273.38
713.28	273.27
713.61	272.55
713.95	271.74
714.28	271.36
714.61	270.87
714.95	270.29
715.28	269.69
715.61	269.14
715.95	268.70
716.28	268.16
716.61	267.98
716.95	267.50
717.28	266.90
717.61	266.56
717.94	266.25
718.28	265.22
718.61	264.87
718.94	264.27
719.27	264.00
719.61	263.73
719.94	263.08
720.27	262.19
720.60	261.86
720.94	261.54
721.27	261.21
721.60	260.95
721.93	260.65
722.27	260.72
722.60	260.69
722.93	260.37
723.26	260.11
723.59	259.61
723.93	259.39
724.26	259.24
724.59	258.86
724.92	258.63
725.25	258.62
725.59	258.36
725.92	258.16
726.25	257.74
726.58	257.41
726.91	257.06
727.24	256.86
727.57	256.57
727.91	256.14
728.24	255.99
728.57	255.64
728.90	255.50
729.23	254.88
729.56	254.94
729.89	254.63
730.22	254.43
730.55	254.23
730.89	253.95
731.22	253.60
731.55	253.37
731.88	253.17
732.21	252.69
732.54	252.20
732.87	252.03
733.20	251.92
733.53	251.73
733.86	251.56
734.19	251.20
734.52	251.15
734.85	251.64
735.18	251.33
735.51	251.30
735.84	251.21
736.17	251.37
736.50	250.72
736.83	251.56
737.16	251.34
737.49	251.11
737.82	250.85
738.15	250.80
738.48	250.60
738.81	250.23
739.14	249.94
739.47	249.84
739.80	249.54
740.13	249.43
740.46	249.10
740.79	248.79
741.12	248.59
741.45	248.26
741.78	247.48
742.11	247.48
742.44	247.07
742.77	246.90
743.10	246.49
743.43	246.14
743.75	245.03
744.08	246.07
744.41	245.85
744.74	245.60
745.07	245.23
745.40	245.19
745.73	245.52
746.06	245.51
746.39	245.42
746.71	245.11
747.04	244.83
747.37	244.65
747.70	244.69
748.03	244.59
748.36	244.67
748.68	244.41
749.01	244.02
749.34	243.88
749.67	243.75
750.00	243.69
750.33	244.31
750.65	244.28
750.98	242.90
751.31	242.82
751.64	242.84
751.97	243.35
752.29	243.22
752.62	242.59
752.95	242.25
753.28	242.01
753.60	241.88
753.93	241.97
754.26	241.98
754.59	241.62
754.91	241.39
755.24	241.09
755.57	241.13
755.90	240.95
756.22	240.72
756.55	240.37
756.88	240.11
757.20	239.33
757.53	238.89
757.86	238.76
758.19	238.69
758.51	238.50
758.84	237.72
759.17	237.50
759.49	237.51
759.82	237.93
760.15	238.00
760.47	237.94
760.80	237.59
761.13	237.53
761.45	237.49
761.78	237.42
762.11	237.35
762.43	237.04
762.76	236.96
763.08	237.18
763.41	237.10
763.74	237.10
764.06	237.00
764.39	236.96
764.71	236.87
765.04	236.64
765.37	236.46
765.69	236.43
766.02	236.23
766.34	236.04
766.67	235.57
767.00	235.56
767.32	235.99
767.65	236.50
767.97	236.43
768.30	236.24
768.62	236.17
768.95	236.04
769.27	236.07
769.60	236.17
769.92	235.82
770.25	235.69
770.57	235.30
770.90	235.25
771.22	235.26
771.55	235.19
771.87	235.23
772.20	235.24
772.52	235.94
772.85	237.17
773.17	237.10
773.50	236.97
773.82	236.76
774.15	236.31
774.47	235.66
774.80	235.50
775.12	235.47
775.45	235.35
775.77	235.31
776.09	235.29
776.42	235.15
776.74	235.38
777.07	235.20
777.39	235.30
777.72	235.17
778.04	235.19
778.36	235.13
778.69	235.04
779.01	234.99
779.33	234.12
779.66	232.87
779.98	232.86
780.31	232.91
780.63	233.35
780.95	233.37
781.28	233.33
781.60	233.24
781.92	233.29
782.25	233.20
782.57	233.13
782.89	233.03
783.22	233.02
783.54	232.78
783.86	232.87
784.19	232.76
784.51	233.08
784.83	232.80
785.16	232.72
785.48	232.60
785.80	232.57
786.12	232.67
786.45	232.69
786.77	232.78
787.09	232.60
787.42	232.14
787.74	232.17
788.06	232.24
788.38	232.12
788.71	232.01
789.03	232.11
789.35	232.22
789.67	232.13
789.99	232.14
790.32	232.08
790.64	232.23
790.96	232.97
791.28	232.64
791.61	232.56
791.93	232.61
792.25	232.67
792.57	233.38
792.89	233.18
793.21	233.23
793.54	233.05
793.86	232.99
794.18	233.04
794.50	232.85
794.82	232.80
795.14	232.96
795.47	233.07
795.79	232.98
796.11	232.83
796.43	232.80
796.75	232.70
797.07	232.66
797.39	232.59
797.71	231.96
798.04	231.88
798.36	232.05
798.68	231.95
799.00	232.07
799.32	231.51
799.64	231.61
799.96	231.56
800.28	231.70
800.60	231.55
800.92	231.63
801.24	231.50
801.56	231.54
801.89	231.45
802.21	231.37
802.53	231.21
802.85	231.38
803.17	231.79
803.49	231.60
803.81	231.62
804.13	231.46
804.45	231.36
804.77	231.42
805.09	231.32
805.41	231.17
805.73	230.95
806.05	230.79
806.37	230.75
806.69	230.64
807.01	230.55
807.33	230.75
807.65	230.42
807.97	230.90
808.28	230.80
808.60	230.74
808.92	230.71
809.24	231.33
809.56	231.14
809.88	230.79
810.20	230.85
810.52	231.00
810.84	230.84
811.16	230.78
811.48	230.70
811.80	231.05
812.12	231.11
812.43	231.23
812.75	231.24
813.07	231.09
813.39	231.11
813.71	230.96
814.03	230.83
814.35	230.73
814.67	230.31
814.98	230.14
815.30	230.07
815.62	229.91
815.94	229.36
816.26	229.71
816.58	229.52
816.89	229.73
817.21	229.46
817.53	229.59
817.85	229.57
818.17	229.52
818.48	229.12
818.80	229.25
819.12	229.14
819.44	228.95
819.76	228.85
820.07	228.79
820.39	228.87
820.71	228.99
821.03	229.02
821.34	228.91
821.66	229.16
821.98	229.29
822.30	229.25
822.61	229.71
822.93	229.23
823.25	229.31
823.57	229.02
823.88	229.20
824.20	229.20
824.52	229.33
824.83	229.36
825.15	229.26
825.47	229.27
825.79	229.36
826.10	229.29
826.42	229.30
826.74	229.30
827.05	229.24
827.37	229.29
827.69	229.21
828.00	229.34
828.32	229.24
828.64	229.04
828.95	229.51
829.27	229.33
829.58	229.29
829.90	229.38
830.22	229.45
830.53	229.21
830.85	229.14
831.17	228.93
831.48	228.81
831.80	228.83
832.11	228.69
832.43	228.50
832.75	228.52
833.06	229.17
833.38	229.00
833.69	228.90
834.01	228.79
834.32	228.80
834.64	228.72
834.96	228.72
835.27	228.76
835.59	228.40
835.90	228.17
836.22	228.18
836.53	227.97
836.85	227.85
837.16	228.80
837.48	228.77
837.79	229.04
838.11	229.19
838.42	229.23
838.74	229.35
839.05	229.22
839.37	229.23
839.68	228.45
840.00	228.48
840.31	228.69
840.63	228.58
840.94	228.54
841.26	228.44
841.57	228.40
841.88	228.53
842.20	228.41
842.51	228.14
842.83	228.10
843.14	228.97
843.46	228.96
843.77	228.40
844.08	228.28
844.40	227.96
844.71	227.67
845.03	227.54
845.34	227.33
845.65	227.31
845.97	227.29
846.28	227.51
846.60	227.51
846.91	227.26
847.22	227.20
847.54	227.34
847.85	227.32
848.16	227.23
848.48	227.02
848.79	227.39
849.10	227.64
849.42	227.71
849.73	226.74
850.04	226.74
850.36	226.37
850.67	226.63
850.98	226.64
851.30	226.86
851.61	226.81
851.92	226.82
852.23	227.17
852.55	227.21
852.86	227.19
853.17	227.36
853.49	227.57
853.80	227.77
854.11	227.90
854.42	228.04
854.74	227.93
855.05	228.10
855.36	227.60
855.67	227.63
855.99	227.64
856.30	228.85
856.61	228.79
856.92	228.95
857.23	228.91
857.55	228.90
857.86	228.85
858.17	229.11
858.48	229.05
858.79	228.96
859.11	229.10
859.42	229.07
859.73	228.84
860.04	228.90
860.35	228.79
860.66	228.44
860.98	228.37
861.29	228.56
861.60	228.35
861.91	228.59
862.22	228.43
862.53	228.22
862.84	227.14
863.16	227.44
863.47	227.26
863.78	227.11
864.09	227.12
864.40	227.24
864.71	227.30
865.02	227.45
865.33	227.26
865.64	227.10
865.95	227.05
866.27	227.67
866.58	227.56
866.89	227.66
867.20	227.72
867.51	227.72
867.82	227.78
868.13	228.08
868.44	227.94
868.75	228.05
869.06	228.15
869.37	228.26
869.68	227.98
869.99	228.25
870.30	228.34
870.61	228.50
870.92	228.32
871.23	228.20
871.54	228.28
871.85	228.60
872.16	228.76
872.47	228.73
872.78	228.25
873.09	228.34
873.40	228.24
873.71	228.33
874.02	228.33
874.33	228.17
874.64	228.07
874.95	228.29
875.26	228.21
875.56	228.27
875.87	228.24
876.18	228.27
876.49	229.02
876.80	228.92
877.11	228.72
877.42	228.76
877.73	228.73
878.04	228.58
878.35	228.47
878.66	228.40
878.96	228.38
879.27	228.32
879.58	228.26
879.89	228.09
880.20	228.35
880.51	228.29
880.82	228.29
881.12	228.20
881.43	227.90
881.74	227.82
882.05	227.78
882.36	227.81
882.67	227.80
882.97	226.81
883.28	226.73
883.59	226.70
883.90	226.84
884.21	227.05
884.51	227.05
884.82	226.85
885.13	226.80
885.44	226.73
885.74	226.76
886.05	226.71
886.36	226.86
886.67	226.52
886.98	226.93
887.28	226.95
887.59	226.91
887.90	227.00
888.20	226.96
888.51	227.03
888.82	226.88
889.13	227.05
889.43	227.80
889.74	227.78
890.05	227.86
890.35	227.71
890.66	227.52
890.97	227.40
891.28	227.37
891.58	227.46
891.89	227.58
892.20	227.51
892.50	227.42
892.81	227.39
893.12	227.37
893.42	227.00
893.73	227.09
894.04	227.11
894.34	227.19
894.65	227.17
894.95	227.11
895.26	227.13
895.57	227.52
895.87	226.71
896.18	226.89
896.48	226.94
896.79	226.92
897.10	227.04
897.40	227.17
897.71	227.30
898.01	227.20
898.32	227.26
898.63	227.18
898.93	227.30
899.24	227.30
899.54	227.35
899.85	227.28
900.15	227.29
900.46	227.40
900.76	227.55
901.07	227.52
901.38	227.55
901.68	227.64
901.99	227.19
902.29	227.27
902.60	227.20
902.90	227.06
903.21	227.09
903.51	227.10
903.82	227.21
904.12	227.22
904.43	227.36
904.73	227.32
905.03	227.60
905.34	228.48
905.64	228.50
905.95	228.45
906.25	228.54
906.56	228.55
906.86	228.44
907.17	228.30
907.47	228.45
907.77	228.43
908.08	228.30
908.38	228.31
908.69	228.43
908.99	228.60
909.30	228.74
909.60	228.77
909.90	228.80
910.21	228.60
910.51	228.47
910.81	228.35
911.12	228.45
911.42	228.33
911.73	227.30
912.03	227.33
912.33	227.52
912.64	227.54
912.94	227.40
913.24	227.30
913.55	227.28
913.85	227.12
914.15	227.21
914.46	227.38
914.76	227.30
915.06	227.19
915.37	227.05
915.67	226.97
915.97	226.95
916.27	226.67
916.58	226.79
916.88	226.72
917.18	226.76
917.49	227.32
917.79	227.35
918.09	227.56
918.39	227.78
918.70	227.74
919.00	227.61
919.30	228.10
919.60	228.08
919.91	227.94
920.21	228.08
920.51	227.87
920.81	227.90
921.12	227.99
921.42	227.96
921.72	227.98
922.02	228.02
922.32	228.12
922.63	228.11
922.93	228.55
923.23	228.61
923.53	228.53
923.83	227.94
924.13	227.91
924.44	227.82
924.74	227.95
925.04	228.12
925.34	228.11
925.64	227.69
925.94	227.73
926.24	228.31
926.55	228.19
926.85	228.34
927.15	228.22
927.45	228.22
927.75	228.24
928.05	228.27
928.35	228.27
928.65	228.45
928.95	228.63
929.26	228.27
929.56	228.54
929.86	228.58
930.16	228.47
930.46	228.46
930.76	228.53
931.06	228.14
931.36	227.94
931.66	228.14
931.96	228.17
932.26	228.27
932.56	227.86
932.86	227.94
933.16	227.95
933.46	227.84
933.76	227.72
934.06	227.99
934.36	228.32
934.66	228.18
934.96	228.01
935.26	228.00
935.56	228.09
935.86	227.80
936.16	227.70
936.46	227.73
936.76	227.56
937.06	227.34
937.36	227.33
937.66	227.36
937.96	227.34
938.26	227.18
938.56	227.02
938.86	227.06
939.16	227.31
939.46	227.42
939.76	227.48
940.06	227.63
940.35	227.36
940.65	226.91
940.95	227.04
941.25	226.92
941.55	226.91
941.85	226.87
942.15	227.18
942.45	227.50
942.75	227.45
943.04	227.58
943.34	227.90
943.64	227.86
943.94	227.71
944.24	227.67
944.54	227.70
944.84	227.83
945.13	227.70
945.43	227.45
945.73	227.41
946.03	227.42
946.33	227.27
946.62	227.19
946.92	227.23
947.22	227.33
947.52	227.43
947.82	227.55
948.11	227.40
948.41	227.15
948.71	226.81
949.01	226.96
949.31	226.90
949.60	226.84
949.90	227.00
950.20	227.00
950.50	227.05
950.79	227.05
951.09	227.06
951.39	227.10
951.69	227.04
951.98	227.26
952.28	227.24
952.58	227.12
952.87	227.22
953.17	227.28
953.47	227.20
953.76	227.11
954.06	226.89
954.36	226.82
954.66	226.75
954.95	227.12
955.25	227.16
955.55	227.21
955.84	226.98
956.14	227.07
956.44	227.15
956.73	227.00
957.03	227.10
957.32	227.05
957.62	226.97
957.92	227.15
958.21	226.98
958.51	228.04
958.81	228.24
959.10	228.38
959.40	228.58
959.69	228.62
959.99	228.70
960.29	228.67
960.58	228.62
960.88	229.03
961.17	228.79
961.47	228.78
961.76	228.66
962.06	228.91
962.36	228.66
962.65	228.69
962.95	228.76
963.24	228.64
963.54	228.79
963.83	228.86
964.13	228.83
964.42	228.56
964.72	227.78
965.01	227.78
965.31	227.56
965.60	227.35
965.90	228.01
966.19	227.87
966.49	227.91
966.78	227.97
967.08	227.85
967.37	227.98
967.67	227.82
967.96	228.03
968.26	227.93
968.55	228.13
968.85	228.09
969.14	227.95
969.43	227.91
969.73	227.80
970.02	227.82
970.32	227.74
970.61	227.76
970.91	227.53
971.20	227.32
971.49	227.27
971.79	227.37
972.08	226.59
972.38	226.62
972.67	226.64
972.96	226.72
973.26	226.59
973.55	226.82
973.85	226.75
974.14	226.64
974.43	226.68
974.73	226.55
975.02	226.47
975.31	226.54
975.61	226.51
975.90	226.44
976.19	226.40
976.49	226.43
976.78	226.62
977.07	226.69
977.37	226.86
977.66	227.02
977.95	226.86
978.24	227.01
978.54	227.24
978.83	227.25
979.12	227.16
979.42	227.10
979.71	226.88
980.00	226.82
980.29	226.90
980.59	226.76
980.88	226.98
981.17	227.03
981.46	227.10
981.76	227.29
982.05	227.60
982.34	227.56
982.63	227.67
982.93	227.55
983.22	227.83
983.51	227.83
983.80	228.00
984.09	228.10
984.39	227.98
984.68	227.80
984.97	227.80
985.26	227.73
985.55	227.92
985.85	227.78
986.14	228.03
986.43	228.06
986.72	228.09
987.01	227.77
987.30	227.74
987.59	227.60
987.89	227.48
988.18	227.15
988.47	227.11
988.76	226.88
989.05	226.88
989.34	226.57
989.63	226.77
989.92	226.52
990.22	226.48
990.51	226.39
990.80	226.33
991.09	226.42
991.38	226.59
991.67	226.44
991.96	226.38
992.25	226.34
992.54	226.18
992.83	226.16
993.12	226.12
993.41	226.16
993.70	226.60
993.99	226.78
994.28	226.91
994.58	226.95
994.87	226.90
995.16	226.81
995.45	226.80
995.74	226.41
996.03	226.52
996.32	226.65
996.61	226.86
996.90	226.74
997.19	226.69
997.48	226.69
997.77	226.51
998.06	226.50
998.34	226.40
998.63	226.46
998.92	226.40
999.21	226.62
999.50	226.60
999.79	226.26
1000.08	226.27
1000.37	226.22
1000.66	226.19
1000.95	226.39
1001.24	226.51
1001.53	226.68
1001.82	226.64
1002.11	226.41
1002.40	226.41
1002.68	226.68
1002.97	227.56
1003.26	227.39
1003.55	227.17
1003.84	227.26
1004.13	227.60
1004.42	227.52
1004.71	227.40
1004.99	227.44
1005.28	227.60
1005.57	227.59
1005.86	227.53
1006.15	227.33
1006.44	227.20
1006.72	227.28
1007.01	227.20
1007.30	227.17
1007.59	226.99
1007.88	226.96
1008.17	227.06
1008.45	226.88
1008.74	226.49
1009.03	225.96
1009.32	226.03
1009.60	226.02
1009.89	225.96
1010.18	225.56
1010.47	225.60
1010.76	225.76
1011.04	225.73
1011.33	225.76
1011.62	225.84
1011.91	225.89
1012.19	226.00
1012.48	226.08
1012.77	226.10
1013.05	226.49
1013.34	226.43
1013.63	226.38
1013.92	226.55
1014.20	226.55
1014.49	226.62
1014.78	226.67
1015.06	226.44
1015.35	226.31
1015.64	226.51
1015.92	226.74
1016.21	226.90
1016.50	226.90
1016.78	226.97
1017.07	226.96
1017.36	226.65
1017.64	226.54
1017.93	226.71
1018.22	226.61
1018.50	226.60
1018.79	226.55
1019.08	226.10
1019.36	226.31
1019.65	226.28
1019.93	226.54
1020.22	226.63
1020.51	227.10
1020.79	227.00
1021.08	225.20
1021.36	225.30
1021.65	225.90
1021.94	225.50
1022.22	229.50
1022.51	224.40
1022.79	231.30
1023.08	227.60
1023.36	237.30
1023.65	224.20
>>>>>End Processed Spectral Data<<<<<
