SpectraSuite Data File
++++++++++++++++++++++++++++++++++++
Date: Wed Sep 04 17:33:35 EDT 2013
User: lab3
Dark Spectrum Present: Yes
Reference Spectrum Present: No
Number of Sampled Component Spectra: 1
Spectrometers: USB2E7196
Integration Time (usec): 337000 (USB2E7196)
Spectra Averaged: 10 (USB2E7196)
Boxcar Smoothing: 10 (USB2E7196)
Correct for Electrical Dark: No (USB2E7196)
Strobe/Lamp Enabled: No (USB2E7196)
Correct for Detector Non-linearity: No (USB2E7196)
Correct for Stray Light: No (USB2E7196)
Number of Pixels in Processed Spectrum: 2048
>>>>>Begin Processed Spectral Data<<<<<
339.09	0.00
339.48	212.60
339.86	214.80
340.24	215.10
340.63	216.30
341.01	232.80
341.39	219.50
341.78	222.40
342.16	224.70
342.54	221.80
342.93	213.04
343.31	223.69
343.69	224.21
344.07	224.67
344.46	225.36
344.84	225.80
345.22	225.51
345.60	225.90
345.99	226.14
346.37	226.18
346.75	226.38
347.13	226.59
347.52	226.60
347.90	226.90
348.28	226.88
348.66	227.04
349.05	226.81
349.43	226.96
349.81	227.09
350.19	227.15
350.57	227.30
350.96	227.42
351.34	227.69
351.72	227.89
352.10	227.99
352.48	227.86
352.87	227.91
353.25	227.94
353.63	227.93
354.01	227.85
354.39	228.00
354.77	227.98
355.15	228.24
355.54	228.15
355.92	227.95
356.30	228.00
356.68	228.72
357.06	228.77
357.44	228.70
357.82	228.64
358.20	229.52
358.58	229.50
358.97	229.56
359.35	229.81
359.73	230.03
360.11	230.11
360.49	230.19
360.87	230.22
361.25	230.28
361.63	230.63
362.01	230.80
362.39	230.82
362.77	231.02
363.15	230.96
363.53	231.12
363.91	231.15
364.29	231.29
364.67	230.42
365.05	230.52
365.43	230.59
365.81	230.81
366.19	230.42
366.57	230.81
366.95	230.77
367.33	230.46
367.71	230.47
368.09	230.65
368.47	230.68
368.85	230.70
369.23	230.94
369.61	230.64
369.99	230.98
370.37	231.10
370.75	231.48
371.13	231.31
371.51	231.20
371.89	231.32
372.27	231.15
372.65	231.19
373.03	231.16
373.41	231.06
373.78	230.93
374.16	230.48
374.54	230.11
374.92	230.10
375.30	230.04
375.68	229.81
376.06	229.79
376.44	229.55
376.82	229.53
377.19	229.43
377.57	229.24
377.95	228.83
378.33	228.59
378.71	228.04
379.09	228.06
379.47	228.11
379.84	227.88
380.22	227.88
380.60	227.57
380.98	227.40
381.36	227.34
381.73	227.17
382.11	227.26
382.49	227.29
382.87	227.06
383.25	227.06
383.62	228.08
384.00	227.77
384.38	227.76
384.76	227.97
385.13	228.25
385.51	228.27
385.89	228.13
386.27	228.14
386.64	228.18
387.02	227.97
387.40	227.79
387.78	227.82
388.15	227.81
388.53	227.85
388.91	227.92
389.29	227.80
389.66	227.96
390.04	227.74
390.42	227.88
390.79	227.92
391.17	227.86
391.55	226.79
391.92	226.84
392.30	227.07
392.68	226.78
393.05	226.77
393.43	226.87
393.81	226.92
394.18	226.85
394.56	226.88
394.94	227.30
395.31	227.25
395.69	227.60
396.06	227.79
396.44	228.02
396.82	227.98
397.19	228.67
397.57	228.66
397.95	229.04
398.32	228.79
398.70	228.99
399.07	229.39
399.45	229.44
399.82	229.55
400.20	229.43
400.58	229.51
400.95	229.15
401.33	229.39
401.70	230.15
402.08	230.41
402.45	230.60
402.83	230.83
403.20	231.11
403.58	231.13
403.95	231.50
404.33	231.70
404.71	231.98
405.08	232.67
405.46	232.89
405.83	233.11
406.21	233.62
406.58	233.99
406.96	234.16
407.33	234.68
407.70	235.20
408.08	236.44
408.45	237.16
408.83	237.89
409.20	238.30
409.58	238.39
409.95	239.13
410.33	239.80
410.70	240.25
411.08	241.05
411.45	241.76
411.82	242.29
412.20	243.42
412.57	244.93
412.95	244.91
413.32	246.19
413.69	247.19
414.07	248.32
414.44	249.60
414.82	251.00
415.19	252.48
415.56	254.08
415.94	255.22
416.31	257.04
416.68	258.78
417.06	260.86
417.43	263.11
417.81	265.43
418.18	267.90
418.55	270.48
418.93	273.20
419.30	276.11
419.67	279.25
420.04	282.12
420.42	284.97
420.79	289.52
421.16	293.14
421.54	297.41
421.91	301.31
422.28	305.40
422.66	309.91
423.03	314.74
423.40	319.14
423.77	323.90
424.15	328.73
424.52	333.85
424.89	339.58
425.26	344.64
425.64	349.48
426.01	354.97
426.38	360.71
426.75	366.79
427.13	372.87
427.50	378.96
427.87	385.48
428.24	392.09
428.61	397.70
428.99	404.90
429.36	412.03
429.73	419.40
430.10	426.73
430.47	434.24
430.85	441.55
431.22	449.78
431.59	459.00
431.96	467.23
432.33	476.54
432.70	485.46
433.08	496.13
433.45	506.06
433.82	515.81
434.19	526.60
434.56	537.51
434.93	547.72
435.30	558.31
435.68	569.81
436.05	581.20
436.42	592.51
436.79	602.80
437.16	614.01
437.53	625.80
437.90	637.70
438.27	649.12
438.64	661.09
439.01	672.30
439.38	681.63
439.75	691.21
440.13	701.85
440.50	711.89
440.87	720.20
441.24	728.99
441.61	738.48
441.98	745.59
442.35	753.41
442.72	761.76
443.09	769.83
443.46	774.50
443.83	777.53
444.20	780.35
444.57	784.12
444.94	785.80
445.31	787.40
445.68	789.86
446.05	790.41
446.42	788.72
446.79	787.15
447.16	785.32
447.53	784.14
447.90	779.53
448.27	774.78
448.64	768.37
449.01	763.62
449.37	755.60
449.74	747.67
450.11	739.10
450.48	728.85
450.85	718.17
451.22	709.20
451.59	700.74
451.96	692.39
452.33	681.58
452.70	671.95
453.07	660.58
453.43	647.74
453.80	636.40
454.17	626.02
454.54	615.59
454.91	604.64
455.28	593.95
455.65	584.08
456.02	575.53
456.38	567.10
456.75	556.58
457.12	547.98
457.49	539.49
457.86	530.57
458.23	523.73
458.59	516.00
458.96	508.33
459.33	501.38
459.70	494.60
460.07	489.18
460.43	482.66
460.80	476.89
461.17	472.19
461.54	467.08
461.91	461.70
462.27	456.37
462.64	451.98
463.01	447.14
463.38	442.86
463.74	436.83
464.11	432.70
464.48	429.19
464.85	425.32
465.21	422.70
465.58	419.57
465.95	415.62
466.32	412.61
466.68	409.57
467.05	406.57
467.42	403.61
467.78	400.60
468.15	397.93
468.52	395.97
468.88	392.71
469.25	389.88
469.62	388.15
469.98	386.23
470.35	384.30
470.72	382.19
471.08	379.67
471.45	378.33
471.82	376.81
472.18	375.07
472.55	373.78
472.92	371.87
473.28	370.46
473.65	369.01
474.02	367.73
474.38	366.66
474.75	365.50
475.11	364.32
475.48	363.40
475.85	362.47
476.21	361.38
476.58	360.87
476.94	360.49
477.31	359.75
477.67	359.11
478.04	358.71
478.41	358.66
478.77	359.28
479.14	358.58
479.50	358.21
479.87	358.14
480.23	357.91
480.60	357.81
480.96	357.66
481.33	358.12
481.69	358.14
482.06	358.22
482.42	358.55
482.79	358.85
483.15	359.06
483.52	359.74
483.88	360.14
484.25	360.60
484.61	361.20
484.98	361.77
485.34	362.89
485.71	363.83
486.07	364.69
486.44	364.90
486.80	366.14
487.17	367.20
487.53	368.81
487.90	370.48
488.26	372.52
488.62	374.38
488.99	375.90
489.35	377.87
489.72	379.96
490.08	382.03
490.44	384.13
490.81	386.74
491.17	389.29
491.54	392.20
491.90	395.21
492.26	398.28
492.63	401.40
492.99	404.40
493.36	407.77
493.72	411.46
494.08	415.32
494.45	419.51
494.81	423.80
495.17	427.68
495.54	432.14
495.90	436.47
496.26	441.33
496.63	446.34
496.99	451.39
497.35	456.68
497.72	462.42
498.08	468.21
498.44	474.30
498.80	480.48
499.17	486.60
499.53	493.09
499.89	500.06
500.26	507.18
500.62	514.53
500.98	522.24
501.34	529.94
501.71	538.01
502.07	545.97
502.43	554.50
502.79	563.12
503.16	572.01
503.52	581.32
503.88	590.60
504.24	600.63
504.60	611.05
504.97	621.59
505.33	632.13
505.69	643.62
506.05	654.87
506.41	666.43
506.78	678.50
507.14	690.51
507.50	702.92
507.86	715.82
508.22	728.95
508.59	741.92
508.95	755.74
509.31	769.90
509.67	784.27
510.03	798.18
510.39	812.90
510.75	827.97
511.12	843.06
511.48	858.58
511.84	874.09
512.20	889.76
512.56	905.82
512.92	922.25
513.28	938.78
513.64	955.49
514.00	972.33
514.37	989.77
514.73	1008.06
515.09	1025.99
515.45	1044.12
515.81	1062.33
516.17	1080.81
516.53	1099.05
516.89	1117.26
517.25	1136.41
517.61	1157.02
517.97	1176.95
518.33	1196.94
518.69	1216.80
519.05	1237.22
519.41	1257.39
519.77	1278.29
520.13	1298.95
520.49	1319.38
520.85	1342.64
521.21	1363.94
521.57	1385.28
521.93	1405.54
522.29	1426.31
522.65	1446.57
523.01	1467.11
523.37	1487.13
523.73	1508.12
524.09	1528.80
524.45	1549.23
524.81	1569.84
525.17	1589.80
525.53	1610.39
525.89	1630.82
526.25	1651.40
526.61	1671.41
526.97	1692.29
527.33	1713.18
527.68	1735.03
528.04	1756.52
528.40	1774.60
528.76	1795.31
529.12	1815.76
529.48	1837.02
529.84	1857.03
530.20	1878.37
530.56	1899.33
530.91	1920.73
531.27	1940.89
531.63	1961.50
531.99	1982.65
532.35	2002.26
532.71	2022.75
533.07	2043.41
533.42	2063.68
533.78	2083.90
534.14	2104.25
534.50	2123.80
534.86	2143.37
535.21	2161.16
535.57	2179.84
535.93	2198.09
536.29	2216.41
536.65	2235.27
537.00	2253.35
537.36	2270.77
537.72	2287.20
538.08	2304.40
538.44	2320.96
538.79	2338.37
539.15	2355.41
539.51	2371.62
539.87	2387.74
540.22	2402.13
540.58	2417.49
540.94	2431.30
541.29	2444.86
541.65	2457.98
542.01	2471.33
542.37	2482.85
542.72	2494.68
543.08	2505.70
543.44	2518.10
543.79	2528.63
544.15	2538.86
544.51	2549.27
544.87	2560.30
545.22	2570.23
545.58	2579.21
545.94	2587.72
546.29	2594.88
546.65	2601.90
547.01	2608.85
547.36	2615.79
547.72	2622.96
548.07	2628.40
548.43	2634.75
548.79	2640.27
549.14	2645.38
549.50	2650.65
549.86	2655.36
550.21	2660.08
550.57	2665.12
550.92	2667.86
551.28	2670.65
551.64	2674.30
551.99	2677.66
552.35	2680.96
552.70	2684.66
553.06	2688.09
553.41	2691.19
553.77	2695.19
554.13	2697.82
554.48	2700.99
554.84	2703.66
555.19	2706.53
555.55	2709.95
555.90	2711.30
556.26	2712.83
556.61	2713.32
556.97	2712.41
557.32	2713.82
557.68	2714.88
558.03	2715.40
558.39	2716.09
558.74	2717.23
559.10	2716.40
559.45	2714.95
559.81	2712.29
560.16	2709.39
560.52	2706.34
560.87	2704.17
561.23	2700.83
561.58	2698.58
561.94	2693.85
562.29	2689.00
562.64	2683.99
563.00	2677.50
563.35	2672.98
563.71	2668.29
564.06	2664.59
564.42	2660.82
564.77	2656.37
565.12	2651.24
565.48	2646.67
565.83	2641.72
566.19	2636.44
566.54	2631.62
566.89	2626.69
567.25	2621.95
567.60	2617.60
567.96	2613.76
568.31	2608.59
568.66	2603.12
569.02	2595.90
569.37	2590.30
569.72	2585.81
570.08	2579.56
570.43	2573.12
570.78	2566.85
571.14	2560.73
571.49	2553.26
571.84	2546.74
572.20	2538.90
572.55	2531.71
572.90	2522.88
573.26	2515.09
573.61	2506.71
573.96	2497.78
574.31	2488.12
574.67	2478.92
575.02	2468.76
575.37	2457.37
575.72	2446.28
576.08	2436.40
576.43	2426.24
576.78	2415.84
577.13	2404.07
577.49	2393.50
577.84	2384.01
578.19	2374.29
578.54	2363.52
578.90	2354.00
579.25	2343.61
579.60	2333.03
579.95	2322.14
580.30	2311.62
580.66	2299.80
581.01	2288.23
581.36	2276.29
581.71	2265.61
582.06	2254.90
582.42	2244.30
582.77	2234.05
583.12	2224.52
583.47	2213.70
583.82	2204.22
584.17	2193.84
584.53	2184.47
584.88	2173.72
585.23	2161.97
585.58	2149.48
585.93	2138.33
586.28	2126.90
586.63	2114.41
586.98	2101.84
587.34	2090.05
587.69	2078.70
588.04	2068.60
588.39	2058.28
588.74	2047.43
589.09	2037.03
589.44	2025.24
589.79	2014.38
590.14	2003.40
590.49	1992.39
590.84	1981.69
591.19	1970.73
591.54	1959.70
591.89	1948.25
592.25	1939.40
592.60	1929.52
592.95	1919.70
593.30	1909.03
593.65	1897.47
594.00	1886.98
594.35	1880.00
594.70	1869.21
595.05	1858.45
595.40	1846.74
595.75	1835.56
596.10	1825.21
596.45	1814.60
596.80	1804.71
597.15	1794.28
597.50	1784.04
597.85	1773.59
598.19	1762.83
598.54	1751.69
598.89	1741.18
599.24	1731.55
599.59	1720.07
599.94	1709.32
600.29	1699.33
600.64	1689.07
600.99	1679.03
601.34	1669.71
601.69	1657.39
602.04	1647.90
602.39	1638.16
602.74	1629.55
603.08	1620.44
603.43	1611.57
603.78	1601.92
604.13	1592.33
604.48	1582.46
604.83	1572.24
605.18	1562.17
605.53	1552.33
605.87	1543.15
606.22	1534.58
606.57	1524.37
606.92	1514.92
607.27	1505.79
607.62	1496.51
607.96	1487.87
608.31	1479.69
608.66	1471.02
609.01	1461.83
609.36	1453.07
609.70	1444.14
610.05	1434.69
610.40	1425.75
610.75	1416.24
611.10	1407.11
611.44	1397.61
611.79	1388.95
612.14	1380.25
612.49	1371.74
612.83	1363.50
613.18	1354.90
613.53	1346.11
613.88	1337.63
614.22	1328.77
614.57	1319.78
614.92	1310.80
615.27	1302.14
615.61	1293.11
615.96	1284.16
616.31	1275.82
616.65	1267.77
617.00	1259.45
617.35	1250.67
617.70	1242.02
618.04	1234.26
618.39	1226.05
618.74	1218.80
619.08	1210.76
619.43	1202.81
619.78	1194.23
620.12	1185.77
620.47	1177.26
620.82	1168.58
621.16	1160.51
621.51	1153.04
621.85	1145.67
622.20	1137.71
622.55	1129.57
622.89	1121.98
623.24	1114.57
623.59	1106.70
623.93	1098.80
624.28	1091.20
624.62	1085.25
624.97	1078.47
625.32	1070.94
625.66	1063.80
626.01	1056.00
626.35	1048.95
626.70	1041.87
627.04	1035.56
627.39	1028.33
627.73	1022.08
628.08	1016.02
628.43	1009.24
628.77	1002.10
629.12	995.32
629.46	989.36
629.81	983.54
630.15	977.44
630.50	970.93
630.84	964.98
631.19	958.73
631.53	953.08
631.88	946.02
632.22	939.34
632.57	933.57
632.91	927.33
633.26	921.67
633.60	915.56
633.95	909.38
634.29	902.72
634.64	896.95
634.98	890.62
635.32	884.62
635.67	879.43
636.01	874.20
636.36	868.40
636.70	862.81
637.05	856.81
637.39	851.05
637.73	845.59
638.08	840.05
638.42	833.94
638.77	827.68
639.11	821.49
639.45	815.48
639.80	809.38
640.14	803.80
640.49	798.23
640.83	792.77
641.17	787.48
641.52	782.33
641.86	777.24
642.20	772.66
642.55	767.47
642.89	762.03
643.23	756.72
643.58	752.19
643.92	746.90
644.26	741.96
644.61	737.24
644.95	732.20
645.29	726.96
645.64	722.50
645.98	717.92
646.32	713.57
646.66	709.17
647.01	704.70
647.35	700.55
647.69	696.21
648.04	692.00
648.38	688.10
648.72	683.77
649.06	679.27
649.41	674.50
649.75	670.02
650.09	665.74
650.43	661.43
650.78	656.73
651.12	652.49
651.46	648.48
651.80	644.33
652.14	640.19
652.49	636.64
652.83	632.78
653.17	628.81
653.51	624.78
653.85	621.05
654.20	617.15
654.54	613.11
654.88	609.10
655.22	605.65
655.56	601.61
655.90	597.97
656.25	594.38
656.59	590.85
656.93	587.42
657.27	584.32
657.61	580.18
657.95	576.88
658.29	573.16
658.64	569.65
658.98	565.89
659.32	562.37
659.66	558.65
660.00	555.25
660.34	551.89
660.68	548.46
661.02	544.95
661.36	541.37
661.70	538.00
662.05	534.83
662.39	531.53
662.73	528.59
663.07	526.00
663.41	522.84
663.75	519.64
664.09	516.42
664.43	512.77
664.77	510.27
665.11	507.36
665.45	504.64
665.79	501.79
666.13	498.98
666.47	496.05
666.81	493.07
667.15	490.03
667.49	487.40
667.83	485.04
668.17	482.41
668.51	480.23
668.85	478.06
669.19	476.11
669.53	473.27
669.87	470.60
670.21	467.69
670.55	465.34
670.89	463.38
671.23	460.84
671.57	458.41
671.91	455.84
672.25	453.27
672.58	451.24
672.92	448.73
673.26	446.54
673.60	444.48
673.94	442.30
674.28	440.29
674.62	438.13
674.96	435.83
675.30	433.93
675.64	431.74
675.97	429.24
676.31	426.44
676.65	424.23
676.99	422.49
677.33	420.47
677.67	418.40
678.01	416.06
678.34	414.05
678.68	412.43
679.02	410.46
679.36	408.52
679.70	406.31
680.04	404.44
680.37	402.46
680.71	400.45
681.05	398.94
681.39	397.21
681.73	395.36
682.06	393.50
682.40	391.68
682.74	389.98
683.08	388.75
683.42	387.19
683.75	385.75
684.09	383.76
684.43	382.03
684.77	380.34
685.10	378.81
685.44	377.34
685.78	375.67
686.12	374.19
686.45	372.62
686.79	371.03
687.13	369.80
687.46	368.51
687.80	367.34
688.14	365.62
688.48	364.04
688.81	362.48
689.15	361.43
689.49	360.00
689.82	358.56
690.16	356.70
690.50	355.44
690.83	353.98
691.17	352.61
691.51	351.35
691.84	350.26
692.18	348.77
692.52	347.32
692.85	346.08
693.19	345.22
693.52	344.10
693.86	342.95
694.20	341.57
694.53	340.27
694.87	338.85
695.21	337.73
695.54	336.67
695.88	335.44
696.21	333.80
696.55	332.59
696.88	331.29
697.22	330.14
697.56	328.93
697.89	327.68
698.23	326.70
698.56	325.46
698.90	324.32
699.23	323.17
699.57	322.14
699.90	321.08
700.24	319.62
700.58	318.52
700.91	317.61
701.25	317.38
701.58	316.97
701.92	316.28
702.25	315.23
702.59	314.14
702.92	313.28
703.26	312.54
703.59	311.76
703.93	311.79
704.26	311.10
704.60	310.22
704.93	309.35
705.26	308.35
705.60	307.55
705.93	306.51
706.27	306.00
706.60	305.46
706.94	304.96
707.27	304.18
707.61	303.43
707.94	302.51
708.27	300.90
708.61	299.41
708.94	298.33
709.28	297.57
709.61	296.72
709.94	295.95
710.28	295.22
710.61	294.30
710.95	292.58
711.28	292.41
711.61	291.68
711.95	291.08
712.28	290.25
712.61	289.56
712.95	289.39
713.28	288.99
713.61	288.12
713.95	287.04
714.28	286.42
714.61	285.75
714.95	285.10
715.28	284.31
715.61	283.66
715.95	283.21
716.28	282.49
716.61	281.98
716.95	281.27
717.28	280.48
717.61	279.76
717.94	279.30
718.28	277.97
718.61	277.33
718.94	276.77
719.27	276.23
719.61	275.80
719.94	274.98
720.27	274.03
720.60	273.43
720.94	272.96
721.27	272.54
721.60	272.20
721.93	271.70
722.27	271.64
722.60	271.33
722.93	270.78
723.26	270.49
723.59	269.98
723.93	269.67
724.26	269.33
724.59	269.04
724.92	268.60
725.25	268.40
725.59	268.06
725.92	267.53
726.25	267.16
726.58	266.69
726.91	266.12
727.24	265.89
727.57	265.54
727.91	265.05
728.24	264.56
728.57	264.00
728.90	263.74
729.23	263.02
729.56	263.08
729.89	262.67
730.22	262.28
730.55	261.82
730.89	261.44
731.22	261.09
731.55	260.64
731.88	260.31
732.21	259.82
732.54	259.36
732.87	259.09
733.20	258.88
733.53	258.45
733.86	258.42
734.19	257.90
734.52	257.65
734.85	258.00
735.18	257.66
735.51	257.61
735.84	257.30
736.17	257.26
736.50	256.48
736.83	257.31
737.16	257.04
737.49	256.91
737.82	256.56
738.15	256.47
738.48	256.29
738.81	255.95
739.14	255.60
739.47	255.33
739.80	255.09
740.13	254.77
740.46	254.54
740.79	254.07
741.12	253.90
741.45	253.58
741.78	252.76
742.11	252.79
742.44	252.36
742.77	252.17
743.10	251.80
743.43	251.59
743.75	250.30
744.08	251.22
744.41	250.88
744.74	250.63
745.07	250.17
745.40	250.08
745.73	250.34
746.06	250.18
746.39	250.09
746.71	249.70
747.04	249.43
747.37	249.14
747.70	248.96
748.03	248.65
748.36	248.65
748.68	248.56
749.01	248.05
749.34	247.79
749.67	247.57
750.00	247.48
750.33	247.90
750.65	247.84
750.98	246.57
751.31	246.45
751.64	246.31
751.97	246.64
752.29	246.43
752.62	245.85
752.95	245.67
753.28	245.35
753.60	245.29
753.93	245.40
754.26	245.30
754.59	245.05
754.91	244.96
755.24	244.70
755.57	244.57
755.90	244.53
756.22	244.39
756.55	244.15
756.88	243.77
757.20	243.05
757.53	242.64
757.86	242.47
758.19	242.37
758.51	242.35
758.84	241.81
759.17	241.56
759.49	241.53
759.82	241.89
760.15	241.88
760.47	241.74
760.80	241.34
761.13	241.40
761.45	241.17
761.78	240.96
762.11	240.72
762.43	240.47
762.76	240.30
763.08	240.34
763.41	240.30
763.74	240.21
764.06	240.02
764.39	239.98
764.71	239.73
765.04	239.63
765.37	239.36
765.69	239.33
766.02	239.18
766.34	238.85
766.67	238.24
767.00	238.30
767.32	238.75
767.65	239.25
767.97	239.03
768.30	239.04
768.62	238.98
768.95	238.82
769.27	238.68
769.60	238.71
769.92	238.49
770.25	238.17
770.57	237.94
770.90	237.86
771.22	237.61
771.55	237.61
771.87	237.49
772.20	237.39
772.52	237.90
772.85	239.04
773.17	239.09
773.50	239.01
773.82	238.79
774.15	238.16
774.47	237.42
774.80	237.19
775.12	237.12
775.45	236.99
775.77	237.06
776.09	237.01
776.42	236.95
776.74	237.05
777.07	237.03
777.39	237.08
777.72	236.89
778.04	236.95
778.36	236.75
778.69	236.78
779.01	236.76
779.33	235.88
779.66	234.60
779.98	234.39
780.31	234.42
780.63	234.77
780.95	234.91
781.28	234.85
781.60	234.80
781.92	234.74
782.25	234.72
782.57	234.59
782.89	234.48
783.22	234.28
783.54	233.94
783.86	233.87
784.19	233.76
784.51	234.04
784.83	233.81
785.16	233.68
785.48	233.50
785.80	233.41
786.12	233.50
786.45	233.48
786.77	233.51
787.09	233.25
787.42	232.84
787.74	232.82
788.06	232.83
788.38	232.85
788.71	232.72
789.03	232.68
789.35	232.83
789.67	232.74
789.99	232.83
790.32	232.90
790.64	232.99
790.96	233.68
791.28	233.31
791.61	233.24
791.93	233.37
792.25	233.31
792.57	234.02
792.89	233.83
793.21	233.80
793.54	233.72
793.86	233.70
794.18	233.70
794.50	233.39
794.82	233.35
795.14	233.50
795.47	233.65
795.79	233.67
796.11	233.45
796.43	233.34
796.75	233.27
797.07	233.19
797.39	233.18
797.71	232.53
798.04	232.56
798.36	232.66
798.68	232.55
799.00	232.58
799.32	232.07
799.64	232.15
799.96	232.20
800.28	232.33
800.60	232.27
800.92	232.31
801.24	232.36
801.56	232.38
801.89	232.16
802.21	232.16
802.53	231.89
802.85	232.02
803.17	232.56
803.49	232.27
803.81	232.24
804.13	232.07
804.45	231.94
804.77	232.04
805.09	231.97
805.41	231.96
805.73	231.86
806.05	231.54
806.37	231.57
806.69	231.43
807.01	231.36
807.33	231.47
807.65	231.13
807.97	231.46
808.28	231.35
808.60	231.28
808.92	231.08
809.24	231.75
809.56	231.57
809.88	231.18
810.20	231.36
810.52	231.49
810.84	231.47
811.16	231.30
811.48	231.18
811.80	231.54
812.12	231.43
812.43	231.49
812.75	231.60
813.07	231.42
813.39	231.51
813.71	231.26
814.03	231.11
814.35	231.17
814.67	230.77
814.98	230.70
815.30	230.74
815.62	230.62
815.94	229.92
816.26	230.36
816.58	230.19
816.89	230.15
817.21	229.87
817.53	229.82
817.85	229.93
818.17	229.92
818.48	229.52
818.80	229.80
819.12	229.64
819.44	229.39
819.76	229.32
820.07	229.25
820.39	229.21
820.71	229.37
821.03	229.27
821.34	229.25
821.66	229.44
821.98	229.44
822.30	229.41
822.61	230.04
822.93	229.48
823.25	229.35
823.57	229.27
823.88	229.50
824.20	229.50
824.52	229.60
824.83	229.54
825.15	229.50
825.47	229.35
825.79	229.57
826.10	229.57
826.42	229.50
826.74	229.55
827.05	229.62
827.37	229.48
827.69	229.36
828.00	229.45
828.32	229.29
828.64	229.22
828.95	229.71
829.27	229.42
829.58	229.43
829.90	229.66
830.22	229.69
830.53	229.51
830.85	229.38
831.17	229.21
831.48	229.14
831.80	229.15
832.11	229.15
832.43	228.87
832.75	228.87
833.06	229.46
833.38	229.32
833.69	229.25
834.01	229.46
834.32	229.61
834.64	229.45
834.96	229.60
835.27	229.55
835.59	229.23
835.90	229.09
836.22	229.11
836.53	228.99
836.85	228.90
837.16	229.87
837.48	229.98
837.79	230.29
838.11	230.40
838.42	230.38
838.74	230.45
839.05	230.46
839.37	230.40
839.68	229.88
840.00	229.75
840.31	229.95
840.63	229.72
840.94	229.60
841.26	229.56
841.57	229.54
841.88	229.70
842.20	229.63
842.51	229.44
842.83	229.46
843.14	230.28
843.46	230.30
843.77	229.70
844.08	229.64
844.40	229.26
844.71	229.10
845.03	229.09
845.34	228.98
845.65	229.00
845.97	229.04
846.28	229.16
846.60	229.31
846.91	229.12
847.22	229.17
847.54	229.42
847.85	229.50
848.16	229.33
848.48	229.15
848.79	229.52
849.10	229.70
849.42	229.82
849.73	228.84
850.04	228.87
850.36	228.53
850.67	228.71
850.98	228.81
851.30	228.96
851.61	228.85
851.92	228.77
852.23	228.89
852.55	228.99
852.86	228.82
853.17	228.89
853.49	229.11
853.80	229.18
854.11	229.19
854.42	229.25
854.74	229.20
855.05	229.21
855.36	228.70
855.67	228.70
855.99	228.60
856.30	229.78
856.61	229.60
856.92	229.57
857.23	229.41
857.55	229.25
857.86	229.09
858.17	229.32
858.48	229.22
858.79	229.07
859.11	229.03
859.42	229.08
859.73	228.88
860.04	228.71
860.35	228.44
860.66	228.10
860.98	228.02
861.29	228.14
861.60	228.01
861.91	228.17
862.22	227.98
862.53	227.82
862.84	226.61
863.16	226.92
863.47	226.77
863.78	226.73
864.09	226.94
864.40	227.06
864.71	226.98
865.02	227.16
865.33	227.09
865.64	226.94
865.95	226.86
866.27	227.45
866.58	227.47
866.89	227.57
867.20	227.61
867.51	227.44
867.82	227.34
868.13	227.78
868.44	227.59
868.75	227.79
869.06	227.98
869.37	228.17
869.68	227.86
869.99	228.08
870.30	228.10
870.61	228.06
870.92	227.95
871.23	227.89
871.54	227.99
871.85	228.28
872.16	228.51
872.47	228.51
872.78	228.07
873.09	228.14
873.40	228.13
873.71	228.11
874.02	228.14
874.33	228.10
874.64	227.82
874.95	227.92
875.26	227.67
875.56	227.50
875.87	227.49
876.18	227.57
876.49	228.50
876.80	228.47
877.11	228.33
877.42	228.37
877.73	228.41
878.04	228.30
878.35	228.22
878.66	228.25
878.96	228.23
879.27	228.15
879.58	228.08
879.89	228.05
880.20	228.48
880.51	228.53
880.82	228.51
881.12	228.58
881.43	228.48
881.74	228.52
882.05	228.51
882.36	228.61
882.67	228.65
882.97	227.65
883.28	227.60
883.59	227.59
883.90	227.70
884.21	227.81
884.51	227.77
884.82	227.60
885.13	227.49
885.44	227.55
885.74	227.60
886.05	227.60
886.36	227.50
886.67	227.11
886.98	227.56
887.28	227.89
887.59	227.88
887.90	227.92
888.20	227.79
888.51	227.99
888.82	227.74
889.13	227.86
889.43	228.67
889.74	228.60
890.05	228.57
890.35	228.44
890.66	228.18
890.97	228.04
891.28	227.99
891.58	228.10
891.89	228.10
892.20	227.90
892.50	227.77
892.81	227.92
893.12	227.85
893.42	227.40
893.73	227.21
894.04	227.10
894.34	227.14
894.65	227.12
894.95	227.02
895.26	227.11
895.57	227.40
895.87	226.48
896.18	226.76
896.48	226.88
896.79	226.91
897.10	227.15
897.40	227.26
897.71	227.37
898.01	227.14
898.32	227.20
898.63	227.21
898.93	227.28
899.24	227.22
899.54	227.14
899.85	227.11
900.15	227.15
900.46	227.15
900.76	227.29
901.07	227.36
901.38	227.36
901.68	227.47
901.99	226.92
902.29	226.89
902.60	226.78
902.90	226.59
903.21	226.49
903.51	226.44
903.82	226.70
904.12	226.67
904.43	226.83
904.73	226.85
905.03	226.86
905.34	227.84
905.64	227.72
905.95	227.88
906.25	227.86
906.56	227.78
906.86	227.85
907.17	227.69
907.47	227.63
907.77	227.54
908.08	227.31
908.38	227.49
908.69	227.63
908.99	227.83
909.30	228.04
909.60	228.12
909.90	228.15
910.21	227.81
910.51	227.71
910.81	227.67
911.12	227.68
911.42	227.78
911.73	226.79
912.03	227.02
912.33	227.18
912.64	227.21
912.94	227.10
913.24	226.95
913.55	226.94
913.85	226.98
914.15	227.25
914.46	227.47
914.76	227.40
915.06	227.41
915.37	227.14
915.67	227.03
915.97	226.99
916.27	226.78
916.58	226.88
916.88	226.85
917.18	226.76
917.49	227.37
917.79	227.26
918.09	227.37
918.39	227.48
918.70	227.40
919.00	227.32
919.30	227.81
919.60	227.84
919.91	227.84
920.21	227.91
920.51	227.60
920.81	227.58
921.12	227.82
921.42	227.68
921.72	227.80
922.02	227.87
922.32	228.03
922.63	228.16
922.93	228.62
923.23	228.72
923.53	228.74
923.83	228.16
924.13	228.41
924.44	228.38
924.74	228.56
925.04	228.74
925.34	228.82
925.64	228.48
925.94	228.45
926.24	228.89
926.55	228.84
926.85	229.01
927.15	228.94
927.45	228.88
927.75	228.97
928.05	229.04
928.35	228.96
928.65	229.13
928.95	229.21
929.26	228.76
929.56	228.98
929.86	228.98
930.16	228.89
930.46	228.79
930.76	228.82
931.06	228.38
931.36	228.12
931.66	228.28
931.96	228.32
932.26	228.36
932.56	227.83
932.86	227.88
933.16	227.87
933.46	227.83
933.76	227.68
934.06	227.92
934.36	228.18
934.66	228.21
934.96	228.09
935.26	228.13
935.56	228.23
935.86	227.90
936.16	227.81
936.46	227.69
936.76	227.61
937.06	227.51
937.36	227.59
937.66	227.70
937.96	227.54
938.26	227.36
938.56	227.32
938.86	227.59
939.16	227.86
939.46	227.91
939.76	228.01
940.06	227.97
940.35	227.66
940.65	227.13
940.95	227.29
941.25	226.95
941.55	226.72
941.85	226.69
942.15	227.03
942.45	227.35
942.75	227.40
943.04	227.33
943.34	227.50
943.64	227.37
943.94	227.20
944.24	227.29
944.54	227.33
944.84	227.24
945.13	227.03
945.43	226.84
945.73	226.77
946.03	226.61
946.33	226.52
946.62	226.53
946.92	226.56
947.22	226.46
947.52	226.62
947.82	226.76
948.11	226.65
948.41	226.42
948.71	226.12
949.01	226.14
949.31	226.08
949.60	225.98
949.90	226.08
950.20	226.03
950.50	225.95
950.79	225.80
951.09	225.99
951.39	225.93
951.69	225.80
951.98	226.04
952.28	226.11
952.58	226.14
952.87	226.13
953.17	226.25
953.47	226.15
953.76	226.13
954.06	226.00
954.36	225.88
954.66	225.87
954.95	226.12
955.25	226.27
955.55	226.40
955.84	226.31
956.14	226.49
956.44	226.57
956.73	226.55
957.03	226.68
957.32	226.73
957.62	226.76
957.92	226.90
958.21	226.77
958.51	227.77
958.81	227.86
959.10	227.90
959.40	228.13
959.69	228.26
959.99	228.50
960.29	228.47
960.58	228.54
960.88	228.83
961.17	228.78
961.47	228.82
961.76	228.74
962.06	228.84
962.36	228.81
962.65	228.79
962.95	228.82
963.24	228.80
963.54	228.83
963.83	228.88
964.13	228.93
964.42	228.66
964.72	227.98
965.01	228.06
965.31	228.14
965.60	227.92
965.90	228.52
966.19	228.21
966.49	228.39
966.78	228.36
967.08	228.38
967.37	228.43
967.67	228.31
967.96	228.55
968.26	228.60
968.55	228.62
968.85	228.72
969.14	228.72
969.43	228.71
969.73	228.60
970.02	228.68
970.32	228.57
970.61	228.63
970.91	228.41
971.20	228.28
971.49	228.15
971.79	228.24
972.08	227.43
972.38	227.54
972.67	227.49
972.96	227.75
973.26	227.47
973.55	227.82
973.85	227.73
974.14	227.56
974.43	227.62
974.73	227.43
975.02	227.27
975.31	227.29
975.61	227.24
975.90	227.17
976.19	227.09
976.49	227.15
976.78	227.19
977.07	227.11
977.37	227.14
977.66	227.20
977.95	227.09
978.24	227.26
978.54	227.45
978.83	227.29
979.12	227.18
979.42	227.20
979.71	226.86
980.00	226.84
980.29	227.01
980.59	226.80
980.88	227.02
981.17	227.04
981.46	226.99
981.76	227.02
982.05	227.28
982.34	227.31
982.63	227.25
982.93	227.28
983.22	227.53
983.51	227.60
983.80	227.72
984.09	227.90
984.39	227.85
984.68	227.69
984.97	227.80
985.26	227.74
985.55	227.82
985.85	227.69
986.14	227.90
986.43	227.98
986.72	227.97
987.01	227.75
987.30	227.79
987.59	227.82
987.89	227.84
988.18	227.60
988.47	227.57
988.76	227.54
989.05	227.43
989.34	227.31
989.63	227.43
989.92	227.27
990.22	227.10
990.51	226.98
990.80	226.96
991.09	227.00
991.38	227.13
991.67	226.95
991.96	226.83
992.25	226.81
992.54	226.60
992.83	226.64
993.12	226.60
993.41	226.85
993.70	227.19
993.99	227.48
994.28	227.55
994.58	227.61
994.87	227.46
995.16	227.44
995.45	227.32
995.74	227.04
996.03	227.30
996.32	227.46
996.61	227.76
996.90	227.74
997.19	227.71
997.48	227.62
997.77	227.70
998.06	227.81
998.34	227.63
998.63	227.60
998.92	227.58
999.21	227.77
999.50	227.64
999.79	227.28
1000.08	227.10
1000.37	227.12
1000.66	227.01
1000.95	227.30
1001.24	227.41
1001.53	227.60
1001.82	227.58
1002.11	227.29
1002.40	227.35
1002.68	227.54
1002.97	228.21
1003.26	228.14
1003.55	228.04
1003.84	227.98
1004.13	228.30
1004.42	228.32
1004.71	228.36
1004.99	228.32
1005.28	228.47
1005.57	228.37
1005.86	228.26
1006.15	228.25
1006.44	228.19
1006.72	228.36
1007.01	228.23
1007.30	228.20
1007.59	228.05
1007.88	228.13
1008.17	228.29
1008.45	228.08
1008.74	227.61
1009.03	227.13
1009.32	227.13
1009.60	227.19
1009.89	227.19
1010.18	226.68
1010.47	226.67
1010.76	226.57
1011.04	226.58
1011.33	226.55
1011.62	226.62
1011.91	226.75
1012.19	226.83
1012.48	226.86
1012.77	226.89
1013.05	227.30
1013.34	227.35
1013.63	227.31
1013.92	227.40
1014.20	227.24
1014.49	227.24
1014.78	227.34
1015.06	227.01
1015.35	226.95
1015.64	227.08
1015.92	227.18
1016.21	227.29
1016.50	227.21
1016.78	227.41
1017.07	227.53
1017.36	227.44
1017.64	227.31
1017.93	227.34
1018.22	227.17
1018.50	227.09
1018.79	227.01
1019.08	226.64
1019.36	226.71
1019.65	226.66
1019.93	226.79
1020.22	226.97
1020.51	227.52
1020.79	227.40
1021.08	225.30
1021.36	225.10
1021.65	228.40
1021.94	227.80
1022.22	228.30
1022.51	225.60
1022.79	230.30
1023.08	229.70
1023.36	238.60
1023.65	223.40
>>>>>End Processed Spectral Data<<<<<
