SpectraSuite Data File
++++++++++++++++++++++++++++++++++++
Date: Wed Sep 04 17:31:51 EDT 2013
User: lab3
Dark Spectrum Present: Yes
Reference Spectrum Present: No
Number of Sampled Component Spectra: 1
Spectrometers: USB2E7196
Integration Time (usec): 337000 (USB2E7196)
Spectra Averaged: 10 (USB2E7196)
Boxcar Smoothing: 10 (USB2E7196)
Correct for Electrical Dark: No (USB2E7196)
Strobe/Lamp Enabled: No (USB2E7196)
Correct for Detector Non-linearity: No (USB2E7196)
Correct for Stray Light: No (USB2E7196)
Number of Pixels in Processed Spectrum: 2048
>>>>>Begin Processed Spectral Data<<<<<
339.09	0.00
339.48	213.10
339.86	215.30
340.24	214.50
340.63	217.90
341.01	233.10
341.39	219.50
341.78	223.70
342.16	223.30
342.54	224.30
342.93	213.12
343.31	223.76
343.69	224.27
344.07	224.74
344.46	225.33
344.84	225.70
345.22	225.24
345.60	225.61
345.99	225.67
346.37	225.85
346.75	225.88
347.13	225.83
347.52	225.88
347.90	226.23
348.28	226.38
348.66	226.76
349.05	226.45
349.43	226.53
349.81	226.65
350.19	226.72
350.57	226.64
350.96	226.86
351.34	227.08
351.72	227.21
352.10	227.27
352.48	227.24
352.87	227.31
353.25	227.50
353.63	227.46
354.01	227.54
354.39	227.64
354.77	227.69
355.15	228.00
355.54	227.95
355.92	227.67
356.30	227.74
356.68	228.30
357.06	228.46
357.44	228.40
357.82	228.53
358.20	229.36
358.58	229.47
358.97	229.54
359.35	229.73
359.73	229.97
360.11	230.03
360.49	230.14
360.87	230.13
361.25	230.25
361.63	230.65
362.01	230.79
362.39	230.67
362.77	230.83
363.15	230.87
363.53	230.90
363.91	231.03
364.29	230.94
364.67	230.00
365.05	230.02
365.43	230.09
365.81	230.07
366.19	229.72
366.57	230.07
366.95	230.03
367.33	229.79
367.71	229.68
368.09	229.91
368.47	229.94
368.85	229.97
369.23	230.10
369.61	229.78
369.99	230.05
370.37	230.21
370.75	230.67
371.13	230.43
371.51	230.40
371.89	230.37
372.27	230.51
372.65	230.66
373.03	230.53
373.41	230.42
373.78	230.40
374.16	229.89
374.54	229.50
374.92	229.45
375.30	229.48
375.68	229.30
376.06	229.22
376.44	229.03
376.82	229.03
377.19	228.96
377.57	228.82
377.95	228.42
378.33	228.25
378.71	227.60
379.09	227.65
379.47	227.65
379.84	227.49
380.22	227.31
380.60	227.09
380.98	226.98
381.36	226.87
381.73	226.61
382.11	226.78
382.49	226.82
382.87	226.63
383.25	226.57
383.62	227.62
384.00	227.34
384.38	227.32
384.76	227.49
385.13	227.74
385.51	227.80
385.89	227.70
386.27	227.72
386.64	227.76
387.02	227.68
387.40	227.61
387.78	227.76
388.15	227.88
388.53	227.70
388.91	227.79
389.29	227.82
389.66	228.02
390.04	227.92
390.42	228.02
390.79	228.09
391.17	228.05
391.55	227.01
391.92	227.10
392.30	227.29
392.68	227.02
393.05	227.03
393.43	227.03
393.81	227.06
394.18	226.94
394.56	227.04
394.94	227.34
395.31	227.13
395.69	227.43
396.06	227.55
396.44	227.89
396.82	227.85
397.19	228.39
397.57	228.40
397.95	228.54
398.32	228.37
398.70	228.45
399.07	228.82
399.45	228.89
399.82	228.89
400.20	228.93
400.58	229.06
400.95	228.81
401.33	229.05
401.70	229.90
402.08	230.11
402.45	230.25
402.83	230.52
403.20	230.87
403.58	230.81
403.95	231.13
404.33	231.37
404.71	231.69
405.08	232.32
405.46	232.47
405.83	232.87
406.21	233.18
406.58	233.53
406.96	233.80
407.33	234.30
407.70	234.89
408.08	236.08
408.45	236.76
408.83	237.28
409.20	237.71
409.58	237.67
409.95	238.44
410.33	239.15
410.70	239.51
411.08	240.31
411.45	241.14
411.82	241.84
412.20	242.88
412.57	244.31
412.95	244.49
413.32	245.72
413.69	246.70
414.07	247.86
414.44	249.12
414.82	250.48
415.19	251.99
415.56	253.44
415.94	254.42
416.31	256.24
416.68	258.18
417.06	260.44
417.43	262.71
417.81	264.95
418.18	267.41
418.55	269.98
418.93	272.73
419.30	275.52
419.67	278.51
420.04	281.50
420.42	284.33
420.79	288.68
421.16	292.40
421.54	296.54
421.91	300.49
422.28	304.68
422.66	309.01
423.03	313.86
423.40	318.42
423.77	323.29
424.15	328.07
424.52	333.18
424.89	338.68
425.26	343.90
425.64	349.06
426.01	354.63
426.38	360.74
426.75	367.07
427.13	373.35
427.50	379.55
427.87	386.31
428.24	393.12
428.61	399.10
428.99	406.36
429.36	413.78
429.73	421.53
430.10	429.12
430.47	437.00
430.85	444.50
431.22	452.90
431.59	462.42
431.96	471.13
432.33	480.56
432.70	489.86
433.08	500.72
433.45	510.94
433.82	521.36
434.19	532.57
434.56	543.85
434.93	554.43
435.30	565.50
435.68	577.34
436.05	589.14
436.42	600.71
436.79	611.40
437.16	623.26
437.53	635.53
437.90	647.83
438.27	659.82
438.64	672.57
439.01	684.54
439.38	694.58
439.75	704.74
440.13	716.40
440.50	727.31
440.87	736.17
441.24	745.36
441.61	755.45
441.98	763.19
442.35	771.74
442.72	780.63
443.09	789.49
443.46	794.75
443.83	798.42
444.20	801.86
444.57	806.36
444.94	808.31
445.31	810.60
445.68	813.51
446.05	814.24
446.42	813.07
446.79	811.80
447.16	810.17
447.53	809.20
447.90	804.58
448.27	799.79
448.64	793.51
449.01	789.05
449.37	780.73
449.74	772.56
450.11	763.57
450.48	753.01
450.85	741.93
451.22	732.92
451.59	724.17
451.96	715.65
452.33	704.37
452.70	694.38
453.07	682.33
453.43	669.30
453.80	657.91
454.17	646.61
454.54	635.80
454.91	624.38
455.28	613.25
455.65	602.85
456.02	593.95
456.38	585.10
456.75	574.21
457.12	565.19
457.49	556.48
457.86	547.25
458.23	540.36
458.59	532.32
458.96	523.82
459.33	516.68
459.70	509.51
460.07	504.01
460.43	497.60
460.80	491.58
461.17	486.56
461.54	480.93
461.91	475.70
462.27	470.31
462.64	465.68
463.01	460.58
463.38	456.24
463.74	450.10
464.11	445.86
464.48	442.46
464.85	438.45
465.21	435.56
465.58	432.34
465.95	428.06
466.32	425.00
466.68	422.08
467.05	418.85
467.42	415.72
467.78	412.30
468.15	409.08
468.52	406.80
468.88	403.43
469.25	400.70
469.62	398.66
469.98	396.35
470.35	394.21
470.72	392.03
471.08	389.26
471.45	387.41
471.82	385.62
472.18	383.48
472.55	381.97
472.92	379.78
473.28	378.05
473.65	376.55
474.02	374.94
474.38	373.75
474.75	372.49
475.11	371.11
475.48	370.17
475.85	369.13
476.21	368.14
476.58	367.47
476.94	366.92
477.31	366.09
477.67	365.18
478.04	364.63
478.41	364.29
478.77	364.94
479.14	364.21
479.50	363.86
479.87	363.65
480.23	363.34
480.60	363.01
480.96	362.73
481.33	363.07
481.69	362.99
482.06	362.80
482.42	362.92
482.79	363.12
483.15	363.20
483.52	363.68
483.88	363.89
484.25	363.91
484.61	364.06
484.98	364.28
485.34	365.17
485.71	365.81
486.07	366.40
486.44	366.08
486.80	366.87
487.17	367.52
487.53	368.45
487.90	369.64
488.26	371.14
488.62	372.55
488.99	373.31
489.35	374.76
489.72	376.17
490.08	377.45
490.44	378.76
490.81	380.53
491.17	381.89
491.54	383.72
491.90	385.72
492.26	387.50
492.63	389.40
492.99	391.16
493.36	393.23
493.72	395.58
494.08	397.87
494.45	400.39
494.81	403.10
495.17	405.51
495.54	408.11
495.90	410.44
496.26	413.07
496.63	415.88
496.99	418.50
497.35	421.34
497.72	424.33
498.08	427.34
498.44	430.31
498.80	433.51
499.17	436.56
499.53	439.51
499.89	443.20
500.26	446.73
500.62	450.15
500.98	453.74
501.34	457.00
501.71	460.67
502.07	464.19
502.43	467.52
502.79	470.98
503.16	474.51
503.52	478.20
503.88	481.60
504.24	485.52
504.60	489.59
504.97	493.73
505.33	497.65
505.69	502.06
506.05	506.04
506.41	510.29
506.78	514.40
507.14	518.70
507.50	522.57
507.86	526.75
508.22	530.87
508.59	534.87
508.95	539.01
509.31	543.42
509.67	547.41
510.03	551.56
510.39	555.84
510.75	560.00
511.12	564.21
511.48	568.36
511.84	572.34
512.20	576.24
512.56	580.21
512.92	584.49
513.28	588.29
513.64	592.40
514.00	596.47
514.37	600.58
514.73	604.58
515.09	608.86
515.45	612.83
515.81	616.95
516.17	620.93
516.53	625.06
516.89	628.74
517.25	633.27
517.61	638.00
517.97	642.19
518.33	646.60
518.69	651.37
519.05	656.23
519.41	660.94
519.77	666.22
520.13	670.59
520.49	674.93
520.85	682.32
521.21	687.30
521.57	691.97
521.93	696.46
522.29	701.31
522.65	705.62
523.01	710.24
523.37	714.74
523.73	719.64
524.09	724.13
524.45	728.62
524.81	733.18
525.17	737.38
525.53	742.09
525.89	746.89
526.25	751.68
526.61	756.24
526.97	761.01
527.33	765.67
527.68	771.83
528.04	777.12
528.40	779.69
528.76	784.83
529.12	790.06
529.48	795.49
529.84	800.72
530.20	806.58
530.56	812.45
530.91	818.49
531.27	824.13
531.63	830.40
531.99	836.60
532.35	842.73
532.71	849.08
533.07	855.55
533.42	862.63
533.78	868.43
534.14	875.04
534.50	881.35
534.86	887.67
535.21	893.08
535.57	899.46
535.93	905.30
536.29	911.99
536.65	918.73
537.00	925.26
537.36	931.70
537.72	937.83
538.08	944.41
538.44	950.42
538.79	956.84
539.15	963.03
539.51	969.74
539.87	975.76
540.22	981.50
540.58	987.22
540.94	992.07
541.29	997.93
541.65	1003.22
542.01	1009.05
542.37	1014.45
542.72	1019.61
543.08	1025.01
543.44	1030.82
543.79	1035.24
544.15	1040.18
544.51	1045.74
544.87	1051.00
545.22	1056.04
545.58	1060.26
545.94	1064.90
546.29	1069.37
546.65	1073.73
547.01	1077.68
547.36	1081.98
547.72	1086.44
548.07	1090.85
548.43	1095.27
548.79	1099.71
549.14	1103.96
549.50	1108.01
549.86	1112.01
550.21	1116.40
550.57	1120.68
550.92	1124.46
551.28	1128.75
551.64	1132.63
551.99	1136.11
552.35	1139.76
552.70	1143.36
553.06	1147.62
553.41	1151.53
553.77	1155.78
554.13	1159.40
554.48	1163.44
554.84	1167.45
555.19	1171.41
555.55	1175.93
555.90	1179.16
556.26	1182.03
556.61	1185.06
556.97	1187.32
557.32	1190.13
557.68	1192.50
558.03	1195.07
558.39	1197.53
558.74	1199.98
559.10	1202.17
559.45	1204.34
559.81	1206.33
560.16	1208.28
560.52	1209.88
560.87	1211.97
561.23	1213.36
561.58	1215.78
561.94	1216.65
562.29	1217.50
562.64	1218.63
563.00	1218.40
563.35	1219.58
563.71	1220.97
564.06	1222.22
564.42	1224.01
564.77	1225.35
565.12	1226.93
565.48	1228.87
565.83	1230.40
566.19	1231.43
566.54	1232.65
566.89	1233.52
567.25	1234.89
567.60	1236.55
567.96	1238.36
568.31	1239.43
568.66	1240.35
569.02	1240.13
569.37	1241.01
569.72	1241.90
570.08	1241.93
570.43	1242.05
570.78	1241.99
571.14	1241.74
571.49	1241.22
571.84	1240.83
572.20	1240.22
572.55	1239.27
572.90	1237.01
573.26	1235.87
573.61	1234.80
573.96	1233.42
574.31	1231.85
574.67	1229.87
575.02	1227.63
575.37	1224.90
575.72	1222.30
576.08	1220.21
576.43	1218.16
576.78	1215.89
577.13	1213.01
577.49	1210.65
577.84	1209.07
578.19	1207.03
578.54	1205.10
578.90	1203.50
579.25	1201.46
579.60	1199.06
579.95	1197.20
580.30	1195.05
580.66	1192.15
581.01	1189.18
581.36	1185.80
581.71	1183.27
582.06	1181.02
582.42	1178.24
582.77	1175.26
583.12	1172.67
583.47	1169.90
583.82	1167.09
584.17	1164.28
584.53	1162.26
584.88	1159.07
585.23	1155.94
585.58	1152.48
585.93	1148.78
586.28	1144.96
586.63	1141.40
586.98	1137.51
587.34	1133.57
587.69	1130.00
588.04	1126.72
588.39	1123.45
588.74	1120.36
589.09	1117.16
589.44	1112.80
589.79	1109.23
590.14	1105.98
590.49	1102.46
590.84	1098.97
591.19	1095.60
591.54	1092.00
591.89	1087.90
592.25	1086.03
592.60	1082.25
592.95	1079.16
593.30	1075.80
593.65	1072.24
594.00	1068.10
594.35	1067.39
594.70	1063.93
595.05	1060.44
595.40	1056.64
595.75	1052.77
596.10	1049.12
596.45	1045.18
596.80	1041.96
597.15	1038.30
597.50	1034.11
597.85	1030.37
598.19	1026.02
598.54	1021.92
598.89	1017.68
599.24	1014.18
599.59	1009.30
599.94	1005.23
600.29	1001.05
600.64	996.99
600.99	993.00
601.34	989.58
601.69	983.09
602.04	978.72
602.39	974.75
602.74	971.52
603.08	968.04
603.43	964.74
603.78	960.82
604.13	956.77
604.48	952.62
604.83	948.89
605.18	944.59
605.53	940.94
605.87	937.00
606.22	933.66
606.57	929.57
606.92	925.42
607.27	921.64
607.62	917.90
607.96	914.24
608.31	910.80
608.66	907.05
609.01	903.51
609.36	900.05
609.70	896.10
610.05	891.84
610.40	887.86
610.75	883.81
611.10	879.82
611.44	875.63
611.79	871.85
612.14	868.39
612.49	864.52
612.83	860.94
613.18	857.33
613.53	853.43
613.88	849.45
614.22	845.51
614.57	841.45
614.92	837.35
615.27	833.64
615.61	829.53
615.96	825.63
616.31	821.46
616.65	817.92
617.00	814.10
617.35	810.30
617.70	806.28
618.04	802.26
618.39	798.60
618.74	795.65
619.08	791.74
619.43	787.64
619.78	783.93
620.12	779.73
620.47	775.70
620.82	771.70
621.16	767.85
621.51	764.59
621.85	760.99
622.20	757.20
622.55	753.10
622.89	749.44
623.24	745.70
623.59	742.03
623.93	738.33
624.28	734.87
624.62	732.17
624.97	729.12
625.32	725.51
625.66	721.82
626.01	717.55
626.35	714.43
626.70	710.74
627.04	707.61
627.39	703.94
627.73	700.89
628.08	697.74
628.43	694.19
628.77	690.31
629.12	686.81
629.46	683.98
629.81	681.06
630.15	677.74
630.50	674.42
630.84	671.25
631.19	667.98
631.53	664.86
631.88	660.74
632.22	657.03
632.57	654.23
632.91	651.11
633.26	648.59
633.60	645.28
633.95	642.05
634.29	638.51
634.64	635.67
634.98	632.11
635.32	629.01
635.67	626.19
636.01	623.23
636.36	620.17
636.70	617.23
637.05	613.99
637.39	610.96
637.73	607.98
638.08	605.07
638.42	601.80
638.77	598.56
639.11	595.23
639.45	591.85
639.80	588.28
640.14	585.22
640.49	581.84
640.83	578.77
641.17	576.24
641.52	573.41
641.86	570.50
642.20	568.28
642.55	565.16
642.89	562.18
643.23	559.56
643.58	557.30
643.92	553.91
644.26	551.21
644.61	548.61
644.95	545.93
645.29	543.01
645.64	540.30
645.98	537.51
646.32	535.16
646.66	532.71
647.01	530.09
647.35	527.55
647.69	525.24
648.04	522.95
648.38	520.50
648.72	518.00
649.06	515.26
649.41	512.28
649.75	509.50
650.09	507.24
650.43	504.54
650.78	501.73
651.12	499.32
651.46	496.79
651.80	494.22
652.14	491.70
652.49	489.59
652.83	487.32
653.17	485.29
653.51	482.61
653.85	480.66
654.20	478.53
654.54	476.18
654.88	473.67
655.22	471.62
655.56	469.19
655.90	467.18
656.25	465.09
656.59	463.03
656.93	461.41
657.27	459.68
657.61	457.34
657.95	455.42
658.29	453.27
658.64	451.53
658.98	449.50
659.32	447.32
659.66	445.17
660.00	443.22
660.34	441.07
660.68	439.14
661.02	437.07
661.36	435.04
661.70	433.17
662.05	431.35
662.39	429.44
662.73	427.82
663.07	426.39
663.41	424.61
663.75	422.67
664.09	420.70
664.43	418.26
664.77	416.67
665.11	414.70
665.45	413.23
665.79	411.47
666.13	409.50
666.47	407.71
666.81	406.09
667.15	404.09
667.49	402.59
667.83	401.33
668.17	399.71
668.51	398.17
668.85	396.68
669.19	395.58
669.53	393.80
669.87	391.99
670.21	390.09
670.55	388.74
670.89	387.72
671.23	386.15
671.57	384.90
671.91	383.46
672.25	381.97
672.58	380.75
672.92	378.88
673.26	377.75
673.60	376.58
673.94	375.19
674.28	374.01
674.62	372.65
674.96	371.12
675.30	369.79
675.64	368.60
675.97	367.20
676.31	365.38
676.65	363.87
676.99	362.91
677.33	361.40
677.67	359.98
678.01	358.27
678.34	357.10
678.68	356.01
679.02	354.69
679.36	353.50
679.70	351.96
680.04	351.08
680.37	349.80
680.71	348.56
681.05	347.38
681.39	346.28
681.73	345.01
682.06	343.83
682.40	342.71
682.74	341.70
683.08	341.11
683.42	339.97
683.75	339.14
684.09	337.80
684.43	336.87
684.77	335.66
685.10	334.73
685.44	333.67
685.78	332.46
686.12	331.40
686.45	330.47
686.79	329.44
687.13	328.65
687.46	327.57
687.80	326.81
688.14	325.70
688.48	324.78
688.81	323.77
689.15	323.02
689.49	322.09
689.82	321.08
690.16	319.48
690.50	318.66
690.83	317.56
691.17	316.49
691.51	315.56
691.84	314.87
692.18	313.87
692.52	312.91
692.85	312.17
693.19	311.73
693.52	310.78
693.86	309.90
694.20	308.84
694.53	308.18
694.87	307.21
695.21	306.32
695.54	305.46
695.88	304.71
696.21	303.60
696.55	302.74
696.88	301.89
697.22	301.26
697.56	300.56
697.89	299.74
698.23	299.16
698.56	298.32
698.90	297.67
699.23	296.96
699.57	296.34
699.90	295.36
700.24	294.32
700.58	293.70
700.91	293.18
701.25	293.25
701.58	293.24
701.92	292.76
702.25	292.18
702.59	291.43
702.92	290.83
703.26	290.36
703.59	289.83
703.93	290.02
704.26	289.56
704.60	288.99
704.93	288.37
705.26	287.63
705.60	287.30
705.93	286.48
706.27	286.10
706.60	285.64
706.94	285.71
707.27	285.17
707.61	284.68
707.94	284.16
708.27	282.90
708.61	281.61
708.94	280.95
709.28	280.52
709.61	279.96
709.94	279.51
710.28	278.95
710.61	278.37
710.95	277.05
711.28	277.06
711.61	276.45
711.95	276.15
712.28	275.70
712.61	275.10
712.95	275.16
713.28	275.06
713.61	274.39
713.95	273.48
714.28	273.07
714.61	272.40
714.95	271.86
715.28	271.18
715.61	270.71
715.95	270.34
716.28	269.82
716.61	269.55
716.95	268.94
717.28	268.47
717.61	267.92
717.94	267.46
718.28	266.33
718.61	265.97
718.94	265.43
719.27	265.10
719.61	264.73
719.94	264.10
720.27	263.10
720.60	262.73
720.94	262.37
721.27	261.95
721.60	261.80
721.93	261.50
722.27	261.61
722.60	261.39
722.93	260.92
723.26	260.50
723.59	260.03
723.93	259.80
724.26	259.56
724.59	259.29
724.92	258.96
725.25	259.01
725.59	258.70
725.92	258.54
726.25	258.29
726.58	257.98
726.91	257.52
727.24	257.50
727.57	257.25
727.91	256.75
728.24	256.62
728.57	256.22
728.90	255.92
729.23	255.22
729.56	255.39
729.89	255.08
730.22	254.88
730.55	254.63
730.89	254.36
731.22	254.07
731.55	253.73
731.88	253.60
732.21	253.09
732.54	252.70
732.87	252.43
733.20	252.08
733.53	251.91
733.86	251.81
734.19	251.41
734.52	251.31
734.85	251.83
735.18	251.44
735.51	251.56
735.84	251.46
736.17	251.68
736.50	251.00
736.83	251.99
737.16	251.78
737.49	251.52
737.82	251.30
738.15	251.32
738.48	251.32
738.81	251.00
739.14	250.76
739.47	250.65
739.80	250.43
740.13	250.47
740.46	250.23
740.79	250.01
741.12	249.75
741.45	249.38
741.78	248.70
742.11	248.84
742.44	248.37
742.77	248.25
743.10	247.79
743.43	247.50
743.75	246.29
744.08	247.38
744.41	247.20
744.74	246.90
745.07	246.44
745.40	246.35
745.73	246.64
746.06	246.55
746.39	246.47
746.71	246.28
747.04	245.91
747.37	245.67
747.70	245.67
748.03	245.64
748.36	245.70
748.68	245.55
749.01	245.10
749.34	245.02
749.67	244.78
750.00	244.84
750.33	245.45
750.65	245.49
750.98	244.18
751.31	244.07
751.64	244.07
751.97	244.49
752.29	244.23
752.62	243.66
752.95	243.43
753.28	243.22
753.60	243.08
753.93	243.18
754.26	243.10
754.59	242.64
754.91	242.37
755.24	242.21
755.57	242.01
755.90	241.87
756.22	241.64
756.55	241.40
756.88	241.06
757.20	240.34
757.53	239.84
757.86	239.78
758.19	239.74
758.51	239.58
758.84	238.96
759.17	238.70
759.49	238.56
759.82	239.03
760.15	238.96
760.47	238.79
760.80	238.40
761.13	238.40
761.45	238.28
761.78	238.27
762.11	238.03
762.43	237.84
762.76	237.71
763.08	237.71
763.41	237.75
763.74	237.72
764.06	237.54
764.39	237.53
764.71	237.27
765.04	237.10
765.37	236.93
765.69	236.81
766.02	236.72
766.34	236.61
766.67	236.03
767.00	236.07
767.32	236.49
767.65	236.93
767.97	236.75
768.30	236.73
768.62	236.61
768.95	236.43
769.27	236.35
769.60	236.43
769.92	236.27
770.25	236.01
770.57	235.77
770.90	235.63
771.22	235.44
771.55	235.39
771.87	235.34
772.20	235.30
772.52	236.12
772.85	237.32
773.17	237.33
773.50	237.29
773.82	237.06
774.15	236.48
774.47	235.75
774.80	235.64
775.12	235.58
775.45	235.51
775.77	235.50
776.09	235.51
776.42	235.33
776.74	235.56
777.07	235.33
777.39	235.38
777.72	235.30
778.04	235.42
778.36	235.24
778.69	235.18
779.01	235.25
779.33	234.30
779.66	233.07
779.98	232.98
780.31	232.89
780.63	233.22
780.95	233.32
781.28	233.41
781.60	233.22
781.92	233.10
782.25	233.03
782.57	233.04
782.89	232.92
783.22	232.90
783.54	232.53
783.86	232.71
784.19	232.50
784.51	232.68
784.83	232.43
785.16	232.49
785.48	232.48
785.80	232.32
786.12	232.40
786.45	232.28
786.77	232.18
787.09	232.07
787.42	231.68
787.74	231.62
788.06	231.53
788.38	231.52
788.71	231.42
789.03	231.40
789.35	231.49
789.67	231.27
789.99	231.24
790.32	231.13
790.64	231.17
790.96	231.96
791.28	231.65
791.61	231.68
791.93	231.71
792.25	231.59
792.57	232.20
792.89	231.91
793.21	232.05
793.54	232.01
793.86	231.87
794.18	231.87
794.50	231.86
794.82	231.93
795.14	232.03
795.47	232.27
795.79	232.27
796.11	232.00
796.43	232.03
796.75	232.05
797.07	232.20
797.39	232.12
797.71	231.46
798.04	231.53
798.36	231.54
798.68	231.48
799.00	231.52
799.32	231.00
799.64	231.32
799.96	231.22
800.28	231.41
800.60	231.38
800.92	231.46
801.24	231.32
801.56	231.34
801.89	231.33
802.21	231.30
802.53	231.18
802.85	231.43
803.17	231.90
803.49	231.59
803.81	231.44
804.13	231.39
804.45	231.21
804.77	231.27
805.09	231.10
805.41	230.98
805.73	230.76
806.05	230.59
806.37	230.43
806.69	230.42
807.01	230.45
807.33	230.61
807.65	230.25
807.97	230.59
808.28	230.44
808.60	230.30
808.92	230.19
809.24	230.79
809.56	230.63
809.88	230.25
810.20	230.42
810.52	230.54
810.84	230.42
811.16	230.34
811.48	230.31
811.80	230.80
812.12	230.88
812.43	231.17
812.75	231.28
813.07	231.22
813.39	231.28
813.71	230.93
814.03	230.74
814.35	230.74
814.67	230.48
814.98	230.53
815.30	230.61
815.62	230.47
815.94	229.72
816.26	230.12
816.58	229.89
816.89	229.96
817.21	229.77
817.53	229.80
817.85	229.93
818.17	229.92
818.48	229.45
818.80	229.63
819.12	229.52
819.44	229.39
819.76	229.24
820.07	229.15
820.39	229.15
820.71	229.26
821.03	229.39
821.34	229.22
821.66	229.22
821.98	229.27
822.30	229.24
822.61	229.81
822.93	229.25
823.25	229.25
823.57	229.20
823.88	229.34
824.20	229.26
824.52	229.39
824.83	229.26
825.15	229.14
825.47	229.04
825.79	229.08
826.10	228.95
826.42	228.96
826.74	229.03
827.05	229.13
827.37	229.10
827.69	228.95
828.00	229.08
828.32	229.04
828.64	228.90
828.95	229.34
829.27	229.08
829.58	229.13
829.90	229.33
830.22	229.30
830.53	229.09
830.85	228.94
831.17	228.62
831.48	228.61
831.80	228.64
832.11	228.53
832.43	228.36
832.75	228.35
833.06	228.98
833.38	228.73
833.69	228.59
834.01	228.56
834.32	228.55
834.64	228.42
834.96	228.41
835.27	228.50
835.59	228.12
835.90	227.98
836.22	228.04
836.53	227.85
836.85	227.78
837.16	228.79
837.48	228.90
837.79	229.25
838.11	229.43
838.42	229.43
838.74	229.53
839.05	229.39
839.37	229.36
839.68	228.66
840.00	228.67
840.31	228.76
840.63	228.84
840.94	228.76
841.26	228.67
841.57	228.65
841.88	228.64
842.20	228.49
842.51	228.36
842.83	228.25
843.14	229.20
843.46	229.18
843.77	228.62
844.08	228.55
844.40	228.23
844.71	227.97
845.03	227.96
845.34	227.84
845.65	227.88
845.97	227.87
846.28	228.00
846.60	228.05
846.91	227.97
847.22	227.85
847.54	228.11
847.85	228.27
848.16	228.20
848.48	228.00
848.79	228.48
849.10	228.57
849.42	228.66
849.73	227.70
850.04	227.67
850.36	227.28
850.67	227.50
850.98	227.58
851.30	227.72
851.61	227.60
851.92	227.54
852.23	227.81
852.55	227.91
852.86	227.92
853.17	228.02
853.49	228.35
853.80	228.55
854.11	228.65
854.42	228.67
854.74	228.64
855.05	228.69
855.36	228.18
855.67	228.32
855.99	228.38
856.30	229.46
856.61	229.51
856.92	229.60
857.23	229.60
857.55	229.55
857.86	229.50
858.17	229.84
858.48	229.71
858.79	229.56
859.11	229.67
859.42	229.63
859.73	229.57
860.04	229.40
860.35	229.10
860.66	228.78
860.98	228.73
861.29	228.79
861.60	228.77
861.91	229.04
862.22	228.86
862.53	228.71
862.84	227.65
863.16	227.88
863.47	227.74
863.78	227.59
864.09	227.65
864.40	227.69
864.71	227.61
865.02	227.78
865.33	227.68
865.64	227.48
865.95	227.60
866.27	228.14
866.58	228.05
866.89	228.20
867.20	228.11
867.51	227.99
867.82	227.94
868.13	228.27
868.44	228.01
868.75	228.21
869.06	228.21
869.37	228.25
869.68	227.90
869.99	228.04
870.30	228.15
870.61	228.14
870.92	228.01
871.23	227.88
871.54	227.96
871.85	228.15
872.16	228.28
872.47	228.05
872.78	227.52
873.09	227.57
873.40	227.54
873.71	227.67
874.02	227.80
874.33	227.66
874.64	227.32
874.95	227.52
875.26	227.25
875.56	227.25
875.87	227.32
876.18	227.36
876.49	228.30
876.80	228.29
877.11	228.17
877.42	228.25
877.73	228.25
878.04	228.17
878.35	228.14
878.66	228.18
878.96	228.22
879.27	228.06
879.58	228.00
879.89	227.78
880.20	228.05
880.51	227.96
880.82	228.04
881.12	228.10
881.43	227.91
881.74	227.86
882.05	227.77
882.36	227.80
882.67	227.83
882.97	226.77
883.28	226.63
883.59	226.58
883.90	226.70
884.21	226.88
884.51	226.86
884.82	226.79
885.13	226.66
885.44	226.63
885.74	226.78
886.05	226.75
886.36	226.92
886.67	226.63
886.98	227.13
887.28	227.23
887.59	227.27
887.90	227.40
888.20	227.38
888.51	227.60
888.82	227.33
889.13	227.42
889.43	228.21
889.74	228.30
890.05	228.32
890.35	228.09
890.66	228.01
890.97	227.89
891.28	227.84
891.58	227.95
891.89	227.98
892.20	227.84
892.50	227.81
892.81	227.79
893.12	227.69
893.42	227.10
893.73	227.20
894.04	227.20
894.34	227.19
894.65	227.23
894.95	227.08
895.26	227.24
895.57	227.67
895.87	226.92
896.18	227.00
896.48	227.19
896.79	227.21
897.10	227.35
897.40	227.37
897.71	227.51
898.01	227.50
898.32	227.56
898.63	227.60
898.93	227.69
899.24	227.74
899.54	227.83
899.85	227.92
900.15	227.90
900.46	227.93
900.76	227.98
901.07	227.97
901.38	228.03
901.68	228.06
901.99	227.64
902.29	227.61
902.60	227.50
902.90	227.42
903.21	227.44
903.51	227.36
903.82	227.54
904.12	227.49
904.43	227.56
904.73	227.50
905.03	227.52
905.34	228.43
905.64	228.27
905.95	228.22
906.25	228.19
906.56	228.11
906.86	228.11
907.17	228.01
907.47	228.06
907.77	227.92
908.08	227.80
908.38	227.79
908.69	227.89
908.99	228.09
909.30	228.15
909.60	228.21
909.90	228.29
910.21	228.16
910.51	228.10
910.81	228.10
911.12	228.25
911.42	228.33
911.73	227.38
912.03	227.56
912.33	227.77
912.64	227.78
912.94	227.72
913.24	227.50
913.55	227.43
913.85	227.46
914.15	227.72
914.46	227.88
914.76	227.73
915.06	227.66
915.37	227.42
915.67	227.26
915.97	227.29
916.27	227.01
916.58	227.07
916.88	227.01
917.18	226.85
917.49	227.40
917.79	227.32
918.09	227.47
918.39	227.60
918.70	227.53
919.00	227.50
919.30	227.93
919.60	227.97
919.91	228.03
920.21	227.98
920.51	227.67
920.81	227.57
921.12	227.73
921.42	227.70
921.72	227.85
922.02	227.90
922.32	227.97
922.63	228.03
922.93	228.37
923.23	228.35
923.53	228.27
923.83	227.63
924.13	227.74
924.44	227.69
924.74	227.91
925.04	228.01
925.34	228.05
925.64	227.59
925.94	227.59
926.24	228.03
926.55	228.01
926.85	228.19
927.15	228.14
927.45	228.13
927.75	228.19
928.05	228.16
928.35	228.07
928.65	228.17
928.95	228.23
929.26	227.86
929.56	228.10
929.86	228.13
930.16	228.12
930.46	228.00
930.76	228.01
931.06	227.49
931.36	227.20
931.66	227.31
931.96	227.45
932.26	227.53
932.56	227.08
932.86	227.11
933.16	227.08
933.46	226.96
933.76	226.80
934.06	226.90
934.36	227.27
934.66	227.20
934.96	226.98
935.26	227.02
935.56	227.23
935.86	226.96
936.16	226.90
936.46	226.80
936.76	226.78
937.06	226.67
937.36	226.73
937.66	226.89
937.96	226.81
938.26	226.63
938.56	226.67
938.86	226.79
939.16	227.01
939.46	227.16
939.76	227.34
940.06	227.43
940.35	227.28
940.65	226.72
940.95	226.87
941.25	226.79
941.55	226.61
941.85	226.59
942.15	226.80
942.45	227.10
942.75	227.10
943.04	227.10
943.34	227.31
943.64	227.25
943.94	227.11
944.24	227.17
944.54	227.29
944.84	227.16
945.13	227.01
945.43	226.80
945.73	226.78
946.03	226.75
946.33	226.62
946.62	226.62
946.92	226.68
947.22	226.71
947.52	226.73
947.82	226.91
948.11	226.80
948.41	226.55
948.71	226.28
949.01	226.40
949.31	226.39
949.60	226.33
949.90	226.63
950.20	226.61
950.50	226.69
950.79	226.66
951.09	226.88
951.39	226.85
951.69	226.84
951.98	227.10
952.28	227.10
952.58	227.09
952.87	227.17
953.17	227.35
953.47	227.27
953.76	227.44
954.06	227.20
954.36	227.02
954.66	227.13
954.95	227.61
955.25	227.60
955.55	227.73
955.84	227.56
956.14	227.50
956.44	227.60
956.73	227.40
957.03	227.36
957.32	227.30
957.62	227.33
957.92	227.54
958.21	227.27
958.51	228.28
958.81	228.40
959.10	228.39
959.40	228.63
959.69	228.75
959.99	228.80
960.29	228.85
960.58	228.85
960.88	229.18
961.17	228.99
961.47	229.16
961.76	229.00
962.06	229.17
962.36	229.03
962.65	229.11
962.95	229.11
963.24	229.05
963.54	229.21
963.83	229.24
964.13	229.05
964.42	228.89
964.72	228.24
965.01	228.28
965.31	228.18
965.60	227.85
965.90	228.41
966.19	228.27
966.49	228.33
966.78	228.28
967.08	228.17
967.37	228.16
967.67	227.96
967.96	228.20
968.26	228.12
968.55	228.27
968.85	228.27
969.14	228.36
969.43	228.35
969.73	228.13
970.02	228.18
970.32	228.17
970.61	228.11
970.91	227.74
971.20	227.58
971.49	227.60
971.79	227.72
972.08	227.04
972.38	227.14
972.67	227.13
972.96	227.26
973.26	226.97
973.55	227.17
973.85	226.96
974.14	226.83
974.43	226.89
974.73	226.72
975.02	226.61
975.31	226.66
975.61	226.73
975.90	226.67
976.19	226.50
976.49	226.56
976.78	226.65
977.07	226.69
977.37	226.85
977.66	226.93
977.95	226.81
978.24	226.85
978.54	226.98
978.83	226.94
979.12	226.90
979.42	227.03
979.71	226.77
980.00	226.83
980.29	226.79
980.59	226.65
980.88	226.88
981.17	226.88
981.46	226.79
981.76	226.78
982.05	227.05
982.34	227.14
982.63	227.11
982.93	227.20
983.22	227.40
983.51	227.48
983.80	227.60
984.09	227.72
984.39	227.78
984.68	227.67
984.97	227.71
985.26	227.75
985.55	227.74
985.85	227.59
986.14	227.88
986.43	228.02
986.72	228.02
987.01	227.72
987.30	227.65
987.59	227.61
987.89	227.60
988.18	227.40
988.47	227.40
988.76	227.36
989.05	227.22
989.34	227.05
989.63	227.24
989.92	227.04
990.22	226.84
990.51	226.76
990.80	226.69
991.09	226.74
991.38	226.75
991.67	226.68
991.96	226.69
992.25	226.55
992.54	226.47
992.83	226.45
993.12	226.49
993.41	226.69
993.70	227.05
993.99	227.23
994.28	227.35
994.58	227.39
994.87	227.36
995.16	227.32
995.45	227.29
995.74	226.88
996.03	226.99
996.32	227.16
996.61	227.45
996.90	227.36
997.19	227.30
997.48	227.36
997.77	227.24
998.06	227.30
998.34	227.32
998.63	227.26
998.92	227.27
999.21	227.44
999.50	227.45
999.79	227.18
1000.08	227.09
1000.37	227.00
1000.66	226.97
1000.95	227.18
1001.24	227.29
1001.53	227.44
1001.82	227.39
1002.11	227.22
1002.40	227.31
1002.68	227.47
1002.97	228.14
1003.26	228.14
1003.55	227.92
1003.84	228.02
1004.13	228.36
1004.42	228.24
1004.71	228.21
1004.99	228.21
1005.28	228.40
1005.57	228.28
1005.86	228.15
1006.15	228.13
1006.44	227.97
1006.72	227.96
1007.01	227.74
1007.30	227.70
1007.59	227.61
1007.88	227.76
1008.17	227.82
1008.45	227.62
1008.74	227.16
1009.03	226.74
1009.32	226.78
1009.60	226.80
1009.89	226.81
1010.18	226.42
1010.47	226.40
1010.76	226.40
1011.04	226.30
1011.33	226.33
1011.62	226.34
1011.91	226.40
1012.19	226.40
1012.48	226.57
1012.77	226.70
1013.05	227.19
1013.34	227.25
1013.63	227.15
1013.92	227.13
1014.20	227.00
1014.49	227.04
1014.78	227.13
1015.06	226.76
1015.35	226.64
1015.64	226.87
1015.92	226.94
1016.21	227.01
1016.50	227.06
1016.78	227.17
1017.07	227.32
1017.36	227.15
1017.64	227.10
1017.93	227.19
1018.22	227.14
1018.50	227.00
1018.79	227.02
1019.08	226.55
1019.36	226.52
1019.65	226.55
1019.93	226.80
1020.22	226.97
1020.51	227.50
1020.79	227.38
1021.08	226.30
1021.36	224.60
1021.65	229.20
1021.94	225.80
1022.22	226.50
1022.51	226.30
1022.79	231.20
1023.08	227.70
1023.36	238.20
1023.65	224.50
>>>>>End Processed Spectral Data<<<<<
