SpectraSuite Data File
++++++++++++++++++++++++++++++++++++
Date: Wed Sep 04 17:29:06 EDT 2013
User: lab3
Dark Spectrum Present: Yes
Reference Spectrum Present: No
Number of Sampled Component Spectra: 1
Spectrometers: USB2E7196
Integration Time (usec): 337000 (USB2E7196)
Spectra Averaged: 10 (USB2E7196)
Boxcar Smoothing: 10 (USB2E7196)
Correct for Electrical Dark: No (USB2E7196)
Strobe/Lamp Enabled: No (USB2E7196)
Correct for Detector Non-linearity: No (USB2E7196)
Correct for Stray Light: No (USB2E7196)
Number of Pixels in Processed Spectrum: 2048
>>>>>Begin Processed Spectral Data<<<<<
339.09	0.00
339.48	211.60
339.86	213.90
340.24	216.10
340.63	216.50
341.01	232.60
341.39	219.40
341.78	223.00
342.16	225.30
342.54	223.50
342.93	212.90
343.31	223.59
343.69	224.18
344.07	224.62
344.46	225.08
344.84	225.57
345.22	225.23
345.60	225.58
345.99	225.81
346.37	225.90
346.75	226.02
347.13	226.12
347.52	226.26
347.90	226.72
348.28	226.80
348.66	227.10
349.05	226.78
349.43	226.95
349.81	227.08
350.19	227.16
350.57	227.19
350.96	227.31
351.34	227.43
351.72	227.64
352.10	227.80
352.48	227.85
352.87	227.91
353.25	228.01
353.63	228.08
354.01	228.03
354.39	228.22
354.77	228.19
355.15	228.38
355.54	228.36
355.92	228.05
356.30	228.09
356.68	228.60
357.06	228.74
357.44	228.63
357.82	228.62
358.20	229.51
358.58	229.57
358.97	229.57
359.35	229.97
359.73	230.05
360.11	230.12
360.49	230.21
360.87	230.24
361.25	230.37
361.63	230.73
362.01	230.94
362.39	230.82
362.77	230.97
363.15	231.07
363.53	231.09
363.91	231.22
364.29	231.32
364.67	230.60
365.05	230.71
365.43	230.75
365.81	230.95
366.19	230.64
366.57	231.06
366.95	231.10
367.33	230.74
367.71	230.89
368.09	231.10
368.47	231.18
368.85	231.21
369.23	231.33
369.61	231.07
369.99	231.26
370.37	231.41
370.75	231.94
371.13	231.71
371.51	231.73
371.89	231.76
372.27	231.85
372.65	231.89
373.03	231.89
373.41	232.00
373.78	231.93
374.16	231.39
374.54	231.09
374.92	230.93
375.30	231.01
375.68	230.76
376.06	230.70
376.44	230.61
376.82	230.67
377.19	230.53
377.57	230.41
377.95	230.18
378.33	230.04
378.71	229.44
379.09	229.53
379.47	229.50
379.84	229.41
380.22	229.19
380.60	228.99
380.98	228.93
381.36	228.72
381.73	228.49
382.11	228.64
382.49	228.59
382.87	228.49
383.25	228.42
383.62	229.51
384.00	229.35
384.38	229.20
384.76	229.25
385.13	229.67
385.51	229.62
385.89	229.34
386.27	229.32
386.64	229.47
387.02	229.45
387.40	229.38
387.78	229.49
388.15	229.60
388.53	229.52
388.91	229.40
389.29	229.38
389.66	229.60
390.04	229.41
390.42	229.57
390.79	229.58
391.17	229.55
391.55	228.47
391.92	228.46
392.30	228.65
392.68	228.49
393.05	228.38
393.43	228.46
393.81	228.54
394.18	228.40
394.56	228.46
394.94	228.55
395.31	228.45
395.69	228.73
396.06	228.81
396.44	229.04
396.82	229.08
397.19	229.74
397.57	229.66
397.95	229.90
398.32	229.68
398.70	229.91
399.07	230.28
399.45	230.38
399.82	230.37
400.20	230.41
400.58	230.53
400.95	230.20
401.33	230.48
401.70	231.34
402.08	231.63
402.45	231.70
402.83	232.16
403.20	232.47
403.58	232.56
403.95	233.04
404.33	233.40
404.71	233.76
405.08	234.48
405.46	234.94
405.83	235.44
406.21	235.98
406.58	236.53
406.96	236.80
407.33	237.34
407.70	238.18
408.08	239.64
408.45	240.46
408.83	241.50
409.20	242.25
409.58	242.45
409.95	243.55
410.33	244.66
410.70	245.34
411.08	246.57
411.45	247.79
411.82	248.83
412.20	250.42
412.57	252.43
412.95	253.07
413.32	254.87
413.69	256.49
414.07	258.43
414.44	260.34
414.82	262.68
415.19	265.29
415.56	267.70
415.94	269.87
416.31	272.95
416.68	275.93
417.06	279.41
417.43	283.07
417.81	286.78
418.18	290.67
418.55	294.92
418.93	299.32
419.30	303.79
419.67	308.77
420.04	313.65
420.42	318.80
420.79	325.50
421.16	331.64
421.54	338.36
421.91	344.97
422.28	351.72
422.66	358.87
423.03	366.43
423.40	373.92
423.77	381.75
424.15	389.70
424.52	398.38
424.89	407.61
425.26	416.33
425.64	424.74
426.01	434.11
426.38	444.03
426.75	454.34
427.13	464.87
427.50	475.67
427.87	486.82
428.24	497.99
428.61	508.33
428.99	520.45
429.36	533.03
429.73	545.51
430.10	558.13
430.47	571.36
430.85	584.50
431.22	598.94
431.59	614.51
431.96	629.12
432.33	645.11
432.70	660.60
433.08	679.05
433.45	696.76
433.82	714.32
434.19	733.82
434.56	752.90
434.93	771.40
435.30	790.03
435.68	810.70
436.05	830.89
436.42	851.19
436.79	869.86
437.16	890.49
437.53	912.22
437.90	934.01
438.27	955.13
438.64	977.37
439.01	998.06
439.38	1016.38
439.75	1034.53
440.13	1055.06
440.50	1074.38
440.87	1090.20
441.24	1106.80
441.61	1124.72
441.98	1138.41
442.35	1153.89
442.72	1169.75
443.09	1185.10
443.46	1194.98
443.83	1202.19
444.20	1208.53
444.57	1216.78
444.94	1220.83
445.31	1225.48
445.68	1230.31
446.05	1232.55
446.42	1231.11
446.79	1229.50
447.16	1227.84
447.53	1226.59
447.90	1219.58
448.27	1212.53
448.64	1202.55
449.01	1195.25
449.37	1182.20
449.74	1168.83
450.11	1153.61
450.48	1136.01
450.85	1118.13
451.22	1102.98
451.59	1088.03
451.96	1074.17
452.33	1055.41
452.70	1038.45
453.07	1017.95
453.43	996.69
453.80	977.00
454.17	957.88
454.54	939.81
454.91	920.10
455.28	901.09
455.65	883.31
456.02	866.53
456.38	851.61
456.75	832.88
457.12	817.22
457.49	802.15
457.86	787.12
458.23	774.91
458.59	761.16
458.96	747.14
459.33	735.03
459.70	722.53
460.07	713.03
460.43	701.82
460.80	691.63
461.17	682.90
461.54	673.40
461.91	664.29
462.27	654.97
462.64	647.15
463.01	638.57
463.38	630.39
463.74	621.12
464.11	613.66
464.48	607.47
464.85	600.36
465.21	595.29
465.58	589.54
465.95	582.44
466.32	577.17
466.68	571.58
467.05	566.30
467.42	560.99
467.78	555.06
468.15	550.05
468.52	546.20
468.88	540.63
469.25	535.87
469.62	532.54
469.98	528.42
470.35	524.74
470.72	521.20
471.08	517.18
471.45	514.32
471.82	511.20
472.18	507.46
472.55	505.14
472.92	502.00
473.28	499.50
473.65	497.08
474.02	494.33
474.38	492.26
474.75	490.41
475.11	488.16
475.48	486.64
475.85	485.05
476.21	483.38
476.58	482.20
476.94	481.40
477.31	479.97
477.67	478.90
478.04	477.94
478.41	477.48
478.77	477.97
479.14	477.12
479.50	476.97
479.87	477.22
480.23	477.21
480.60	476.98
480.96	476.82
481.33	477.56
481.69	478.02
482.06	478.33
482.42	478.66
482.79	479.42
483.15	480.35
483.52	481.50
483.88	482.58
484.25	483.69
484.61	484.81
484.98	486.08
485.34	488.09
485.71	490.18
486.07	491.96
486.44	493.05
486.80	495.33
487.17	497.34
487.53	500.01
487.90	502.77
488.26	506.21
488.62	509.68
488.99	512.64
489.35	515.95
489.72	519.65
490.08	523.34
490.44	527.25
490.81	531.40
491.17	535.38
491.54	539.72
491.90	544.15
492.26	548.91
492.63	554.11
492.99	558.99
493.36	564.06
493.72	569.86
494.08	575.60
494.45	581.72
494.81	588.25
495.17	594.56
495.54	601.11
495.90	607.58
496.26	614.16
496.63	621.08
496.99	628.43
497.35	635.88
497.72	643.65
498.08	651.34
498.44	659.29
498.80	667.82
499.17	675.83
499.53	684.60
499.89	693.65
500.26	702.56
500.62	711.40
500.98	720.78
501.34	729.62
501.71	739.05
502.07	748.03
502.43	757.40
502.79	766.29
503.16	775.72
503.52	785.62
503.88	795.51
504.24	805.86
504.60	816.00
504.97	826.26
505.33	836.47
505.69	847.29
506.05	857.85
506.41	868.36
506.78	879.03
507.14	889.50
507.50	899.82
507.86	910.21
508.22	920.81
508.59	931.00
508.95	941.76
509.31	952.95
509.67	963.83
510.03	974.27
510.39	985.19
510.75	995.88
511.12	1006.03
511.48	1016.41
511.84	1026.49
512.20	1036.53
512.56	1046.69
512.92	1056.80
513.28	1066.67
513.64	1076.21
514.00	1085.79
514.37	1095.44
514.73	1104.94
515.09	1114.56
515.45	1123.95
515.81	1133.16
516.17	1142.50
516.53	1150.99
516.89	1158.44
517.25	1167.10
517.61	1176.23
517.97	1185.22
518.33	1193.82
518.69	1202.43
519.05	1210.88
519.41	1219.03
519.77	1227.48
520.13	1235.19
520.49	1242.55
520.85	1250.10
521.21	1257.72
521.57	1264.73
521.93	1271.61
522.29	1278.89
522.65	1284.80
523.01	1290.71
523.37	1296.65
523.73	1302.20
524.09	1307.60
524.45	1313.25
524.81	1318.62
525.17	1323.40
525.53	1328.02
525.89	1332.50
526.25	1336.98
526.61	1341.03
526.97	1345.49
527.33	1349.88
527.68	1355.17
528.04	1359.70
528.40	1363.68
528.76	1368.15
529.12	1372.47
529.48	1376.82
529.84	1380.10
530.20	1384.44
530.56	1388.93
530.91	1393.33
531.27	1397.70
531.63	1402.06
531.99	1406.47
532.35	1410.40
532.71	1414.53
533.07	1418.75
533.42	1422.55
533.78	1426.32
534.14	1430.60
534.50	1433.94
534.86	1437.72
535.21	1440.19
535.57	1444.00
535.93	1446.82
536.29	1449.81
536.65	1453.13
537.00	1455.99
537.36	1459.03
537.72	1461.64
538.08	1464.69
538.44	1467.36
538.79	1470.21
539.15	1473.29
539.51	1476.06
539.87	1478.37
540.22	1480.09
540.58	1482.43
540.94	1484.47
541.29	1486.21
541.65	1487.33
542.01	1489.42
542.37	1490.07
542.72	1490.70
543.08	1491.11
543.44	1492.76
543.79	1492.55
544.15	1493.06
544.51	1493.73
544.87	1494.27
545.22	1494.57
545.58	1494.14
545.94	1493.45
546.29	1492.48
546.65	1491.69
547.01	1490.60
547.36	1489.50
547.72	1489.04
548.07	1487.13
548.43	1486.45
548.79	1485.68
549.14	1484.61
549.50	1483.52
549.86	1482.24
550.21	1481.81
550.57	1481.28
550.92	1479.60
551.28	1478.83
551.64	1477.71
551.99	1477.01
552.35	1476.19
552.70	1475.30
553.06	1474.85
553.41	1474.20
553.77	1474.50
554.13	1474.36
554.48	1474.32
554.84	1474.10
555.19	1473.77
555.55	1475.10
555.90	1474.05
556.26	1472.81
556.61	1471.58
556.97	1470.07
557.32	1469.71
557.68	1468.82
558.03	1467.86
558.39	1466.94
558.74	1466.30
559.10	1464.93
559.45	1463.21
559.81	1461.30
560.16	1459.55
560.52	1457.57
560.87	1456.53
561.23	1454.09
561.58	1452.58
561.94	1450.07
562.29	1447.53
562.64	1445.55
563.00	1441.68
563.35	1440.10
563.71	1438.43
564.06	1437.48
564.42	1435.90
564.77	1434.40
565.12	1432.94
565.48	1431.79
565.83	1430.46
566.19	1429.15
566.54	1427.53
566.89	1425.70
567.25	1424.71
567.60	1424.05
567.96	1423.85
568.31	1422.57
568.66	1421.21
569.02	1418.64
569.37	1417.32
569.72	1416.71
570.08	1414.07
570.43	1412.43
570.78	1410.30
571.14	1408.09
571.49	1405.38
571.84	1403.43
572.20	1400.56
572.55	1397.82
572.90	1394.05
573.26	1390.94
573.61	1387.84
573.96	1385.12
574.31	1381.90
574.67	1378.48
575.02	1374.45
575.37	1369.72
575.72	1365.50
576.08	1361.84
576.43	1358.33
576.78	1354.37
577.13	1349.80
577.49	1346.70
577.84	1343.46
578.19	1340.46
578.54	1337.35
578.90	1334.11
579.25	1330.50
579.60	1327.03
579.95	1322.99
580.30	1319.38
580.66	1315.21
581.01	1310.66
581.36	1305.97
581.71	1302.41
582.06	1298.38
582.42	1294.89
582.77	1291.00
583.12	1287.12
583.47	1283.25
583.82	1279.73
584.17	1276.36
584.53	1273.50
584.88	1269.18
585.23	1264.63
585.58	1259.00
585.93	1254.25
586.28	1249.65
586.63	1244.56
586.98	1239.46
587.34	1235.26
587.69	1230.63
588.04	1227.32
588.39	1223.84
588.74	1219.78
589.09	1215.99
589.44	1211.20
589.79	1206.54
590.14	1202.21
590.49	1197.99
590.84	1193.93
591.19	1189.70
591.54	1184.75
591.89	1179.70
592.25	1176.82
592.60	1172.75
592.95	1168.90
593.30	1164.39
593.65	1159.64
594.00	1155.18
594.35	1153.54
594.70	1148.58
595.05	1144.16
595.40	1139.00
595.75	1133.93
596.10	1129.51
596.45	1124.60
596.80	1120.77
597.15	1116.52
597.50	1111.95
597.85	1107.67
598.19	1102.80
598.54	1097.64
598.89	1093.09
599.24	1088.69
599.59	1082.96
599.94	1078.18
600.29	1073.87
600.64	1069.20
600.99	1064.72
601.34	1061.01
601.69	1054.26
602.04	1050.12
602.39	1046.10
602.74	1042.46
603.08	1038.52
603.43	1034.80
603.78	1030.46
604.13	1025.98
604.48	1021.16
604.83	1016.57
605.18	1011.88
605.53	1007.56
605.87	1003.35
606.22	999.41
606.57	995.26
606.92	991.27
607.27	987.36
607.62	983.28
607.96	979.80
608.31	976.30
608.66	972.27
609.01	968.46
609.36	964.46
609.70	960.34
610.05	955.50
610.40	951.02
610.75	946.60
611.10	942.68
611.44	938.03
611.79	933.84
612.14	929.94
612.49	925.43
612.83	921.34
613.18	917.18
613.53	912.87
613.88	908.25
614.22	903.38
614.57	898.60
614.92	893.99
615.27	889.38
615.61	884.58
615.96	879.79
616.31	874.87
616.65	870.51
617.00	865.97
617.35	861.68
617.70	857.40
618.04	852.86
618.39	848.27
618.74	844.67
619.08	840.40
619.43	835.94
619.78	831.58
620.12	826.70
620.47	822.37
620.82	817.89
621.16	813.41
621.51	809.95
621.85	805.97
622.20	801.81
622.55	797.45
622.89	793.12
623.24	788.97
623.59	785.00
623.93	780.95
624.28	776.72
624.62	773.65
624.97	770.07
625.32	765.98
625.66	761.83
626.01	757.23
626.35	753.51
626.70	749.64
627.04	746.43
627.39	742.73
627.73	739.13
628.08	735.33
628.43	731.49
628.77	727.09
629.12	723.24
629.46	719.79
629.81	716.55
630.15	713.12
630.50	709.26
630.84	705.47
631.19	701.64
631.53	698.50
631.88	693.64
632.22	689.48
632.57	686.25
632.91	682.70
633.26	679.65
633.60	675.95
633.95	672.26
634.29	668.09
634.64	664.68
634.98	660.70
635.32	657.52
635.67	654.50
636.01	651.03
636.36	647.57
636.70	644.52
637.05	641.02
637.39	637.72
637.73	634.78
638.08	631.81
638.42	628.57
638.77	624.67
639.11	621.09
639.45	617.47
639.80	613.74
640.14	610.33
640.49	606.76
640.83	603.55
641.17	600.65
641.52	597.53
641.86	594.32
642.20	591.98
642.55	588.68
642.89	585.57
643.23	582.59
643.58	579.99
643.92	576.31
644.26	573.19
644.61	570.35
644.95	567.21
645.29	563.86
645.64	561.13
645.98	558.44
646.32	556.09
646.66	553.31
647.01	550.43
647.35	547.81
647.69	545.20
648.04	542.61
648.38	539.94
648.72	537.27
649.06	534.46
649.41	531.21
649.75	528.32
650.09	525.64
650.43	523.00
650.78	519.96
651.12	517.34
651.46	514.84
651.80	512.20
652.14	509.66
652.49	507.55
652.83	504.76
653.17	502.34
653.51	499.73
653.85	497.57
654.20	495.40
654.54	492.96
654.88	490.27
655.22	488.24
655.56	485.78
655.90	483.51
656.25	481.32
656.59	479.32
656.93	477.15
657.27	475.04
657.61	472.50
657.95	470.52
658.29	468.18
658.64	465.95
658.98	463.50
659.32	461.07
659.66	458.64
660.00	456.60
660.34	454.47
660.68	452.16
661.02	449.89
661.36	447.60
661.70	445.38
662.05	443.34
662.39	441.06
662.73	439.29
663.07	437.72
663.41	435.89
663.75	433.66
664.09	431.64
664.43	429.36
664.77	427.57
665.11	425.30
665.45	423.50
665.79	421.82
666.13	419.96
666.47	418.04
666.81	416.04
667.15	413.99
667.49	412.10
667.83	410.72
668.17	408.86
668.51	407.13
668.85	405.55
669.19	404.33
669.53	402.32
669.87	400.32
670.21	398.24
670.55	396.48
670.89	395.25
671.23	393.68
671.57	392.09
671.91	390.55
672.25	389.08
672.58	387.89
672.92	385.89
673.26	384.53
673.60	383.18
673.94	381.92
674.28	380.69
674.62	379.42
674.96	377.70
675.30	376.34
675.64	375.06
675.97	373.56
676.31	371.78
676.65	370.45
676.99	369.18
677.33	367.61
677.67	366.27
678.01	364.35
678.34	363.11
678.68	361.94
679.02	360.56
679.36	359.31
679.70	357.84
680.04	356.74
680.37	355.30
680.71	354.08
681.05	352.80
681.39	351.54
681.73	350.23
682.06	348.98
682.40	347.84
682.74	346.67
683.08	345.90
683.42	344.67
683.75	343.67
684.09	342.60
684.43	341.86
684.77	340.70
685.10	339.81
685.44	338.79
685.78	337.62
686.12	336.50
686.45	335.40
686.79	334.38
687.13	333.51
687.46	332.46
687.80	331.56
688.14	330.63
688.48	329.64
688.81	328.66
689.15	327.93
689.49	326.91
689.82	326.01
690.16	324.56
690.50	323.72
690.83	322.76
691.17	321.50
691.51	320.49
691.84	319.53
692.18	318.47
692.52	317.32
692.85	316.52
693.19	316.12
693.52	315.11
693.86	314.16
694.20	313.25
694.53	312.68
694.87	311.76
695.21	310.94
695.54	310.04
695.88	308.97
696.21	307.90
696.55	307.20
696.88	306.29
697.22	305.58
697.56	304.81
697.89	303.81
698.23	303.17
698.56	302.29
698.90	301.68
699.23	301.01
699.57	300.30
699.90	299.36
700.24	298.34
700.58	297.78
700.91	297.24
701.25	297.15
701.58	297.06
701.92	296.64
702.25	295.89
702.59	295.25
702.92	294.74
703.26	294.22
703.59	293.42
703.93	293.55
704.26	292.96
704.60	292.32
704.93	291.70
705.26	291.13
705.60	290.68
705.93	289.86
706.27	289.50
706.60	289.22
706.94	289.12
707.27	288.46
707.61	287.88
707.94	287.14
708.27	285.83
708.61	284.48
708.94	283.72
709.28	283.10
709.61	282.35
709.94	281.87
710.28	281.26
710.61	280.85
710.95	279.45
711.28	279.43
711.61	278.81
711.95	278.60
712.28	277.86
712.61	277.20
712.95	277.26
713.28	277.03
713.61	276.33
713.95	275.50
714.28	274.99
714.61	274.46
714.95	273.99
715.28	273.34
715.61	272.89
715.95	272.47
716.28	271.77
716.61	271.52
716.95	270.89
717.28	270.42
717.61	269.78
717.94	269.39
718.28	268.37
718.61	267.98
718.94	267.21
719.27	266.86
719.61	266.41
719.94	265.61
720.27	264.66
720.60	264.24
720.94	263.79
721.27	263.42
721.60	263.04
721.93	262.50
722.27	262.62
722.60	262.31
722.93	261.69
723.26	261.50
723.59	260.99
723.93	260.81
724.26	260.46
724.59	260.05
724.92	259.75
725.25	259.64
725.59	259.24
725.92	259.12
726.25	258.85
726.58	258.61
726.91	258.28
727.24	258.09
727.57	257.71
727.91	257.21
728.24	257.03
728.57	256.70
728.90	256.57
729.23	255.91
729.56	256.07
729.89	255.88
730.22	255.62
730.55	255.35
730.89	255.02
731.22	254.75
731.55	254.64
731.88	254.37
732.21	253.97
732.54	253.72
732.87	253.38
733.20	253.24
733.53	253.10
733.86	253.03
734.19	252.65
734.52	252.59
734.85	253.11
735.18	252.69
735.51	252.85
735.84	252.75
736.17	252.88
736.50	252.18
736.83	253.15
737.16	252.94
737.49	252.79
737.82	252.54
738.15	252.44
738.48	252.18
738.81	252.06
739.14	251.70
739.47	251.49
739.80	251.34
740.13	251.25
740.46	250.80
740.79	250.40
741.12	250.27
741.45	249.90
741.78	249.19
742.11	249.32
742.44	248.78
742.77	248.60
743.10	248.15
743.43	247.76
743.75	246.49
744.08	247.55
744.41	247.30
744.74	247.05
745.07	246.60
745.40	246.53
745.73	246.70
746.06	246.56
746.39	246.46
746.71	246.23
747.04	245.83
747.37	245.62
747.70	245.60
748.03	245.57
748.36	245.61
748.68	245.41
749.01	245.02
749.34	244.97
749.67	244.83
750.00	244.75
750.33	245.48
750.65	245.50
750.98	244.09
751.31	243.95
751.64	243.93
751.97	244.35
752.29	244.15
752.62	243.54
752.95	243.42
753.28	243.16
753.60	242.95
753.93	243.07
754.26	243.12
754.59	242.76
754.91	242.47
755.24	242.20
755.57	242.19
755.90	241.91
756.22	241.64
756.55	241.30
756.88	240.99
757.20	240.12
757.53	239.67
757.86	239.54
758.19	239.46
758.51	239.19
758.84	238.66
759.17	238.47
759.49	238.40
759.82	238.66
760.15	238.72
760.47	238.62
760.80	238.17
761.13	238.11
761.45	237.99
761.78	237.90
762.11	237.89
762.43	237.60
762.76	237.52
763.08	237.54
763.41	237.56
763.74	237.62
764.06	237.59
764.39	237.51
764.71	237.40
765.04	237.20
765.37	237.12
765.69	237.06
766.02	237.00
766.34	236.88
766.67	236.44
767.00	236.47
767.32	236.93
767.65	237.50
767.97	237.38
768.30	237.34
768.62	237.35
768.95	237.15
769.27	237.07
769.60	237.17
769.92	236.96
770.25	236.80
770.57	236.46
770.90	236.38
771.22	236.26
771.55	236.20
771.87	236.21
772.20	236.14
772.52	236.86
772.85	237.84
773.17	237.79
773.50	237.76
773.82	237.54
774.15	236.94
774.47	236.32
774.80	236.21
775.12	236.13
775.45	235.93
775.77	235.87
776.09	235.91
776.42	235.77
776.74	236.01
777.07	235.85
777.39	235.89
777.72	235.80
778.04	235.89
778.36	235.80
778.69	235.72
779.01	235.70
779.33	234.76
779.66	233.67
779.98	233.49
780.31	233.43
780.63	233.72
780.95	233.87
781.28	233.73
781.60	233.62
781.92	233.53
782.25	233.56
782.57	233.44
782.89	233.34
783.22	233.29
783.54	232.98
783.86	233.01
784.19	232.89
784.51	233.10
784.83	232.84
785.16	232.67
785.48	232.70
785.80	232.69
786.12	232.79
786.45	232.77
786.77	232.81
787.09	232.70
787.42	232.33
787.74	232.34
788.06	232.31
788.38	232.19
788.71	232.09
789.03	232.11
789.35	232.23
789.67	232.07
789.99	232.11
790.32	231.95
790.64	232.10
790.96	232.80
791.28	232.41
791.61	232.38
791.93	232.46
792.25	232.34
792.57	232.94
792.89	232.68
793.21	232.66
793.54	232.53
793.86	232.42
794.18	232.41
794.50	232.17
794.82	232.12
795.14	232.20
795.47	232.42
795.79	232.30
796.11	232.03
796.43	232.00
796.75	232.00
797.07	232.13
797.39	231.93
797.71	231.30
798.04	231.30
798.36	231.35
798.68	231.30
799.00	231.40
799.32	230.82
799.64	231.06
799.96	231.08
800.28	231.26
800.60	231.23
800.92	231.30
801.24	231.24
801.56	231.30
801.89	231.22
802.21	231.17
802.53	230.98
802.85	231.22
803.17	231.64
803.49	231.39
803.81	231.29
804.13	231.30
804.45	231.29
804.77	231.39
805.09	231.40
805.41	231.36
805.73	231.12
806.05	230.89
806.37	230.75
806.69	230.58
807.01	230.38
807.33	230.40
807.65	230.14
807.97	230.63
808.28	230.54
808.60	230.51
808.92	230.38
809.24	230.99
809.56	230.82
809.88	230.44
810.20	230.57
810.52	230.69
810.84	230.60
811.16	230.49
811.48	230.42
811.80	230.78
812.12	230.73
812.43	230.92
812.75	231.06
813.07	230.98
813.39	231.08
813.71	231.03
814.03	230.99
814.35	230.98
814.67	230.49
814.98	230.46
815.30	230.45
815.62	230.30
815.94	229.64
816.26	230.16
816.58	230.06
816.89	230.05
817.21	229.88
817.53	229.95
817.85	230.00
818.17	229.97
818.48	229.52
818.80	229.75
819.12	229.67
819.44	229.52
819.76	229.48
820.07	229.47
820.39	229.45
820.71	229.52
821.03	229.55
821.34	229.59
821.66	229.75
821.98	229.77
822.30	229.79
822.61	230.39
822.93	229.80
823.25	229.77
823.57	229.66
823.88	229.87
824.20	229.79
824.52	229.86
824.83	229.89
825.15	229.71
825.47	229.59
825.79	229.56
826.10	229.46
826.42	229.43
826.74	229.47
827.05	229.50
827.37	229.55
827.69	229.47
828.00	229.40
828.32	229.27
828.64	229.22
828.95	229.68
829.27	229.41
829.58	229.39
829.90	229.54
830.22	229.57
830.53	229.18
830.85	229.06
831.17	228.84
831.48	228.69
831.80	228.86
832.11	228.79
832.43	228.76
832.75	228.75
833.06	229.24
833.38	228.99
833.69	228.87
834.01	228.94
834.32	228.93
834.64	228.92
834.96	228.98
835.27	228.95
835.59	228.62
835.90	228.44
836.22	228.41
836.53	228.23
836.85	228.20
837.16	229.36
837.48	229.36
837.79	229.70
838.11	229.78
838.42	229.82
838.74	230.01
839.05	229.94
839.37	230.03
839.68	229.53
840.00	229.65
840.31	229.78
840.63	229.62
840.94	229.55
841.26	229.46
841.57	229.51
841.88	229.72
842.20	229.66
842.51	229.55
842.83	229.64
843.14	230.44
843.46	230.47
843.77	229.77
844.08	229.74
844.40	229.50
844.71	229.46
845.03	229.28
845.34	229.20
845.65	229.17
845.97	229.24
846.28	229.26
846.60	229.18
846.91	229.05
847.22	229.01
847.54	229.25
847.85	229.30
848.16	229.14
848.48	228.77
848.79	229.06
849.10	229.16
849.42	229.20
849.73	228.40
850.04	228.32
850.36	228.05
850.67	228.30
850.98	228.22
851.30	228.36
851.61	228.33
851.92	228.25
852.23	228.65
852.55	228.60
852.86	228.65
853.17	228.81
853.49	229.05
853.80	229.26
854.11	229.18
854.42	229.28
854.74	229.12
855.05	229.25
855.36	228.87
855.67	228.95
855.99	228.94
856.30	230.02
856.61	230.13
856.92	230.18
857.23	230.10
857.55	230.04
857.86	229.96
858.17	230.24
858.48	230.07
858.79	229.76
859.11	229.89
859.42	229.80
859.73	229.61
860.04	229.57
860.35	229.27
860.66	229.03
860.98	229.06
861.29	229.27
861.60	229.18
861.91	229.35
862.22	229.16
862.53	228.96
862.84	227.80
863.16	228.01
863.47	227.90
863.78	227.79
864.09	227.94
864.40	228.03
864.71	227.94
865.02	228.10
865.33	227.91
865.64	227.67
865.95	227.72
866.27	228.34
866.58	228.25
866.89	228.48
867.20	228.58
867.51	228.44
867.82	228.33
868.13	228.60
868.44	228.43
868.75	228.63
869.06	228.69
869.37	228.88
869.68	228.61
869.99	228.74
870.30	228.89
870.61	229.00
870.92	228.82
871.23	228.75
871.54	228.89
871.85	229.14
872.16	229.30
872.47	229.13
872.78	228.61
873.09	228.70
873.40	228.47
873.71	228.55
874.02	228.57
874.33	228.53
874.64	228.43
874.95	228.69
875.26	228.47
875.56	228.50
875.87	228.40
876.18	228.33
876.49	229.27
876.80	229.11
877.11	228.85
877.42	228.93
877.73	228.95
878.04	228.76
878.35	228.80
878.66	228.86
878.96	228.88
879.27	228.87
879.58	228.76
879.89	228.81
880.20	229.05
880.51	229.01
880.82	229.03
881.12	229.05
881.43	228.73
881.74	228.64
882.05	228.57
882.36	228.61
882.67	228.64
882.97	227.61
883.28	227.52
883.59	227.60
883.90	227.63
884.21	227.70
884.51	227.61
884.82	227.42
885.13	227.35
885.44	227.37
885.74	227.30
886.05	227.32
886.36	227.24
886.67	226.90
886.98	227.32
887.28	227.43
887.59	227.43
887.90	227.51
888.20	227.47
888.51	227.66
888.82	227.56
889.13	227.64
889.43	228.45
889.74	228.45
890.05	228.41
890.35	228.25
890.66	228.19
890.97	228.17
891.28	228.18
891.58	228.14
891.89	228.11
892.20	228.05
892.50	227.93
892.81	228.07
893.12	227.92
893.42	227.56
893.73	227.54
894.04	227.56
894.34	227.60
894.65	227.61
894.95	227.55
895.26	227.68
895.57	228.07
895.87	227.14
896.18	227.30
896.48	227.39
896.79	227.47
897.10	227.56
897.40	227.65
897.71	227.72
898.01	227.76
898.32	227.80
898.63	227.82
898.93	227.88
899.24	227.90
899.54	227.93
899.85	227.88
900.15	227.91
900.46	227.89
900.76	227.95
901.07	227.88
901.38	227.85
901.68	227.83
901.99	227.34
902.29	227.39
902.60	227.40
902.90	227.19
903.21	227.11
903.51	227.03
903.82	227.23
904.12	227.23
904.43	227.21
904.73	227.18
905.03	227.19
905.34	228.12
905.64	228.00
905.95	228.10
906.25	228.05
906.56	227.98
906.86	227.94
907.17	227.79
907.47	227.97
907.77	227.91
908.08	227.72
908.38	227.78
908.69	227.93
908.99	227.92
909.30	228.03
909.60	228.07
909.90	228.07
910.21	227.76
910.51	227.67
910.81	227.62
911.12	227.77
911.42	227.85
911.73	226.86
912.03	227.01
912.33	227.17
912.64	227.30
912.94	227.17
913.24	226.98
913.55	227.07
913.85	226.96
914.15	227.19
914.46	227.28
914.76	227.17
915.06	227.01
915.37	226.85
915.67	226.72
915.97	226.80
916.27	226.63
916.58	226.77
916.88	226.66
917.18	226.64
917.49	227.23
917.79	227.08
918.09	227.22
918.39	227.39
918.70	227.29
919.00	227.23
919.30	227.74
919.60	227.84
919.91	227.73
920.21	227.76
920.51	227.47
920.81	227.47
921.12	227.65
921.42	227.66
921.72	227.78
922.02	227.93
922.32	227.95
922.63	228.02
922.93	228.40
923.23	228.52
923.53	228.43
923.83	227.80
924.13	228.01
924.44	227.94
924.74	228.02
925.04	228.26
925.34	228.21
925.64	227.84
925.94	227.83
926.24	228.33
926.55	228.41
926.85	228.55
927.15	228.54
927.45	228.53
927.75	228.60
928.05	228.60
928.35	228.58
928.65	228.73
928.95	228.87
929.26	228.42
929.56	228.58
929.86	228.72
930.16	228.63
930.46	228.54
930.76	228.63
931.06	228.27
931.36	228.11
931.66	228.20
931.96	228.36
932.26	228.34
932.56	227.93
932.86	227.81
933.16	227.77
933.46	227.70
933.76	227.51
934.06	227.71
934.36	228.11
934.66	228.16
934.96	228.05
935.26	228.00
935.56	228.23
935.86	227.96
936.16	227.85
936.46	227.83
936.76	227.76
937.06	227.58
937.36	227.59
937.66	227.48
937.96	227.46
938.26	227.22
938.56	227.13
938.86	227.27
939.16	227.57
939.46	227.79
939.76	227.83
940.06	227.95
940.35	227.64
940.65	227.16
940.95	227.19
941.25	226.98
941.55	226.87
941.85	226.82
942.15	227.15
942.45	227.42
942.75	227.30
943.04	227.29
943.34	227.61
943.64	227.55
943.94	227.44
944.24	227.50
944.54	227.50
944.84	227.62
945.13	227.42
945.43	227.15
945.73	227.06
946.03	227.02
946.33	226.88
946.62	226.94
946.92	226.91
947.22	226.99
947.52	227.03
947.82	227.12
948.11	226.97
948.41	226.68
948.71	226.35
949.01	226.52
949.31	226.45
949.60	226.40
949.90	226.56
950.20	226.46
950.50	226.41
950.79	226.40
951.09	226.47
951.39	226.48
951.69	226.37
951.98	226.56
952.28	226.55
952.58	226.64
952.87	226.61
953.17	226.80
953.47	226.58
953.76	226.60
954.06	226.51
954.36	226.38
954.66	226.40
954.95	226.77
955.25	226.84
955.55	226.91
955.84	226.67
956.14	226.69
956.44	226.76
956.73	226.61
957.03	226.76
957.32	226.79
957.62	226.80
957.92	227.07
958.21	226.96
958.51	228.02
958.81	228.08
959.10	228.18
959.40	228.30
959.69	228.40
959.99	228.70
960.29	228.75
960.58	228.81
960.88	229.13
961.17	228.93
961.47	229.09
961.76	229.10
962.06	229.24
962.36	229.13
962.65	229.28
962.95	229.37
963.24	229.24
963.54	229.28
963.83	229.37
964.13	229.26
964.42	229.00
964.72	228.27
965.01	228.25
965.31	228.18
965.60	227.98
965.90	228.56
966.19	228.20
966.49	228.12
966.78	228.10
967.08	227.97
967.37	228.02
967.67	227.71
967.96	227.89
968.26	227.84
968.55	228.05
968.85	227.94
969.14	227.87
969.43	227.82
969.73	227.64
970.02	227.57
970.32	227.53
970.61	227.53
970.91	227.31
971.20	227.22
971.49	227.14
971.79	227.19
972.08	226.52
972.38	226.55
972.67	226.51
972.96	226.61
973.26	226.50
973.55	226.78
973.85	226.81
974.14	226.63
974.43	226.71
974.73	226.49
975.02	226.52
975.31	226.59
975.61	226.50
975.90	226.52
976.19	226.38
976.49	226.52
976.78	226.53
977.07	226.40
977.37	226.49
977.66	226.61
977.95	226.45
978.24	226.47
978.54	226.79
978.83	226.84
979.12	226.81
979.42	226.82
979.71	226.65
980.00	226.53
980.29	226.63
980.59	226.49
980.88	226.71
981.17	226.63
981.46	226.64
981.76	226.71
982.05	226.96
982.34	227.10
982.63	227.07
982.93	227.17
983.22	227.49
983.51	227.49
983.80	227.60
984.09	227.87
984.39	227.82
984.68	227.61
984.97	227.67
985.26	227.63
985.55	227.71
985.85	227.41
986.14	227.68
986.43	227.82
986.72	227.73
987.01	227.50
987.30	227.49
987.59	227.40
987.89	227.49
988.18	227.25
988.47	227.25
988.76	227.17
989.05	227.04
989.34	226.91
989.63	227.18
989.92	227.08
990.22	226.83
990.51	226.90
990.80	226.91
991.09	226.99
991.38	227.07
991.67	227.01
991.96	227.15
992.25	227.19
992.54	227.07
992.83	227.13
993.12	227.03
993.41	227.20
993.70	227.67
993.99	227.87
994.28	228.00
994.58	228.10
994.87	227.99
995.16	228.05
995.45	228.03
995.74	227.60
996.03	227.67
996.32	227.85
996.61	228.00
996.90	227.96
997.19	227.92
997.48	227.94
997.77	227.77
998.06	227.79
998.34	227.67
998.63	227.52
998.92	227.62
999.21	227.86
999.50	227.90
999.79	227.51
1000.08	227.28
1000.37	227.28
1000.66	227.05
1000.95	227.33
1001.24	227.34
1001.53	227.42
1001.82	227.43
1002.11	227.24
1002.40	227.25
1002.68	227.44
1002.97	228.05
1003.26	227.93
1003.55	227.73
1003.84	227.90
1004.13	228.19
1004.42	228.21
1004.71	228.22
1004.99	228.09
1005.28	228.22
1005.57	228.11
1005.86	227.96
1006.15	227.97
1006.44	227.74
1006.72	227.94
1007.01	227.75
1007.30	227.73
1007.59	227.55
1007.88	227.55
1008.17	227.66
1008.45	227.44
1008.74	227.07
1009.03	226.59
1009.32	226.55
1009.60	226.59
1009.89	226.50
1010.18	226.17
1010.47	226.15
1010.76	226.19
1011.04	226.20
1011.33	226.21
1011.62	226.35
1011.91	226.51
1012.19	226.56
1012.48	226.56
1012.77	226.53
1013.05	226.93
1013.34	227.00
1013.63	226.99
1013.92	227.09
1014.20	226.96
1014.49	227.04
1014.78	227.11
1015.06	226.87
1015.35	226.93
1015.64	226.98
1015.92	227.11
1016.21	227.07
1016.50	227.01
1016.78	227.06
1017.07	227.12
1017.36	226.92
1017.64	226.70
1017.93	226.73
1018.22	226.64
1018.50	226.64
1018.79	226.45
1019.08	226.01
1019.36	226.03
1019.65	225.90
1019.93	226.09
1020.22	226.30
1020.51	226.85
1020.79	226.88
1021.08	224.90
1021.36	224.00
1021.65	223.40
1021.94	225.90
1022.22	227.60
1022.51	223.60
1022.79	230.20
1023.08	229.20
1023.36	239.10
1023.65	226.80
>>>>>End Processed Spectral Data<<<<<
