SpectraSuite Data File
++++++++++++++++++++++++++++++++++++
Date: Wed Sep 04 17:29:58 EDT 2013
User: lab3
Dark Spectrum Present: Yes
Reference Spectrum Present: No
Number of Sampled Component Spectra: 1
Spectrometers: USB2E7196
Integration Time (usec): 337000 (USB2E7196)
Spectra Averaged: 10 (USB2E7196)
Boxcar Smoothing: 10 (USB2E7196)
Correct for Electrical Dark: No (USB2E7196)
Strobe/Lamp Enabled: No (USB2E7196)
Correct for Detector Non-linearity: No (USB2E7196)
Correct for Stray Light: No (USB2E7196)
Number of Pixels in Processed Spectrum: 2048
>>>>>Begin Processed Spectral Data<<<<<
339.09	0.00
339.48	214.00
339.86	213.80
340.24	215.60
340.63	216.80
341.01	233.50
341.39	220.50
341.78	223.00
342.16	226.80
342.54	222.00
342.93	213.10
343.31	223.81
343.69	224.29
344.07	224.80
344.46	225.47
344.84	225.96
345.22	225.61
345.60	225.93
345.99	226.09
346.37	226.08
346.75	226.30
347.13	226.34
347.52	226.52
347.90	226.83
348.28	226.87
348.66	227.09
349.05	226.84
349.43	226.91
349.81	227.04
350.19	227.05
350.57	227.27
350.96	227.36
351.34	227.45
351.72	227.69
352.10	227.79
352.48	227.65
352.87	227.61
353.25	227.63
353.63	227.57
354.01	227.65
354.39	227.83
354.77	227.80
355.15	228.13
355.54	228.11
355.92	227.94
356.30	228.03
356.68	228.68
357.06	228.76
357.44	228.71
357.82	228.82
358.20	229.75
358.58	229.70
358.97	229.77
359.35	230.07
359.73	230.23
360.11	230.26
360.49	230.34
360.87	230.47
361.25	230.65
361.63	231.07
362.01	231.27
362.39	231.21
362.77	231.37
363.15	231.38
363.53	231.39
363.91	231.47
364.29	231.37
364.67	230.46
365.05	230.45
365.43	230.58
365.81	230.56
366.19	230.24
366.57	230.74
366.95	230.72
367.33	230.48
367.71	230.48
368.09	230.72
368.47	230.74
368.85	230.69
369.23	230.98
369.61	230.68
369.99	230.85
370.37	230.97
370.75	231.36
371.13	231.12
371.51	231.04
371.89	231.21
372.27	231.26
372.65	231.29
373.03	231.37
373.41	231.28
373.78	231.26
374.16	230.71
374.54	230.35
374.92	230.25
375.30	230.27
375.68	230.00
376.06	229.99
376.44	229.84
376.82	229.95
377.19	229.76
377.57	229.79
377.95	229.44
378.33	229.24
378.71	228.78
379.09	228.90
379.47	229.06
379.84	228.85
380.22	228.78
380.60	228.64
380.98	228.62
381.36	228.58
381.73	228.42
382.11	228.61
382.49	228.60
382.87	228.43
383.25	228.39
383.62	229.56
384.00	229.36
384.38	229.43
384.76	229.48
385.13	229.70
385.51	229.60
385.89	229.46
386.27	229.49
386.64	229.53
387.02	229.37
387.40	229.21
387.78	229.30
388.15	229.28
388.53	229.23
388.91	229.05
389.29	228.90
389.66	229.02
390.04	228.74
390.42	228.81
390.79	228.89
391.17	228.89
391.55	227.67
391.92	227.65
392.30	227.79
392.68	227.49
393.05	227.34
393.43	227.32
393.81	227.44
394.18	227.28
394.56	227.23
394.94	227.54
395.31	227.44
395.69	227.67
396.06	227.90
396.44	227.99
396.82	227.98
397.19	228.54
397.57	228.51
397.95	228.90
398.32	228.70
398.70	228.93
399.07	229.24
399.45	229.32
399.82	229.32
400.20	229.24
400.58	229.45
400.95	229.33
401.33	229.63
401.70	230.39
402.08	230.60
402.45	230.82
402.83	231.16
403.20	231.37
403.58	231.52
403.95	231.85
404.33	232.33
404.71	232.73
405.08	233.56
405.46	233.95
405.83	234.28
406.21	234.77
406.58	235.19
406.96	235.58
407.33	236.21
407.70	236.80
408.08	238.16
408.45	238.95
408.83	239.83
409.20	240.41
409.58	240.51
409.95	241.57
410.33	242.54
410.70	243.26
411.08	244.54
411.45	245.63
411.82	246.68
412.20	248.08
412.57	249.92
412.95	250.60
413.32	252.26
413.69	253.83
414.07	255.59
414.44	257.41
414.82	259.39
415.19	261.60
415.56	263.91
415.94	265.83
416.31	268.48
416.68	271.20
417.06	274.47
417.43	277.78
417.81	281.16
418.18	284.62
418.55	288.31
418.93	292.29
419.30	296.44
419.67	300.85
420.04	305.18
420.42	309.70
420.79	315.60
421.16	321.10
421.54	327.12
421.91	333.20
422.28	339.26
422.66	345.75
423.03	352.68
423.40	359.50
423.77	366.63
424.15	373.85
424.52	381.42
424.89	389.89
425.26	397.97
425.64	405.70
426.01	414.21
426.38	423.11
426.75	432.27
427.13	441.35
427.50	451.00
427.87	461.19
428.24	471.18
428.61	480.46
428.99	491.30
429.36	502.55
429.73	513.69
430.10	525.15
430.47	537.18
430.85	548.98
431.22	561.89
431.59	576.13
431.96	589.36
432.33	604.07
432.70	618.12
433.08	634.66
433.45	650.13
433.82	665.91
434.19	683.56
434.56	700.89
434.93	717.55
435.30	734.47
435.68	753.25
436.05	771.69
436.42	789.85
436.79	806.59
437.16	824.95
437.53	844.39
437.90	863.77
438.27	882.70
438.64	902.53
439.01	921.18
439.38	937.56
439.75	953.85
440.13	972.18
440.50	989.47
440.87	1003.50
441.24	1018.82
441.61	1034.97
441.98	1047.02
442.35	1060.77
442.72	1074.95
443.09	1088.74
443.46	1097.43
443.83	1103.78
444.20	1109.25
444.57	1116.95
444.94	1120.59
445.31	1124.51
445.68	1129.05
446.05	1130.80
446.42	1129.48
446.79	1127.89
447.16	1125.85
447.53	1124.53
447.90	1117.80
448.27	1111.00
448.64	1101.86
449.01	1095.05
449.37	1082.77
449.74	1070.93
450.11	1057.24
450.48	1041.65
450.85	1025.25
451.22	1011.08
451.59	997.59
451.96	985.27
452.33	968.31
452.70	953.30
453.07	935.15
453.43	915.75
453.80	898.01
454.17	880.89
454.54	864.54
454.91	847.07
455.28	830.06
455.65	814.25
456.02	799.62
456.38	786.15
456.75	769.43
457.12	755.85
457.49	742.24
457.86	728.65
458.23	717.67
458.59	705.45
458.96	693.13
459.33	682.12
459.70	670.85
460.07	662.08
460.43	651.99
460.80	642.79
461.17	634.76
461.54	626.30
461.91	618.24
462.27	609.90
462.64	602.80
463.01	595.10
463.38	587.90
463.74	579.35
464.11	572.79
464.48	567.02
464.85	560.68
465.21	556.25
465.58	551.33
465.95	545.00
466.32	540.16
466.68	535.23
467.05	530.40
467.42	525.61
467.78	520.54
468.15	515.71
468.52	512.26
468.88	507.40
469.25	503.08
469.62	499.87
469.98	496.16
470.35	492.85
470.72	489.66
471.08	485.87
471.45	483.15
471.82	480.42
472.18	477.20
472.55	475.01
472.92	471.89
473.28	469.21
473.65	467.02
474.02	464.62
474.38	462.69
474.75	461.25
475.11	459.43
475.48	457.75
475.85	456.56
476.21	455.14
476.58	454.09
476.94	453.39
477.31	452.25
477.67	451.30
478.04	450.56
478.41	450.02
478.77	450.55
479.14	449.79
479.50	449.39
479.87	449.39
480.23	449.13
480.60	449.07
480.96	448.93
481.33	449.40
481.69	449.46
482.06	449.84
482.42	449.97
482.79	450.36
483.15	451.22
483.52	452.19
483.88	452.66
484.25	453.50
484.61	454.38
484.98	455.34
485.34	456.96
485.71	458.48
486.07	459.81
486.44	460.58
486.80	462.39
487.17	464.06
487.53	466.31
487.90	468.75
488.26	471.49
488.62	474.37
488.99	476.48
489.35	479.43
489.72	482.27
490.08	485.30
490.44	488.33
490.81	491.80
491.17	494.81
491.54	498.61
491.90	502.50
492.26	506.30
492.63	510.40
492.99	514.33
493.36	518.53
493.72	523.31
494.08	527.87
494.45	532.84
494.81	538.16
495.17	543.25
495.54	548.55
495.90	553.67
496.26	559.21
496.63	565.26
496.99	571.27
497.35	577.43
497.72	583.62
498.08	589.97
498.44	596.17
498.80	603.41
499.17	610.14
499.53	616.82
499.89	624.05
500.26	631.23
500.62	638.58
500.98	645.97
501.34	652.97
501.71	660.51
502.07	667.72
502.43	675.00
502.79	682.47
503.16	690.25
503.52	698.21
503.88	705.68
504.24	713.51
504.60	721.58
504.97	729.86
505.33	738.15
505.69	746.80
506.05	754.83
506.41	762.46
506.78	770.57
507.14	778.66
507.50	786.68
507.86	794.82
508.22	802.92
508.59	810.76
508.95	819.15
509.31	827.84
509.67	835.90
510.03	843.88
510.39	851.90
510.75	859.65
511.12	867.13
511.48	875.05
511.84	882.50
512.20	889.73
512.56	896.64
512.92	903.74
513.28	910.79
513.64	917.91
514.00	925.23
514.37	932.23
514.73	939.21
515.09	946.14
515.45	952.49
515.81	958.87
516.17	965.72
516.53	971.70
516.89	977.23
517.25	983.39
517.61	990.20
517.97	996.39
518.33	1002.28
518.69	1008.53
519.05	1014.68
519.41	1020.45
519.77	1026.65
520.13	1032.55
520.49	1037.81
520.85	1043.06
521.21	1048.70
521.57	1053.92
521.93	1058.61
522.29	1063.53
522.65	1067.48
523.01	1072.24
523.37	1076.17
523.73	1080.17
524.09	1084.28
524.45	1088.00
524.81	1091.59
525.17	1095.07
525.53	1098.43
525.89	1102.00
526.25	1105.10
526.61	1107.75
526.97	1110.80
527.33	1114.18
527.68	1118.13
528.04	1121.69
528.40	1124.81
528.76	1128.03
529.12	1131.01
529.48	1134.42
529.84	1137.38
530.20	1141.53
530.56	1144.90
530.91	1148.67
531.27	1151.73
531.63	1155.24
531.99	1158.77
532.35	1162.49
532.71	1165.79
533.07	1168.97
533.42	1172.91
533.78	1176.13
534.14	1179.73
534.50	1183.30
534.86	1186.43
535.21	1188.69
535.57	1191.86
535.93	1194.55
536.29	1197.71
536.65	1200.89
537.00	1203.64
537.36	1206.26
537.72	1208.54
538.08	1211.10
538.44	1213.74
538.79	1216.78
539.15	1219.00
539.51	1221.46
539.87	1223.63
540.22	1225.15
540.58	1227.37
540.94	1228.26
541.29	1230.26
541.65	1231.93
542.01	1233.73
542.37	1234.88
542.72	1235.92
543.08	1236.82
543.44	1238.69
543.79	1239.04
544.15	1240.12
544.51	1241.60
544.87	1243.07
545.22	1243.82
545.58	1244.85
545.94	1245.56
546.29	1245.98
546.65	1246.70
547.01	1247.27
547.36	1247.96
547.72	1248.90
548.07	1249.65
548.43	1250.51
548.79	1250.92
549.14	1251.47
549.50	1252.47
549.86	1252.70
550.21	1253.47
550.57	1254.45
550.92	1254.43
551.28	1255.24
551.64	1255.90
551.99	1256.25
552.35	1256.85
552.70	1257.80
553.06	1258.56
553.41	1259.28
553.77	1260.69
554.13	1261.70
554.48	1262.82
554.84	1263.80
555.19	1264.90
555.55	1266.58
555.90	1266.88
556.26	1267.51
556.61	1267.86
556.97	1266.98
557.32	1267.73
557.68	1268.17
558.03	1268.56
558.39	1268.75
558.74	1269.02
559.10	1268.70
559.45	1268.62
559.81	1268.14
560.16	1267.62
560.52	1267.29
560.87	1267.23
561.23	1266.46
561.58	1266.79
561.94	1265.83
562.29	1265.00
562.64	1264.41
563.00	1262.63
563.35	1262.53
563.71	1262.65
564.06	1262.16
564.42	1262.36
564.77	1261.95
565.12	1261.72
565.48	1262.20
565.83	1262.31
566.19	1262.30
566.54	1262.04
566.89	1261.61
567.25	1261.55
567.60	1261.95
567.96	1262.41
568.31	1262.05
568.66	1261.67
569.02	1260.31
569.37	1259.92
569.72	1259.48
570.08	1258.35
570.43	1257.33
570.78	1256.20
571.14	1254.86
571.49	1253.59
571.84	1252.58
572.20	1251.12
572.55	1249.71
572.90	1246.77
573.26	1244.87
573.61	1242.84
573.96	1240.99
574.31	1238.95
574.67	1236.63
575.02	1233.58
575.37	1230.13
575.72	1227.25
576.08	1224.21
576.43	1221.32
576.78	1218.35
577.13	1215.39
577.49	1212.87
577.84	1210.76
578.19	1208.47
578.54	1205.45
578.90	1203.25
579.25	1200.73
579.60	1198.03
579.95	1195.10
580.30	1192.50
580.66	1189.70
581.01	1186.24
581.36	1182.42
581.71	1179.52
582.06	1176.92
582.42	1174.17
582.77	1171.30
583.12	1168.83
583.47	1166.15
583.82	1163.92
584.17	1161.24
584.53	1158.60
584.88	1155.24
585.23	1151.86
585.58	1148.09
585.93	1144.54
586.28	1141.13
586.63	1137.26
586.98	1133.49
587.34	1130.24
587.69	1126.42
588.04	1123.09
588.39	1119.93
588.74	1117.07
589.09	1114.06
589.44	1110.30
589.79	1107.10
590.14	1103.44
590.49	1099.48
590.84	1095.97
591.19	1092.39
591.54	1088.71
591.89	1085.04
592.25	1082.93
592.60	1079.62
592.95	1076.44
593.30	1072.96
593.65	1069.21
594.00	1065.50
594.35	1064.78
594.70	1060.89
595.05	1057.64
595.40	1053.54
595.75	1049.83
596.10	1046.04
596.45	1041.77
596.80	1038.15
597.15	1034.20
597.50	1030.62
597.85	1027.50
598.19	1023.60
598.54	1019.36
598.89	1015.45
599.24	1011.80
599.59	1007.06
599.94	1002.77
600.29	999.00
600.64	995.39
600.99	991.42
601.34	987.99
601.69	981.53
602.04	977.70
602.39	974.05
602.74	970.75
603.08	967.30
603.43	964.17
603.78	960.54
604.13	956.68
604.48	952.90
604.83	948.74
605.18	944.47
605.53	940.73
605.87	937.13
606.22	933.66
606.57	929.79
606.92	925.73
607.27	922.25
607.62	918.52
607.96	915.01
608.31	911.70
608.66	908.06
609.01	904.60
609.36	900.95
609.70	897.20
610.05	893.48
610.40	889.74
610.75	885.59
611.10	882.00
611.44	878.00
611.79	874.00
612.14	870.67
612.49	866.81
612.83	863.07
613.18	859.50
613.53	855.80
613.88	851.81
614.22	847.87
614.57	843.83
614.92	839.64
615.27	835.75
615.61	831.51
615.96	827.32
616.31	823.17
616.65	819.45
617.00	815.39
617.35	811.50
617.70	807.52
618.04	803.44
618.39	799.41
618.74	796.04
619.08	792.31
619.43	788.26
619.78	784.19
620.12	780.38
620.47	776.42
620.82	772.34
621.16	768.56
621.51	765.33
621.85	761.78
622.20	758.12
622.55	753.99
622.89	750.26
623.24	746.71
623.59	743.01
623.93	739.44
624.28	735.85
624.62	733.11
624.97	730.10
625.32	726.81
625.66	723.30
626.01	719.38
626.35	716.29
626.70	712.84
627.04	709.90
627.39	706.13
627.73	703.02
628.08	699.62
628.43	696.09
628.77	692.34
629.12	688.82
629.46	685.80
629.81	682.99
630.15	679.80
630.50	676.39
630.84	673.16
631.19	669.86
631.53	666.84
631.88	662.66
632.22	659.06
632.57	656.17
632.91	653.06
633.26	650.26
633.60	646.65
633.95	643.45
634.29	639.91
634.64	636.94
634.98	633.16
635.32	630.30
635.67	627.56
636.01	624.60
636.36	621.36
636.70	618.45
637.05	615.21
637.39	612.26
637.73	609.46
638.08	606.81
638.42	603.52
638.77	600.14
639.11	596.77
639.45	593.28
639.80	589.94
640.14	586.76
640.49	583.44
640.83	580.53
641.17	577.68
641.52	574.82
641.86	571.92
642.20	569.70
642.55	566.75
642.89	563.82
643.23	561.03
643.58	558.77
643.92	555.50
644.26	552.82
644.61	550.15
644.95	547.37
645.29	544.43
645.64	541.80
645.98	539.05
646.32	536.72
646.66	534.20
647.01	531.51
647.35	529.19
647.69	526.77
648.04	524.34
648.38	521.80
648.72	519.39
649.06	516.88
649.41	513.96
649.75	511.24
650.09	508.68
650.43	505.97
650.78	503.24
651.12	500.81
651.46	498.21
651.80	495.63
652.14	493.04
652.49	490.76
652.83	488.61
653.17	486.49
653.51	483.98
653.85	481.78
654.20	479.69
654.54	477.35
654.88	474.84
655.22	473.02
655.56	470.89
655.90	468.69
656.25	466.60
656.59	464.50
656.93	462.56
657.27	460.70
657.61	458.37
657.95	456.20
658.29	454.06
658.64	452.17
658.98	450.01
659.32	447.81
659.66	445.51
660.00	443.39
660.34	441.37
660.68	439.43
661.02	437.35
661.36	435.13
661.70	433.07
662.05	431.40
662.39	429.34
662.73	427.70
663.07	426.12
663.41	424.15
663.75	422.11
664.09	420.24
664.43	418.09
664.77	416.52
665.11	414.72
665.45	413.11
665.79	411.49
666.13	409.64
666.47	408.03
666.81	406.28
667.15	404.35
667.49	402.81
667.83	401.56
668.17	399.85
668.51	398.44
668.85	397.05
669.19	396.04
669.53	394.12
669.87	392.40
670.21	390.62
670.55	389.22
670.89	388.28
671.23	386.71
671.57	385.26
671.91	383.74
672.25	382.21
672.58	381.10
672.92	379.28
673.26	378.03
673.60	376.89
673.94	375.70
674.28	374.57
674.62	373.34
674.96	371.62
675.30	370.49
675.64	369.16
675.97	367.77
676.31	365.79
676.65	364.34
676.99	363.10
677.33	361.79
677.67	360.62
678.01	358.87
678.34	357.73
678.68	356.70
679.02	355.48
679.36	354.27
679.70	352.74
680.04	351.65
680.37	350.51
680.71	349.12
681.05	347.97
681.39	346.88
681.73	345.38
682.06	344.24
682.40	343.08
682.74	342.09
683.08	341.15
683.42	340.12
683.75	339.37
684.09	338.18
684.43	337.18
684.77	336.07
685.10	335.15
685.44	334.00
685.78	332.92
686.12	331.97
686.45	330.92
686.79	329.80
687.13	329.01
687.46	328.05
687.80	327.33
688.14	326.19
688.48	325.16
688.81	324.18
689.15	323.55
689.49	322.58
689.82	321.44
690.16	320.27
690.50	319.38
690.83	318.34
691.17	317.24
691.51	316.33
691.84	315.47
692.18	314.45
692.52	313.55
692.85	312.75
693.19	312.21
693.52	311.40
693.86	310.50
694.20	309.59
694.53	308.83
694.87	307.79
695.21	306.94
695.54	306.06
695.88	305.24
696.21	304.20
696.55	303.40
696.88	302.51
697.22	301.60
697.56	300.93
697.89	300.07
698.23	299.50
698.56	298.63
698.90	297.95
699.23	297.19
699.57	296.60
699.90	295.70
700.24	294.67
700.58	294.12
700.91	293.75
701.25	293.74
701.58	293.65
701.92	293.22
702.25	292.70
702.59	292.15
702.92	291.70
703.26	291.00
703.59	290.38
703.93	290.71
704.26	290.32
704.60	289.68
704.93	289.03
705.26	288.28
705.60	287.92
705.93	287.16
706.27	286.82
706.60	286.40
706.94	286.36
707.27	285.75
707.61	285.22
707.94	284.54
708.27	283.36
708.61	282.17
708.94	281.51
709.28	281.01
709.61	280.27
709.94	279.72
710.28	279.26
710.61	278.74
710.95	277.29
711.28	277.32
711.61	276.72
711.95	276.44
712.28	275.89
712.61	275.36
712.95	275.44
713.28	275.45
713.61	274.77
713.95	273.88
714.28	273.41
714.61	272.84
714.95	272.30
715.28	271.65
715.61	271.07
715.95	270.64
716.28	270.10
716.61	269.84
716.95	269.21
717.28	268.75
717.61	268.34
717.94	267.92
718.28	266.73
718.61	266.34
718.94	265.78
719.27	265.40
719.61	264.96
719.94	264.17
720.27	263.15
720.60	262.62
720.94	262.24
721.27	262.01
721.60	261.76
721.93	261.38
722.27	261.43
722.60	261.33
722.93	260.93
723.26	260.63
723.59	260.18
723.93	260.21
724.26	259.99
724.59	259.62
724.92	259.43
725.25	259.44
725.59	259.01
725.92	258.75
726.25	258.46
726.58	258.20
726.91	257.89
727.24	257.72
727.57	257.51
727.91	257.00
728.24	256.71
728.57	256.34
728.90	256.27
729.23	255.86
729.56	255.97
729.89	255.71
730.22	255.39
730.55	255.10
730.89	254.70
731.22	254.49
731.55	254.21
731.88	253.97
732.21	253.55
732.54	253.25
732.87	253.03
733.20	252.81
733.53	252.61
733.86	252.40
734.19	252.05
734.52	252.00
734.85	252.47
735.18	252.12
735.51	252.17
735.84	252.02
736.17	251.92
736.50	251.17
736.83	252.11
737.16	251.99
737.49	251.85
737.82	251.60
738.15	251.36
738.48	251.18
738.81	250.95
739.14	250.65
739.47	250.46
739.80	250.31
740.13	250.24
740.46	249.81
740.79	249.42
741.12	249.17
741.45	248.76
741.78	248.08
742.11	248.20
742.44	247.85
742.77	247.72
743.10	247.30
743.43	247.17
743.75	246.02
744.08	247.03
744.41	246.80
744.74	246.62
745.07	246.31
745.40	246.27
745.73	246.49
746.06	246.34
746.39	246.21
746.71	245.95
747.04	245.67
747.37	245.51
747.70	245.70
748.03	245.61
748.36	245.66
748.68	245.55
749.01	245.08
749.34	244.83
749.67	244.66
750.00	244.70
750.33	245.29
750.65	245.16
750.98	243.70
751.31	243.59
751.64	243.42
751.97	243.74
752.29	243.56
752.62	242.95
752.95	242.73
753.28	242.54
753.60	242.33
753.93	242.41
754.26	242.38
754.59	241.89
754.91	241.76
755.24	241.56
755.57	241.49
755.90	241.40
756.22	241.22
756.55	240.87
756.88	240.42
757.20	239.61
757.53	239.20
757.86	239.10
758.19	239.08
758.51	239.00
758.84	238.44
759.17	238.18
759.49	238.21
759.82	238.71
760.15	238.67
760.47	238.63
760.80	238.26
761.13	238.27
761.45	238.16
761.78	238.09
762.11	238.00
762.43	237.72
762.76	237.53
763.08	237.51
763.41	237.51
763.74	237.59
764.06	237.48
764.39	237.50
764.71	237.41
765.04	237.23
765.37	237.03
765.69	236.86
766.02	236.79
766.34	236.60
766.67	236.08
767.00	236.28
767.32	236.70
767.65	237.24
767.97	237.01
768.30	237.04
768.62	236.75
768.95	236.55
769.27	236.38
769.60	236.47
769.92	236.24
770.25	235.96
770.57	235.63
770.90	235.50
771.22	235.27
771.55	235.26
771.87	235.14
772.20	235.01
772.52	235.90
772.85	236.87
773.17	236.78
773.50	236.53
773.82	236.20
774.15	235.61
774.47	234.93
774.80	234.84
775.12	234.68
775.45	234.76
775.77	234.68
776.09	234.79
776.42	234.65
776.74	234.90
777.07	234.88
777.39	235.03
777.72	234.88
778.04	234.96
778.36	234.86
778.69	234.79
779.01	234.82
779.33	233.80
779.66	232.75
779.98	232.71
780.31	232.80
780.63	233.27
780.95	233.40
781.28	233.29
781.60	233.18
781.92	233.21
782.25	233.08
782.57	233.08
782.89	232.87
783.22	232.82
783.54	232.60
783.86	232.60
784.19	232.36
784.51	232.68
784.83	232.48
785.16	232.39
785.48	232.35
785.80	232.37
786.12	232.49
786.45	232.47
786.77	232.48
787.09	232.50
787.42	231.99
787.74	231.97
788.06	232.03
788.38	231.95
788.71	231.84
789.03	231.96
789.35	232.15
789.67	232.05
789.99	232.04
790.32	231.98
790.64	232.15
790.96	232.91
791.28	232.51
791.61	232.57
791.93	232.61
792.25	232.56
792.57	233.17
792.89	233.05
793.21	232.98
793.54	232.90
793.86	232.70
794.18	232.70
794.50	232.55
794.82	232.53
795.14	232.60
795.47	232.79
795.79	232.81
796.11	232.49
796.43	232.45
796.75	232.45
797.07	232.40
797.39	232.26
797.71	231.64
798.04	231.74
798.36	231.73
798.68	231.74
799.00	231.83
799.32	231.38
799.64	231.46
799.96	231.63
800.28	231.73
800.60	231.68
800.92	231.85
801.24	231.76
801.56	231.85
801.89	231.77
802.21	231.72
802.53	231.44
802.85	231.72
803.17	232.17
803.49	231.99
803.81	231.95
804.13	231.82
804.45	231.81
804.77	231.90
805.09	231.85
805.41	231.79
805.73	231.63
806.05	231.41
806.37	231.35
806.69	231.15
807.01	231.06
807.33	231.14
807.65	230.82
807.97	231.32
808.28	231.28
808.60	231.35
808.92	231.30
809.24	231.93
809.56	231.68
809.88	231.42
810.20	231.47
810.52	231.59
810.84	231.61
811.16	231.50
811.48	231.38
811.80	231.76
812.12	231.71
812.43	231.79
812.75	231.72
813.07	231.56
813.39	231.59
813.71	231.43
814.03	231.29
814.35	231.28
814.67	230.75
814.98	230.55
815.30	230.52
815.62	230.31
815.94	229.68
816.26	230.09
816.58	229.87
816.89	229.93
817.21	229.76
817.53	229.73
817.85	229.62
818.17	229.47
818.48	228.99
818.80	229.13
819.12	229.10
819.44	228.98
819.76	228.94
820.07	228.91
820.39	228.91
820.71	229.00
821.03	228.90
821.34	228.89
821.66	229.02
821.98	228.94
822.30	228.91
822.61	229.47
822.93	229.03
823.25	228.96
823.57	228.87
823.88	229.06
824.20	229.04
824.52	229.29
824.83	229.39
825.15	229.35
825.47	229.30
825.79	229.35
826.10	229.37
826.42	229.29
826.74	229.38
827.05	229.32
827.37	229.30
827.69	229.33
828.00	229.32
828.32	229.19
828.64	229.15
828.95	229.62
829.27	229.25
829.58	229.16
829.90	229.33
830.22	229.32
830.53	229.01
830.85	228.79
831.17	228.50
831.48	228.37
831.80	228.46
832.11	228.34
832.43	228.20
832.75	228.20
833.06	228.83
833.38	228.51
833.69	228.46
834.01	228.60
834.32	228.49
834.64	228.40
834.96	228.48
835.27	228.47
835.59	228.09
835.90	228.04
836.22	228.11
836.53	227.90
836.85	227.83
837.16	228.77
837.48	228.93
837.79	229.20
838.11	229.35
838.42	229.34
838.74	229.48
839.05	229.46
839.37	229.38
839.68	228.76
840.00	228.81
840.31	229.02
840.63	228.84
840.94	228.82
841.26	228.82
841.57	228.86
841.88	228.92
842.20	228.88
842.51	228.71
842.83	228.74
843.14	229.69
843.46	229.67
843.77	229.21
844.08	229.16
844.40	228.83
844.71	228.64
845.03	228.52
845.34	228.40
845.65	228.39
845.97	228.43
846.28	228.57
846.60	228.62
846.91	228.45
847.22	228.48
847.54	228.74
847.85	228.70
848.16	228.60
848.48	228.43
848.79	228.86
849.10	229.10
849.42	229.17
849.73	228.31
850.04	228.41
850.36	228.08
850.67	228.28
850.98	228.37
851.30	228.56
851.61	228.61
851.92	228.66
852.23	228.90
852.55	228.95
852.86	229.02
853.17	229.08
853.49	229.34
853.80	229.57
854.11	229.64
854.42	229.84
854.74	229.82
855.05	229.93
855.36	229.45
855.67	229.37
855.99	229.27
856.30	230.34
856.61	230.26
856.92	230.29
857.23	230.21
857.55	230.17
857.86	230.07
858.17	230.30
858.48	230.19
858.79	230.02
859.11	230.11
859.42	229.98
859.73	229.84
860.04	229.70
860.35	229.27
860.66	228.93
860.98	228.87
861.29	229.03
861.60	228.96
861.91	229.23
862.22	228.99
862.53	228.87
862.84	227.74
863.16	228.00
863.47	227.79
863.78	227.82
864.09	227.82
864.40	227.87
864.71	227.76
865.02	227.78
865.33	227.71
865.64	227.46
865.95	227.43
866.27	228.08
866.58	227.97
866.89	228.26
867.20	228.21
867.51	228.06
867.82	227.92
868.13	228.14
868.44	227.79
868.75	228.08
869.06	228.14
869.37	228.25
869.68	227.93
869.99	228.11
870.30	228.08
870.61	228.20
870.92	228.10
871.23	228.06
871.54	228.16
871.85	228.28
872.16	228.47
872.47	228.47
872.78	227.83
873.09	228.04
873.40	227.78
873.71	227.90
874.02	228.02
874.33	227.84
874.64	227.78
874.95	227.95
875.26	227.70
875.56	227.64
875.87	227.56
876.18	227.41
876.49	228.30
876.80	228.22
877.11	228.02
877.42	228.11
877.73	228.09
878.04	227.95
878.35	227.90
878.66	227.80
878.96	227.70
879.27	227.64
879.58	227.45
879.89	227.39
880.20	227.60
880.51	227.48
880.82	227.49
881.12	227.41
881.43	227.23
881.74	227.14
882.05	227.13
882.36	227.21
882.67	227.32
882.97	226.38
883.28	226.32
883.59	226.25
883.90	226.28
884.21	226.36
884.51	226.30
884.82	226.19
885.13	226.28
885.44	226.40
885.74	226.55
886.05	226.49
886.36	226.62
886.67	226.32
886.98	226.82
887.28	227.05
887.59	227.03
887.90	227.09
888.20	227.15
888.51	227.33
888.82	227.19
889.13	227.40
889.43	228.21
889.74	228.18
890.05	228.28
890.35	228.20
890.66	228.10
890.97	228.07
891.28	228.03
891.58	228.07
891.89	228.00
892.20	227.88
892.50	227.88
892.81	227.89
893.12	227.80
893.42	227.40
893.73	227.42
894.04	227.47
894.34	227.64
894.65	227.64
894.95	227.57
895.26	227.69
895.57	228.07
895.87	227.18
896.18	227.34
896.48	227.44
896.79	227.41
897.10	227.66
897.40	227.79
897.71	227.98
898.01	227.87
898.32	228.02
898.63	228.00
898.93	228.19
899.24	228.15
899.54	228.27
899.85	228.20
900.15	228.19
900.46	228.23
900.76	228.26
901.07	228.23
901.38	228.27
901.68	228.36
901.99	227.84
902.29	227.88
902.60	227.86
902.90	227.81
903.21	227.79
903.51	227.68
903.82	227.85
904.12	227.84
904.43	227.94
904.73	227.86
905.03	227.90
905.34	228.73
905.64	228.76
905.95	228.77
906.25	228.76
906.56	228.71
906.86	228.65
907.17	228.58
907.47	228.67
907.77	228.49
908.08	228.30
908.38	228.44
908.69	228.54
908.99	228.66
909.30	228.68
909.60	228.70
909.90	228.63
910.21	228.36
910.51	228.19
910.81	228.24
911.12	228.25
911.42	228.21
911.73	227.23
912.03	227.16
912.33	227.33
912.64	227.30
912.94	227.15
913.24	226.94
913.55	226.91
913.85	226.91
914.15	227.19
914.46	227.28
914.76	227.09
915.06	226.97
915.37	226.73
915.67	226.59
915.97	226.62
916.27	226.42
916.58	226.40
916.88	226.46
917.18	226.40
917.49	227.09
917.79	227.08
918.09	227.24
918.39	227.48
918.70	227.31
919.00	227.29
919.30	227.80
919.60	227.87
919.91	227.79
920.21	227.67
920.51	227.33
920.81	227.27
921.12	227.41
921.42	227.30
921.72	227.42
922.02	227.56
922.32	227.63
922.63	227.68
922.93	228.14
923.23	228.10
923.53	227.90
923.83	227.31
924.13	227.50
924.44	227.40
924.74	227.62
925.04	227.89
925.34	227.98
925.64	227.44
925.94	227.42
926.24	227.94
926.55	228.01
926.85	228.26
927.15	228.27
927.45	228.28
927.75	228.38
928.05	228.41
928.35	228.35
928.65	228.59
928.95	228.66
929.26	228.33
929.56	228.53
929.86	228.72
930.16	228.55
930.46	228.59
930.76	228.55
931.06	228.11
931.36	227.98
931.66	228.15
931.96	228.40
932.26	228.54
932.56	228.02
932.86	228.20
933.16	228.14
933.46	228.14
933.76	227.95
934.06	228.21
934.36	228.53
934.66	228.59
934.96	228.42
935.26	228.58
935.56	228.72
935.86	228.59
936.16	228.50
936.46	228.47
936.76	228.27
937.06	228.28
937.36	228.33
937.66	228.31
937.96	228.27
938.26	228.03
938.56	227.88
938.86	228.03
939.16	228.12
939.46	228.34
939.76	228.43
940.06	228.53
940.35	228.31
940.65	227.93
940.95	227.94
941.25	227.75
941.55	227.63
941.85	227.56
942.15	227.72
942.45	227.87
942.75	227.89
943.04	228.04
943.34	228.24
943.64	228.18
943.94	228.09
944.24	228.07
944.54	228.18
944.84	228.20
945.13	228.05
945.43	227.87
945.73	227.78
946.03	227.59
946.33	227.55
946.62	227.32
946.92	227.34
947.22	227.31
947.52	227.39
947.82	227.57
948.11	227.55
948.41	227.42
948.71	227.24
949.01	227.32
949.31	227.16
949.60	227.06
949.90	227.30
950.20	227.27
950.50	227.19
950.79	227.16
951.09	227.36
951.39	227.43
951.69	227.31
951.98	227.49
952.28	227.63
952.58	227.57
952.87	227.71
953.17	227.84
953.47	227.73
953.76	227.69
954.06	227.35
954.36	227.22
954.66	227.14
954.95	227.40
955.25	227.49
955.55	227.58
955.84	227.42
956.14	227.41
956.44	227.50
956.73	227.33
957.03	227.30
957.32	227.24
957.62	227.13
957.92	227.34
958.21	227.11
958.51	228.15
958.81	228.38
959.10	228.49
959.40	228.59
959.69	228.73
959.99	228.86
960.29	228.88
960.58	228.74
960.88	228.97
961.17	228.90
961.47	228.89
961.76	228.89
962.06	229.05
962.36	228.97
962.65	229.00
962.95	229.11
963.24	229.12
963.54	229.00
963.83	229.14
964.13	229.18
964.42	229.05
964.72	228.30
965.01	228.19
965.31	228.09
965.60	227.85
965.90	228.35
966.19	228.12
966.49	228.28
966.78	228.43
967.08	228.34
967.37	228.27
967.67	228.18
967.96	228.28
968.26	228.28
968.55	228.37
968.85	228.25
969.14	228.32
969.43	228.33
969.73	228.46
970.02	228.25
970.32	228.17
970.61	228.20
970.91	227.98
971.20	227.87
971.49	227.84
971.79	228.02
972.08	227.49
972.38	227.56
972.67	227.48
972.96	227.58
973.26	227.40
973.55	227.72
973.85	227.61
974.14	227.54
974.43	227.58
974.73	227.35
975.02	227.38
975.31	227.33
975.61	227.34
975.90	227.17
976.19	227.23
976.49	227.23
976.78	227.24
977.07	227.20
977.37	227.32
977.66	227.50
977.95	227.29
978.24	227.30
978.54	227.52
978.83	227.50
979.12	227.35
979.42	227.48
979.71	227.24
980.00	227.22
980.29	227.18
980.59	227.00
980.88	227.30
981.17	227.22
981.46	227.16
981.76	227.09
982.05	227.36
982.34	227.39
982.63	227.39
982.93	227.40
983.22	227.71
983.51	227.77
983.80	227.80
984.09	227.93
984.39	227.86
984.68	227.64
984.97	227.58
985.26	227.57
985.55	227.66
985.85	227.39
986.14	227.60
986.43	227.73
986.72	227.69
987.01	227.31
987.30	227.35
987.59	227.34
987.89	227.39
988.18	227.05
988.47	227.00
988.76	226.83
989.05	226.73
989.34	226.42
989.63	226.61
989.92	226.47
990.22	226.32
990.51	226.28
990.80	226.29
991.09	226.36
991.38	226.42
991.67	226.27
991.96	226.24
992.25	226.22
992.54	226.11
992.83	226.13
993.12	226.17
993.41	226.24
993.70	226.66
993.99	226.92
994.28	227.16
994.58	227.31
994.87	227.23
995.16	227.16
995.45	227.11
995.74	226.74
996.03	226.95
996.32	227.12
996.61	227.30
996.90	227.24
997.19	227.21
997.48	227.21
997.77	227.17
998.06	227.22
998.34	227.08
998.63	226.96
998.92	227.02
999.21	227.14
999.50	227.20
999.79	226.78
1000.08	226.59
1000.37	226.68
1000.66	226.55
1000.95	226.93
1001.24	227.07
1001.53	227.16
1001.82	227.18
1002.11	226.87
1002.40	226.85
1002.68	227.11
1002.97	227.80
1003.26	227.70
1003.55	227.62
1003.84	227.56
1004.13	228.04
1004.42	227.96
1004.71	227.99
1004.99	227.86
1005.28	228.16
1005.57	228.07
1005.86	228.04
1006.15	228.00
1006.44	227.79
1006.72	227.90
1007.01	227.65
1007.30	227.61
1007.59	227.65
1007.88	227.64
1008.17	227.76
1008.45	227.57
1008.74	227.03
1009.03	226.57
1009.32	226.62
1009.60	226.68
1009.89	226.70
1010.18	226.25
1010.47	226.27
1010.76	226.27
1011.04	226.31
1011.33	226.35
1011.62	226.45
1011.91	226.56
1012.19	226.71
1012.48	226.68
1012.77	226.71
1013.05	227.18
1013.34	227.17
1013.63	227.01
1013.92	227.04
1014.20	226.99
1014.49	227.13
1014.78	227.36
1015.06	227.09
1015.35	227.08
1015.64	227.14
1015.92	227.22
1016.21	227.26
1016.50	227.31
1016.78	227.44
1017.07	227.42
1017.36	227.08
1017.64	226.91
1017.93	226.88
1018.22	226.70
1018.50	226.77
1018.79	226.60
1019.08	226.17
1019.36	226.23
1019.65	226.12
1019.93	226.42
1020.22	226.48
1020.51	226.89
1020.79	226.76
1021.08	225.50
1021.36	226.40
1021.65	225.30
1021.94	226.50
1022.22	227.20
1022.51	224.00
1022.79	232.10
1023.08	226.90
1023.36	237.10
1023.65	224.50
>>>>>End Processed Spectral Data<<<<<
