SpectraSuite Data File
++++++++++++++++++++++++++++++++++++
Date: Wed Sep 04 17:31:00 EDT 2013
User: lab3
Dark Spectrum Present: Yes
Reference Spectrum Present: No
Number of Sampled Component Spectra: 1
Spectrometers: USB2E7196
Integration Time (usec): 337000 (USB2E7196)
Spectra Averaged: 10 (USB2E7196)
Boxcar Smoothing: 10 (USB2E7196)
Correct for Electrical Dark: No (USB2E7196)
Strobe/Lamp Enabled: No (USB2E7196)
Correct for Detector Non-linearity: No (USB2E7196)
Correct for Stray Light: No (USB2E7196)
Number of Pixels in Processed Spectrum: 2048
>>>>>Begin Processed Spectral Data<<<<<
339.09	0.00
339.48	211.70
339.86	213.50
340.24	216.10
340.63	217.30
341.01	233.00
341.39	220.30
341.78	222.90
342.16	223.40
342.54	222.80
342.93	212.90
343.31	223.65
343.69	224.29
344.07	224.90
344.46	225.51
344.84	225.99
345.22	225.61
345.60	225.85
345.99	226.00
346.37	226.15
346.75	226.26
347.13	226.31
347.52	226.33
347.90	226.70
348.28	226.73
348.66	227.03
349.05	226.77
349.43	226.92
349.81	226.86
350.19	226.99
350.57	227.05
350.96	227.20
351.34	227.25
351.72	227.30
352.10	227.20
352.48	227.12
352.87	227.10
353.25	227.18
353.63	227.30
354.01	227.40
354.39	227.57
354.77	227.69
355.15	227.98
355.54	228.08
355.92	227.81
356.30	227.83
356.68	228.48
357.06	228.59
357.44	228.50
357.82	228.52
358.20	229.44
358.58	229.43
358.97	229.37
359.35	229.64
359.73	229.86
360.11	230.04
360.49	230.10
360.87	230.16
361.25	230.37
361.63	230.74
362.01	230.80
362.39	230.63
362.77	230.70
363.15	230.63
363.53	230.52
363.91	230.68
364.29	230.81
364.67	229.92
365.05	229.95
365.43	230.11
365.81	230.29
366.19	229.88
366.57	230.27
366.95	230.37
367.33	230.16
367.71	230.19
368.09	230.30
368.47	230.21
368.85	230.13
369.23	230.21
369.61	229.79
369.99	229.93
370.37	230.07
370.75	230.50
371.13	230.39
371.51	230.37
371.89	230.29
372.27	230.25
372.65	230.39
373.03	230.48
373.41	230.30
373.78	230.23
374.16	229.77
374.54	229.40
374.92	229.33
375.30	229.33
375.68	229.11
376.06	229.16
376.44	229.14
376.82	229.22
377.19	229.11
377.57	229.12
377.95	228.83
378.33	228.81
378.71	228.21
379.09	228.19
379.47	228.25
379.84	228.19
380.22	228.12
380.60	227.86
380.98	227.74
381.36	227.62
381.73	227.45
382.11	227.55
382.49	227.65
382.87	227.60
383.25	227.58
383.62	228.66
384.00	228.39
384.38	228.40
384.76	228.46
385.13	228.78
385.51	228.69
385.89	228.59
386.27	228.50
386.64	228.60
387.02	228.48
387.40	228.40
387.78	228.47
388.15	228.40
388.53	228.40
388.91	228.39
389.29	228.30
389.66	228.45
390.04	228.31
390.42	228.43
390.79	228.38
391.17	228.30
391.55	227.19
391.92	227.16
392.30	227.20
392.68	227.12
393.05	227.06
393.43	227.12
393.81	227.13
394.18	227.07
394.56	227.09
394.94	227.38
395.31	227.33
395.69	227.60
396.06	227.73
396.44	227.84
396.82	227.75
397.19	228.42
397.57	228.42
397.95	228.70
398.32	228.43
398.70	228.60
399.07	228.94
399.45	228.99
399.82	229.08
400.20	229.10
400.58	229.10
400.95	228.78
401.33	229.09
401.70	229.89
402.08	230.10
402.45	230.30
402.83	230.59
403.20	230.81
403.58	230.85
403.95	231.25
404.33	231.63
404.71	231.96
405.08	232.62
405.46	232.81
405.83	233.02
406.21	233.35
406.58	233.76
406.96	234.00
407.33	234.50
407.70	235.11
408.08	236.36
408.45	237.13
408.83	238.01
409.20	238.44
409.58	238.53
409.95	239.32
410.33	240.04
410.70	240.51
411.08	241.39
411.45	242.36
411.82	243.17
412.20	244.28
412.57	245.87
412.95	246.21
413.32	247.66
413.69	248.98
414.07	250.53
414.44	251.99
414.82	253.67
415.19	255.54
415.56	257.41
415.94	258.86
416.31	261.06
416.68	263.11
417.06	265.77
417.43	268.35
417.81	271.00
418.18	273.88
418.55	276.91
418.93	280.23
419.30	283.56
419.67	287.02
420.04	290.54
420.42	294.12
420.79	299.03
421.16	303.29
421.54	308.21
421.91	312.96
422.28	317.91
422.66	322.97
423.03	328.88
423.40	334.16
423.77	339.79
424.15	345.46
424.52	351.51
424.89	358.17
425.26	364.50
425.64	370.59
426.01	377.27
426.38	384.42
426.75	391.74
427.13	399.10
427.50	406.81
427.87	414.70
428.24	422.73
428.61	430.06
428.99	438.90
429.36	447.86
429.73	456.66
430.10	465.70
430.47	475.20
430.85	484.03
431.22	494.29
431.59	505.78
431.96	516.02
432.33	527.60
432.70	538.60
433.08	551.87
433.45	564.50
433.82	576.78
434.19	590.52
434.56	604.17
434.93	617.09
435.30	630.37
435.68	645.10
436.05	659.53
436.42	673.77
436.79	687.00
437.16	701.18
437.53	716.50
437.90	731.62
438.27	746.36
438.64	761.97
439.01	776.32
439.38	788.50
439.75	801.14
440.13	815.24
440.50	828.45
440.87	839.10
441.24	850.30
441.61	862.85
441.98	872.10
442.35	882.59
442.72	893.49
443.09	904.16
443.46	910.57
443.83	915.49
444.20	919.45
444.57	924.94
444.94	927.68
445.31	930.53
445.68	933.98
446.05	935.21
446.42	933.69
446.79	932.32
447.16	930.59
447.53	929.65
447.90	924.12
448.27	918.85
448.64	911.55
449.01	906.37
449.37	896.82
449.74	887.40
450.11	876.76
450.48	864.33
450.85	851.34
451.22	840.55
451.59	829.60
451.96	819.70
452.33	806.34
452.70	794.52
453.07	780.11
453.43	764.64
453.80	750.72
454.17	737.47
454.54	724.60
454.91	711.20
455.28	697.65
455.65	685.48
456.02	674.44
456.38	663.90
456.75	650.77
457.12	639.89
457.49	629.31
457.86	618.32
458.23	609.67
458.59	600.00
458.96	590.05
459.33	581.56
459.70	572.78
460.07	565.88
460.43	557.69
460.80	550.50
461.17	544.40
461.54	537.67
461.91	531.19
462.27	524.51
462.64	518.86
463.01	512.86
463.38	507.31
463.74	500.03
464.11	494.93
464.48	490.40
464.85	485.45
465.21	481.84
465.58	478.02
465.95	473.17
466.32	469.54
466.68	465.80
467.05	461.91
467.42	458.37
467.78	454.25
468.15	450.64
468.52	447.78
468.88	443.93
469.25	440.61
469.62	438.23
469.98	435.55
470.35	432.84
470.72	430.19
471.08	427.03
471.45	425.11
471.82	422.94
472.18	420.41
472.55	418.60
472.92	416.14
473.28	414.10
473.65	412.17
474.02	410.19
474.38	408.76
474.75	407.27
475.11	405.46
475.48	404.32
475.85	403.11
476.21	401.92
476.58	400.86
476.94	400.14
477.31	399.06
477.67	398.24
478.04	397.65
478.41	397.20
478.77	397.57
479.14	396.72
479.50	396.33
479.87	396.20
480.23	396.10
480.60	395.75
480.96	395.48
481.33	395.88
481.69	395.77
482.06	395.70
482.42	395.97
482.79	396.34
483.15	396.58
483.52	397.23
483.88	397.50
484.25	397.91
484.61	398.27
484.98	398.70
485.34	399.59
485.71	400.37
486.07	401.34
486.44	401.64
486.80	402.72
487.17	403.77
487.53	405.27
487.90	406.52
488.26	408.51
488.62	410.39
488.99	411.70
489.35	413.54
489.72	415.41
490.08	417.34
490.44	419.20
490.81	421.58
491.17	423.70
491.54	426.20
491.90	428.60
492.26	431.09
492.63	433.78
492.99	436.31
493.36	439.09
493.72	442.02
494.08	445.12
494.45	448.34
494.81	451.71
495.17	454.64
495.54	458.19
495.90	461.38
496.26	464.90
496.63	468.57
496.99	472.34
497.35	475.94
497.72	479.75
498.08	483.56
498.44	487.52
498.80	491.58
499.17	495.56
499.53	499.62
499.89	504.22
500.26	508.20
500.62	512.52
500.98	517.13
501.34	521.28
501.71	525.57
502.07	529.89
502.43	534.10
502.79	538.56
503.16	542.88
503.52	547.44
503.88	551.47
504.24	556.05
504.60	560.68
504.97	565.49
505.33	570.00
505.69	575.20
506.05	579.54
506.41	584.04
506.78	588.49
507.14	593.30
507.50	597.55
507.86	602.60
508.22	607.23
508.59	611.43
508.95	616.03
509.31	620.76
509.67	625.11
510.03	629.23
510.39	633.64
510.75	637.76
511.12	641.59
511.48	645.68
511.84	649.40
512.20	652.95
512.56	656.70
512.92	660.40
513.28	663.95
513.64	667.60
514.00	671.36
514.37	674.94
514.73	678.40
515.09	682.00
515.45	684.96
515.81	688.19
516.17	691.68
516.53	694.81
516.89	697.43
517.25	700.56
517.61	704.05
517.97	707.43
518.33	710.63
518.69	714.01
519.05	717.53
519.41	720.93
519.77	724.45
520.13	727.50
520.49	730.40
520.85	735.80
521.21	739.21
521.57	742.05
521.93	744.76
522.29	747.54
522.65	749.89
523.01	752.74
523.37	754.95
523.73	757.33
524.09	759.54
524.45	761.91
524.81	764.37
525.17	766.79
525.53	768.77
525.89	771.21
526.25	773.49
526.61	775.63
526.97	778.13
527.33	780.44
527.68	783.84
528.04	786.92
528.40	786.85
528.76	789.35
529.12	792.10
529.48	795.16
529.84	797.79
530.20	801.04
530.56	804.27
530.91	807.82
531.27	810.85
531.63	814.60
531.99	818.20
532.35	821.83
532.71	825.10
533.07	828.78
533.42	833.12
533.78	836.74
534.14	840.44
534.50	844.00
534.86	847.94
535.21	850.79
535.57	854.62
535.93	858.35
536.29	862.39
536.65	866.60
537.00	870.11
537.36	874.02
537.72	877.50
538.08	881.34
538.44	884.82
538.79	889.02
539.15	892.50
539.51	896.43
539.87	900.00
540.22	903.46
540.58	907.10
540.94	909.76
541.29	913.11
541.65	916.51
542.01	920.26
542.37	923.28
542.72	926.39
543.08	929.05
543.44	932.31
543.79	934.74
544.15	937.74
544.51	941.32
544.87	944.66
545.22	947.70
545.58	950.45
545.94	953.36
546.29	956.09
546.65	958.91
547.01	961.33
547.36	964.26
547.72	967.19
548.07	969.96
548.43	972.69
548.79	975.62
549.14	978.43
549.50	981.23
549.86	984.39
550.21	987.53
550.57	990.51
550.92	993.15
551.28	996.18
551.64	998.92
551.99	1001.80
552.35	1004.40
552.70	1007.18
553.06	1010.41
553.41	1013.43
553.77	1016.83
554.13	1019.85
554.48	1022.99
554.84	1025.50
555.19	1028.60
555.55	1032.11
555.90	1034.70
556.26	1037.00
556.61	1039.10
556.97	1040.70
557.32	1042.50
557.68	1044.65
558.03	1047.05
558.39	1049.00
558.74	1051.08
559.10	1052.64
559.45	1054.13
559.81	1056.05
560.16	1057.90
560.52	1059.13
560.87	1060.90
561.23	1061.54
561.58	1063.61
561.94	1064.60
562.29	1065.72
562.64	1066.74
563.00	1066.88
563.35	1068.26
563.71	1069.73
564.06	1071.30
564.42	1072.92
564.77	1074.90
565.12	1076.45
565.48	1078.76
565.83	1080.57
566.19	1082.42
566.54	1083.89
566.89	1085.25
567.25	1086.58
567.60	1088.37
567.96	1090.66
568.31	1092.14
568.66	1093.71
569.02	1093.94
569.37	1095.16
569.72	1096.46
570.08	1096.98
570.43	1097.48
570.78	1097.91
571.14	1098.43
571.49	1098.60
571.84	1098.51
572.20	1098.26
572.55	1097.96
572.90	1096.50
573.26	1095.90
573.61	1094.85
573.96	1094.39
574.31	1093.50
574.67	1092.35
575.02	1090.73
575.37	1088.44
575.72	1086.46
576.08	1084.98
576.43	1083.49
576.78	1081.75
577.13	1080.02
577.49	1078.86
577.84	1077.90
578.19	1076.82
578.54	1075.43
578.90	1074.04
579.25	1073.03
579.60	1071.40
579.95	1069.70
580.30	1067.79
580.66	1065.89
581.01	1063.92
581.36	1061.49
581.71	1059.77
582.06	1058.32
582.42	1056.36
582.77	1054.56
583.12	1052.90
583.47	1051.35
583.82	1049.63
584.17	1048.01
584.53	1046.80
584.88	1044.24
585.23	1041.81
585.58	1038.85
585.93	1036.07
586.28	1033.86
586.63	1030.89
586.98	1028.05
587.34	1025.62
587.69	1023.07
588.04	1020.82
588.39	1018.75
588.74	1016.45
589.09	1014.06
589.44	1010.70
589.79	1008.30
590.14	1005.95
590.49	1003.33
590.84	1000.50
591.19	997.93
591.54	995.14
591.89	991.87
592.25	990.77
592.60	988.38
592.95	986.05
593.30	983.55
593.65	980.54
594.00	977.51
594.35	977.31
594.70	974.15
595.05	971.23
595.40	967.77
595.75	964.27
596.10	961.38
596.45	958.20
596.80	955.58
597.15	952.42
597.50	949.06
597.85	946.11
598.19	942.87
598.54	939.51
598.89	936.13
599.24	933.11
599.59	928.68
599.94	925.06
600.29	921.69
600.64	918.65
600.99	915.26
601.34	912.69
601.69	907.02
602.04	903.70
602.39	900.59
602.74	898.35
603.08	895.27
603.43	892.45
603.78	889.25
604.13	885.89
604.48	882.57
604.83	879.31
605.18	875.95
605.53	872.66
605.87	869.50
606.22	866.82
606.57	863.39
606.92	860.18
607.27	857.27
607.62	854.34
607.96	851.38
608.31	848.54
608.66	845.51
609.01	842.25
609.36	839.56
609.70	836.70
610.05	832.92
610.40	829.77
610.75	826.28
611.10	823.05
611.44	819.63
611.79	816.48
612.14	813.22
612.49	809.85
612.83	806.69
613.18	803.48
613.53	800.15
613.88	796.77
614.22	793.48
614.57	789.86
614.92	786.35
615.27	782.88
615.61	779.20
615.96	775.67
616.31	772.27
616.65	768.91
617.00	765.35
617.35	762.20
617.70	758.70
618.04	754.96
618.39	751.72
618.74	748.90
619.08	745.79
619.43	742.55
619.78	739.11
620.12	735.57
620.47	732.19
620.82	728.48
621.16	724.97
621.51	722.07
621.85	718.92
622.20	715.60
622.55	712.10
622.89	708.97
623.24	705.62
623.59	702.30
623.93	699.09
624.28	695.84
624.62	693.47
624.97	691.09
625.32	688.13
625.66	684.97
626.01	681.36
626.35	678.04
626.70	674.90
627.04	672.16
627.39	668.90
627.73	666.11
628.08	663.26
628.43	660.25
628.77	656.96
629.12	653.93
629.46	651.11
629.81	648.55
630.15	645.64
630.50	642.69
630.84	640.05
631.19	637.13
631.53	634.52
631.88	630.52
632.22	626.92
632.57	624.31
632.91	621.19
633.26	618.73
633.60	615.89
633.95	613.03
634.29	609.99
634.64	607.30
634.98	603.83
635.32	601.26
635.67	598.71
636.01	596.00
636.36	593.16
636.70	590.67
637.05	587.46
637.39	584.97
637.73	582.38
638.08	579.79
638.42	576.91
638.77	574.00
639.11	571.20
639.45	568.35
639.80	565.32
640.14	562.83
640.49	560.05
640.83	557.48
641.17	554.84
641.52	552.13
641.86	549.70
642.20	547.84
642.55	544.90
642.89	542.48
643.23	539.95
643.58	537.82
643.92	534.92
644.26	532.50
644.61	530.01
644.95	527.52
645.29	524.86
645.64	522.51
645.98	520.03
646.32	517.96
646.66	515.60
647.01	513.16
647.35	511.03
647.69	508.69
648.04	506.44
648.38	504.22
648.72	502.06
649.06	499.50
649.41	496.55
649.75	494.01
650.09	491.60
650.43	489.30
650.78	486.54
651.12	484.25
651.46	481.90
651.80	479.37
652.14	477.01
652.49	475.13
652.83	472.90
653.17	470.77
653.51	468.27
653.85	466.37
654.20	464.43
654.54	462.12
654.88	459.98
655.22	458.33
655.56	456.34
655.90	454.19
656.25	452.30
656.59	450.65
656.93	448.82
657.27	447.04
657.61	444.80
657.95	443.16
658.29	441.20
658.64	439.56
658.98	437.55
659.32	435.49
659.66	433.27
660.00	431.44
660.34	429.57
660.68	427.81
661.02	426.01
661.36	424.04
661.70	422.05
662.05	420.16
662.39	418.22
662.73	416.53
663.07	415.38
663.41	413.60
663.75	411.63
664.09	410.10
664.43	408.10
664.77	406.61
665.11	404.75
665.45	403.31
665.79	401.68
666.13	400.16
666.47	398.60
666.81	397.01
667.15	395.19
667.49	393.88
667.83	392.86
668.17	391.17
668.51	389.71
668.85	388.61
669.19	387.68
669.53	385.86
669.87	384.22
670.21	382.22
670.55	380.70
670.89	379.84
671.23	378.30
671.57	376.90
671.91	375.57
672.25	374.22
672.58	372.96
672.92	371.40
673.26	370.17
673.60	368.84
673.94	367.61
674.28	366.53
674.62	365.13
674.96	363.45
675.30	362.28
675.64	361.08
675.97	359.60
676.31	357.95
676.65	356.64
676.99	355.87
677.33	354.61
677.67	353.64
678.01	352.06
678.34	351.04
678.68	350.16
679.02	348.89
679.36	347.81
679.70	346.58
680.04	345.43
680.37	344.27
680.71	343.26
681.05	342.22
681.39	341.10
681.73	340.00
682.06	338.88
682.40	337.87
682.74	336.99
683.08	336.26
683.42	335.21
683.75	334.52
684.09	333.12
684.43	332.29
684.77	331.16
685.10	330.19
685.44	329.20
685.78	327.98
686.12	326.82
686.45	325.69
686.79	324.48
687.13	323.70
687.46	322.86
687.80	322.17
688.14	321.13
688.48	320.14
688.81	319.25
689.15	318.68
689.49	317.82
689.82	316.89
690.16	315.61
690.50	314.85
690.83	313.82
691.17	312.84
691.51	311.89
691.84	311.27
692.18	310.33
692.52	309.39
692.85	308.67
693.19	308.36
693.52	307.66
693.86	306.98
694.20	306.12
694.53	305.31
694.87	304.35
695.21	303.52
695.54	302.85
695.88	301.92
696.21	300.79
696.55	299.95
696.88	299.16
697.22	298.43
697.56	297.61
697.89	296.81
698.23	296.26
698.56	295.50
698.90	294.70
699.23	294.08
699.57	293.51
699.90	292.78
700.24	291.78
700.58	291.30
700.91	290.73
701.25	290.87
701.58	290.95
701.92	290.59
702.25	290.13
702.59	289.51
702.92	288.96
703.26	288.49
703.59	287.94
703.93	288.16
704.26	287.67
704.60	287.23
704.93	286.47
705.26	285.75
705.60	285.32
705.93	284.59
706.27	284.23
706.60	283.89
706.94	283.86
707.27	283.37
707.61	282.76
707.94	282.30
708.27	281.04
708.61	279.82
708.94	279.05
709.28	278.44
709.61	277.76
709.94	277.35
710.28	276.98
710.61	276.40
710.95	275.08
711.28	275.20
711.61	274.55
711.95	274.40
712.28	273.83
712.61	273.31
712.95	273.36
713.28	273.31
713.61	272.61
713.95	271.61
714.28	271.25
714.61	270.80
714.95	270.19
715.28	269.59
715.61	269.04
715.95	268.79
716.28	268.28
716.61	268.06
716.95	267.43
717.28	266.85
717.61	266.37
717.94	265.98
718.28	264.87
718.61	264.62
718.94	264.10
719.27	263.87
719.61	263.46
719.94	262.87
720.27	261.97
720.60	261.60
720.94	261.33
721.27	260.89
721.60	260.70
721.93	260.31
722.27	260.31
722.60	260.02
722.93	259.52
723.26	259.31
723.59	258.90
723.93	258.82
724.26	258.53
724.59	258.25
724.92	257.92
725.25	257.89
725.59	257.42
725.92	257.25
726.25	256.92
726.58	256.74
726.91	256.27
727.24	256.16
727.57	255.77
727.91	255.39
728.24	255.18
728.57	254.69
728.90	254.68
729.23	254.16
729.56	254.42
729.89	254.20
730.22	253.79
730.55	253.53
730.89	253.29
731.22	253.05
731.55	252.81
731.88	252.58
732.21	252.11
732.54	251.85
732.87	251.64
733.20	251.40
733.53	251.15
733.86	251.15
734.19	250.80
734.52	250.80
734.85	251.16
735.18	250.76
735.51	250.83
735.84	250.63
736.17	250.62
736.50	249.91
736.83	250.77
737.16	250.70
737.49	250.49
737.82	250.09
738.15	250.01
738.48	249.83
738.81	249.61
739.14	249.44
739.47	249.20
739.80	248.91
740.13	248.83
740.46	248.50
740.79	248.11
741.12	247.92
741.45	247.55
741.78	246.92
742.11	247.08
742.44	246.73
742.77	246.64
743.10	246.44
743.43	246.25
743.75	245.03
744.08	246.12
744.41	245.90
744.74	245.78
745.07	245.44
745.40	245.44
745.73	245.81
746.06	245.64
746.39	245.71
746.71	245.50
747.04	245.14
747.37	244.96
747.70	245.07
748.03	244.92
748.36	245.01
748.68	244.85
749.01	244.53
749.34	244.40
749.67	244.27
750.00	244.15
750.33	244.77
750.65	244.71
750.98	243.27
751.31	243.06
751.64	242.95
751.97	243.41
752.29	243.23
752.62	242.57
752.95	242.40
753.28	242.07
753.60	241.97
753.93	242.23
754.26	242.28
754.59	241.77
754.91	241.62
755.24	241.31
755.57	241.15
755.90	240.95
756.22	240.71
756.55	240.43
756.88	240.14
757.20	239.35
757.53	238.98
757.86	238.84
758.19	238.91
758.51	238.91
758.84	238.22
759.17	238.04
759.49	238.01
759.82	238.31
760.15	238.27
760.47	238.16
760.80	237.71
761.13	237.73
761.45	237.71
761.78	237.60
762.11	237.61
762.43	237.44
762.76	237.31
763.08	237.26
763.41	237.20
763.74	237.14
764.06	237.03
764.39	237.10
764.71	237.04
765.04	236.78
765.37	236.45
765.69	236.34
766.02	236.20
766.34	235.98
766.67	235.61
767.00	235.71
767.32	236.13
767.65	236.71
767.97	236.47
768.30	236.50
768.62	236.40
768.95	236.15
769.27	236.04
769.60	236.14
769.92	236.00
770.25	235.79
770.57	235.53
770.90	235.41
771.22	235.11
771.55	235.01
771.87	235.07
772.20	235.13
772.52	235.97
772.85	237.02
773.17	237.10
773.50	236.93
773.82	236.75
774.15	236.18
774.47	235.43
774.80	235.41
775.12	235.29
775.45	235.26
775.77	235.30
776.09	235.41
776.42	235.32
776.74	235.53
777.07	235.44
777.39	235.52
777.72	235.45
778.04	235.66
778.36	235.61
778.69	235.51
779.01	235.50
779.33	234.63
779.66	233.55
779.98	233.48
780.31	233.52
780.63	233.81
780.95	233.96
781.28	233.95
781.60	233.83
781.92	233.70
782.25	233.60
782.57	233.55
782.89	233.30
783.22	233.26
783.54	233.00
783.86	233.04
784.19	232.98
784.51	233.20
784.83	232.88
785.16	232.71
785.48	232.82
785.80	232.80
786.12	232.74
786.45	232.58
786.77	232.50
787.09	232.43
787.42	232.05
787.74	232.00
788.06	231.97
788.38	231.84
788.71	231.69
789.03	231.75
789.35	231.85
789.67	231.71
789.99	231.67
790.32	231.51
790.64	231.59
790.96	232.38
791.28	232.06
791.61	232.07
791.93	232.20
792.25	232.08
792.57	232.63
792.89	232.62
793.21	232.60
793.54	232.48
793.86	232.26
794.18	232.30
794.50	232.08
794.82	232.00
795.14	232.00
795.47	232.18
795.79	232.27
796.11	232.06
796.43	232.08
796.75	232.03
797.07	232.17
797.39	232.07
797.71	231.26
798.04	231.23
798.36	231.33
798.68	231.30
799.00	231.35
799.32	230.83
799.64	230.86
799.96	231.02
800.28	231.20
800.60	231.27
800.92	231.25
801.24	231.25
801.56	231.41
801.89	231.35
802.21	231.40
802.53	231.15
802.85	231.27
803.17	231.75
803.49	231.54
803.81	231.43
804.13	231.34
804.45	231.27
804.77	231.43
805.09	231.38
805.41	231.22
805.73	231.02
806.05	230.89
806.37	230.80
806.69	230.58
807.01	230.47
807.33	230.37
807.65	230.10
807.97	230.55
808.28	230.41
808.60	230.45
808.92	230.31
809.24	230.82
809.56	230.69
809.88	230.36
810.20	230.54
810.52	230.69
810.84	230.66
811.16	230.49
811.48	230.27
811.80	230.68
812.12	230.72
812.43	230.84
812.75	230.82
813.07	230.72
813.39	230.80
813.71	230.69
814.03	230.62
814.35	230.69
814.67	230.26
814.98	230.24
815.30	230.20
815.62	230.11
815.94	229.49
816.26	229.87
816.58	229.71
816.89	229.67
817.21	229.49
817.53	229.47
817.85	229.59
818.17	229.75
818.48	229.22
818.80	229.43
819.12	229.26
819.44	229.10
819.76	229.06
820.07	229.09
820.39	229.10
820.71	229.32
821.03	229.30
821.34	229.17
821.66	229.22
821.98	229.34
822.30	229.21
822.61	229.78
822.93	229.34
823.25	229.20
823.57	229.10
823.88	229.21
824.20	229.10
824.52	229.22
824.83	229.11
825.15	228.97
825.47	228.85
825.79	229.00
826.10	228.98
826.42	228.91
826.74	228.90
827.05	228.88
827.37	228.87
827.69	228.83
828.00	228.83
828.32	228.74
828.64	228.67
828.95	229.20
829.27	228.83
829.58	228.79
829.90	229.01
830.22	229.02
830.53	228.79
830.85	228.73
831.17	228.41
831.48	228.30
831.80	228.38
832.11	228.27
832.43	228.10
832.75	228.09
833.06	228.70
833.38	228.47
833.69	228.34
834.01	228.31
834.32	228.26
834.64	228.33
834.96	228.45
835.27	228.42
835.59	228.09
835.90	228.02
836.22	228.05
836.53	227.88
836.85	227.80
837.16	228.80
837.48	228.90
837.79	229.33
838.11	229.43
838.42	229.52
838.74	229.70
839.05	229.62
839.37	229.65
839.68	229.03
840.00	229.10
840.31	229.27
840.63	229.16
840.94	229.02
841.26	228.81
841.57	228.72
841.88	228.79
842.20	228.72
842.51	228.61
842.83	228.59
843.14	229.45
843.46	229.51
843.77	229.02
844.08	228.99
844.40	228.73
844.71	228.69
845.03	228.58
845.34	228.48
845.65	228.46
845.97	228.39
846.28	228.50
846.60	228.57
846.91	228.45
847.22	228.50
847.54	228.78
847.85	228.90
848.16	228.74
848.48	228.60
848.79	228.97
849.10	229.06
849.42	229.23
849.73	228.38
850.04	228.35
850.36	227.93
850.67	228.18
850.98	228.27
851.30	228.33
851.61	228.32
851.92	228.26
852.23	228.53
852.55	228.62
852.86	228.61
853.17	228.68
853.49	228.83
853.80	229.00
854.11	229.12
854.42	229.26
854.74	229.27
855.05	229.25
855.36	228.76
855.67	228.75
855.99	228.72
856.30	229.82
856.61	229.81
856.92	230.00
857.23	229.92
857.55	229.78
857.86	229.71
858.17	229.88
858.48	229.68
858.79	229.55
859.11	229.65
859.42	229.61
859.73	229.38
860.04	229.30
860.35	229.05
860.66	228.75
860.98	228.74
861.29	228.90
861.60	228.85
861.91	229.11
862.22	228.96
862.53	228.67
862.84	227.50
863.16	227.73
863.47	227.42
863.78	227.38
864.09	227.34
864.40	227.36
864.71	227.36
865.02	227.47
865.33	227.32
865.64	227.13
865.95	227.10
866.27	227.73
866.58	227.79
866.89	227.90
867.20	227.82
867.51	227.66
867.82	227.57
868.13	227.83
868.44	227.54
868.75	227.80
869.06	227.96
869.37	228.10
869.68	227.84
869.99	228.04
870.30	227.98
870.61	228.17
870.92	228.02
871.23	227.92
871.54	228.15
871.85	228.38
872.16	228.53
872.47	228.39
872.78	227.79
873.09	227.74
873.40	227.68
873.71	227.74
874.02	227.80
874.33	227.65
874.64	227.38
874.95	227.53
875.26	227.26
875.56	227.16
875.87	227.13
876.18	226.99
876.49	227.86
876.80	227.70
877.11	227.34
877.42	227.37
877.73	227.31
878.04	227.17
878.35	227.13
878.66	227.08
878.96	227.11
879.27	227.11
879.58	227.02
879.89	227.02
880.20	227.32
880.51	227.23
880.82	227.29
881.12	227.45
881.43	227.25
881.74	227.18
882.05	227.20
882.36	227.17
882.67	227.23
882.97	226.26
883.28	226.27
883.59	226.30
883.90	226.44
884.21	226.57
884.51	226.47
884.82	226.35
885.13	226.39
885.44	226.42
885.74	226.39
886.05	226.47
886.36	226.40
886.67	226.04
886.98	226.53
887.28	226.64
887.59	226.54
887.90	226.56
888.20	226.60
888.51	226.76
888.82	226.72
889.13	226.88
889.43	227.70
889.74	227.70
890.05	227.79
890.35	227.72
890.66	227.59
890.97	227.59
891.28	227.50
891.58	227.56
891.89	227.59
892.20	227.67
892.50	227.63
892.81	227.52
893.12	227.46
893.42	227.02
893.73	226.98
894.04	227.07
894.34	227.29
894.65	227.23
894.95	227.11
895.26	227.20
895.57	227.67
895.87	226.72
896.18	226.93
896.48	227.07
896.79	227.12
897.10	227.29
897.40	227.43
897.71	227.55
898.01	227.44
898.32	227.57
898.63	227.45
898.93	227.45
899.24	227.57
899.54	227.50
899.85	227.48
900.15	227.47
900.46	227.44
900.76	227.45
901.07	227.47
901.38	227.56
901.68	227.70
901.99	227.16
902.29	227.26
902.60	227.10
902.90	226.95
903.21	226.82
903.51	226.71
903.82	226.82
904.12	226.84
904.43	226.85
904.73	226.84
905.03	227.03
905.34	227.82
905.64	227.82
905.95	227.89
906.25	227.83
906.56	227.75
906.86	227.74
907.17	227.56
907.47	227.69
907.77	227.42
908.08	227.15
908.38	227.13
908.69	227.17
908.99	227.29
909.30	227.33
909.60	227.36
909.90	227.50
910.21	227.25
910.51	227.10
910.81	227.11
911.12	227.11
911.42	227.03
911.73	226.12
912.03	226.15
912.33	226.27
912.64	226.29
912.94	226.26
913.24	226.03
913.55	225.99
913.85	225.81
914.15	226.16
914.46	226.26
914.76	226.20
915.06	226.09
915.37	225.96
915.67	225.88
915.97	226.00
916.27	225.79
916.58	225.86
916.88	225.84
917.18	225.83
917.49	226.42
917.79	226.40
918.09	226.55
918.39	226.79
918.70	226.85
919.00	226.88
919.30	227.26
919.60	227.41
919.91	227.38
920.21	227.49
920.51	227.22
920.81	227.14
921.12	227.31
921.42	227.48
921.72	227.54
922.02	227.62
922.32	227.63
922.63	227.70
922.93	228.08
923.23	228.13
923.53	228.00
923.83	227.40
924.13	227.50
924.44	227.49
924.74	227.60
925.04	227.84
925.34	227.76
925.64	227.42
925.94	227.29
926.24	227.85
926.55	227.77
926.85	227.95
927.15	227.92
927.45	227.96
927.75	227.81
928.05	227.94
928.35	227.86
928.65	228.03
928.95	228.14
929.26	227.82
929.56	227.96
929.86	228.18
930.16	228.13
930.46	228.10
930.76	228.16
931.06	227.78
931.36	227.51
931.66	227.71
931.96	227.90
932.26	228.09
932.56	227.72
932.86	227.80
933.16	227.81
933.46	227.74
933.76	227.63
934.06	227.91
934.36	228.20
934.66	228.19
934.96	228.10
935.26	228.08
935.56	228.15
935.86	227.99
936.16	227.76
936.46	227.65
936.76	227.61
937.06	227.44
937.36	227.55
937.66	227.60
937.96	227.62
938.26	227.37
938.56	227.30
938.86	227.25
939.16	227.50
939.46	227.58
939.76	227.72
940.06	227.72
940.35	227.49
940.65	226.95
940.95	227.07
941.25	226.87
941.55	226.85
941.85	226.88
942.15	227.10
942.45	227.45
942.75	227.48
943.04	227.58
943.34	227.78
943.64	227.59
943.94	227.48
944.24	227.46
944.54	227.61
944.84	227.49
945.13	227.46
945.43	227.27
945.73	227.24
946.03	227.18
946.33	227.07
946.62	227.03
946.92	227.08
947.22	227.21
947.52	227.25
947.82	227.23
948.11	227.14
948.41	226.93
948.71	226.62
949.01	226.75
949.31	226.58
949.60	226.53
949.90	226.80
950.20	226.86
950.50	226.86
950.79	226.85
951.09	227.11
951.39	227.03
951.69	226.98
951.98	227.13
952.28	227.08
952.58	227.10
952.87	227.16
953.17	227.37
953.47	227.20
953.76	227.18
954.06	227.08
954.36	226.97
954.66	226.95
954.95	227.24
955.25	227.22
955.55	227.38
955.84	227.21
956.14	227.27
956.44	227.26
956.73	227.14
957.03	227.13
957.32	227.03
957.62	227.11
957.92	227.36
958.21	227.25
958.51	228.42
958.81	228.54
959.10	228.51
959.40	228.64
959.69	228.73
959.99	228.97
960.29	229.10
960.58	229.00
960.88	229.39
961.17	229.27
961.47	229.33
961.76	229.21
962.06	229.50
962.36	229.32
962.65	229.30
962.95	229.28
963.24	229.15
963.54	229.23
963.83	229.27
964.13	229.11
964.42	228.90
964.72	228.19
965.01	228.22
965.31	228.34
965.60	228.12
965.90	228.71
966.19	228.52
966.49	228.44
966.78	228.56
967.08	228.56
967.37	228.58
967.67	228.40
967.96	228.62
968.26	228.57
968.55	228.76
968.85	228.87
969.14	228.96
969.43	229.03
969.73	228.87
970.02	228.80
970.32	228.81
970.61	228.80
970.91	228.51
971.20	228.40
971.49	228.28
971.79	228.40
972.08	227.67
972.38	227.70
972.67	227.69
972.96	227.80
973.26	227.48
973.55	227.72
973.85	227.78
974.14	227.53
974.43	227.60
974.73	227.40
975.02	227.26
975.31	227.23
975.61	227.28
975.90	227.24
976.19	227.19
976.49	227.23
976.78	227.34
977.07	227.23
977.37	227.29
977.66	227.36
977.95	227.23
978.24	227.39
978.54	227.60
978.83	227.57
979.12	227.40
979.42	227.41
979.71	227.29
980.00	227.30
980.29	227.41
980.59	227.09
980.88	227.32
981.17	227.23
981.46	227.23
981.76	227.21
982.05	227.63
982.34	227.65
982.63	227.65
982.93	227.63
983.22	227.95
983.51	227.88
983.80	228.03
984.09	228.10
984.39	227.98
984.68	227.74
984.97	227.79
985.26	227.76
985.55	227.92
985.85	227.66
986.14	227.71
986.43	227.79
986.72	227.85
987.01	227.45
987.30	227.54
987.59	227.46
987.89	227.41
988.18	227.04
988.47	227.05
988.76	226.95
989.05	226.80
989.34	226.61
989.63	226.84
989.92	226.62
990.22	226.54
990.51	226.50
990.80	226.41
991.09	226.43
991.38	226.60
991.67	226.45
991.96	226.37
992.25	226.45
992.54	226.28
992.83	226.27
993.12	226.31
993.41	226.32
993.70	226.67
993.99	226.94
994.28	227.02
994.58	227.04
994.87	226.89
995.16	226.94
995.45	226.80
995.74	226.45
996.03	226.63
996.32	226.76
996.61	227.05
996.90	227.02
997.19	226.96
997.48	226.85
997.77	226.73
998.06	226.85
998.34	226.60
998.63	226.49
998.92	226.51
999.21	226.63
999.50	226.63
999.79	226.35
1000.08	226.25
1000.37	226.21
1000.66	226.11
1000.95	226.40
1001.24	226.47
1001.53	226.69
1001.82	226.76
1002.11	226.50
1002.40	226.60
1002.68	226.69
1002.97	227.37
1003.26	227.28
1003.55	227.17
1003.84	227.34
1004.13	227.54
1004.42	227.54
1004.71	227.68
1004.99	227.61
1005.28	227.86
1005.57	227.86
1005.86	227.75
1006.15	227.77
1006.44	227.72
1006.72	227.90
1007.01	227.73
1007.30	227.77
1007.59	227.74
1007.88	227.74
1008.17	227.89
1008.45	227.58
1008.74	227.22
1009.03	226.85
1009.32	226.92
1009.60	226.96
1009.89	226.78
1010.18	226.54
1010.47	226.57
1010.76	226.56
1011.04	226.51
1011.33	226.63
1011.62	226.77
1011.91	226.77
1012.19	226.69
1012.48	226.69
1012.77	226.67
1013.05	227.12
1013.34	227.08
1013.63	226.99
1013.92	227.09
1014.20	226.89
1014.49	227.04
1014.78	227.08
1015.06	226.81
1015.35	226.78
1015.64	226.97
1015.92	227.20
1016.21	227.22
1016.50	227.22
1016.78	227.37
1017.07	227.42
1017.36	227.06
1017.64	226.85
1017.93	226.99
1018.22	226.90
1018.50	226.89
1018.79	226.90
1019.08	226.48
1019.36	226.51
1019.65	226.34
1019.93	226.50
1020.22	226.73
1020.51	227.20
1020.79	227.12
1021.08	225.00
1021.36	225.20
1021.65	227.70
1021.94	227.00
1022.22	227.20
1022.51	223.40
1022.79	230.60
1023.08	227.90
1023.36	238.70
1023.65	224.40
>>>>>End Processed Spectral Data<<<<<
