SpectraSuite Data File
++++++++++++++++++++++++++++++++++++
Date: Wed Sep 04 17:29:23 EDT 2013
User: lab3
Dark Spectrum Present: Yes
Reference Spectrum Present: No
Number of Sampled Component Spectra: 1
Spectrometers: USB2E7196
Integration Time (usec): 337000 (USB2E7196)
Spectra Averaged: 10 (USB2E7196)
Boxcar Smoothing: 10 (USB2E7196)
Correct for Electrical Dark: No (USB2E7196)
Strobe/Lamp Enabled: No (USB2E7196)
Correct for Detector Non-linearity: No (USB2E7196)
Correct for Stray Light: No (USB2E7196)
Number of Pixels in Processed Spectrum: 2048
>>>>>Begin Processed Spectral Data<<<<<
339.09	0.00
339.48	213.20
339.86	215.50
340.24	216.10
340.63	215.90
341.01	231.30
341.39	221.30
341.78	222.60
342.16	224.60
342.54	222.40
342.93	212.88
343.31	223.59
343.69	224.10
344.07	224.49
344.46	224.97
344.84	225.47
345.22	225.25
345.60	225.51
345.99	225.75
346.37	225.79
346.75	225.98
347.13	226.01
347.52	226.10
347.90	226.47
348.28	226.56
348.66	226.71
349.05	226.47
349.43	226.70
349.81	226.74
350.19	226.95
350.57	227.08
350.96	227.22
351.34	227.37
351.72	227.50
352.10	227.61
352.48	227.64
352.87	227.68
353.25	227.63
353.63	227.62
354.01	227.55
354.39	227.79
354.77	227.78
355.15	228.05
355.54	228.02
355.92	227.81
356.30	227.89
356.68	228.55
357.06	228.79
357.44	228.70
357.82	228.79
358.20	229.57
358.58	229.64
358.97	229.74
359.35	229.98
359.73	230.19
360.11	230.27
360.49	230.33
360.87	230.40
361.25	230.72
361.63	231.06
362.01	231.13
362.39	231.01
362.77	231.17
363.15	231.14
363.53	231.26
363.91	231.32
364.29	231.33
364.67	230.47
365.05	230.34
365.43	230.39
365.81	230.53
366.19	230.26
366.57	230.54
366.95	230.50
367.33	230.21
367.71	230.22
368.09	230.36
368.47	230.35
368.85	230.28
369.23	230.37
369.61	230.06
369.99	230.48
370.37	230.70
370.75	231.27
371.13	231.10
371.51	231.02
371.89	231.13
372.27	231.19
372.65	231.23
373.03	231.23
373.41	231.32
373.78	231.26
374.16	230.70
374.54	230.40
374.92	230.24
375.30	230.28
375.68	230.02
376.06	230.11
376.44	230.14
376.82	230.20
377.19	229.98
377.57	229.95
377.95	229.54
378.33	229.26
378.71	228.62
379.09	228.79
379.47	228.84
379.84	228.65
380.22	228.44
380.60	228.21
380.98	228.10
381.36	227.94
381.73	227.74
382.11	227.86
382.49	227.86
382.87	227.75
383.25	227.73
383.62	228.92
384.00	228.59
384.38	228.57
384.76	228.68
385.13	229.05
385.51	228.98
385.89	228.90
386.27	228.96
386.64	229.03
387.02	228.90
387.40	228.77
387.78	228.81
388.15	228.92
388.53	228.88
388.91	228.91
389.29	228.80
389.66	228.89
390.04	228.75
390.42	228.91
390.79	228.88
391.17	228.91
391.55	227.89
391.92	227.98
392.30	228.08
392.68	227.89
393.05	227.85
393.43	228.04
393.81	228.05
394.18	227.95
394.56	227.95
394.94	228.18
395.31	228.18
395.69	228.60
396.06	228.77
396.44	228.96
396.82	229.00
397.19	229.59
397.57	229.56
397.95	229.91
398.32	229.80
398.70	230.19
399.07	230.45
399.45	230.48
399.82	230.62
400.20	230.58
400.58	230.75
400.95	230.50
401.33	230.72
401.70	231.65
402.08	231.90
402.45	232.16
402.83	232.56
403.20	232.95
403.58	233.04
403.95	233.48
404.33	233.76
404.71	234.20
405.08	235.02
405.46	235.52
405.83	235.89
406.21	236.29
406.58	236.69
406.96	237.32
407.33	237.94
407.70	238.66
408.08	240.08
408.45	240.94
408.83	242.01
409.20	242.79
409.58	242.95
409.95	244.03
410.33	245.02
410.70	245.86
411.08	247.04
411.45	248.23
411.82	249.40
412.20	251.11
412.57	252.97
412.95	253.71
413.32	255.50
413.69	257.22
414.07	259.10
414.44	261.16
414.82	263.10
415.19	265.64
415.56	268.07
415.94	270.20
416.31	273.18
416.68	276.03
417.06	279.51
417.43	283.14
417.81	286.96
418.18	290.84
418.55	294.88
418.93	299.10
419.30	303.69
419.67	308.43
420.04	313.36
420.42	318.40
420.79	324.97
421.16	331.00
421.54	337.58
421.91	344.18
422.28	351.07
422.66	358.34
423.03	365.78
423.40	373.22
423.77	381.02
424.15	388.98
424.52	397.58
424.89	406.74
425.26	415.33
425.64	423.75
426.01	433.16
426.38	443.00
426.75	453.28
427.13	463.48
427.50	474.10
427.87	485.29
428.24	496.57
428.61	507.04
428.99	519.08
429.36	531.54
429.73	544.23
430.10	557.06
430.47	570.12
430.85	583.39
431.22	597.71
431.59	613.70
431.96	628.36
432.33	644.50
432.70	660.21
433.08	679.11
433.45	696.60
433.82	714.12
434.19	733.58
434.56	752.78
434.93	771.18
435.30	790.02
435.68	810.96
436.05	831.34
436.42	851.51
436.79	870.28
437.16	891.22
437.53	912.62
437.90	933.99
438.27	955.30
438.64	977.12
439.01	997.90
439.38	1015.91
439.75	1034.07
440.13	1054.47
440.50	1073.65
440.87	1089.20
441.24	1105.52
441.61	1123.73
441.98	1137.34
442.35	1153.02
442.72	1169.22
443.09	1184.68
443.46	1194.16
443.83	1201.16
444.20	1207.55
444.57	1216.06
444.94	1220.09
445.31	1224.72
445.68	1229.40
446.05	1231.52
446.42	1230.20
446.79	1228.67
447.16	1226.46
447.53	1225.26
447.90	1218.12
448.27	1210.92
448.64	1200.90
449.01	1193.73
449.37	1180.23
449.74	1167.09
450.11	1151.60
450.48	1134.12
450.85	1116.27
451.22	1101.01
451.59	1086.24
451.96	1072.07
452.33	1053.25
452.70	1036.47
453.07	1016.28
453.43	995.19
453.80	975.55
454.17	956.74
454.54	938.53
454.91	919.43
455.28	900.31
455.65	882.48
456.02	865.70
456.38	850.80
456.75	832.30
457.12	816.60
457.49	801.57
457.86	786.47
458.23	774.14
458.59	760.38
458.96	746.42
459.33	734.46
459.70	722.11
460.07	712.28
460.43	700.95
460.80	690.57
461.17	681.64
461.54	671.88
461.91	662.92
462.27	653.69
462.64	645.87
463.01	637.26
463.38	629.32
463.74	620.35
464.11	612.95
464.48	606.74
464.85	599.89
465.21	594.84
465.58	589.29
465.95	582.41
466.32	577.01
466.68	571.49
467.05	565.76
467.42	560.44
467.78	554.88
468.15	549.65
468.52	545.85
468.88	540.58
469.25	536.08
469.62	532.43
469.98	528.41
470.35	524.57
470.72	521.07
471.08	517.03
471.45	513.90
471.82	510.71
472.18	507.11
472.55	504.75
472.92	501.58
473.28	498.93
473.65	496.33
474.02	493.71
474.38	491.74
474.75	490.05
475.11	488.07
475.48	486.43
475.85	484.93
476.21	483.33
476.58	481.91
476.94	481.15
477.31	479.99
477.67	478.80
478.04	478.07
478.41	477.61
478.77	478.07
479.14	477.20
479.50	476.96
479.87	477.04
480.23	477.04
480.60	476.79
480.96	476.82
481.33	477.42
481.69	477.89
482.06	478.23
482.42	478.68
482.79	479.40
483.15	480.31
483.52	481.71
483.88	482.59
484.25	483.89
484.61	485.06
484.98	486.21
485.34	488.24
485.71	490.20
486.07	492.14
486.44	493.20
486.80	495.46
487.17	497.64
487.53	500.57
487.90	503.47
488.26	506.85
488.62	510.07
488.99	512.88
489.35	516.06
489.72	519.69
490.08	523.51
490.44	527.34
490.81	531.41
491.17	535.43
491.54	539.97
491.90	544.46
492.26	549.09
492.63	554.27
492.99	559.17
493.36	564.40
493.72	570.09
494.08	575.86
494.45	582.17
494.81	588.74
495.17	594.73
495.54	601.40
495.90	607.98
496.26	614.78
496.63	622.08
496.99	629.09
497.35	636.58
497.72	644.22
498.08	652.00
498.44	660.04
498.80	668.48
499.17	676.74
499.53	685.32
499.89	694.10
500.26	702.92
500.62	711.62
500.98	720.90
501.34	729.79
501.71	739.30
502.07	748.37
502.43	757.50
502.79	767.01
503.16	776.38
503.52	786.43
503.88	796.04
504.24	806.01
504.60	816.73
504.97	827.23
505.33	837.25
505.69	848.16
506.05	858.82
506.41	869.16
506.78	879.59
507.14	890.26
507.50	900.88
507.86	911.58
508.22	922.44
508.59	932.63
508.95	943.50
509.31	954.76
509.67	965.87
510.03	976.23
510.39	986.61
510.75	997.29
511.12	1007.21
511.48	1017.87
511.84	1027.84
512.20	1037.82
512.56	1047.55
512.92	1057.98
513.28	1067.40
513.64	1076.93
514.00	1086.26
514.37	1095.87
514.73	1105.52
515.09	1115.13
515.45	1124.12
515.81	1133.08
516.17	1142.09
516.53	1150.55
516.89	1158.47
517.25	1166.87
517.61	1176.13
517.97	1185.36
518.33	1193.72
518.69	1202.29
519.05	1210.45
519.41	1218.74
519.77	1227.27
520.13	1235.01
520.49	1242.15
520.85	1249.65
521.21	1257.14
521.57	1264.45
521.93	1271.09
522.29	1277.62
522.65	1283.52
523.01	1289.83
523.37	1295.63
523.73	1301.57
524.09	1307.22
524.45	1312.53
524.81	1317.52
525.17	1322.48
525.53	1327.25
525.89	1331.91
526.25	1336.35
526.61	1340.62
526.97	1345.16
527.33	1349.56
527.68	1354.77
528.04	1359.78
528.40	1364.11
528.76	1368.56
529.12	1373.02
529.48	1377.56
529.84	1381.38
530.20	1386.17
530.56	1390.63
530.91	1395.29
531.27	1399.41
531.63	1403.51
531.99	1407.46
532.35	1411.65
532.71	1415.65
533.07	1419.89
533.42	1423.96
533.78	1428.12
534.14	1432.22
534.50	1435.75
534.86	1439.38
535.21	1441.93
535.57	1445.24
535.93	1448.09
536.29	1451.23
536.65	1454.58
537.00	1457.65
537.36	1460.37
537.72	1463.08
538.08	1465.70
538.44	1468.19
538.79	1471.09
539.15	1473.92
539.51	1477.18
539.87	1479.69
540.22	1481.47
540.58	1482.92
540.94	1484.77
541.29	1485.90
541.65	1486.68
542.01	1488.34
542.37	1489.17
542.72	1490.09
543.08	1490.29
543.44	1491.36
543.79	1491.06
544.15	1491.26
544.51	1491.66
544.87	1492.26
545.22	1492.09
545.58	1491.99
545.94	1491.73
546.29	1490.94
546.65	1490.15
547.01	1489.11
547.36	1488.07
547.72	1487.47
548.07	1486.36
548.43	1485.15
548.79	1484.50
549.14	1483.93
549.50	1483.22
549.86	1481.86
550.21	1481.33
550.57	1480.61
550.92	1479.36
551.28	1478.85
551.64	1478.08
551.99	1477.68
552.35	1476.90
552.70	1476.21
553.06	1475.62
553.41	1474.86
553.77	1474.96
554.13	1474.64
554.48	1474.30
554.84	1473.71
555.19	1473.13
555.55	1474.11
555.90	1473.50
556.26	1472.62
556.61	1471.63
556.97	1469.93
557.32	1469.20
557.68	1468.07
558.03	1467.66
558.39	1467.00
558.74	1466.30
559.10	1464.87
559.45	1463.13
559.81	1461.46
560.16	1459.62
560.52	1457.72
560.87	1456.41
561.23	1454.15
561.58	1452.97
561.94	1450.65
562.29	1448.84
562.64	1446.84
563.00	1443.76
563.35	1442.02
563.71	1440.40
564.06	1439.01
564.42	1437.51
564.77	1435.96
565.12	1434.45
565.48	1433.29
565.83	1431.68
566.19	1429.83
566.54	1428.21
566.89	1426.55
567.25	1425.32
567.60	1424.61
567.96	1424.21
568.31	1422.96
568.66	1422.00
569.02	1419.31
569.37	1417.95
569.72	1416.32
570.08	1414.42
570.43	1412.02
570.78	1409.86
571.14	1407.81
571.49	1404.88
571.84	1402.86
572.20	1400.57
572.55	1397.98
572.90	1394.32
573.26	1391.61
573.61	1388.56
573.96	1385.65
574.31	1382.43
574.67	1378.94
575.02	1374.97
575.37	1370.43
575.72	1366.16
576.08	1361.89
576.43	1358.38
576.78	1354.12
577.13	1350.15
577.49	1346.32
577.84	1342.97
578.19	1339.61
578.54	1335.99
578.90	1333.16
579.25	1329.66
579.60	1326.02
579.95	1322.02
580.30	1318.20
580.66	1314.02
581.01	1310.20
581.36	1305.69
581.71	1301.86
582.06	1298.37
582.42	1294.40
582.77	1290.34
583.12	1287.16
583.47	1283.63
583.82	1280.29
584.17	1276.68
584.53	1273.48
584.88	1269.29
585.23	1265.39
585.58	1260.60
585.93	1255.89
586.28	1251.65
586.63	1246.46
586.98	1241.63
587.34	1237.62
587.69	1232.85
588.04	1228.70
588.39	1224.60
588.74	1220.18
589.09	1215.99
589.44	1210.51
589.79	1206.25
590.14	1202.37
590.49	1197.66
590.84	1193.19
591.19	1189.00
591.54	1184.51
591.89	1179.40
592.25	1176.81
592.60	1172.43
592.95	1168.57
593.30	1164.25
593.65	1159.13
594.00	1154.73
594.35	1152.77
594.70	1147.70
595.05	1143.67
595.40	1138.78
595.75	1133.61
596.10	1129.51
596.45	1124.93
596.80	1121.20
597.15	1116.76
597.50	1111.86
597.85	1107.90
598.19	1103.03
598.54	1097.81
598.89	1093.30
599.24	1089.07
599.59	1083.25
599.94	1078.57
600.29	1074.14
600.64	1069.76
600.99	1065.39
601.34	1061.53
601.69	1054.67
602.04	1050.65
602.39	1046.48
602.74	1042.76
603.08	1039.00
603.43	1035.02
603.78	1030.71
604.13	1026.43
604.48	1022.03
604.83	1017.68
605.18	1012.45
605.53	1008.15
605.87	1004.02
606.22	999.87
606.57	995.58
606.92	991.26
607.27	987.10
607.62	982.63
607.96	978.59
608.31	975.00
608.66	970.79
609.01	966.60
609.36	962.22
609.70	957.90
610.05	953.44
610.40	949.21
610.75	944.49
611.10	940.10
611.44	935.37
611.79	930.81
612.14	926.59
612.49	922.45
612.83	918.60
613.18	914.24
613.53	910.29
613.88	905.88
614.22	901.13
614.57	896.58
614.92	891.80
615.27	887.39
615.61	882.69
615.96	878.15
616.31	873.83
616.65	869.92
617.00	865.50
617.35	861.08
617.70	856.36
618.04	852.01
618.39	847.55
618.74	843.79
619.08	839.63
619.43	835.06
619.78	830.45
620.12	825.75
620.47	821.34
620.82	816.41
621.16	811.97
621.51	808.53
621.85	804.30
622.20	800.40
622.55	795.85
622.89	791.61
623.24	787.71
623.59	783.28
623.93	779.11
624.28	774.73
624.62	771.77
624.97	768.40
625.32	764.42
625.66	760.38
626.01	756.24
626.35	752.55
626.70	748.64
627.04	745.56
627.39	741.39
627.73	737.99
628.08	734.54
628.43	730.73
628.77	726.47
629.12	722.77
629.46	719.73
629.81	716.90
630.15	713.49
630.50	709.80
630.84	706.37
631.19	702.61
631.53	699.36
631.88	694.70
632.22	690.72
632.57	687.66
632.91	684.19
633.26	680.85
633.60	676.92
633.95	673.57
634.29	669.40
634.64	666.26
634.98	662.17
635.32	658.84
635.67	655.72
636.01	652.48
636.36	648.81
636.70	645.27
637.05	641.32
637.39	637.65
637.73	634.37
638.08	631.06
638.42	627.67
638.77	624.25
639.11	620.37
639.45	616.63
639.80	612.67
640.14	609.19
640.49	605.67
640.83	602.52
641.17	599.42
641.52	596.46
641.86	593.31
642.20	590.84
642.55	587.52
642.89	584.22
643.23	581.06
643.58	578.57
643.92	575.21
644.26	572.25
644.61	569.57
644.95	566.33
645.29	563.38
645.64	560.51
645.98	557.67
646.32	555.37
646.66	552.59
647.01	549.88
647.35	547.57
647.69	544.82
648.04	542.37
648.38	539.68
648.72	537.02
649.06	534.06
649.41	531.01
649.75	527.97
650.09	525.19
650.43	522.51
650.78	519.47
651.12	516.80
651.46	514.29
651.80	511.55
652.14	508.94
652.49	506.72
652.83	504.24
653.17	501.65
653.51	498.79
653.85	496.58
654.20	494.25
654.54	491.50
654.88	488.86
655.22	486.68
655.56	484.24
655.90	481.86
656.25	479.68
656.59	477.44
656.93	475.50
657.27	473.67
657.61	471.10
657.95	468.79
658.29	466.30
658.64	464.13
658.98	462.04
659.32	459.84
659.66	457.42
660.00	455.26
660.34	453.08
660.68	451.11
661.02	448.86
661.36	446.78
661.70	444.70
662.05	442.87
662.39	440.63
662.73	438.93
663.07	437.25
663.41	435.30
663.75	433.20
664.09	431.15
664.43	428.81
664.77	427.16
665.11	425.17
665.45	423.56
665.79	421.81
666.13	419.81
666.47	417.89
666.81	415.99
667.15	413.91
667.49	412.37
667.83	411.01
668.17	409.27
668.51	407.53
668.85	406.10
669.19	404.95
669.53	403.15
669.87	401.20
670.21	399.30
670.55	397.67
670.89	396.46
671.23	395.01
671.57	393.44
671.91	391.71
672.25	390.32
672.58	388.92
672.92	387.00
673.26	385.48
673.60	384.19
673.94	382.60
674.28	381.11
674.62	379.54
674.96	377.88
675.30	376.47
675.64	375.13
675.97	373.62
676.31	371.77
676.65	370.23
676.99	369.03
677.33	367.43
677.67	366.21
678.01	364.43
678.34	363.07
678.68	362.00
679.02	360.64
679.36	359.20
679.70	357.66
680.04	356.50
680.37	355.30
680.71	353.93
681.05	352.89
681.39	351.88
681.73	350.61
682.06	349.26
682.40	348.11
682.74	347.05
683.08	346.16
683.42	344.85
683.75	343.93
684.09	342.62
684.43	341.64
684.77	340.36
685.10	339.35
685.44	338.20
685.78	336.89
686.12	335.90
686.45	334.90
686.79	333.65
687.13	332.81
687.46	331.67
687.80	330.95
688.14	329.85
688.48	328.84
688.81	327.83
689.15	327.05
689.49	325.96
689.82	324.83
690.16	323.45
690.50	322.67
690.83	321.62
691.17	320.44
691.51	319.51
691.84	318.70
692.18	317.60
692.52	316.60
692.85	315.79
693.19	315.22
693.52	314.34
693.86	313.44
694.20	312.50
694.53	311.72
694.87	310.59
695.21	309.60
695.54	308.70
695.88	307.71
696.21	306.58
696.55	305.86
696.88	305.08
697.22	304.25
697.56	303.49
697.89	302.49
698.23	301.91
698.56	301.02
698.90	300.27
699.23	299.52
699.57	298.83
699.90	297.94
700.24	296.99
700.58	296.30
700.91	295.90
701.25	295.85
701.58	295.77
701.92	295.36
702.25	294.90
702.59	294.16
702.92	293.49
703.26	292.95
703.59	292.42
703.93	292.50
704.26	292.04
704.60	291.44
704.93	290.99
705.26	290.30
705.60	289.87
705.93	289.03
706.27	288.80
706.60	288.41
706.94	288.39
707.27	287.75
707.61	287.19
707.94	286.60
708.27	285.31
708.61	284.03
708.94	283.37
709.28	282.78
709.61	282.12
709.94	281.66
710.28	281.22
710.61	280.68
710.95	279.27
711.28	279.36
711.61	278.62
711.95	278.26
712.28	277.73
712.61	277.25
712.95	277.31
713.28	277.05
713.61	276.37
713.95	275.51
714.28	275.00
714.61	274.47
714.95	273.77
715.28	273.16
715.61	272.80
715.95	272.23
716.28	271.62
716.61	271.27
716.95	270.77
717.28	270.23
717.61	269.58
717.94	269.12
718.28	267.85
718.61	267.52
718.94	266.92
719.27	266.53
719.61	266.03
719.94	265.39
720.27	264.56
720.60	264.20
720.94	263.73
721.27	263.45
721.60	263.20
721.93	262.90
722.27	262.78
722.60	262.56
722.93	262.13
723.26	261.88
723.59	261.54
723.93	261.26
724.26	261.02
724.59	260.68
724.92	260.41
725.25	260.34
725.59	259.88
725.92	259.69
726.25	259.27
726.58	258.90
726.91	258.51
727.24	258.20
727.57	257.89
727.91	257.52
728.24	257.36
728.57	256.93
728.90	256.81
729.23	256.35
729.56	256.49
729.89	256.30
730.22	255.94
730.55	255.58
730.89	255.35
731.22	254.99
731.55	254.72
731.88	254.55
732.21	254.10
732.54	253.89
732.87	253.60
733.20	253.50
733.53	253.45
733.86	253.30
734.19	253.07
734.52	252.97
734.85	253.29
735.18	252.90
735.51	252.94
735.84	252.76
736.17	252.73
736.50	251.91
736.83	252.63
737.16	252.43
737.49	252.35
737.82	252.14
738.15	251.99
738.48	251.83
738.81	251.56
739.14	251.34
739.47	251.05
739.80	250.87
740.13	250.72
740.46	250.33
740.79	250.02
741.12	249.77
741.45	249.37
741.78	248.79
742.11	248.86
742.44	248.52
742.77	248.43
743.10	248.17
743.43	248.00
743.75	247.00
744.08	248.20
744.41	247.93
744.74	247.71
745.07	247.44
745.40	247.40
745.73	247.62
746.06	247.54
746.39	247.55
746.71	247.23
747.04	246.84
747.37	246.67
747.70	246.64
748.03	246.61
748.36	246.65
748.68	246.48
749.01	246.01
749.34	245.96
749.67	245.81
750.00	245.84
750.33	246.42
750.65	246.25
750.98	244.78
751.31	244.68
751.64	244.60
751.97	244.97
752.29	244.72
752.62	244.21
752.95	244.03
753.28	243.76
753.60	243.59
753.93	243.73
754.26	243.70
754.59	243.25
754.91	242.88
755.24	242.70
755.57	242.50
755.90	242.37
756.22	242.09
756.55	241.74
756.88	241.21
757.20	240.43
757.53	240.05
757.86	239.86
758.19	239.79
758.51	239.60
758.84	239.01
759.17	238.80
759.49	238.74
759.82	239.11
760.15	239.06
760.47	239.16
760.80	238.84
761.13	238.80
761.45	238.72
761.78	238.65
762.11	238.55
762.43	238.45
762.76	238.22
763.08	238.24
763.41	238.34
763.74	238.41
764.06	238.32
764.39	238.26
764.71	238.21
765.04	237.94
765.37	237.77
765.69	237.77
766.02	237.72
766.34	237.54
766.67	237.00
767.00	237.10
767.32	237.33
767.65	237.83
767.97	237.62
768.30	237.59
768.62	237.64
768.95	237.36
769.27	237.24
769.60	237.38
769.92	237.12
770.25	236.82
770.57	236.57
770.90	236.47
771.22	236.29
771.55	236.21
771.87	236.25
772.20	236.15
772.52	236.73
772.85	237.70
773.17	237.60
773.50	237.49
773.82	237.20
774.15	236.69
774.47	236.00
774.80	235.87
775.12	235.68
775.45	235.38
775.77	235.44
776.09	235.35
776.42	235.31
776.74	235.50
777.07	235.31
777.39	235.32
777.72	235.19
778.04	235.35
778.36	235.27
778.69	235.20
779.01	235.27
779.33	234.51
779.66	233.52
779.98	233.41
780.31	233.44
780.63	233.84
780.95	233.95
781.28	233.93
781.60	233.83
781.92	233.89
782.25	233.93
782.57	233.87
782.89	233.79
783.22	233.56
783.54	233.30
783.86	233.37
784.19	233.28
784.51	233.51
784.83	233.24
785.16	233.14
785.48	233.04
785.80	233.03
786.12	233.00
786.45	232.90
786.77	233.04
787.09	233.01
787.42	232.65
787.74	232.62
788.06	232.60
788.38	232.50
788.71	232.37
789.03	232.38
789.35	232.40
789.67	232.29
789.99	232.41
790.32	232.33
790.64	232.42
790.96	233.25
791.28	232.84
791.61	232.84
791.93	232.77
792.25	232.80
792.57	233.32
792.89	233.13
793.21	233.26
793.54	233.13
793.86	232.98
794.18	233.00
794.50	232.86
794.82	232.85
795.14	233.00
795.47	233.18
795.79	233.30
796.11	233.08
796.43	233.07
796.75	233.07
797.07	233.11
797.39	232.98
797.71	232.22
798.04	232.29
798.36	232.26
798.68	232.28
799.00	232.25
799.32	231.74
799.64	231.83
799.96	231.67
800.28	231.80
800.60	231.71
800.92	231.79
801.24	231.63
801.56	231.76
801.89	231.67
802.21	231.58
802.53	231.32
802.85	231.51
803.17	231.89
803.49	231.71
803.81	231.62
804.13	231.54
804.45	231.44
804.77	231.56
805.09	231.60
805.41	231.54
805.73	231.42
806.05	231.23
806.37	231.16
806.69	231.12
807.01	230.89
807.33	230.93
807.65	230.59
807.97	231.10
808.28	230.96
808.60	230.97
808.92	230.86
809.24	231.47
809.56	231.31
809.88	231.05
810.20	231.06
810.52	231.27
810.84	231.10
811.16	230.96
811.48	230.82
811.80	231.09
812.12	231.03
812.43	231.13
812.75	231.23
813.07	231.13
813.39	231.15
813.71	231.20
814.03	231.15
814.35	231.21
814.67	230.85
814.98	230.79
815.30	230.74
815.62	230.58
815.94	229.93
816.26	230.30
816.58	230.01
816.89	230.00
817.21	229.62
817.53	229.73
817.85	229.77
818.17	229.78
818.48	229.47
818.80	229.63
819.12	229.47
819.44	229.30
819.76	229.18
820.07	229.17
820.39	229.06
820.71	229.10
821.03	229.06
821.34	228.94
821.66	228.96
821.98	229.03
822.30	229.14
822.61	229.70
822.93	229.31
823.25	229.35
823.57	229.32
823.88	229.65
824.20	229.58
824.52	229.74
824.83	229.76
825.15	229.61
825.47	229.60
825.79	229.80
826.10	229.71
826.42	229.79
826.74	229.82
827.05	229.80
827.37	229.91
827.69	229.83
828.00	229.86
828.32	229.85
828.64	229.76
828.95	230.23
829.27	229.98
829.58	229.97
829.90	230.08
830.22	230.14
830.53	229.88
830.85	229.81
831.17	229.47
831.48	229.42
831.80	229.54
832.11	229.42
832.43	229.27
832.75	229.30
833.06	229.79
833.38	229.54
833.69	229.55
834.01	229.53
834.32	229.52
834.64	229.40
834.96	229.40
835.27	229.37
835.59	229.01
835.90	228.76
836.22	228.77
836.53	228.66
836.85	228.58
837.16	229.51
837.48	229.58
837.79	229.90
838.11	229.92
838.42	229.88
838.74	230.08
839.05	229.92
839.37	229.89
839.68	229.23
840.00	229.20
840.31	229.34
840.63	229.24
840.94	229.23
841.26	229.19
841.57	229.08
841.88	229.11
842.20	228.93
842.51	228.84
842.83	228.81
843.14	229.57
843.46	229.56
843.77	229.02
844.08	228.93
844.40	228.71
844.71	228.55
845.03	228.50
845.34	228.40
845.65	228.40
845.97	228.45
846.28	228.56
846.60	228.54
846.91	228.36
847.22	228.27
847.54	228.42
847.85	228.46
848.16	228.35
848.48	228.20
848.79	228.63
849.10	228.82
849.42	228.84
849.73	227.90
850.04	227.78
850.36	227.38
850.67	227.54
850.98	227.59
851.30	227.67
851.61	227.59
851.92	227.51
852.23	227.75
852.55	227.65
852.86	227.68
853.17	227.80
853.49	227.92
853.80	228.17
854.11	228.23
854.42	228.34
854.74	228.35
855.05	228.41
855.36	227.93
855.67	227.83
855.99	227.82
856.30	229.04
856.61	229.08
856.92	229.17
857.23	229.16
857.55	229.07
857.86	228.94
858.17	229.15
858.48	228.98
858.79	228.84
859.11	229.08
859.42	229.12
859.73	229.00
860.04	228.93
860.35	228.73
860.66	228.38
860.98	228.36
861.29	228.52
861.60	228.43
861.91	228.70
862.22	228.65
862.53	228.51
862.84	227.43
863.16	227.68
863.47	227.55
863.78	227.50
864.09	227.58
864.40	227.75
864.71	227.76
865.02	227.90
865.33	227.72
865.64	227.46
865.95	227.45
866.27	228.10
866.58	228.09
866.89	228.14
867.20	228.16
867.51	228.03
867.82	227.89
868.13	228.23
868.44	227.99
868.75	228.16
869.06	228.24
869.37	228.35
869.68	228.05
869.99	228.24
870.30	228.37
870.61	228.42
870.92	228.27
871.23	228.15
871.54	228.27
871.85	228.60
872.16	228.70
872.47	228.53
872.78	227.98
873.09	228.11
873.40	227.99
873.71	228.07
874.02	228.10
874.33	228.06
874.64	227.72
874.95	227.95
875.26	227.70
875.56	227.69
875.87	227.53
876.18	227.51
876.49	228.30
876.80	228.22
877.11	228.05
877.42	228.10
877.73	228.05
878.04	227.88
878.35	227.82
878.66	227.81
878.96	227.85
879.27	227.83
879.58	227.59
879.89	227.45
880.20	227.68
880.51	227.71
880.82	227.78
881.12	227.88
881.43	227.56
881.74	227.46
882.05	227.45
882.36	227.62
882.67	227.72
882.97	226.78
883.28	226.69
883.59	226.73
883.90	226.87
884.21	227.09
884.51	227.16
884.82	227.07
885.13	227.18
885.44	227.19
885.74	227.20
886.05	227.29
886.36	227.40
886.67	227.10
886.98	227.51
887.28	227.59
887.59	227.57
887.90	227.62
888.20	227.59
888.51	227.74
888.82	227.51
889.13	227.55
889.43	228.41
889.74	228.29
890.05	228.21
890.35	228.06
890.66	227.90
890.97	227.72
891.28	227.61
891.58	227.64
891.89	227.71
892.20	227.62
892.50	227.51
892.81	227.43
893.12	227.45
893.42	227.02
893.73	227.04
894.04	227.15
894.34	227.29
894.65	227.30
894.95	227.11
895.26	227.18
895.57	227.62
895.87	226.70
896.18	226.93
896.48	227.18
896.79	227.19
897.10	227.39
897.40	227.46
897.71	227.61
898.01	227.53
898.32	227.60
898.63	227.54
898.93	227.64
899.24	227.71
899.54	227.68
899.85	227.65
900.15	227.58
900.46	227.51
900.76	227.55
901.07	227.63
901.38	227.66
901.68	227.84
901.99	227.34
902.29	227.43
902.60	227.35
902.90	227.19
903.21	227.23
903.51	227.09
903.82	227.27
904.12	227.24
904.43	227.26
904.73	227.23
905.03	227.28
905.34	228.23
905.64	228.24
905.95	228.19
906.25	228.23
906.56	228.16
906.86	228.17
907.17	228.10
907.47	228.16
907.77	228.08
908.08	227.82
908.38	227.91
908.69	227.94
908.99	228.06
909.30	228.06
909.60	227.95
909.90	228.10
910.21	227.89
910.51	227.80
910.81	227.84
911.12	227.90
911.42	227.97
911.73	226.90
912.03	226.93
912.33	227.19
912.64	227.09
912.94	227.04
913.24	226.97
913.55	226.87
913.85	226.81
914.15	227.08
914.46	227.23
914.76	227.11
915.06	227.08
915.37	226.96
915.67	226.92
915.97	226.94
916.27	226.60
916.58	226.67
916.88	226.61
917.18	226.52
917.49	227.14
917.79	227.11
918.09	227.32
918.39	227.56
918.70	227.45
919.00	227.44
919.30	227.90
919.60	227.79
919.91	227.75
920.21	227.79
920.51	227.55
920.81	227.44
921.12	227.65
921.42	227.73
921.72	227.83
922.02	227.86
922.32	228.04
922.63	228.07
922.93	228.48
923.23	228.55
923.53	228.53
923.83	227.85
924.13	227.97
924.44	227.98
924.74	228.04
925.04	228.19
925.34	228.23
925.64	227.86
925.94	227.91
926.24	228.41
926.55	228.39
926.85	228.49
927.15	228.57
927.45	228.58
927.75	228.45
928.05	228.41
928.35	228.33
928.65	228.43
928.95	228.59
929.26	228.28
929.56	228.44
929.86	228.44
930.16	228.50
930.46	228.31
930.76	228.24
931.06	227.85
931.36	227.65
931.66	227.70
931.96	227.86
932.26	227.83
932.56	227.44
932.86	227.45
933.16	227.50
933.46	227.45
933.76	227.24
934.06	227.44
934.36	227.75
934.66	227.82
934.96	227.68
935.26	227.72
935.56	227.82
935.86	227.60
936.16	227.54
936.46	227.38
936.76	227.37
937.06	227.29
937.36	227.34
937.66	227.37
937.96	227.43
938.26	227.31
938.56	227.37
938.86	227.38
939.16	227.63
939.46	227.66
939.76	227.67
940.06	227.77
940.35	227.56
940.65	227.14
940.95	227.24
941.25	227.03
941.55	226.89
941.85	226.92
942.15	227.06
942.45	227.32
942.75	227.34
943.04	227.47
943.34	227.70
943.64	227.63
943.94	227.61
944.24	227.55
944.54	227.60
944.84	227.54
945.13	227.56
945.43	227.40
945.73	227.36
946.03	227.31
946.33	227.18
946.62	227.14
946.92	227.08
947.22	227.11
947.52	227.24
947.82	227.40
948.11	227.20
948.41	226.97
948.71	226.65
949.01	226.74
949.31	226.63
949.60	226.53
949.90	226.68
950.20	226.70
950.50	226.76
950.79	226.59
951.09	226.69
951.39	226.59
951.69	226.41
951.98	226.61
952.28	226.69
952.58	226.71
952.87	226.66
953.17	226.79
953.47	226.68
953.76	226.67
954.06	226.46
954.36	226.40
954.66	226.51
954.95	226.81
955.25	226.79
955.55	226.89
955.84	226.69
956.14	226.81
956.44	226.82
956.73	226.65
957.03	226.73
957.32	226.70
957.62	226.76
957.92	226.96
958.21	226.78
958.51	227.75
958.81	227.94
959.10	228.10
959.40	228.30
959.69	228.23
959.99	228.44
960.29	228.40
960.58	228.35
960.88	228.70
961.17	228.64
961.47	228.75
961.76	228.70
962.06	228.98
962.36	228.86
962.65	228.87
962.95	228.93
963.24	228.81
963.54	228.95
963.83	228.91
964.13	228.90
964.42	228.81
964.72	228.06
965.01	227.90
965.31	227.81
965.60	227.60
965.90	228.30
966.19	228.01
966.49	228.20
966.78	228.16
967.08	228.02
967.37	227.92
967.67	227.75
967.96	227.82
968.26	227.63
968.55	227.67
968.85	227.63
969.14	227.64
969.43	227.75
969.73	227.69
970.02	227.75
970.32	227.65
970.61	227.66
970.91	227.35
971.20	227.26
971.49	227.23
971.79	227.33
972.08	226.71
972.38	226.78
972.67	226.68
972.96	226.84
973.26	226.75
973.55	227.13
973.85	227.18
974.14	227.16
974.43	227.32
974.73	227.25
975.02	227.14
975.31	227.08
975.61	227.00
975.90	226.86
976.19	226.74
976.49	226.89
976.78	226.87
977.07	226.87
977.37	226.98
977.66	227.04
977.95	226.99
978.24	227.06
978.54	227.23
978.83	227.21
979.12	227.15
979.42	227.10
979.71	226.82
980.00	226.77
980.29	226.76
980.59	226.59
980.88	226.73
981.17	226.69
981.46	226.73
981.76	226.71
982.05	227.00
982.34	227.02
982.63	226.95
982.93	226.98
983.22	227.36
983.51	227.40
983.80	227.54
984.09	227.60
984.39	227.51
984.68	227.31
984.97	227.38
985.26	227.44
985.55	227.54
985.85	227.36
986.14	227.50
986.43	227.62
986.72	227.53
987.01	227.23
987.30	227.24
987.59	227.19
987.89	227.25
988.18	227.04
988.47	226.97
988.76	226.82
989.05	226.65
989.34	226.42
989.63	226.69
989.92	226.55
990.22	226.44
990.51	226.41
990.80	226.34
991.09	226.41
991.38	226.31
991.67	226.16
991.96	226.02
992.25	226.01
992.54	225.86
992.83	225.87
993.12	225.92
993.41	226.07
993.70	226.50
993.99	226.66
994.28	226.74
994.58	226.91
994.87	226.93
995.16	227.04
995.45	226.91
995.74	226.52
996.03	226.58
996.32	226.65
996.61	226.83
996.90	226.93
997.19	226.80
997.48	226.86
997.77	226.74
998.06	226.89
998.34	226.77
998.63	226.70
998.92	226.76
999.21	226.89
999.50	226.89
999.79	226.57
1000.08	226.53
1000.37	226.43
1000.66	226.39
1000.95	226.58
1001.24	226.61
1001.53	226.78
1001.82	226.86
1002.11	226.72
1002.40	226.77
1002.68	226.95
1002.97	227.62
1003.26	227.50
1003.55	227.40
1003.84	227.50
1004.13	227.96
1004.42	227.92
1004.71	227.91
1004.99	227.92
1005.28	228.13
1005.57	228.13
1005.86	227.95
1006.15	227.80
1006.44	227.82
1006.72	227.88
1007.01	227.76
1007.30	227.70
1007.59	227.58
1007.88	227.42
1008.17	227.47
1008.45	227.28
1008.74	227.00
1009.03	226.48
1009.32	226.51
1009.60	226.58
1009.89	226.60
1010.18	226.05
1010.47	226.03
1010.76	226.20
1011.04	226.17
1011.33	226.19
1011.62	226.16
1011.91	226.30
1012.19	226.47
1012.48	226.42
1012.77	226.41
1013.05	226.82
1013.34	226.89
1013.63	226.88
1013.92	227.00
1014.20	227.00
1014.49	227.15
1014.78	227.20
1015.06	226.92
1015.35	227.00
1015.64	227.18
1015.92	227.22
1016.21	227.40
1016.50	227.40
1016.78	227.38
1017.07	227.39
1017.36	227.13
1017.64	226.97
1017.93	227.00
1018.22	226.88
1018.50	226.82
1018.79	226.80
1019.08	226.30
1019.36	226.40
1019.65	226.38
1019.93	226.58
1020.22	226.67
1020.51	227.10
1020.79	226.98
1021.08	225.60
1021.36	224.60
1021.65	226.90
1021.94	225.40
1022.22	228.00
1022.51	226.00
1022.79	229.90
1023.08	228.00
1023.36	238.10
1023.65	225.00
>>>>>End Processed Spectral Data<<<<<
