SpectraSuite Data File
++++++++++++++++++++++++++++++++++++
Date: Wed Sep 04 17:32:43 EDT 2013
User: lab3
Dark Spectrum Present: Yes
Reference Spectrum Present: No
Number of Sampled Component Spectra: 1
Spectrometers: USB2E7196
Integration Time (usec): 337000 (USB2E7196)
Spectra Averaged: 10 (USB2E7196)
Boxcar Smoothing: 10 (USB2E7196)
Correct for Electrical Dark: No (USB2E7196)
Strobe/Lamp Enabled: No (USB2E7196)
Correct for Detector Non-linearity: No (USB2E7196)
Correct for Stray Light: No (USB2E7196)
Number of Pixels in Processed Spectrum: 2048
>>>>>Begin Processed Spectral Data<<<<<
339.09	0.00
339.48	212.90
339.86	215.30
340.24	215.40
340.63	217.80
341.01	231.70
341.39	220.90
341.78	222.70
342.16	224.00
342.54	224.30
342.93	213.50
343.31	224.19
343.69	224.75
344.07	225.16
344.46	225.76
344.84	226.13
345.22	225.89
345.60	226.22
345.99	226.49
346.37	226.57
346.75	226.63
347.13	226.61
347.52	226.62
347.90	227.06
348.28	226.99
348.66	227.30
349.05	226.90
349.43	227.03
349.81	227.13
350.19	227.10
350.57	227.20
350.96	227.18
351.34	227.29
351.72	227.30
352.10	227.41
352.48	227.38
352.87	227.37
353.25	227.34
353.63	227.14
354.01	227.06
354.39	227.20
354.77	227.26
355.15	227.59
355.54	227.56
355.92	227.24
356.30	227.42
356.68	227.93
357.06	228.15
357.44	228.09
357.82	228.13
358.20	229.00
358.58	229.08
358.97	229.30
359.35	229.58
359.73	229.90
360.11	229.90
360.49	229.86
360.87	229.90
361.25	230.14
361.63	230.63
362.01	230.71
362.39	230.64
362.77	230.64
363.15	230.50
363.53	230.51
363.91	230.51
364.29	230.50
364.67	229.60
365.05	229.63
365.43	229.68
365.81	229.80
366.19	229.48
366.57	229.77
366.95	229.60
367.33	229.26
367.71	229.21
368.09	229.45
368.47	229.54
368.85	229.57
369.23	229.66
369.61	229.32
369.99	229.57
370.37	229.70
370.75	230.30
371.13	230.20
371.51	230.14
371.89	230.34
372.27	230.41
372.65	230.52
373.03	230.44
373.41	230.40
373.78	230.23
374.16	229.75
374.54	229.51
374.92	229.52
375.30	229.59
375.68	229.47
376.06	229.43
376.44	229.35
376.82	229.33
377.19	229.28
377.57	229.22
377.95	229.00
378.33	228.87
378.71	228.27
379.09	228.40
379.47	228.48
379.84	228.30
380.22	228.19
380.60	228.03
380.98	227.95
381.36	227.92
381.73	227.84
382.11	227.96
382.49	227.96
382.87	227.83
383.25	227.85
383.62	228.83
384.00	228.69
384.38	228.68
384.76	228.91
385.13	229.29
385.51	229.30
385.89	229.10
386.27	229.12
386.64	229.24
387.02	229.08
387.40	228.95
387.78	229.05
388.15	228.97
388.53	228.96
388.91	228.97
389.29	229.00
389.66	229.18
390.04	229.00
390.42	229.10
390.79	229.16
391.17	229.17
391.55	228.15
391.92	228.09
392.30	228.21
392.68	228.01
393.05	227.83
393.43	227.87
393.81	227.99
394.18	227.89
394.56	227.80
394.94	228.16
395.31	228.11
395.69	228.32
396.06	228.55
396.44	228.62
396.82	228.59
397.19	228.94
397.57	228.92
397.95	229.16
398.32	228.88
398.70	229.03
399.07	229.38
399.45	229.47
399.82	229.66
400.20	229.64
400.58	229.73
400.95	229.46
401.33	229.75
401.70	230.58
402.08	230.73
402.45	230.90
402.83	231.16
403.20	231.36
403.58	231.41
403.95	231.72
404.33	232.03
404.71	232.43
405.08	233.16
405.46	233.35
405.83	233.54
406.21	233.85
406.58	234.08
406.96	234.30
407.33	234.72
407.70	235.09
408.08	236.29
408.45	236.74
408.83	237.40
409.20	237.72
409.58	237.50
409.95	238.15
410.33	238.84
410.70	239.16
411.08	240.00
411.45	240.75
411.82	241.27
412.20	242.23
412.57	243.42
412.95	243.49
413.32	244.52
413.69	245.59
414.07	246.69
414.44	247.86
414.82	249.01
415.19	250.40
415.56	251.85
415.94	252.89
416.31	254.79
416.68	256.48
417.06	258.56
417.43	260.81
417.81	262.94
418.18	265.14
418.55	267.53
418.93	270.04
419.30	272.57
419.67	275.40
420.04	278.10
420.42	280.86
420.79	285.02
421.16	288.64
421.54	292.71
421.91	296.42
422.28	300.19
422.66	304.28
423.03	308.92
423.40	313.20
423.77	317.53
424.15	321.90
424.52	326.81
424.89	332.17
425.26	336.99
425.64	341.71
426.01	347.10
426.38	352.57
426.75	358.42
427.13	364.29
427.50	370.23
427.87	376.60
428.24	382.86
428.61	388.25
428.99	395.04
429.36	401.63
429.73	408.71
430.10	416.01
430.47	423.24
430.85	430.07
431.22	437.85
431.59	446.66
431.96	454.60
432.33	463.28
432.70	471.65
433.08	481.83
433.45	491.41
433.82	500.68
434.19	511.27
434.56	521.44
434.93	531.22
435.30	541.36
435.68	552.39
436.05	562.99
436.42	573.77
436.79	583.61
437.16	594.52
437.53	605.66
437.90	616.89
438.27	628.14
438.64	639.56
439.01	650.21
439.38	659.51
439.75	668.94
440.13	679.57
440.50	689.49
440.87	697.39
441.24	705.72
441.61	715.09
441.98	721.69
442.35	729.40
442.72	737.49
443.09	745.37
443.46	749.91
443.83	753.44
444.20	756.34
444.57	759.98
444.94	761.61
445.31	763.60
445.68	766.10
446.05	766.77
446.42	765.59
446.79	764.36
447.16	762.54
447.53	761.13
447.90	756.53
448.27	752.08
448.64	746.01
449.01	741.83
449.37	734.19
449.74	726.86
450.11	718.91
450.48	709.09
450.85	698.61
451.22	690.08
451.59	681.86
451.96	673.90
452.33	663.82
452.70	654.66
453.07	643.69
453.43	631.62
453.80	620.82
454.17	610.68
454.54	600.82
454.91	590.40
455.28	580.30
455.65	570.82
456.02	562.76
456.38	554.90
456.75	544.86
457.12	536.33
457.49	528.17
457.86	519.39
458.23	512.96
458.59	505.83
458.96	498.23
459.33	491.58
459.70	485.10
460.07	479.81
460.43	473.60
460.80	468.09
461.17	463.34
461.54	458.13
461.91	453.19
462.27	448.05
462.64	443.69
463.01	439.08
463.38	434.91
463.74	428.93
464.11	424.97
464.48	421.58
464.85	417.94
465.21	415.19
465.58	412.32
465.95	408.40
466.32	405.57
466.68	402.82
467.05	399.93
467.42	396.96
467.78	393.93
468.15	391.20
468.52	389.06
468.88	386.05
469.25	383.42
469.62	381.62
469.98	379.53
470.35	377.71
470.72	375.90
471.08	373.46
471.45	372.07
471.82	370.62
472.18	368.66
472.55	367.40
472.92	365.64
473.28	363.99
473.65	362.50
474.02	360.91
474.38	359.82
474.75	358.80
475.11	357.55
475.48	356.57
475.85	355.77
476.21	354.80
476.58	354.22
476.94	353.66
477.31	352.79
477.67	352.24
478.04	351.58
478.41	351.05
478.77	351.65
479.14	350.85
479.50	350.30
479.87	350.13
480.23	349.90
480.60	349.69
480.96	349.70
481.33	350.18
481.69	350.22
482.06	350.09
482.42	350.23
482.79	350.57
483.15	350.78
483.52	351.12
483.88	351.28
484.25	351.41
484.61	351.85
484.98	352.05
485.34	352.76
485.71	353.52
486.07	354.21
486.44	354.16
486.80	354.94
487.17	355.66
487.53	357.00
487.90	357.89
488.26	359.32
488.62	360.52
488.99	361.40
489.35	362.89
489.72	364.40
490.08	365.68
490.44	366.93
490.81	368.77
491.17	370.24
491.54	372.11
491.90	374.11
492.26	376.02
492.63	378.24
492.99	380.20
493.36	382.44
493.72	385.03
494.08	387.44
494.45	390.30
494.81	393.34
495.17	395.76
495.54	398.97
495.90	401.77
496.26	404.80
496.63	408.16
496.99	411.15
497.35	414.50
497.72	418.10
498.08	421.69
498.44	425.23
498.80	429.25
499.17	433.16
499.53	437.16
499.89	441.37
500.26	445.61
500.62	449.95
500.98	454.47
501.34	458.76
501.71	463.65
502.07	468.22
502.43	472.65
502.79	477.44
503.16	482.36
503.52	487.34
503.88	492.51
504.24	497.88
504.60	503.57
504.97	509.41
505.33	515.17
505.69	521.60
506.05	527.60
506.41	533.74
506.78	540.16
507.14	546.41
507.50	552.93
507.86	559.45
508.22	566.07
508.59	572.60
508.95	579.50
509.31	586.71
509.67	593.77
510.03	600.87
510.39	608.20
510.75	615.26
511.12	622.80
511.48	630.46
511.84	637.86
512.20	645.54
512.56	653.20
512.92	661.22
513.28	668.98
513.64	677.00
514.00	685.25
514.37	693.30
514.73	701.78
515.09	710.35
515.45	718.98
515.81	727.86
516.17	736.52
516.53	745.39
516.89	753.76
517.25	763.09
517.61	773.02
517.97	782.51
518.33	792.21
518.69	802.19
519.05	812.04
519.41	822.12
519.77	832.62
520.13	842.68
520.49	852.58
520.85	862.59
521.21	873.10
521.57	883.23
521.93	893.45
522.29	903.82
522.65	913.27
523.01	923.47
523.37	933.27
523.73	943.99
524.09	954.26
524.45	964.65
524.81	974.82
525.17	984.89
525.53	995.35
525.89	1005.75
526.25	1015.94
526.61	1025.83
526.97	1036.10
527.33	1046.47
527.68	1057.84
528.04	1068.82
528.40	1079.85
528.76	1090.96
529.12	1101.92
529.48	1113.32
529.84	1124.23
530.20	1136.17
530.56	1147.67
530.91	1159.08
531.27	1169.73
531.63	1180.93
531.99	1192.32
532.35	1203.80
532.71	1215.29
533.07	1227.04
533.42	1239.40
533.78	1250.70
534.14	1262.58
534.50	1274.23
534.86	1286.03
535.21	1296.22
535.57	1307.25
535.93	1317.80
536.29	1328.78
536.65	1340.10
537.00	1350.85
537.36	1361.47
537.72	1371.79
538.08	1382.53
538.44	1393.05
538.79	1403.77
539.15	1414.32
539.51	1424.64
539.87	1434.20
540.22	1443.83
540.58	1453.29
540.94	1461.46
541.29	1470.35
541.65	1478.95
542.01	1487.66
542.37	1495.07
542.72	1503.20
543.08	1510.89
543.44	1519.33
543.79	1526.18
544.15	1533.37
544.51	1541.00
544.87	1548.50
545.22	1555.70
545.58	1561.77
545.94	1567.91
546.29	1573.78
546.65	1579.42
547.01	1584.73
547.36	1590.69
547.72	1596.08
548.07	1600.97
548.43	1606.24
548.79	1611.30
549.14	1616.16
549.50	1621.14
549.86	1626.17
550.21	1631.18
550.57	1635.86
550.92	1639.41
551.28	1643.58
551.64	1647.74
551.99	1651.28
552.35	1654.80
552.70	1658.50
553.06	1662.74
553.41	1666.74
553.77	1671.20
554.13	1675.08
554.48	1679.46
554.84	1682.77
555.19	1686.02
555.55	1690.55
555.90	1693.31
556.26	1696.29
556.61	1698.49
556.97	1699.92
557.32	1702.07
557.68	1704.20
558.03	1706.52
558.39	1708.72
558.74	1710.87
559.10	1712.10
559.45	1713.28
559.81	1714.08
560.16	1714.42
560.52	1714.70
560.87	1715.43
561.23	1715.43
561.58	1715.49
561.94	1714.27
562.29	1713.58
562.64	1713.15
563.00	1710.53
563.35	1710.59
563.71	1709.82
564.06	1709.85
564.42	1709.43
564.77	1709.10
565.12	1708.30
565.48	1708.10
565.83	1707.68
566.19	1706.79
566.54	1705.67
566.89	1704.46
567.25	1703.94
567.60	1703.63
567.96	1703.52
568.31	1702.35
568.66	1701.01
569.02	1699.01
569.37	1697.83
569.72	1696.90
570.08	1694.46
570.43	1692.53
570.78	1689.84
571.14	1687.49
571.49	1684.41
571.84	1681.97
572.20	1678.38
572.55	1675.17
572.90	1670.62
573.26	1666.83
573.61	1663.13
573.96	1659.53
574.31	1655.30
574.67	1650.64
575.02	1645.60
575.37	1640.06
575.72	1634.76
576.08	1630.13
576.43	1625.16
576.78	1619.90
577.13	1614.41
577.49	1609.68
577.84	1605.49
578.19	1600.94
578.54	1596.00
578.90	1591.30
579.25	1586.85
579.60	1582.40
579.95	1576.96
580.30	1571.99
580.66	1566.36
581.01	1560.53
581.36	1554.08
581.71	1548.77
582.06	1543.74
582.42	1538.39
582.77	1532.63
583.12	1527.84
583.47	1522.44
583.82	1517.69
584.17	1512.82
584.53	1507.70
584.88	1501.76
585.23	1495.95
585.58	1489.10
585.93	1482.75
586.28	1476.55
586.63	1469.62
586.98	1462.74
587.34	1456.83
587.69	1450.50
588.04	1444.86
588.39	1438.88
588.74	1433.23
589.09	1427.91
589.44	1421.12
589.79	1415.34
590.14	1409.79
590.49	1403.22
590.84	1397.00
591.19	1390.88
591.54	1384.71
591.89	1378.35
592.25	1374.35
592.60	1368.58
592.95	1363.29
593.30	1357.49
593.65	1351.33
594.00	1344.98
594.35	1341.92
594.70	1335.21
595.05	1329.22
595.40	1322.55
595.75	1316.27
596.10	1310.49
596.45	1303.92
596.80	1298.40
597.15	1292.32
597.50	1285.88
597.85	1280.44
598.19	1273.99
598.54	1267.16
598.89	1260.35
599.24	1254.67
599.59	1247.08
599.94	1240.53
600.29	1234.14
600.64	1228.28
600.99	1222.06
601.34	1216.81
601.69	1208.63
602.04	1203.00
602.39	1197.25
602.74	1191.72
603.08	1186.40
603.43	1181.04
603.78	1175.37
604.13	1169.44
604.48	1163.42
604.83	1157.29
605.18	1150.85
605.53	1145.17
605.87	1140.20
606.22	1134.94
606.57	1128.95
606.92	1122.79
607.27	1117.22
607.62	1111.72
607.96	1106.35
608.31	1101.42
608.66	1095.82
609.01	1090.00
609.36	1084.90
609.70	1079.56
610.05	1074.15
610.40	1068.67
610.75	1062.88
611.10	1057.00
611.44	1051.36
611.79	1045.50
612.14	1040.31
612.49	1034.84
612.83	1029.64
613.18	1023.94
613.53	1018.73
613.88	1012.91
614.22	1007.72
614.57	1001.96
614.92	996.50
615.27	990.88
615.61	985.30
615.96	979.67
616.31	974.11
616.65	969.03
617.00	963.24
617.35	957.77
617.70	952.30
618.04	946.74
618.39	941.62
618.74	937.00
619.08	931.90
619.43	926.63
619.78	921.29
620.12	915.64
620.47	910.53
620.82	904.61
621.16	899.38
621.51	894.83
621.85	889.89
622.20	884.57
622.55	879.15
622.89	873.98
623.24	869.25
623.59	864.13
623.93	859.06
624.28	854.40
624.62	850.62
624.97	845.91
625.32	841.16
625.66	836.45
626.01	830.93
626.35	826.31
626.70	821.51
627.04	817.29
627.39	812.56
627.73	808.19
628.08	804.52
628.43	800.01
628.77	794.83
629.12	790.65
629.46	786.90
629.81	783.30
630.15	779.12
630.50	774.76
630.84	770.50
631.19	766.08
631.53	762.12
631.88	756.97
632.22	752.59
632.57	748.90
632.91	744.47
633.26	740.87
633.60	736.76
633.95	732.83
634.29	728.15
634.64	724.10
634.98	719.30
635.32	715.14
635.67	711.36
636.01	707.69
636.36	703.34
636.70	699.58
637.05	695.03
637.39	691.22
637.73	687.43
638.08	683.78
638.42	679.71
638.77	675.53
639.11	671.18
639.45	667.10
639.80	662.63
640.14	658.94
640.49	654.96
640.83	651.17
641.17	647.44
641.52	644.08
641.86	640.61
642.20	637.80
642.55	634.11
642.89	630.75
643.23	627.33
643.58	624.24
643.92	620.20
644.26	616.89
644.61	613.34
644.95	609.72
645.29	606.11
645.64	602.87
645.98	599.34
646.32	596.50
646.66	592.88
647.01	589.67
647.35	586.71
647.69	583.54
648.04	580.69
648.38	577.65
648.72	574.51
649.06	571.22
649.41	567.81
649.75	564.29
650.09	561.10
650.43	557.80
650.78	554.36
651.12	551.20
651.46	548.17
651.80	545.15
652.14	542.14
652.49	539.62
652.83	536.79
653.17	534.00
653.51	530.80
653.85	528.40
654.20	525.61
654.54	522.59
654.88	519.68
655.22	517.14
655.56	514.51
655.90	511.69
656.25	509.07
656.59	506.40
656.93	504.07
657.27	501.64
657.61	498.76
657.95	496.27
658.29	493.83
658.64	491.30
658.98	488.75
659.32	485.96
659.66	483.07
660.00	480.56
660.34	478.06
660.68	475.79
661.02	473.33
661.36	471.03
661.70	468.58
662.05	466.11
662.39	463.69
662.73	461.65
663.07	459.84
663.41	457.62
663.75	455.15
664.09	452.88
664.43	450.31
664.77	448.37
665.11	446.10
665.45	444.13
665.79	442.17
666.13	439.94
666.47	437.89
666.81	435.92
667.15	433.66
667.49	431.90
667.83	430.25
668.17	428.28
668.51	426.26
668.85	424.64
669.19	423.39
669.53	421.26
669.87	419.04
670.21	416.78
670.55	414.99
670.89	413.71
671.23	411.81
671.57	410.16
671.91	408.39
672.25	406.67
672.58	405.02
672.92	403.01
673.26	401.34
673.60	399.88
673.94	398.20
674.28	396.69
674.62	395.10
674.96	393.16
675.30	391.53
675.64	389.98
675.97	388.19
676.31	386.18
676.65	384.40
676.99	382.98
677.33	381.43
677.67	379.86
678.01	377.72
678.34	376.25
678.68	374.77
679.02	373.06
679.36	371.53
679.70	369.97
680.04	368.55
680.37	367.14
680.71	365.68
681.05	364.35
681.39	363.01
681.73	361.47
682.06	360.09
682.40	358.73
682.74	357.38
683.08	356.32
683.42	354.92
683.75	353.97
684.09	352.67
684.43	351.41
684.77	350.21
685.10	349.00
685.44	347.83
685.78	346.58
686.12	345.48
686.45	344.29
686.79	342.95
687.13	342.07
687.46	341.02
687.80	340.05
688.14	338.83
688.48	337.71
688.81	336.47
689.15	335.44
689.49	334.33
689.82	333.44
690.16	332.03
690.50	331.10
690.83	329.88
691.17	328.48
691.51	327.44
691.84	326.44
692.18	325.56
692.52	324.50
692.85	323.51
693.19	322.90
693.52	321.97
693.86	320.95
694.20	319.88
694.53	318.89
694.87	317.74
695.21	316.65
695.54	315.72
695.88	314.64
696.21	313.57
696.55	312.61
696.88	311.54
697.22	310.58
697.56	309.64
697.89	308.69
698.23	307.97
698.56	307.16
698.90	306.43
699.23	305.42
699.57	304.60
699.90	303.68
700.24	302.63
700.58	301.86
700.91	301.19
701.25	300.94
701.58	300.83
701.92	300.26
702.25	299.62
702.59	298.77
702.92	298.32
703.26	297.62
703.59	297.04
703.93	297.05
704.26	296.58
704.60	295.93
704.93	295.26
705.26	294.47
705.60	293.81
705.93	292.87
706.27	292.50
706.60	292.07
706.94	291.92
707.27	291.11
707.61	290.63
707.94	290.03
708.27	288.77
708.61	287.41
708.94	286.62
709.28	285.97
709.61	285.25
709.94	284.53
710.28	283.98
710.61	283.43
710.95	281.97
711.28	282.00
711.61	281.40
711.95	280.96
712.28	280.32
712.61	279.80
712.95	279.84
713.28	279.68
713.61	278.91
713.95	277.92
714.28	277.51
714.61	276.86
714.95	276.29
715.28	275.65
715.61	275.16
715.95	274.81
716.28	274.26
716.61	273.97
716.95	273.33
717.28	272.81
717.61	272.14
717.94	271.74
718.28	270.44
718.61	269.92
718.94	269.30
719.27	268.79
719.61	268.31
719.94	267.46
720.27	266.48
720.60	266.09
720.94	265.68
721.27	265.32
721.60	265.07
721.93	264.56
722.27	264.58
722.60	264.30
722.93	263.85
723.26	263.61
723.59	263.11
723.93	262.96
724.26	262.58
724.59	262.23
724.92	261.99
725.25	261.90
725.59	261.41
725.92	261.26
726.25	261.09
726.58	260.76
726.91	260.50
727.24	260.28
727.57	259.92
727.91	259.61
728.24	259.43
728.57	258.96
728.90	258.80
729.23	258.15
729.56	258.30
729.89	257.99
730.22	257.68
730.55	257.41
730.89	257.07
731.22	256.68
731.55	256.37
731.88	256.06
732.21	255.59
732.54	255.33
732.87	254.97
733.20	254.64
733.53	254.39
733.86	254.13
734.19	253.83
734.52	253.73
734.85	254.10
735.18	253.57
735.51	253.64
735.84	253.40
736.17	253.40
736.50	252.59
736.83	253.43
737.16	253.20
737.49	253.01
737.82	252.72
738.15	252.67
738.48	252.40
738.81	252.15
739.14	251.93
739.47	251.72
739.80	251.48
740.13	251.40
740.46	251.10
740.79	250.73
741.12	250.45
741.45	250.04
741.78	249.31
742.11	249.44
742.44	248.99
742.77	248.94
743.10	248.63
743.43	248.50
743.75	247.35
744.08	248.21
744.41	247.93
744.74	247.70
745.07	247.34
745.40	247.40
745.73	247.59
746.06	247.47
746.39	247.50
746.71	247.23
747.04	246.99
747.37	246.79
747.70	246.92
748.03	246.75
748.36	246.84
748.68	246.64
749.01	246.28
749.34	246.16
749.67	245.90
750.00	245.87
750.33	246.42
750.65	246.33
750.98	245.10
751.31	245.07
751.64	244.99
751.97	245.37
752.29	245.12
752.62	244.56
752.95	244.13
753.28	243.75
753.60	243.63
753.93	243.70
754.26	243.69
754.59	243.15
754.91	242.96
755.24	242.65
755.57	242.48
755.90	242.26
756.22	241.97
756.55	241.77
756.88	241.45
757.20	240.61
757.53	240.10
757.86	239.91
758.19	239.73
758.51	239.55
758.84	238.87
759.17	238.73
759.49	238.70
759.82	239.11
760.15	239.08
760.47	238.90
760.80	238.50
761.13	238.48
761.45	238.39
761.78	238.35
762.11	238.26
762.43	238.06
762.76	237.93
763.08	238.00
763.41	237.94
763.74	237.83
764.06	237.70
764.39	237.74
764.71	237.56
765.04	237.41
765.37	237.26
765.69	237.25
766.02	237.04
766.34	236.84
766.67	236.32
767.00	236.41
767.32	236.83
767.65	237.40
767.97	237.22
768.30	237.14
768.62	236.91
768.95	236.67
769.27	236.58
769.60	236.63
769.92	236.29
770.25	236.06
770.57	235.83
770.90	235.64
771.22	235.42
771.55	235.41
771.87	235.39
772.20	235.31
772.52	236.06
772.85	237.19
773.17	237.10
773.50	237.08
773.82	236.83
774.15	236.36
774.47	235.58
774.80	235.30
775.12	235.25
775.45	235.36
775.77	235.40
776.09	235.44
776.42	235.39
776.74	235.62
777.07	235.44
777.39	235.41
777.72	235.40
778.04	235.45
778.36	235.33
778.69	235.30
779.01	235.38
779.33	234.47
779.66	233.30
779.98	233.21
780.31	233.17
780.63	233.49
780.95	233.50
781.28	233.49
781.60	233.48
781.92	233.51
782.25	233.42
782.57	233.35
782.89	233.13
783.22	232.96
783.54	232.74
783.86	232.82
784.19	232.73
784.51	233.02
784.83	232.90
785.16	232.90
785.48	232.85
785.80	232.81
786.12	232.92
786.45	232.90
786.77	232.90
787.09	232.95
787.42	232.60
787.74	232.71
788.06	232.70
788.38	232.63
788.71	232.43
789.03	232.36
789.35	232.44
789.67	232.44
789.99	232.50
790.32	232.43
790.64	232.52
790.96	233.33
791.28	232.94
791.61	232.90
791.93	232.94
792.25	232.84
792.57	233.54
792.89	233.25
793.21	233.29
793.54	233.18
793.86	232.95
794.18	232.90
794.50	232.59
794.82	232.58
795.14	232.65
795.47	232.87
795.79	232.90
796.11	232.68
796.43	232.56
796.75	232.57
797.07	232.73
797.39	232.67
797.71	231.98
798.04	232.03
798.36	231.97
798.68	231.80
799.00	231.74
799.32	231.09
799.64	231.32
799.96	231.29
800.28	231.53
800.60	231.53
800.92	231.60
801.24	231.58
801.56	231.56
801.89	231.56
802.21	231.57
802.53	231.40
802.85	231.63
803.17	232.11
803.49	231.81
803.81	231.53
804.13	231.34
804.45	231.12
804.77	231.13
805.09	231.09
805.41	231.01
805.73	230.90
806.05	230.58
806.37	230.52
806.69	230.38
807.01	230.20
807.33	230.20
807.65	229.81
807.97	230.15
808.28	229.99
808.60	229.90
808.92	229.66
809.24	230.16
809.56	229.96
809.88	229.53
810.20	229.66
810.52	229.90
810.84	229.85
811.16	229.84
811.48	229.81
811.80	230.20
812.12	230.18
812.43	230.36
812.75	230.51
813.07	230.28
813.39	230.38
813.71	230.23
814.03	230.20
814.35	230.31
814.67	230.01
814.98	230.05
815.30	229.95
815.62	229.80
815.94	229.25
816.26	229.66
816.58	229.57
816.89	229.61
817.21	229.35
817.53	229.55
817.85	229.60
818.17	229.48
818.48	229.06
818.80	229.22
819.12	229.10
819.44	228.87
819.76	228.76
820.07	228.73
820.39	228.73
820.71	228.83
821.03	228.88
821.34	228.90
821.66	229.07
821.98	229.18
822.30	229.27
822.61	229.90
822.93	229.41
823.25	229.39
823.57	229.34
823.88	229.62
824.20	229.41
824.52	229.60
824.83	229.66
825.15	229.67
825.47	229.67
825.79	229.68
826.10	229.80
826.42	229.92
826.74	229.96
827.05	229.98
827.37	229.97
827.69	229.95
828.00	229.89
828.32	229.80
828.64	229.76
828.95	230.25
829.27	229.90
829.58	229.95
829.90	230.19
830.22	230.20
830.53	229.81
830.85	229.88
831.17	229.56
831.48	229.55
831.80	229.59
832.11	229.64
832.43	229.53
832.75	229.42
833.06	229.98
833.38	229.77
833.69	229.74
834.01	229.79
834.32	229.72
834.64	229.66
834.96	229.62
835.27	229.54
835.59	229.17
835.90	229.02
836.22	229.00
836.53	228.73
836.85	228.61
837.16	229.62
837.48	229.64
837.79	229.97
838.11	230.03
838.42	230.01
838.74	230.06
839.05	230.11
839.37	230.11
839.68	229.46
840.00	229.53
840.31	229.59
840.63	229.43
840.94	229.37
841.26	229.28
841.57	229.41
841.88	229.52
842.20	229.48
842.51	229.40
842.83	229.40
843.14	230.27
843.46	230.28
843.77	229.73
844.08	229.60
844.40	229.41
844.71	229.31
845.03	229.19
845.34	229.00
845.65	228.98
845.97	229.03
846.28	229.04
846.60	228.95
846.91	228.84
847.22	228.84
847.54	229.17
847.85	229.26
848.16	229.13
848.48	228.93
848.79	229.32
849.10	229.37
849.42	229.44
849.73	228.51
850.04	228.48
850.36	228.19
850.67	228.39
850.98	228.31
851.30	228.38
851.61	228.39
851.92	228.47
852.23	228.62
852.55	228.65
852.86	228.78
853.17	228.89
853.49	229.12
853.80	229.37
854.11	229.30
854.42	229.42
854.74	229.23
855.05	229.36
855.36	228.93
855.67	228.98
855.99	228.88
856.30	230.03
856.61	230.10
856.92	230.11
857.23	230.02
857.55	229.93
857.86	229.91
858.17	230.10
858.48	229.93
858.79	229.80
859.11	229.81
859.42	229.70
859.73	229.61
860.04	229.61
860.35	229.28
860.66	229.06
860.98	228.95
861.29	229.15
861.60	229.07
861.91	229.17
862.22	229.01
862.53	228.90
862.84	227.82
863.16	228.05
863.47	227.84
863.78	227.79
864.09	227.80
864.40	227.90
864.71	227.82
865.02	227.94
865.33	227.86
865.64	227.80
865.95	227.81
866.27	228.40
866.58	228.26
866.89	228.41
867.20	228.40
867.51	228.30
867.82	228.21
868.13	228.46
868.44	228.29
868.75	228.51
869.06	228.61
869.37	228.71
869.68	228.38
869.99	228.67
870.30	228.75
870.61	228.90
870.92	228.80
871.23	228.75
871.54	228.82
871.85	229.06
872.16	229.15
872.47	229.12
872.78	228.50
873.09	228.64
873.40	228.51
873.71	228.50
874.02	228.52
874.33	228.43
874.64	228.26
874.95	228.43
875.26	228.16
875.56	228.11
875.87	228.05
876.18	228.10
876.49	228.91
876.80	228.80
877.11	228.63
877.42	228.60
877.73	228.62
878.04	228.49
878.35	228.39
878.66	228.38
878.96	228.30
879.27	228.31
879.58	228.16
879.89	228.02
880.20	228.37
880.51	228.41
880.82	228.44
881.12	228.46
881.43	228.28
881.74	228.21
882.05	228.20
882.36	228.16
882.67	228.20
882.97	227.11
883.28	227.07
883.59	227.03
883.90	227.09
884.21	227.23
884.51	227.16
884.82	226.99
885.13	226.96
885.44	226.99
885.74	226.96
886.05	226.91
886.36	227.04
886.67	226.61
886.98	227.01
887.28	227.17
887.59	227.15
887.90	227.12
888.20	227.03
888.51	227.11
888.82	227.03
889.13	227.01
889.43	227.99
889.74	227.91
890.05	227.94
890.35	227.81
890.66	227.60
890.97	227.50
891.28	227.44
891.58	227.48
891.89	227.47
892.20	227.43
892.50	227.36
892.81	227.27
893.12	227.31
893.42	226.89
893.73	226.74
894.04	226.74
894.34	226.88
894.65	226.85
894.95	226.83
895.26	226.88
895.57	227.40
895.87	226.44
896.18	226.65
896.48	226.67
896.79	226.75
897.10	226.92
897.40	227.11
897.71	227.38
898.01	227.29
898.32	227.43
898.63	227.46
898.93	227.58
899.24	227.64
899.54	227.66
899.85	227.61
900.15	227.69
900.46	227.69
900.76	227.83
901.07	227.99
901.38	228.02
901.68	228.20
901.99	227.69
902.29	227.77
902.60	227.70
902.90	227.69
903.21	227.69
903.51	227.67
903.82	227.81
904.12	227.76
904.43	227.90
904.73	227.86
905.03	227.91
905.34	228.87
905.64	228.92
905.95	228.91
906.25	228.96
906.56	228.96
906.86	228.99
907.17	228.80
907.47	228.82
907.77	228.63
908.08	228.46
908.38	228.53
908.69	228.55
908.99	228.72
909.30	228.81
909.60	228.77
909.90	228.81
910.21	228.56
910.51	228.37
910.81	228.41
911.12	228.36
911.42	228.39
911.73	227.36
912.03	227.40
912.33	227.59
912.64	227.60
912.94	227.52
913.24	227.40
913.55	227.41
913.85	227.30
914.15	227.53
914.46	227.59
914.76	227.43
915.06	227.51
915.37	227.33
915.67	227.20
915.97	227.29
916.27	227.02
916.58	227.10
916.88	227.19
917.18	227.02
917.49	227.78
917.79	227.71
918.09	227.83
918.39	227.99
918.70	227.90
919.00	227.86
919.30	228.17
919.60	228.11
919.91	227.92
920.21	228.05
920.51	227.81
920.81	227.84
921.12	228.08
921.42	228.03
921.72	228.12
922.02	228.19
922.32	228.18
922.63	228.27
922.93	228.70
923.23	228.75
923.53	228.67
923.83	228.01
924.13	228.16
924.44	228.14
924.74	228.31
925.04	228.48
925.34	228.41
925.64	228.09
925.94	228.07
926.24	228.59
926.55	228.45
926.85	228.61
927.15	228.49
927.45	228.42
927.75	228.27
928.05	228.37
928.35	228.23
928.65	228.41
928.95	228.48
929.26	228.06
929.56	228.21
929.86	228.34
930.16	228.24
930.46	228.01
930.76	228.13
931.06	227.69
931.36	227.39
931.66	227.53
931.96	227.59
932.26	227.72
932.56	227.25
932.86	227.40
933.16	227.39
933.46	227.30
933.76	227.14
934.06	227.45
934.36	227.69
934.66	227.80
934.96	227.78
935.26	227.77
935.56	227.87
935.86	227.60
936.16	227.48
936.46	227.47
936.76	227.56
937.06	227.39
937.36	227.48
937.66	227.55
937.96	227.47
938.26	227.40
938.56	227.35
938.86	227.52
939.16	227.60
939.46	227.79
939.76	227.90
940.06	227.83
940.35	227.59
940.65	227.12
940.95	227.19
941.25	226.86
941.55	226.86
941.85	226.79
942.15	226.96
942.45	227.25
942.75	227.29
943.04	227.30
943.34	227.50
943.64	227.39
943.94	227.35
944.24	227.38
944.54	227.40
944.84	227.38
945.13	227.22
945.43	227.11
945.73	226.97
946.03	226.92
946.33	226.99
946.62	226.91
946.92	226.86
947.22	226.87
947.52	227.05
947.82	227.07
948.11	227.05
948.41	226.88
948.71	226.50
949.01	226.42
949.31	226.36
949.60	226.14
949.90	226.31
950.20	226.23
950.50	226.24
950.79	226.21
951.09	226.26
951.39	226.22
951.69	226.14
951.98	226.35
952.28	226.50
952.58	226.39
952.87	226.44
953.17	226.55
953.47	226.51
953.76	226.42
954.06	226.33
954.36	226.23
954.66	226.12
954.95	226.43
955.25	226.50
955.55	226.57
955.84	226.52
956.14	226.53
956.44	226.64
956.73	226.50
957.03	226.45
957.32	226.50
957.62	226.56
957.92	226.73
958.21	226.53
958.51	227.47
958.81	227.64
959.10	227.74
959.40	227.95
959.69	227.91
959.99	228.04
960.29	228.08
960.58	228.07
960.88	228.54
961.17	228.50
961.47	228.58
961.76	228.41
962.06	228.62
962.36	228.40
962.65	228.41
962.95	228.46
963.24	228.50
963.54	228.50
963.83	228.49
964.13	228.44
964.42	228.20
964.72	227.50
965.01	227.50
965.31	227.48
965.60	227.21
965.90	227.90
966.19	227.66
966.49	227.63
966.78	227.66
967.08	227.50
967.37	227.46
967.67	227.31
967.96	227.59
968.26	227.55
968.55	227.83
968.85	227.80
969.14	227.84
969.43	227.79
969.73	227.64
970.02	227.66
970.32	227.59
970.61	227.64
970.91	227.40
971.20	227.30
971.49	227.22
971.79	227.46
972.08	226.72
972.38	226.90
972.67	226.86
972.96	226.99
973.26	226.80
973.55	227.15
973.85	227.15
974.14	227.07
974.43	227.09
974.73	226.92
975.02	226.90
975.31	226.95
975.61	227.03
975.90	227.15
976.19	227.16
976.49	227.28
976.78	227.41
977.07	227.39
977.37	227.46
977.66	227.52
977.95	227.31
978.24	227.39
978.54	227.60
978.83	227.59
979.12	227.49
979.42	227.57
979.71	227.27
980.00	227.35
980.29	227.35
980.59	227.16
980.88	227.49
981.17	227.44
981.46	227.41
981.76	227.45
982.05	227.66
982.34	227.66
982.63	227.57
982.93	227.59
983.22	227.84
983.51	227.86
983.80	228.01
984.09	228.13
984.39	228.03
984.68	227.75
984.97	227.79
985.26	227.76
985.55	227.80
985.85	227.60
986.14	227.65
986.43	227.73
986.72	227.74
987.01	227.44
987.30	227.42
987.59	227.29
987.89	227.25
988.18	226.90
988.47	226.89
988.76	226.90
989.05	226.77
989.34	226.55
989.63	226.73
989.92	226.46
990.22	226.35
990.51	226.34
990.80	226.33
991.09	226.35
991.38	226.42
991.67	226.28
991.96	226.27
992.25	226.33
992.54	226.19
992.83	226.19
993.12	226.08
993.41	226.26
993.70	226.54
993.99	226.66
994.28	226.85
994.58	226.90
994.87	226.78
995.16	226.80
995.45	226.76
995.74	226.39
996.03	226.57
996.32	226.71
996.61	226.93
996.90	226.90
997.19	226.93
997.48	226.99
997.77	227.00
998.06	227.02
998.34	226.89
998.63	226.84
998.92	226.87
999.21	227.00
999.50	227.04
999.79	226.85
1000.08	226.85
1000.37	226.79
1000.66	226.69
1000.95	226.93
1001.24	226.91
1001.53	227.11
1001.82	227.19
1002.11	227.00
1002.40	227.02
1002.68	227.30
1002.97	227.97
1003.26	227.81
1003.55	227.64
1003.84	227.70
1004.13	228.16
1004.42	228.10
1004.71	228.17
1004.99	228.13
1005.28	228.32
1005.57	228.20
1005.86	228.14
1006.15	228.09
1006.44	227.94
1006.72	228.04
1007.01	227.90
1007.30	227.95
1007.59	227.81
1007.88	227.82
1008.17	227.98
1008.45	227.78
1008.74	227.33
1009.03	226.86
1009.32	226.92
1009.60	226.93
1009.89	226.80
1010.18	226.35
1010.47	226.35
1010.76	226.30
1011.04	226.30
1011.33	226.43
1011.62	226.52
1011.91	226.60
1012.19	226.66
1012.48	226.73
1012.77	226.74
1013.05	227.22
1013.34	227.16
1013.63	227.12
1013.92	227.20
1014.20	227.06
1014.49	227.12
1014.78	227.19
1015.06	227.00
1015.35	226.92
1015.64	227.16
1015.92	227.35
1016.21	227.39
1016.50	227.47
1016.78	227.52
1017.07	227.55
1017.36	227.21
1017.64	227.11
1017.93	227.18
1018.22	227.00
1018.50	227.01
1018.79	226.99
1019.08	226.47
1019.36	226.58
1019.65	226.54
1019.93	226.82
1020.22	227.06
1020.51	227.57
1020.79	227.42
1021.08	224.50
1021.36	225.80
1021.65	227.10
1021.94	225.60
1022.22	227.50
1022.51	226.40
1022.79	232.70
1023.08	230.10
1023.36	238.20
1023.65	223.70
>>>>>End Processed Spectral Data<<<<<
