SpectraSuite Data File
++++++++++++++++++++++++++++++++++++
Date: Wed Sep 04 17:30:08 EDT 2013
User: lab3
Dark Spectrum Present: Yes
Reference Spectrum Present: No
Number of Sampled Component Spectra: 1
Spectrometers: USB2E7196
Integration Time (usec): 337000 (USB2E7196)
Spectra Averaged: 10 (USB2E7196)
Boxcar Smoothing: 10 (USB2E7196)
Correct for Electrical Dark: No (USB2E7196)
Strobe/Lamp Enabled: No (USB2E7196)
Correct for Detector Non-linearity: No (USB2E7196)
Correct for Stray Light: No (USB2E7196)
Number of Pixels in Processed Spectrum: 2048
>>>>>Begin Processed Spectral Data<<<<<
339.09	0.00
339.48	211.80
339.86	214.30
340.24	216.50
340.63	214.20
341.01	233.20
341.39	219.30
341.78	223.50
342.16	225.70
342.54	222.50
342.93	212.75
343.31	223.49
343.69	224.07
344.07	224.56
344.46	225.19
344.84	225.81
345.22	225.50
345.60	225.90
345.99	226.06
346.37	226.13
346.75	226.29
347.13	226.34
347.52	226.39
347.90	226.72
348.28	226.79
348.66	226.94
349.05	226.62
349.43	226.73
349.81	226.78
350.19	226.92
350.57	226.93
350.96	227.08
351.34	227.19
351.72	227.33
352.10	227.39
352.48	227.19
352.87	227.14
353.25	227.19
353.63	227.10
354.01	227.08
354.39	227.15
354.77	227.22
355.15	227.42
355.54	227.46
355.92	227.21
356.30	227.31
356.68	227.98
357.06	228.19
357.44	228.08
357.82	228.14
358.20	228.95
358.58	229.06
358.97	229.19
359.35	229.30
359.73	229.50
360.11	229.57
360.49	229.65
360.87	229.73
361.25	229.86
361.63	230.27
362.01	230.43
362.39	230.37
362.77	230.56
363.15	230.64
363.53	230.62
363.91	230.80
364.29	230.83
364.67	229.92
365.05	229.91
365.43	230.06
365.81	230.25
366.19	229.91
366.57	230.30
366.95	230.30
367.33	230.19
367.71	230.13
368.09	230.35
368.47	230.46
368.85	230.42
369.23	230.60
369.61	230.18
369.99	230.50
370.37	230.62
370.75	230.93
371.13	230.79
371.51	230.74
371.89	230.79
372.27	230.98
372.65	231.11
373.03	231.20
373.41	231.20
373.78	231.10
374.16	230.59
374.54	230.21
374.92	230.07
375.30	230.14
375.68	229.91
376.06	229.90
376.44	229.70
376.82	229.65
377.19	229.49
377.57	229.50
377.95	229.06
378.33	229.00
378.71	228.46
379.09	228.68
379.47	228.65
379.84	228.46
380.22	228.30
380.60	228.04
380.98	227.93
381.36	227.85
381.73	227.73
382.11	227.94
382.49	227.99
382.87	227.78
383.25	227.56
383.62	228.65
384.00	228.34
384.38	228.40
384.76	228.58
385.13	228.90
385.51	228.82
385.89	228.71
386.27	228.65
386.64	228.70
387.02	228.44
387.40	228.35
387.78	228.29
388.15	228.18
388.53	228.11
388.91	228.06
389.29	227.90
389.66	227.91
390.04	227.66
390.42	227.76
390.79	227.88
391.17	227.92
391.55	226.89
391.92	226.89
392.30	226.95
392.68	226.69
393.05	226.57
393.43	226.66
393.81	226.75
394.18	226.70
394.56	226.70
394.94	226.86
395.31	226.81
395.69	227.21
396.06	227.30
396.44	227.47
396.82	227.41
397.19	227.89
397.57	227.97
397.95	228.31
398.32	228.19
398.70	228.30
399.07	228.62
399.45	228.71
399.82	228.81
400.20	228.80
400.58	229.00
400.95	228.70
401.33	229.02
401.70	229.83
402.08	230.13
402.45	230.32
402.83	230.81
403.20	231.05
403.58	231.11
403.95	231.67
404.33	232.11
404.71	232.55
405.08	233.39
405.46	233.64
405.83	234.11
406.21	234.44
406.58	234.90
406.96	235.26
407.33	235.86
407.70	236.56
408.08	237.97
408.45	238.81
408.83	239.84
409.20	240.34
409.58	240.49
409.95	241.38
410.33	242.33
410.70	242.88
411.08	244.09
411.45	245.16
411.82	246.06
412.20	247.39
412.57	249.31
412.95	249.91
413.32	251.62
413.69	253.00
414.07	254.77
414.44	256.70
414.82	258.73
415.19	260.99
415.56	263.16
415.94	265.00
416.31	267.66
416.68	270.14
417.06	273.21
417.43	276.26
417.81	279.57
418.18	282.95
418.55	286.60
418.93	290.37
419.30	294.25
419.67	298.44
420.04	302.61
420.42	306.79
420.79	312.60
421.16	317.82
421.54	323.76
421.91	329.46
422.28	335.30
422.66	341.63
423.03	348.18
423.40	354.72
423.77	361.60
424.15	368.58
424.52	376.04
424.89	384.38
425.26	392.20
425.64	399.68
426.01	407.93
426.38	416.57
426.75	425.70
427.13	434.85
427.50	444.38
427.87	454.22
428.24	464.13
428.61	473.00
428.99	483.68
429.36	494.45
429.73	505.53
430.10	516.59
430.47	527.92
430.85	539.22
431.22	551.54
431.59	565.22
431.96	577.70
432.33	591.73
432.70	604.75
433.08	620.84
433.45	635.64
433.82	650.58
434.19	667.26
434.56	683.78
434.93	699.56
435.30	715.77
435.68	733.54
436.05	751.04
436.42	768.45
436.79	784.35
437.16	801.88
437.53	820.00
437.90	838.40
438.27	856.55
438.64	875.67
439.01	893.46
439.38	909.10
439.75	924.76
440.13	942.14
440.50	958.80
440.87	972.09
441.24	986.57
441.61	1001.99
441.98	1013.41
442.35	1026.73
442.72	1040.42
443.09	1053.42
443.46	1061.87
443.83	1067.59
444.20	1072.77
444.57	1079.78
444.94	1083.34
445.31	1087.23
445.68	1091.28
446.05	1093.27
446.42	1091.99
446.79	1090.66
447.16	1088.45
447.53	1087.22
447.90	1081.10
448.27	1074.91
448.64	1066.00
449.01	1059.48
449.37	1047.81
449.74	1036.56
450.11	1023.13
450.48	1007.71
450.85	992.04
451.22	978.57
451.59	965.77
451.96	953.75
452.33	937.78
452.70	923.32
453.07	906.09
453.43	887.84
453.80	870.63
454.17	854.10
454.54	838.44
454.91	821.85
455.28	805.41
455.65	790.14
456.02	776.06
456.38	763.22
456.75	747.26
457.12	734.22
457.49	721.25
457.86	708.18
458.23	697.90
458.59	686.20
458.96	674.26
459.33	663.82
459.70	653.39
460.07	644.80
460.43	635.00
460.80	626.13
461.17	618.41
461.54	610.08
461.91	602.32
462.27	594.14
462.64	587.31
463.01	580.00
463.38	572.99
463.74	564.71
464.11	558.50
464.48	553.01
464.85	547.00
465.21	542.75
465.58	538.03
465.95	532.16
466.32	527.47
466.68	522.95
467.05	518.49
467.42	513.79
467.78	508.99
468.15	504.48
468.52	500.90
468.88	496.19
469.25	492.22
469.62	489.21
469.98	485.71
470.35	482.58
470.72	479.52
471.08	475.97
471.45	473.24
471.82	470.42
472.18	467.19
472.55	464.99
472.92	462.06
473.28	459.56
473.65	457.11
474.02	454.76
474.38	452.58
474.75	450.83
475.11	448.80
475.48	447.33
475.85	445.96
476.21	444.54
476.58	443.42
476.94	442.51
477.31	441.28
477.67	440.30
478.04	439.40
478.41	438.82
478.77	439.24
479.14	438.40
479.50	437.93
479.87	438.07
480.23	437.89
480.60	437.63
480.96	437.50
481.33	438.09
481.69	438.41
482.06	438.85
482.42	439.03
482.79	439.54
483.15	440.04
483.52	441.19
483.88	441.90
484.25	442.59
484.61	443.54
484.98	444.32
485.34	446.10
485.71	447.74
486.07	449.10
486.44	449.62
486.80	451.42
487.17	453.09
487.53	455.23
487.90	457.32
488.26	459.93
488.62	462.42
488.99	464.58
489.35	466.98
489.72	469.59
490.08	472.57
490.44	475.67
490.81	478.94
491.17	481.74
491.54	485.39
491.90	489.06
492.26	492.83
492.63	496.90
492.99	500.32
493.36	504.21
493.72	508.71
494.08	513.24
494.45	517.99
494.81	523.12
495.17	527.72
495.54	532.81
495.90	537.74
496.26	542.98
496.63	548.42
496.99	554.00
497.35	559.67
497.72	565.40
498.08	571.01
498.44	576.94
498.80	583.44
499.17	589.35
499.53	595.45
499.89	601.88
500.26	608.14
500.62	614.69
500.98	621.57
501.34	627.89
501.71	634.88
502.07	641.48
502.43	648.16
502.79	654.98
503.16	661.73
503.52	668.82
503.88	675.85
504.24	683.10
504.60	690.45
504.97	697.66
505.33	704.82
505.69	712.99
506.05	720.17
506.41	727.25
506.78	734.54
507.14	742.00
507.50	749.35
507.86	756.92
508.22	764.53
508.59	771.70
508.95	779.36
509.31	787.01
509.67	794.40
510.03	801.44
510.39	808.78
510.75	815.85
511.12	822.65
511.48	829.49
511.84	835.99
512.20	842.39
512.56	849.24
512.92	855.90
513.28	861.78
513.64	868.35
514.00	874.62
514.37	881.13
514.73	887.45
515.09	893.37
515.45	899.49
515.81	905.19
516.17	910.74
516.53	915.94
516.89	920.60
517.25	926.10
517.61	932.14
517.97	937.34
518.33	942.24
518.69	947.61
519.05	952.85
519.41	958.16
519.77	963.91
520.13	968.44
520.49	973.08
520.85	977.85
521.21	982.59
521.57	986.78
521.93	990.29
522.29	994.31
522.65	997.86
523.01	1001.57
523.37	1004.78
523.73	1008.33
524.09	1011.58
524.45	1015.12
524.81	1018.14
525.17	1021.08
525.53	1024.27
525.89	1027.56
526.25	1030.36
526.61	1032.76
526.97	1035.39
527.33	1038.09
527.68	1041.99
528.04	1045.06
528.40	1047.66
528.76	1050.66
529.12	1053.98
529.48	1057.45
529.84	1060.10
530.20	1063.65
530.56	1066.80
530.91	1070.41
531.27	1073.48
531.63	1076.70
531.99	1079.93
532.35	1083.00
532.71	1085.98
533.07	1089.37
533.42	1093.61
533.78	1096.97
534.14	1100.56
534.50	1103.78
534.86	1106.82
535.21	1109.01
535.57	1112.30
535.93	1115.11
536.29	1118.08
536.65	1121.18
537.00	1123.94
537.36	1126.91
537.72	1129.38
538.08	1132.13
538.44	1134.64
538.79	1137.61
539.15	1140.52
539.51	1143.27
539.87	1145.89
540.22	1147.97
540.58	1150.44
540.94	1151.71
541.29	1153.52
541.65	1155.47
542.01	1157.97
542.37	1159.49
542.72	1161.10
543.08	1162.37
543.44	1164.41
543.79	1165.44
544.15	1166.83
544.51	1168.83
544.87	1170.70
545.22	1172.20
545.58	1173.22
545.94	1174.11
546.29	1174.95
546.65	1176.01
547.01	1176.67
547.36	1177.84
547.72	1179.08
548.07	1179.68
548.43	1180.83
548.79	1182.17
549.14	1183.10
549.50	1184.03
549.86	1184.58
550.21	1185.60
550.57	1187.21
550.92	1188.16
551.28	1189.39
551.64	1190.40
551.99	1191.54
552.35	1192.37
552.70	1193.32
553.06	1194.64
553.41	1196.02
553.77	1197.84
554.13	1199.09
554.48	1200.89
554.84	1202.25
555.19	1203.64
555.55	1205.90
555.90	1206.56
556.26	1206.97
556.61	1207.66
556.97	1207.48
557.32	1208.61
557.68	1209.49
558.03	1209.82
558.39	1210.41
558.74	1210.94
559.10	1211.36
559.45	1211.46
559.81	1211.40
560.16	1211.46
560.52	1211.39
560.87	1212.01
561.23	1211.69
561.58	1212.57
561.94	1211.91
562.29	1211.37
562.64	1211.26
563.00	1209.44
563.35	1209.56
563.71	1210.03
564.06	1210.12
564.42	1210.39
564.77	1210.89
565.12	1211.27
565.48	1212.04
565.83	1212.20
566.19	1212.36
566.54	1212.51
566.89	1212.38
567.25	1212.93
567.60	1213.79
567.96	1214.66
568.31	1214.71
568.66	1215.01
569.02	1213.96
569.37	1213.88
569.72	1214.09
570.08	1213.20
570.43	1212.69
570.78	1212.08
571.14	1211.11
571.49	1209.84
571.84	1209.20
572.20	1207.61
572.55	1206.46
572.90	1204.31
573.26	1203.28
573.61	1201.54
573.96	1199.70
574.31	1197.91
574.67	1195.80
575.02	1193.22
575.37	1190.33
575.72	1187.49
576.08	1184.93
576.43	1182.41
576.78	1179.69
577.13	1176.95
577.49	1174.76
577.84	1173.06
578.19	1171.05
578.54	1169.13
578.90	1167.81
579.25	1165.71
579.60	1163.59
579.95	1160.82
580.30	1158.46
580.66	1155.33
581.01	1152.77
581.36	1149.83
581.71	1147.18
582.06	1144.92
582.42	1142.51
582.77	1139.87
583.12	1137.68
583.47	1135.07
583.82	1132.88
584.17	1130.83
584.53	1128.65
584.88	1125.80
585.23	1122.87
585.58	1119.07
585.93	1115.43
586.28	1111.78
586.63	1108.03
586.98	1104.59
587.34	1101.48
587.69	1098.21
588.04	1095.20
588.39	1092.43
588.74	1089.46
589.09	1086.50
589.44	1082.72
589.79	1079.37
590.14	1076.55
590.49	1073.20
590.84	1069.84
591.19	1066.44
591.54	1063.02
591.89	1059.28
592.25	1057.38
592.60	1053.99
592.95	1051.04
593.30	1047.91
593.65	1044.46
594.00	1040.84
594.35	1039.85
594.70	1036.14
595.05	1032.29
595.40	1028.57
595.75	1024.55
596.10	1021.10
596.45	1017.73
596.80	1014.50
597.15	1010.73
597.50	1006.79
597.85	1003.58
598.19	999.62
598.54	995.94
598.89	991.79
599.24	988.37
599.59	983.60
599.94	979.63
600.29	976.22
600.64	972.60
600.99	969.10
601.34	965.96
601.69	960.10
602.04	956.68
602.39	953.32
602.74	950.43
603.08	947.08
603.43	944.11
603.78	940.39
604.13	936.53
604.48	933.09
604.83	929.33
605.18	925.10
605.53	921.73
605.87	918.13
606.22	915.06
606.57	911.44
606.92	907.77
607.27	904.42
607.62	900.71
607.96	897.32
608.31	893.96
608.66	890.50
609.01	886.90
609.36	883.31
609.70	879.82
610.05	875.82
610.40	872.26
610.75	868.17
611.10	864.60
611.44	861.07
611.79	857.20
612.14	853.59
612.49	849.89
612.83	846.58
613.18	843.02
613.53	839.55
613.88	835.78
614.22	831.97
614.57	828.36
614.92	824.60
615.27	821.21
615.61	817.21
615.96	813.20
616.31	809.71
616.65	806.19
617.00	802.35
617.35	798.65
617.70	794.98
618.04	791.25
618.39	787.32
618.74	784.02
619.08	780.51
619.43	776.93
619.78	773.38
620.12	769.57
620.47	765.75
620.82	761.93
621.16	758.06
621.51	755.04
621.85	751.42
622.20	747.81
622.55	743.64
622.89	740.20
623.24	737.05
623.59	733.10
623.93	729.62
624.28	726.08
624.62	723.49
624.97	720.40
625.32	717.11
625.66	713.87
626.01	710.11
626.35	706.89
626.70	703.60
627.04	700.39
627.39	696.68
627.73	693.62
628.08	690.21
628.43	686.74
628.77	682.97
629.12	679.62
629.46	676.49
629.81	673.82
630.15	670.83
630.50	667.45
630.84	664.64
631.19	661.49
631.53	658.57
631.88	654.42
632.22	650.57
632.57	647.64
632.91	644.34
633.26	641.58
633.60	638.40
633.95	635.09
634.29	631.68
634.64	628.78
634.98	625.14
635.32	622.17
635.67	619.50
636.01	616.50
636.36	613.35
636.70	610.65
637.05	607.44
637.39	604.21
637.73	601.43
638.08	598.49
638.42	595.29
638.77	592.23
639.11	589.04
639.45	585.90
639.80	582.40
640.14	579.45
640.49	576.19
640.83	573.23
641.17	570.47
641.52	567.91
641.86	565.08
642.20	562.88
642.55	560.01
642.89	557.20
643.23	554.71
643.58	552.40
643.92	549.34
644.26	546.48
644.61	543.86
644.95	541.16
645.29	538.23
645.64	535.75
645.98	533.20
646.32	530.85
646.66	528.37
647.01	525.65
647.35	523.44
647.69	521.08
648.04	518.68
648.38	516.40
648.72	513.74
649.06	511.10
649.41	508.45
649.75	505.78
650.09	503.24
650.43	500.45
650.78	497.68
651.12	495.20
651.46	492.70
651.80	490.41
652.14	487.98
652.49	485.85
652.83	483.47
653.17	481.14
653.51	478.64
653.85	476.65
654.20	474.65
654.54	472.20
654.88	469.77
655.22	468.07
655.56	465.80
655.90	463.72
656.25	461.72
656.59	459.61
656.93	457.71
657.27	456.09
657.61	453.90
657.95	451.84
658.29	449.92
658.64	448.11
658.98	445.85
659.32	443.72
659.66	441.68
660.00	439.72
660.34	437.81
660.68	436.04
661.02	434.10
661.36	432.08
661.70	430.17
662.05	428.38
662.39	426.33
662.73	424.70
663.07	423.15
663.41	421.43
663.75	419.53
664.09	417.81
664.43	415.76
664.77	414.32
665.11	412.54
665.45	410.81
665.79	409.17
666.13	407.57
666.47	405.90
666.81	404.23
667.15	402.41
667.49	400.75
667.83	399.45
668.17	397.95
668.51	396.51
668.85	395.17
669.19	394.07
669.53	392.32
669.87	390.68
670.21	389.10
670.55	387.65
670.89	386.64
671.23	385.25
671.57	383.70
671.91	382.02
672.25	380.80
672.58	379.70
672.92	377.97
673.26	376.67
673.60	375.50
673.94	374.10
674.28	373.09
674.62	371.95
674.96	370.45
675.30	368.93
675.64	367.72
675.97	366.36
676.31	364.72
676.65	363.28
676.99	362.22
677.33	360.92
677.67	359.60
678.01	357.87
678.34	356.48
678.68	355.47
679.02	354.12
679.36	352.87
679.70	351.47
680.04	350.51
680.37	349.29
680.71	347.91
681.05	346.87
681.39	345.59
681.73	344.20
682.06	342.89
682.40	341.87
682.74	340.78
683.08	339.91
683.42	338.76
683.75	337.71
684.09	336.37
684.43	335.23
684.77	334.08
685.10	333.12
685.44	332.05
685.78	330.83
686.12	329.91
686.45	328.76
686.79	327.53
687.13	326.63
687.46	325.48
687.80	324.77
688.14	323.60
688.48	322.63
688.81	321.69
689.15	321.01
689.49	320.07
689.82	318.97
690.16	317.63
690.50	316.72
690.83	315.90
691.17	314.97
691.51	314.15
691.84	313.40
692.18	312.32
692.52	311.52
692.85	310.80
693.19	310.42
693.52	309.58
693.86	308.78
694.20	307.91
694.53	307.27
694.87	306.24
695.21	305.43
695.54	304.67
695.88	303.86
696.21	302.66
696.55	301.84
696.88	301.08
697.22	300.30
697.56	299.63
697.89	298.77
698.23	298.08
698.56	297.20
698.90	296.52
699.23	295.80
699.57	295.06
699.90	294.23
700.24	293.20
700.58	292.69
700.91	292.20
701.25	292.25
701.58	292.32
701.92	292.01
702.25	291.43
702.59	290.71
702.92	290.20
703.26	289.87
703.59	289.28
703.93	289.62
704.26	289.19
704.60	288.52
704.93	287.80
705.26	287.04
705.60	286.66
705.93	285.83
706.27	285.67
706.60	285.46
706.94	285.28
707.27	284.73
707.61	284.08
707.94	283.54
708.27	282.32
708.61	281.00
708.94	280.27
709.28	279.73
709.61	279.21
709.94	278.68
710.28	278.25
710.61	277.81
710.95	276.46
711.28	276.48
711.61	276.00
711.95	275.85
712.28	275.42
712.61	274.94
712.95	275.02
713.28	274.90
713.61	274.01
713.95	273.26
714.28	272.79
714.61	272.42
714.95	271.80
715.28	271.17
715.61	270.74
715.95	270.43
716.28	269.90
716.61	269.60
716.95	269.07
717.28	268.50
717.61	267.92
717.94	267.45
718.28	266.34
718.61	265.87
718.94	265.32
719.27	264.93
719.61	264.46
719.94	263.84
720.27	263.00
720.60	262.69
720.94	262.28
721.27	261.98
721.60	261.73
721.93	261.41
722.27	261.41
722.60	261.24
722.93	260.66
723.26	260.55
723.59	260.05
723.93	259.84
724.26	259.62
724.59	259.41
724.92	259.19
725.25	259.13
725.59	258.94
725.92	258.69
726.25	258.41
726.58	258.26
726.91	257.89
727.24	257.60
727.57	257.33
727.91	256.89
728.24	256.74
728.57	256.37
728.90	256.26
729.23	255.67
729.56	255.77
729.89	255.55
730.22	255.15
730.55	254.86
730.89	254.61
731.22	254.20
731.55	253.84
731.88	253.61
732.21	253.26
732.54	252.87
732.87	252.68
733.20	252.50
733.53	252.12
733.86	251.96
734.19	251.61
734.52	251.43
734.85	251.97
735.18	251.44
735.51	251.49
735.84	251.22
736.17	251.26
736.50	250.56
736.83	251.46
737.16	251.21
737.49	251.12
737.82	250.80
738.15	250.88
738.48	250.67
738.81	250.46
739.14	250.14
739.47	249.94
739.80	249.67
740.13	249.46
740.46	249.17
740.79	248.87
741.12	248.72
741.45	248.50
741.78	247.68
742.11	247.83
742.44	247.27
742.77	247.23
743.10	246.88
743.43	246.65
743.75	245.50
744.08	246.53
744.41	246.26
744.74	246.02
745.07	245.51
745.40	245.62
745.73	245.81
746.06	245.66
746.39	245.49
746.71	245.31
747.04	245.07
747.37	244.90
747.70	244.81
748.03	244.67
748.36	244.72
748.68	244.58
749.01	244.19
749.34	244.15
749.67	244.10
750.00	244.18
750.33	244.72
750.65	244.80
750.98	243.51
751.31	243.36
751.64	243.34
751.97	243.75
752.29	243.42
752.62	242.84
752.95	242.77
753.28	242.58
753.60	242.47
753.93	242.64
754.26	242.57
754.59	242.32
754.91	242.04
755.24	241.80
755.57	241.76
755.90	241.60
756.22	241.39
756.55	241.00
756.88	240.61
757.20	239.81
757.53	239.34
757.86	239.27
758.19	239.35
758.51	239.19
758.84	238.68
759.17	238.46
759.49	238.50
759.82	238.80
760.15	238.92
760.47	238.77
760.80	238.39
761.13	238.59
761.45	238.39
761.78	238.44
762.11	238.34
762.43	238.14
762.76	238.09
763.08	238.10
763.41	238.05
763.74	238.10
764.06	238.13
764.39	238.00
764.71	237.90
765.04	237.68
765.37	237.43
765.69	237.24
766.02	237.29
766.34	236.98
766.67	236.52
767.00	236.50
767.32	236.95
767.65	237.41
767.97	237.16
768.30	237.27
768.62	237.21
768.95	237.00
769.27	236.94
769.60	237.03
769.92	236.79
770.25	236.66
770.57	236.41
770.90	236.35
771.22	236.23
771.55	236.24
771.87	236.14
772.20	236.20
772.52	237.01
772.85	238.06
773.17	238.07
773.50	238.00
773.82	237.83
774.15	237.26
774.47	236.58
774.80	236.53
775.12	236.33
775.45	236.22
775.77	236.28
776.09	236.30
776.42	236.17
776.74	236.40
777.07	236.16
777.39	236.15
777.72	235.85
778.04	235.96
778.36	235.73
778.69	235.75
779.01	235.58
779.33	234.70
779.66	233.53
779.98	233.48
780.31	233.42
780.63	233.74
780.95	233.83
781.28	233.85
781.60	233.59
781.92	233.55
782.25	233.42
782.57	233.26
782.89	232.98
783.22	232.87
783.54	232.60
783.86	232.69
784.19	232.56
784.51	232.92
784.83	232.65
785.16	232.56
785.48	232.50
785.80	232.58
786.12	232.65
786.45	232.59
786.77	232.53
787.09	232.48
787.42	232.04
787.74	232.04
788.06	231.90
788.38	231.95
788.71	231.80
789.03	231.86
789.35	232.10
789.67	232.12
789.99	232.24
790.32	232.13
790.64	232.23
790.96	232.95
791.28	232.55
791.61	232.55
791.93	232.59
792.25	232.51
792.57	233.18
792.89	232.97
793.21	232.96
793.54	232.96
793.86	232.76
794.18	232.85
794.50	232.59
794.82	232.69
795.14	232.73
795.47	232.91
795.79	232.76
796.11	232.52
796.43	232.36
796.75	232.39
797.07	232.42
797.39	232.32
797.71	231.67
798.04	231.66
798.36	231.69
798.68	231.61
799.00	231.70
799.32	231.17
799.64	231.40
799.96	231.43
800.28	231.53
800.60	231.52
800.92	231.51
801.24	231.58
801.56	231.64
801.89	231.50
802.21	231.58
802.53	231.49
802.85	231.69
803.17	232.27
803.49	232.01
803.81	231.96
804.13	231.89
804.45	231.88
804.77	232.10
805.09	232.08
805.41	232.02
805.73	231.79
806.05	231.52
806.37	231.43
806.69	231.31
807.01	231.24
807.33	231.20
807.65	230.87
807.97	231.27
808.28	231.12
808.60	231.08
808.92	230.97
809.24	231.53
809.56	231.31
809.88	230.85
810.20	230.83
810.52	231.05
810.84	230.99
811.16	230.86
811.48	230.60
811.80	230.89
812.12	230.83
812.43	231.00
812.75	231.05
813.07	230.92
813.39	231.01
813.71	230.81
814.03	230.91
814.35	231.03
814.67	230.48
814.98	230.30
815.30	230.39
815.62	230.24
815.94	229.67
816.26	230.10
816.58	229.89
816.89	229.97
817.21	229.71
817.53	229.82
817.85	229.77
818.17	229.82
818.48	229.46
818.80	229.61
819.12	229.51
819.44	229.37
819.76	229.23
820.07	229.21
820.39	229.19
820.71	229.17
821.03	229.09
821.34	229.12
821.66	229.32
821.98	229.24
822.30	229.23
822.61	229.79
822.93	229.34
823.25	229.42
823.57	229.28
823.88	229.40
824.20	229.33
824.52	229.42
824.83	229.36
825.15	229.23
825.47	229.19
825.79	229.25
826.10	229.21
826.42	229.21
826.74	229.25
827.05	229.27
827.37	229.36
827.69	229.34
828.00	229.41
828.32	229.40
828.64	229.40
828.95	229.82
829.27	229.52
829.58	229.51
829.90	229.67
830.22	229.78
830.53	229.46
830.85	229.43
831.17	229.28
831.48	229.34
831.80	229.42
832.11	229.41
832.43	229.29
832.75	229.31
833.06	229.93
833.38	229.63
833.69	229.61
834.01	229.61
834.32	229.61
834.64	229.60
834.96	229.63
835.27	229.62
835.59	229.30
835.90	229.14
836.22	229.03
836.53	228.83
836.85	228.77
837.16	229.93
837.48	229.94
837.79	230.35
838.11	230.35
838.42	230.28
838.74	230.46
839.05	230.37
839.37	230.39
839.68	229.78
840.00	229.87
840.31	229.93
840.63	229.79
840.94	229.65
841.26	229.53
841.57	229.46
841.88	229.53
842.20	229.40
842.51	229.23
842.83	229.34
843.14	230.28
843.46	230.32
843.77	229.72
844.08	229.65
844.40	229.20
844.71	229.14
845.03	229.03
845.34	228.86
845.65	228.83
845.97	228.70
846.28	228.79
846.60	228.83
846.91	228.72
847.22	228.74
847.54	228.96
847.85	228.95
848.16	228.76
848.48	228.51
848.79	228.92
849.10	229.04
849.42	228.96
849.73	228.05
850.04	227.98
850.36	227.58
850.67	227.67
850.98	227.72
851.30	227.85
851.61	228.00
851.92	227.99
852.23	228.27
852.55	228.43
852.86	228.37
853.17	228.37
853.49	228.61
853.80	228.79
854.11	228.90
854.42	229.07
854.74	228.98
855.05	229.13
855.36	228.55
855.67	228.62
855.99	228.62
856.30	229.70
856.61	229.63
856.92	229.68
857.23	229.53
857.55	229.41
857.86	229.20
858.17	229.18
858.48	228.99
858.79	228.80
859.11	228.83
859.42	228.80
859.73	228.66
860.04	228.55
860.35	228.21
860.66	227.83
860.98	227.71
861.29	227.92
861.60	227.79
861.91	228.06
862.22	227.80
862.53	227.68
862.84	226.53
863.16	226.79
863.47	226.62
863.78	226.69
864.09	226.84
864.40	226.99
864.71	227.03
865.02	227.05
865.33	226.93
865.64	226.81
865.95	226.83
866.27	227.47
866.58	227.39
866.89	227.55
867.20	227.57
867.51	227.42
867.82	227.40
868.13	227.71
868.44	227.49
868.75	227.80
869.06	227.81
869.37	227.94
869.68	227.55
869.99	227.73
870.30	227.74
870.61	227.73
870.92	227.54
871.23	227.42
871.54	227.68
871.85	227.93
872.16	228.00
872.47	228.00
872.78	227.52
873.09	227.66
873.40	227.61
873.71	227.66
874.02	227.79
874.33	227.68
874.64	227.40
874.95	227.64
875.26	227.37
875.56	227.45
875.87	227.42
876.18	227.49
876.49	228.39
876.80	228.38
877.11	228.27
877.42	228.36
877.73	228.47
878.04	228.31
878.35	228.30
878.66	228.39
878.96	228.26
879.27	228.09
879.58	227.98
879.89	227.99
880.20	228.32
880.51	228.31
880.82	228.41
881.12	228.57
881.43	228.40
881.74	228.31
882.05	228.25
882.36	228.26
882.67	228.41
882.97	227.42
883.28	227.29
883.59	227.39
883.90	227.53
884.21	227.71
884.51	227.73
884.82	227.60
885.13	227.57
885.44	227.60
885.74	227.68
886.05	227.62
886.36	227.51
886.67	227.18
886.98	227.65
887.28	227.69
887.59	227.64
887.90	227.65
888.20	227.75
888.51	227.96
888.82	227.94
889.13	227.89
889.43	228.60
889.74	228.63
890.05	228.48
890.35	228.36
890.66	228.12
890.97	228.00
891.28	227.99
891.58	227.95
891.89	227.90
892.20	227.81
892.50	227.73
892.81	227.69
893.12	227.69
893.42	227.30
893.73	227.40
894.04	227.46
894.34	227.57
894.65	227.56
894.95	227.28
895.26	227.18
895.57	227.56
895.87	226.81
896.18	226.91
896.48	227.07
896.79	227.08
897.10	227.18
897.40	227.16
897.71	227.22
898.01	227.21
898.32	227.37
898.63	227.36
898.93	227.50
899.24	227.58
899.54	227.39
899.85	227.27
900.15	227.20
900.46	227.10
900.76	227.15
901.07	227.02
901.38	227.12
901.68	227.30
901.99	226.89
902.29	226.93
902.60	226.85
902.90	226.72
903.21	226.69
903.51	226.61
903.82	226.90
904.12	226.86
904.43	226.80
904.73	226.78
905.03	226.91
905.34	227.88
905.64	227.90
905.95	228.07
906.25	228.14
906.56	228.03
906.86	228.08
907.17	228.04
907.47	228.17
907.77	228.12
908.08	227.99
908.38	227.93
908.69	227.95
908.99	228.12
909.30	228.19
909.60	228.12
909.90	228.21
910.21	227.89
910.51	227.80
910.81	227.84
911.12	227.86
911.42	227.90
911.73	226.75
912.03	226.75
912.33	226.86
912.64	226.80
912.94	226.71
913.24	226.53
913.55	226.38
913.85	226.36
914.15	226.57
914.46	226.61
914.76	226.74
915.06	226.67
915.37	226.42
915.67	226.45
915.97	226.52
916.27	226.30
916.58	226.41
916.88	226.37
917.18	226.36
917.49	226.99
917.79	226.91
918.09	227.12
918.39	227.33
918.70	227.29
919.00	227.31
919.30	227.81
919.60	227.80
919.91	227.74
920.21	227.74
920.51	227.55
920.81	227.52
921.12	227.65
921.42	227.58
921.72	227.88
922.02	227.96
922.32	228.11
922.63	228.25
922.93	228.75
923.23	228.80
923.53	228.66
923.83	228.02
924.13	227.99
924.44	227.99
924.74	228.08
925.04	228.31
925.34	228.25
925.64	227.73
925.94	227.70
926.24	228.33
926.55	228.27
926.85	228.40
927.15	228.39
927.45	228.30
927.75	228.35
928.05	228.25
928.35	228.24
928.65	228.32
928.95	228.40
929.26	228.00
929.56	228.13
929.86	228.29
930.16	228.27
930.46	228.28
930.76	228.40
931.06	228.03
931.36	227.84
931.66	228.07
931.96	228.21
932.26	228.32
932.56	227.87
932.86	227.91
933.16	227.95
933.46	227.78
933.76	227.63
934.06	227.80
934.36	228.14
934.66	227.97
934.96	227.83
935.26	227.81
935.56	227.94
935.86	227.74
936.16	227.65
936.46	227.58
936.76	227.48
937.06	227.30
937.36	227.38
937.66	227.33
937.96	227.20
938.26	227.02
938.56	226.90
938.86	227.00
939.16	227.15
939.46	227.20
939.76	227.40
940.06	227.31
940.35	227.16
940.65	226.70
940.95	226.75
941.25	226.62
941.55	226.53
941.85	226.51
942.15	226.67
942.45	227.03
942.75	226.87
943.04	226.95
943.34	227.16
943.64	227.06
943.94	226.98
944.24	226.95
944.54	227.07
944.84	227.14
945.13	226.89
945.43	226.89
945.73	226.81
946.03	226.74
946.33	226.76
946.62	226.71
946.92	226.70
947.22	226.81
947.52	226.89
947.82	226.97
948.11	226.76
948.41	226.56
948.71	226.14
949.01	226.40
949.31	226.32
949.60	226.23
949.90	226.42
950.20	226.42
950.50	226.55
950.79	226.54
951.09	226.70
951.39	226.80
951.69	226.52
951.98	226.72
952.28	226.70
952.58	226.70
952.87	226.73
953.17	226.96
953.47	226.85
953.76	226.81
954.06	226.72
954.36	226.64
954.66	226.72
954.95	227.07
955.25	227.19
955.55	227.36
955.84	227.16
956.14	227.18
956.44	227.21
956.73	226.91
957.03	226.98
957.32	226.90
957.62	226.89
957.92	227.22
958.21	227.11
958.51	228.14
958.81	228.33
959.10	228.55
959.40	228.58
959.69	228.64
959.99	228.81
960.29	228.83
960.58	228.81
960.88	229.13
961.17	228.98
961.47	228.92
961.76	228.79
962.06	228.97
962.36	228.81
962.65	228.89
962.95	229.07
963.24	228.96
963.54	229.01
963.83	229.14
964.13	228.98
964.42	228.80
964.72	228.14
965.01	228.04
965.31	227.86
965.60	227.70
965.90	228.28
966.19	228.08
966.49	228.11
966.78	228.15
967.08	228.02
967.37	228.06
967.67	227.97
967.96	228.18
968.26	228.18
968.55	228.41
968.85	228.37
969.14	228.37
969.43	228.41
969.73	228.33
970.02	228.16
970.32	228.27
970.61	228.26
970.91	228.10
971.20	227.99
971.49	227.99
971.79	228.08
972.08	227.40
972.38	227.44
972.67	227.46
972.96	227.68
973.26	227.65
973.55	227.99
973.85	227.86
974.14	227.83
974.43	227.79
974.73	227.52
975.02	227.55
975.31	227.47
975.61	227.43
975.90	227.32
976.19	227.24
976.49	227.20
976.78	227.18
977.07	227.05
977.37	227.11
977.66	227.21
977.95	227.10
978.24	227.18
978.54	227.38
978.83	227.29
979.12	227.16
979.42	227.11
979.71	226.85
980.00	226.91
980.29	226.92
980.59	226.80
980.88	227.03
981.17	226.90
981.46	226.92
981.76	226.89
982.05	227.19
982.34	227.34
982.63	227.38
982.93	227.40
983.22	227.63
983.51	227.67
983.80	227.79
984.09	227.90
984.39	227.83
984.68	227.61
984.97	227.63
985.26	227.50
985.55	227.50
985.85	227.17
986.14	227.22
986.43	227.28
986.72	227.19
987.01	226.93
987.30	226.88
987.59	226.78
987.89	226.87
988.18	226.59
988.47	226.49
988.76	226.28
989.05	226.09
989.34	225.89
989.63	226.14
989.92	225.94
990.22	225.78
990.51	225.79
990.80	225.71
991.09	225.83
991.38	225.99
991.67	225.89
991.96	225.94
992.25	225.90
992.54	225.65
992.83	225.75
993.12	225.84
993.41	225.98
993.70	226.44
993.99	226.63
994.28	226.82
994.58	226.84
994.87	226.86
995.16	226.86
995.45	226.79
995.74	226.44
996.03	226.62
996.32	226.79
996.61	226.93
996.90	227.01
997.19	226.89
997.48	226.92
997.77	226.86
998.06	226.96
998.34	226.87
998.63	226.99
998.92	227.04
999.21	227.14
999.50	227.17
999.79	226.82
1000.08	226.67
1000.37	226.59
1000.66	226.50
1000.95	226.70
1001.24	226.92
1001.53	227.05
1001.82	226.99
1002.11	226.78
1002.40	226.86
1002.68	227.14
1002.97	227.80
1003.26	227.74
1003.55	227.62
1003.84	227.57
1004.13	227.83
1004.42	227.86
1004.71	227.85
1004.99	227.67
1005.28	227.93
1005.57	227.91
1005.86	227.79
1006.15	227.71
1006.44	227.53
1006.72	227.75
1007.01	227.58
1007.30	227.57
1007.59	227.57
1007.88	227.70
1008.17	227.68
1008.45	227.44
1008.74	227.00
1009.03	226.50
1009.32	226.48
1009.60	226.42
1009.89	226.48
1010.18	226.09
1010.47	226.17
1010.76	226.10
1011.04	226.10
1011.33	226.04
1011.62	226.18
1011.91	226.29
1012.19	226.41
1012.48	226.49
1012.77	226.46
1013.05	226.93
1013.34	226.81
1013.63	226.70
1013.92	226.80
1014.20	226.76
1014.49	226.79
1014.78	226.81
1015.06	226.58
1015.35	226.65
1015.64	226.95
1015.92	227.11
1016.21	227.18
1016.50	227.13
1016.78	227.21
1017.07	227.35
1017.36	227.08
1017.64	226.90
1017.93	226.98
1018.22	226.81
1018.50	226.85
1018.79	226.80
1019.08	226.38
1019.36	226.57
1019.65	226.44
1019.93	226.60
1020.22	226.78
1020.51	227.33
1020.79	227.22
1021.08	224.80
1021.36	225.40
1021.65	226.70
1021.94	226.80
1022.22	228.40
1022.51	223.70
1022.79	231.10
1023.08	228.20
1023.36	238.70
1023.65	222.80
>>>>>End Processed Spectral Data<<<<<
