SpectraSuite Data File
++++++++++++++++++++++++++++++++++++
Date: Wed Sep 04 17:30:36 EDT 2013
User: lab3
Dark Spectrum Present: Yes
Reference Spectrum Present: No
Number of Sampled Component Spectra: 1
Spectrometers: USB2E7196
Integration Time (usec): 337000 (USB2E7196)
Spectra Averaged: 10 (USB2E7196)
Boxcar Smoothing: 10 (USB2E7196)
Correct for Electrical Dark: No (USB2E7196)
Strobe/Lamp Enabled: No (USB2E7196)
Correct for Detector Non-linearity: No (USB2E7196)
Correct for Stray Light: No (USB2E7196)
Number of Pixels in Processed Spectrum: 2048
>>>>>Begin Processed Spectral Data<<<<<
339.09	0.00
339.48	212.40
339.86	215.60
340.24	214.30
340.63	218.40
341.01	233.20
341.39	219.40
341.78	222.00
342.16	224.40
342.54	224.30
342.93	212.97
343.31	223.68
343.69	224.33
344.07	224.73
344.46	225.35
344.84	225.76
345.22	225.38
345.60	225.70
345.99	225.90
346.37	225.97
346.75	226.00
347.13	226.09
347.52	226.10
347.90	226.50
348.28	226.60
348.66	226.80
349.05	226.49
349.43	226.58
349.81	226.72
350.19	226.70
350.57	226.67
350.96	226.83
351.34	226.95
351.72	226.88
352.10	226.97
352.48	226.90
352.87	226.90
353.25	226.93
353.63	227.02
354.01	227.09
354.39	227.21
354.77	227.32
355.15	227.66
355.54	227.63
355.92	227.43
356.30	227.59
356.68	228.27
357.06	228.33
357.44	228.22
357.82	228.25
358.20	229.19
358.58	229.30
358.97	229.28
359.35	229.52
359.73	229.83
360.11	229.90
360.49	230.03
360.87	230.10
361.25	230.31
361.63	230.60
362.01	230.75
362.39	230.73
362.77	230.82
363.15	230.78
363.53	230.87
363.91	230.94
364.29	230.93
364.67	230.04
365.05	230.11
365.43	230.26
365.81	230.46
366.19	230.15
366.57	230.46
366.95	230.52
367.33	230.30
367.71	230.26
368.09	230.45
368.47	230.38
368.85	230.35
369.23	230.49
369.61	230.15
369.99	230.33
370.37	230.40
370.75	230.89
371.13	230.58
371.51	230.43
371.89	230.47
372.27	230.59
372.65	230.70
373.03	230.75
373.41	230.73
373.78	230.60
374.16	230.08
374.54	229.82
374.92	229.67
375.30	229.68
375.68	229.47
376.06	229.41
376.44	229.40
376.82	229.43
377.19	229.45
377.57	229.41
377.95	229.10
378.33	229.07
378.71	228.36
379.09	228.56
379.47	228.68
379.84	228.53
380.22	228.29
380.60	228.01
380.98	227.85
381.36	227.82
381.73	227.70
382.11	227.82
382.49	227.78
382.87	227.67
383.25	227.61
383.62	228.60
384.00	228.46
384.38	228.42
384.76	228.57
385.13	228.80
385.51	228.80
385.89	228.77
386.27	228.73
386.64	229.03
387.02	228.84
387.40	228.71
387.78	228.75
388.15	228.80
388.53	228.71
388.91	228.70
389.29	228.50
389.66	228.50
390.04	228.46
390.42	228.68
390.79	228.77
391.17	228.67
391.55	227.71
391.92	227.61
392.30	227.74
392.68	227.50
393.05	227.38
393.43	227.43
393.81	227.42
394.18	227.27
394.56	227.26
394.94	227.56
395.31	227.57
395.69	227.86
396.06	228.08
396.44	228.25
396.82	228.20
397.19	228.87
397.57	228.81
397.95	228.98
398.32	228.67
398.70	228.80
399.07	229.19
399.45	229.19
399.82	229.29
400.20	229.25
400.58	229.38
400.95	229.03
401.33	229.36
401.70	230.16
402.08	230.34
402.45	230.43
402.83	230.83
403.20	231.05
403.58	231.11
403.95	231.44
404.33	231.80
404.71	232.11
405.08	232.86
405.46	233.26
405.83	233.51
406.21	233.99
406.58	234.46
406.96	234.86
407.33	235.48
407.70	236.10
408.08	237.42
408.45	238.13
408.83	239.02
409.20	239.47
409.58	239.55
409.95	240.49
410.33	241.35
410.70	241.84
411.08	242.78
411.45	243.80
411.82	244.53
412.20	245.84
412.57	247.58
412.95	247.92
413.32	249.48
413.69	250.88
414.07	252.42
414.44	254.00
414.82	255.58
415.19	257.56
415.56	259.61
415.94	261.20
416.31	263.51
416.68	265.78
417.06	268.54
417.43	271.35
417.81	274.25
418.18	277.24
418.55	280.51
418.93	283.92
419.30	287.35
419.67	291.30
420.04	294.99
420.42	298.79
420.79	304.23
421.16	308.82
421.54	314.29
421.91	319.33
422.28	324.72
422.66	330.44
423.03	336.52
423.40	342.22
423.77	348.39
424.15	354.70
424.52	361.44
424.89	368.82
425.26	375.77
425.64	382.60
426.01	390.07
426.38	397.78
426.75	405.88
427.13	414.18
427.50	422.71
427.87	431.69
428.24	440.49
428.61	448.40
428.99	458.00
429.36	467.70
429.73	477.70
430.10	487.65
430.47	497.86
430.85	507.89
431.22	519.27
431.59	531.64
431.96	543.10
432.33	555.67
432.70	567.64
433.08	582.10
433.45	595.51
433.82	608.93
434.19	624.18
434.56	639.18
434.93	653.30
435.30	667.43
435.68	683.33
436.05	698.73
436.42	714.40
436.79	728.80
437.16	744.36
437.53	761.05
437.90	777.52
438.27	793.90
438.64	810.77
439.01	826.41
439.38	840.14
439.75	853.67
440.13	869.03
440.50	883.82
440.87	895.70
441.24	908.18
441.61	922.18
441.98	932.51
442.35	944.26
442.72	956.25
443.09	968.36
443.46	975.51
443.83	981.10
444.20	985.82
444.57	992.05
444.94	995.13
445.31	998.33
445.68	1002.00
446.05	1003.55
446.42	1002.51
446.79	1001.35
447.16	999.61
447.53	998.62
447.90	993.24
448.27	987.51
448.64	979.50
449.01	973.99
449.37	963.43
449.74	952.96
450.11	941.13
450.48	927.58
450.85	913.35
451.22	901.49
451.59	889.95
451.96	878.86
452.33	864.17
452.70	851.26
453.07	835.60
453.43	819.01
453.80	803.66
454.17	789.01
454.54	774.80
454.91	759.86
455.28	745.29
455.65	731.52
456.02	719.09
456.38	707.39
456.75	692.95
457.12	680.92
457.49	669.41
457.86	657.52
458.23	648.19
458.59	637.53
458.96	626.92
459.33	617.54
459.70	608.06
460.07	600.68
460.43	591.74
460.80	583.49
461.17	576.66
461.54	569.21
461.91	561.87
462.27	554.64
462.64	548.34
463.01	541.73
463.38	535.54
463.74	528.00
464.11	522.49
464.48	517.59
464.85	512.28
465.21	508.28
465.58	504.06
465.95	498.67
466.32	494.50
466.68	490.19
467.05	486.06
467.42	481.94
467.78	477.40
468.15	473.60
468.52	470.82
468.88	466.41
469.25	462.79
469.62	460.25
469.98	457.22
470.35	454.47
470.72	451.58
471.08	448.26
471.45	445.63
471.82	443.19
472.18	440.40
472.55	438.41
472.92	435.80
473.28	433.44
473.65	431.45
474.02	429.42
474.38	427.79
474.75	426.26
475.11	424.47
475.48	423.19
475.85	421.79
476.21	420.38
476.58	419.39
476.94	418.47
477.31	417.49
477.67	416.53
478.04	415.77
478.41	415.16
478.77	415.65
479.14	415.02
479.50	414.58
479.87	414.44
480.23	414.13
480.60	413.75
480.96	413.56
481.33	413.94
481.69	414.14
482.06	414.29
482.42	414.37
482.79	414.58
483.15	414.97
483.52	415.73
483.88	416.14
484.25	416.79
484.61	417.60
484.98	418.10
485.34	419.25
485.71	420.38
486.07	421.77
486.44	422.16
486.80	423.58
487.17	424.92
487.53	426.79
487.90	428.53
488.26	430.81
488.62	433.12
488.99	434.64
489.35	436.53
489.72	438.71
490.08	441.20
490.44	443.66
490.81	446.30
491.17	448.75
491.54	451.63
491.90	454.60
492.26	457.55
492.63	460.75
492.99	463.85
493.36	467.24
493.72	470.48
494.08	473.84
494.45	477.72
494.81	481.87
495.17	485.47
495.54	489.65
495.90	493.52
496.26	497.58
496.63	502.32
496.99	506.65
497.35	511.25
497.72	515.64
498.08	520.47
498.44	525.40
498.80	530.69
499.17	535.50
499.53	540.39
499.89	545.73
500.26	550.82
500.62	556.00
500.98	561.51
501.34	566.84
501.71	572.62
502.07	577.72
502.43	582.87
502.79	588.11
503.16	593.48
503.52	599.01
503.88	604.43
504.24	609.81
504.60	615.74
504.97	621.45
505.33	627.20
505.69	633.28
506.05	638.68
506.41	644.01
506.78	649.75
507.14	655.29
507.50	660.73
507.86	666.65
508.22	672.15
508.59	677.34
508.95	682.96
509.31	688.73
509.67	694.18
510.03	699.30
510.39	704.70
510.75	709.69
511.12	714.55
511.48	719.63
511.84	724.26
512.20	728.74
512.56	733.46
512.92	738.15
513.28	742.57
513.64	747.10
514.00	751.75
514.37	756.14
514.73	760.58
515.09	764.75
515.45	768.64
515.81	772.64
516.17	776.59
516.53	780.27
516.89	783.53
517.25	787.25
517.61	791.49
517.97	795.32
518.33	799.04
518.69	802.93
519.05	806.49
519.41	810.38
519.77	814.60
520.13	818.10
520.49	821.37
520.85	827.36
521.21	831.16
521.57	834.31
521.93	837.42
522.29	840.72
522.65	843.39
523.01	846.24
523.37	848.78
523.73	851.94
524.09	854.53
524.45	857.22
524.81	859.97
525.17	862.46
525.53	864.99
525.89	867.35
526.25	869.63
526.61	871.73
526.97	874.26
527.33	876.60
527.68	879.74
528.04	882.42
528.40	882.13
528.76	884.63
529.12	887.13
529.48	889.92
529.84	892.40
530.20	895.60
530.56	898.63
530.91	901.78
531.27	904.30
531.63	907.67
531.99	910.56
532.35	913.57
532.71	916.39
533.07	919.82
533.42	924.13
533.78	927.45
534.14	931.17
534.50	934.10
534.86	937.40
535.21	939.80
535.57	943.38
535.93	946.37
536.29	949.72
536.65	953.19
537.00	956.12
537.36	959.35
537.72	962.26
538.08	965.41
538.44	968.73
538.79	972.08
539.15	974.84
539.51	978.22
539.87	981.50
540.22	984.35
540.58	986.99
540.94	988.96
541.29	991.61
541.65	994.10
542.01	997.19
542.37	999.65
542.72	1001.93
543.08	1004.13
543.44	1007.00
543.79	1008.81
544.15	1011.26
544.51	1014.35
544.87	1016.97
545.22	1019.49
545.58	1021.65
545.94	1023.72
546.29	1025.64
546.65	1028.06
547.01	1030.09
547.36	1031.98
547.72	1034.25
548.07	1036.40
548.43	1038.60
548.79	1041.00
549.14	1043.14
549.50	1045.50
549.86	1047.41
550.21	1049.80
550.57	1051.93
550.92	1053.63
551.28	1055.89
551.64	1058.12
551.99	1060.15
552.35	1061.93
552.70	1064.13
553.06	1066.54
553.41	1068.53
553.77	1071.38
554.13	1073.52
554.48	1075.89
554.84	1078.30
555.19	1080.58
555.55	1083.58
555.90	1085.35
556.26	1086.88
556.61	1088.24
556.97	1089.19
557.32	1090.89
557.68	1092.70
558.03	1094.37
558.39	1096.00
558.74	1097.73
559.10	1098.59
559.45	1099.80
559.81	1101.04
560.16	1101.93
560.52	1102.87
560.87	1104.41
561.23	1105.01
561.58	1106.96
561.94	1107.08
562.29	1107.37
562.64	1108.07
563.00	1107.68
563.35	1108.98
563.71	1110.18
564.06	1111.56
564.42	1112.72
564.77	1113.96
565.12	1115.03
565.48	1116.78
565.83	1117.95
566.19	1118.74
566.54	1119.68
566.89	1120.15
567.25	1121.33
567.60	1122.89
567.96	1124.73
568.31	1125.92
568.66	1126.80
569.02	1126.14
569.37	1127.03
569.72	1128.13
570.08	1128.47
570.43	1128.40
570.78	1128.07
571.14	1127.83
571.49	1127.37
571.84	1127.06
572.20	1126.48
572.55	1125.86
572.90	1124.15
573.26	1123.13
573.61	1122.21
573.96	1121.38
574.31	1120.09
574.67	1118.60
575.02	1116.57
575.37	1113.83
575.72	1111.29
576.08	1109.29
576.43	1107.64
576.78	1105.87
577.13	1103.67
577.49	1101.71
577.84	1100.63
578.19	1099.24
578.54	1097.85
578.90	1096.50
579.25	1095.16
579.60	1093.33
579.95	1091.39
580.30	1089.78
580.66	1087.93
581.01	1085.68
581.36	1083.31
581.71	1081.32
582.06	1079.50
582.42	1077.40
582.77	1075.37
583.12	1073.92
583.47	1071.97
583.82	1070.41
584.17	1068.30
584.53	1066.71
584.88	1064.44
585.23	1061.99
585.58	1058.89
585.93	1055.62
586.28	1053.11
586.63	1049.66
586.98	1046.44
587.34	1043.70
587.69	1040.68
588.04	1038.04
588.39	1035.66
588.74	1033.06
589.09	1031.00
589.44	1027.91
589.79	1025.08
590.14	1022.52
590.49	1019.36
590.84	1016.67
591.19	1013.91
591.54	1011.20
591.89	1007.53
592.25	1006.25
592.60	1003.51
592.95	1001.00
593.30	998.66
593.65	995.23
594.00	992.30
594.35	992.52
594.70	989.25
595.05	986.33
595.40	983.16
595.75	979.70
596.10	976.85
596.45	973.48
596.80	970.13
597.15	966.93
597.50	963.42
597.85	960.54
598.19	957.02
598.54	953.02
598.89	949.33
599.24	946.74
599.59	942.13
599.94	938.33
600.29	935.03
600.64	931.54
600.99	928.35
601.34	925.65
601.69	919.60
602.04	916.57
602.39	913.27
602.74	910.50
603.08	907.59
603.43	904.81
603.78	901.47
604.13	898.41
604.48	895.27
604.83	891.90
605.18	888.46
605.53	885.21
605.87	882.00
606.22	879.53
606.57	876.10
606.92	872.85
607.27	869.82
607.62	866.60
607.96	863.77
608.31	860.81
608.66	857.68
609.01	854.38
609.36	851.11
609.70	848.12
610.05	844.67
610.40	841.35
610.75	837.25
611.10	833.97
611.44	830.65
611.79	827.17
612.14	824.28
612.49	820.78
612.83	817.46
613.18	814.13
613.53	810.43
613.88	806.61
614.22	803.22
614.57	799.48
614.92	795.76
615.27	792.35
615.61	788.70
615.96	784.91
616.31	781.54
616.65	778.50
617.00	774.87
617.35	771.23
617.70	767.75
618.04	764.52
618.39	761.04
618.74	758.05
619.08	754.90
619.43	751.37
619.78	747.81
620.12	744.60
620.47	741.30
620.82	737.57
621.16	734.41
621.51	731.40
621.85	728.31
622.20	725.22
622.55	721.55
622.89	718.10
623.24	714.88
623.59	711.42
623.93	707.88
624.28	704.44
624.62	702.16
624.97	699.30
625.32	696.02
625.66	692.82
626.01	688.92
626.35	685.78
626.70	682.39
627.04	679.57
627.39	676.19
627.73	673.33
628.08	670.53
628.43	667.05
628.77	663.62
629.12	660.53
629.46	657.58
629.81	654.98
630.15	652.15
630.50	649.00
630.84	646.08
631.19	643.07
631.53	640.46
631.88	636.46
632.22	633.01
632.57	630.62
632.91	627.57
633.26	625.14
633.60	622.07
633.95	619.12
634.29	615.70
634.64	612.73
634.98	609.35
635.32	606.41
635.67	604.07
636.01	601.01
636.36	598.06
636.70	595.22
637.05	592.00
637.39	589.27
637.73	586.53
638.08	583.95
638.42	580.96
638.77	577.74
639.11	574.82
639.45	571.97
639.80	568.35
640.14	565.50
640.49	562.40
640.83	559.59
641.17	557.16
641.52	554.63
641.86	552.06
642.20	550.12
642.55	547.44
642.89	544.62
643.23	542.01
643.58	539.79
643.92	537.11
644.26	534.52
644.61	532.17
644.95	529.60
645.29	526.98
645.64	524.63
645.98	522.18
646.32	520.12
646.66	517.49
647.01	515.33
647.35	512.98
647.69	510.78
648.04	508.66
648.38	506.24
648.72	503.93
649.06	501.34
649.41	498.50
649.75	495.97
650.09	493.73
650.43	491.37
650.78	488.75
651.12	486.34
651.46	484.10
651.80	481.61
652.14	479.37
652.49	477.48
652.83	475.31
653.17	473.22
653.51	470.70
653.85	468.96
654.20	467.02
654.54	465.06
654.88	462.86
655.22	461.05
655.56	458.91
655.90	456.89
656.25	455.01
656.59	453.10
656.93	451.07
657.27	449.32
657.61	447.15
657.95	445.32
658.29	443.35
658.64	441.37
658.98	439.43
659.32	437.42
659.66	435.31
660.00	433.42
660.34	431.59
660.68	429.64
661.02	427.42
661.36	425.24
661.70	423.20
662.05	421.18
662.39	419.21
662.73	417.82
663.07	416.54
663.41	414.80
663.75	412.93
664.09	411.31
664.43	409.31
664.77	407.83
665.11	406.03
665.45	404.53
665.79	402.99
666.13	401.28
666.47	399.63
666.81	397.80
667.15	395.92
667.49	394.49
667.83	393.40
668.17	392.13
668.51	390.71
668.85	389.54
669.19	388.86
669.53	387.07
669.87	385.40
670.21	383.56
670.55	382.24
670.89	381.33
671.23	380.01
671.57	378.71
671.91	377.36
672.25	375.97
672.58	374.80
672.92	373.14
673.26	371.87
673.60	370.68
673.94	369.37
674.28	368.34
674.62	367.18
674.96	365.55
675.30	364.24
675.64	363.04
675.97	361.48
676.31	359.75
676.65	358.45
676.99	357.30
677.33	356.03
677.67	354.79
678.01	353.00
678.34	351.73
678.68	350.69
679.02	349.37
679.36	348.12
679.70	346.82
680.04	345.86
680.37	344.66
680.71	343.41
681.05	342.50
681.39	341.42
681.73	340.10
682.06	339.08
682.40	338.10
682.74	337.23
683.08	336.59
683.42	335.46
683.75	334.79
684.09	333.70
684.43	332.74
684.77	331.58
685.10	330.66
685.44	329.75
685.78	328.55
686.12	327.65
686.45	326.87
686.79	325.90
687.13	325.07
687.46	324.06
687.80	323.43
688.14	322.29
688.48	321.38
688.81	320.56
689.15	319.83
689.49	318.68
689.82	317.75
690.16	316.56
690.50	315.72
690.83	314.74
691.17	313.65
691.51	312.83
691.84	312.19
692.18	311.34
692.52	310.45
692.85	309.72
693.19	309.28
693.52	308.43
693.86	307.38
694.20	306.50
694.53	305.83
694.87	304.88
695.21	304.06
695.54	303.20
695.88	302.14
696.21	301.11
696.55	300.41
696.88	299.55
697.22	298.62
697.56	297.94
697.89	297.09
698.23	296.55
698.56	295.72
698.90	295.15
699.23	294.43
699.57	293.84
699.90	293.06
700.24	292.20
700.58	291.59
700.91	291.21
701.25	291.41
701.58	291.46
701.92	291.07
702.25	290.60
702.59	289.98
702.92	289.69
703.26	289.32
703.59	288.84
703.93	289.03
704.26	288.59
704.60	288.15
704.93	287.50
705.26	286.89
705.60	286.51
705.93	285.68
706.27	285.44
706.60	285.05
706.94	284.85
707.27	284.20
707.61	283.76
707.94	283.19
708.27	281.77
708.61	280.59
708.94	279.92
709.28	279.34
709.61	278.66
709.94	278.09
710.28	277.49
710.61	276.96
710.95	275.68
711.28	275.83
711.61	275.14
711.95	274.93
712.28	274.26
712.61	273.75
712.95	273.80
713.28	273.66
713.61	273.04
713.95	272.39
714.28	272.01
714.61	271.45
714.95	270.88
715.28	270.30
715.61	269.84
715.95	269.37
716.28	268.80
716.61	268.63
716.95	267.98
717.28	267.44
717.61	266.92
717.94	266.43
718.28	265.31
718.61	264.86
718.94	264.33
719.27	263.97
719.61	263.55
719.94	262.74
720.27	261.88
720.60	261.40
720.94	260.98
721.27	260.56
721.60	260.36
721.93	260.04
722.27	260.15
722.60	259.89
722.93	259.52
723.26	259.43
723.59	258.92
723.93	258.80
724.26	258.67
724.59	258.33
724.92	258.11
725.25	258.17
725.59	257.83
725.92	257.69
726.25	257.55
726.58	257.34
726.91	257.21
727.24	257.01
727.57	256.75
727.91	256.30
728.24	256.12
728.57	255.62
728.90	255.47
729.23	254.90
729.56	255.00
729.89	254.68
730.22	254.29
730.55	254.11
730.89	253.79
731.22	253.38
731.55	253.26
731.88	253.13
732.21	252.59
732.54	252.35
732.87	252.08
733.20	251.80
733.53	251.64
733.86	251.40
734.19	251.06
734.52	251.02
734.85	251.54
735.18	251.28
735.51	251.49
735.84	251.35
736.17	251.42
736.50	250.83
736.83	251.88
737.16	251.73
737.49	251.60
737.82	251.37
738.15	251.36
738.48	251.06
738.81	250.79
739.14	250.52
739.47	250.43
739.80	250.19
740.13	250.17
740.46	249.82
740.79	249.53
741.12	249.38
741.45	249.05
741.78	248.42
742.11	248.54
742.44	248.04
742.77	248.00
743.10	247.71
743.43	247.45
743.75	246.20
744.08	247.27
744.41	246.97
744.74	246.82
745.07	246.43
745.40	246.42
745.73	246.59
746.06	246.55
746.39	246.39
746.71	246.18
747.04	245.68
747.37	245.45
747.70	245.41
748.03	245.38
748.36	245.35
748.68	245.03
749.01	244.51
749.34	244.37
749.67	244.09
750.00	244.00
750.33	244.53
750.65	244.40
750.98	242.99
751.31	242.91
751.64	242.73
751.97	243.15
752.29	242.92
752.62	242.36
752.95	242.12
753.28	241.90
753.60	241.67
753.93	241.96
754.26	241.85
754.59	241.45
754.91	240.98
755.24	240.72
755.57	240.62
755.90	240.46
756.22	240.30
756.55	240.00
756.88	239.75
757.20	239.06
757.53	238.66
757.86	238.60
758.19	238.47
758.51	238.31
758.84	237.60
759.17	237.40
759.49	237.37
759.82	237.67
760.15	237.52
760.47	237.44
760.80	236.95
761.13	237.00
761.45	236.85
761.78	236.84
762.11	236.67
762.43	236.43
762.76	236.31
763.08	236.29
763.41	236.39
763.74	236.13
764.06	235.90
764.39	235.83
764.71	235.60
765.04	235.30
765.37	235.16
765.69	235.20
766.02	235.03
766.34	234.82
766.67	234.33
767.00	234.55
767.32	235.05
767.65	235.49
767.97	235.21
768.30	235.23
768.62	235.18
768.95	235.00
769.27	234.95
769.60	235.04
769.92	234.82
770.25	234.55
770.57	234.41
770.90	234.34
771.22	234.23
771.55	234.27
771.87	234.30
772.20	234.20
772.52	234.90
772.85	236.05
773.17	236.00
773.50	235.88
773.82	235.68
774.15	235.04
774.47	234.50
774.80	234.40
775.12	234.31
775.45	234.26
775.77	234.33
776.09	234.44
776.42	234.35
776.74	234.53
777.07	234.40
777.39	234.45
777.72	234.33
778.04	234.47
778.36	234.39
778.69	234.51
779.01	234.58
779.33	233.76
779.66	232.60
779.98	232.61
780.31	232.81
780.63	233.09
780.95	233.17
781.28	233.11
781.60	233.03
781.92	233.02
782.25	233.06
782.57	233.10
782.89	232.97
783.22	232.90
783.54	232.73
783.86	232.82
784.19	232.81
784.51	233.22
784.83	232.96
785.16	232.93
785.48	232.85
785.80	232.82
786.12	232.85
786.45	232.86
786.77	232.97
787.09	232.72
787.42	232.43
787.74	232.54
788.06	232.53
788.38	232.57
788.71	232.42
789.03	232.40
789.35	232.40
789.67	232.30
789.99	232.38
790.32	232.30
790.64	232.41
790.96	233.06
791.28	232.59
791.61	232.65
791.93	232.69
792.25	232.60
792.57	233.35
792.89	233.08
793.21	233.18
793.54	233.03
793.86	232.92
794.18	232.95
794.50	232.71
794.82	232.82
795.14	232.88
795.47	233.16
795.79	233.13
796.11	232.93
796.43	232.92
796.75	232.81
797.07	232.79
797.39	232.76
797.71	232.12
798.04	232.25
798.36	232.28
798.68	232.24
799.00	232.27
799.32	231.75
799.64	232.00
799.96	231.93
800.28	232.06
800.60	232.04
800.92	232.17
801.24	232.15
801.56	232.13
801.89	232.08
802.21	232.05
802.53	231.91
802.85	232.11
803.17	232.45
803.49	232.31
803.81	232.29
804.13	232.07
804.45	231.93
804.77	232.01
805.09	231.93
805.41	231.79
805.73	231.68
806.05	231.38
806.37	231.19
806.69	231.06
807.01	231.08
807.33	231.14
807.65	230.72
807.97	231.04
808.28	230.94
808.60	230.95
808.92	230.72
809.24	231.37
809.56	231.22
809.88	230.90
810.20	230.94
810.52	230.98
810.84	230.89
811.16	230.85
811.48	230.73
811.80	231.17
812.12	231.05
812.43	231.09
812.75	231.17
813.07	231.20
813.39	231.34
813.71	231.03
814.03	230.92
814.35	230.94
814.67	230.63
814.98	230.44
815.30	230.32
815.62	230.24
815.94	229.51
816.26	229.87
816.58	229.66
816.89	229.73
817.21	229.65
817.53	229.74
817.85	229.78
818.17	229.72
818.48	229.30
818.80	229.60
819.12	229.60
819.44	229.41
819.76	229.26
820.07	229.14
820.39	229.17
820.71	229.23
821.03	229.27
821.34	229.17
821.66	229.31
821.98	229.47
822.30	229.43
822.61	230.03
822.93	229.55
823.25	229.48
823.57	229.36
823.88	229.41
824.20	229.37
824.52	229.46
824.83	229.42
825.15	229.26
825.47	229.04
825.79	229.08
826.10	229.00
826.42	229.02
826.74	229.13
827.05	229.15
827.37	229.22
827.69	229.09
828.00	229.17
828.32	229.19
828.64	228.97
828.95	229.49
829.27	229.15
829.58	229.20
829.90	229.50
830.22	229.57
830.53	229.38
830.85	229.26
831.17	229.04
831.48	229.06
831.80	229.09
832.11	229.10
832.43	228.94
832.75	228.88
833.06	229.46
833.38	229.13
833.69	229.14
834.01	229.14
834.32	229.25
834.64	229.16
834.96	229.17
835.27	229.22
835.59	228.97
835.90	228.80
836.22	228.80
836.53	228.47
836.85	228.35
837.16	229.39
837.48	229.37
837.79	229.68
838.11	229.70
838.42	229.72
838.74	229.91
839.05	229.73
839.37	229.90
839.68	229.24
840.00	229.25
840.31	229.25
840.63	229.20
840.94	228.96
841.26	228.79
841.57	228.82
841.88	228.85
842.20	228.59
842.51	228.49
842.83	228.46
843.14	229.35
843.46	229.37
843.77	228.64
844.08	228.64
844.40	228.37
844.71	228.24
845.03	228.20
845.34	228.07
845.65	228.12
845.97	227.99
846.28	228.10
846.60	228.13
846.91	227.97
847.22	227.80
847.54	228.03
847.85	228.10
848.16	227.92
848.48	227.84
848.79	228.25
849.10	228.40
849.42	228.37
849.73	227.57
850.04	227.48
850.36	227.21
850.67	227.48
850.98	227.46
851.30	227.53
851.61	227.45
851.92	227.45
852.23	227.78
852.55	227.83
852.86	227.76
853.17	227.95
853.49	228.19
853.80	228.44
854.11	228.58
854.42	228.70
854.74	228.67
855.05	228.60
855.36	228.10
855.67	228.13
855.99	228.16
856.30	229.20
856.61	229.16
856.92	229.24
857.23	229.08
857.55	228.94
857.86	228.86
858.17	229.09
858.48	228.99
858.79	228.78
859.11	228.86
859.42	228.85
859.73	228.56
860.04	228.45
860.35	228.11
860.66	227.79
860.98	227.75
861.29	227.83
861.60	227.80
861.91	228.06
862.22	227.84
862.53	227.75
862.84	226.70
863.16	227.00
863.47	226.73
863.78	226.76
864.09	226.98
864.40	227.07
864.71	226.97
865.02	227.06
865.33	227.00
865.64	226.81
865.95	226.88
866.27	227.61
866.58	227.60
866.89	227.74
867.20	227.83
867.51	227.70
867.82	227.72
868.13	228.08
868.44	227.88
868.75	228.12
869.06	228.17
869.37	228.20
869.68	227.85
869.99	228.16
870.30	228.22
870.61	228.25
870.92	228.14
871.23	228.11
871.54	228.12
871.85	228.39
872.16	228.59
872.47	228.50
872.78	227.99
873.09	228.15
873.40	228.09
873.71	228.11
874.02	228.19
874.33	228.09
874.64	227.95
874.95	228.11
875.26	227.95
875.56	227.99
875.87	227.99
876.18	228.10
876.49	229.14
876.80	228.99
877.11	228.78
877.42	228.77
877.73	228.77
878.04	228.81
878.35	228.74
878.66	228.70
878.96	228.75
879.27	228.62
879.58	228.49
879.89	228.43
880.20	228.65
880.51	228.64
880.82	228.63
881.12	228.55
881.43	228.40
881.74	228.20
882.05	228.03
882.36	228.00
882.67	228.04
882.97	226.98
883.28	226.94
883.59	227.03
883.90	227.18
884.21	227.31
884.51	227.21
884.82	227.08
885.13	227.07
885.44	227.12
885.74	227.18
886.05	227.14
886.36	227.25
886.67	226.95
886.98	227.43
887.28	227.53
887.59	227.53
887.90	227.53
888.20	227.65
888.51	227.88
888.82	227.85
889.13	227.92
889.43	228.59
889.74	228.59
890.05	228.65
890.35	228.59
890.66	228.48
890.97	228.41
891.28	228.37
891.58	228.40
891.89	228.36
892.20	228.20
892.50	228.12
892.81	228.07
893.12	227.99
893.42	227.52
893.73	227.53
894.04	227.54
894.34	227.52
894.65	227.49
894.95	227.42
895.26	227.46
895.57	227.83
895.87	226.98
896.18	227.10
896.48	227.10
896.79	227.02
897.10	227.12
897.40	227.21
897.71	227.25
898.01	227.23
898.32	227.30
898.63	227.36
898.93	227.42
899.24	227.45
899.54	227.59
899.85	227.54
900.15	227.45
900.46	227.47
900.76	227.61
901.07	227.60
901.38	227.61
901.68	227.65
901.99	227.18
902.29	227.34
902.60	227.26
902.90	227.15
903.21	227.13
903.51	227.03
903.82	227.16
904.12	227.15
904.43	227.11
904.73	227.18
905.03	227.24
905.34	228.15
905.64	228.12
905.95	228.14
906.25	228.18
906.56	228.19
906.86	228.25
907.17	228.11
907.47	228.24
907.77	228.10
908.08	227.91
908.38	227.95
908.69	227.85
908.99	227.92
909.30	228.00
909.60	228.03
909.90	228.12
910.21	227.81
910.51	227.77
910.81	227.79
911.12	227.74
911.42	227.68
911.73	226.71
912.03	226.80
912.33	226.89
912.64	226.80
912.94	226.75
913.24	226.53
913.55	226.55
913.85	226.44
914.15	226.70
914.46	226.85
914.76	226.86
915.06	226.92
915.37	226.84
915.67	226.81
915.97	226.85
916.27	226.63
916.58	226.78
916.88	226.68
917.18	226.61
917.49	227.23
917.79	227.17
918.09	227.30
918.39	227.42
918.70	227.30
919.00	227.37
919.30	227.80
919.60	227.83
919.91	227.67
920.21	227.68
920.51	227.43
920.81	227.45
921.12	227.59
921.42	227.40
921.72	227.58
922.02	227.56
922.32	227.67
922.63	227.80
922.93	228.23
923.23	228.38
923.53	228.29
923.83	227.66
924.13	227.88
924.44	227.87
924.74	228.07
925.04	228.33
925.34	228.29
925.64	227.88
925.94	227.85
926.24	228.47
926.55	228.28
926.85	228.44
927.15	228.40
927.45	228.38
927.75	228.50
928.05	228.50
928.35	228.50
928.65	228.66
928.95	228.70
929.26	228.28
929.56	228.45
929.86	228.57
930.16	228.49
930.46	228.31
930.76	228.45
931.06	228.02
931.36	227.72
931.66	227.87
931.96	228.04
932.26	228.08
932.56	227.67
932.86	227.84
933.16	227.85
933.46	227.71
933.76	227.57
934.06	227.90
934.36	228.10
934.66	228.10
934.96	227.96
935.26	227.98
935.56	228.17
935.86	227.86
936.16	227.79
936.46	227.68
936.76	227.73
937.06	227.55
937.36	227.61
937.66	227.65
937.96	227.64
938.26	227.42
938.56	227.35
938.86	227.42
939.16	227.65
939.46	227.70
939.76	227.92
940.06	227.99
940.35	227.69
940.65	227.31
940.95	227.37
941.25	227.11
941.55	226.98
941.85	226.86
942.15	227.15
942.45	227.50
942.75	227.60
943.04	227.73
943.34	227.91
943.64	227.84
943.94	227.80
944.24	227.86
944.54	227.98
944.84	227.94
945.13	227.80
945.43	227.64
945.73	227.45
946.03	227.38
946.33	227.19
946.62	227.08
946.92	227.05
947.22	227.13
947.52	227.26
947.82	227.43
948.11	227.40
948.41	227.22
948.71	226.90
949.01	226.85
949.31	226.76
949.60	226.70
949.90	226.85
950.20	226.82
950.50	226.76
950.79	226.53
951.09	226.70
951.39	226.68
951.69	226.57
951.98	226.96
952.28	226.87
952.58	226.90
952.87	226.96
953.17	227.06
953.47	226.88
953.76	226.84
954.06	226.60
954.36	226.44
954.66	226.42
954.95	226.68
955.25	226.84
955.55	226.91
955.84	226.76
956.14	226.85
956.44	226.97
956.73	226.80
957.03	227.01
957.32	226.95
957.62	226.98
957.92	227.27
958.21	227.08
958.51	228.12
958.81	228.26
959.10	228.34
959.40	228.53
959.69	228.59
959.99	228.83
960.29	228.90
960.58	228.96
960.88	229.20
961.17	229.06
961.47	229.07
961.76	228.90
962.06	229.14
962.36	228.91
962.65	228.97
962.95	228.99
963.24	228.81
963.54	228.80
963.83	228.94
964.13	228.77
964.42	228.53
964.72	227.79
965.01	227.76
965.31	227.70
965.60	227.47
965.90	227.98
966.19	227.71
966.49	227.75
966.78	227.77
967.08	227.79
967.37	227.83
967.67	227.68
967.96	227.84
968.26	227.75
968.55	227.91
968.85	227.78
969.14	227.84
969.43	227.90
969.73	227.94
970.02	227.75
970.32	227.68
970.61	227.69
970.91	227.50
971.20	227.30
971.49	227.27
971.79	227.42
972.08	226.87
972.38	226.97
972.67	226.93
972.96	227.05
973.26	226.74
973.55	226.97
973.85	226.91
974.14	226.83
974.43	226.85
974.73	226.65
975.02	226.64
975.31	226.65
975.61	226.71
975.90	226.65
976.19	226.60
976.49	226.75
976.78	226.73
977.07	226.72
977.37	226.96
977.66	227.04
977.95	226.85
978.24	226.89
978.54	227.16
978.83	227.09
979.12	226.90
979.42	227.01
979.71	226.79
980.00	226.85
980.29	226.93
980.59	226.77
980.88	227.05
981.17	227.00
981.46	226.98
981.76	226.90
982.05	227.14
982.34	227.22
982.63	227.20
982.93	227.29
983.22	227.58
983.51	227.51
983.80	227.68
984.09	227.76
984.39	227.75
984.68	227.50
984.97	227.52
985.26	227.47
985.55	227.54
985.85	227.30
986.14	227.45
986.43	227.55
986.72	227.50
987.01	227.20
987.30	227.19
987.59	227.12
987.89	227.23
988.18	226.95
988.47	226.90
988.76	226.86
989.05	226.70
989.34	226.55
989.63	226.78
989.92	226.60
990.22	226.62
990.51	226.59
990.80	226.40
991.09	226.53
991.38	226.65
991.67	226.47
991.96	226.47
992.25	226.44
992.54	226.18
992.83	226.18
993.12	226.26
993.41	226.34
993.70	226.70
993.99	226.77
994.28	227.00
994.58	227.14
994.87	226.96
995.16	227.08
995.45	226.88
995.74	226.49
996.03	226.60
996.32	226.71
996.61	226.89
996.90	226.97
997.19	226.84
997.48	226.87
997.77	226.79
998.06	226.80
998.34	226.71
998.63	226.78
998.92	226.78
999.21	226.81
999.50	226.91
999.79	226.65
1000.08	226.54
1000.37	226.41
1000.66	226.29
1000.95	226.60
1001.24	226.60
1001.53	226.77
1001.82	226.78
1002.11	226.50
1002.40	226.50
1002.68	226.70
1002.97	227.41
1003.26	227.39
1003.55	227.27
1003.84	227.41
1004.13	227.81
1004.42	227.75
1004.71	227.67
1004.99	227.60
1005.28	227.87
1005.57	227.73
1005.86	227.55
1006.15	227.49
1006.44	227.41
1006.72	227.47
1007.01	227.23
1007.30	227.24
1007.59	227.10
1007.88	227.01
1008.17	227.10
1008.45	226.82
1008.74	226.44
1009.03	225.95
1009.32	225.98
1009.60	225.88
1009.89	225.79
1010.18	225.31
1010.47	225.28
1010.76	225.27
1011.04	225.34
1011.33	225.33
1011.62	225.41
1011.91	225.49
1012.19	225.60
1012.48	225.58
1012.77	225.59
1013.05	226.07
1013.34	226.02
1013.63	225.94
1013.92	226.13
1014.20	226.13
1014.49	226.31
1014.78	226.38
1015.06	226.10
1015.35	226.00
1015.64	226.23
1015.92	226.39
1016.21	226.50
1016.50	226.56
1016.78	226.76
1017.07	226.95
1017.36	226.73
1017.64	226.64
1017.93	226.70
1018.22	226.67
1018.50	226.64
1018.79	226.63
1019.08	226.21
1019.36	226.30
1019.65	226.24
1019.93	226.54
1020.22	226.66
1020.51	227.12
1020.79	227.01
1021.08	226.90
1021.36	223.30
1021.65	227.30
1021.94	226.60
1022.22	227.00
1022.51	223.20
1022.79	231.80
1023.08	227.80
1023.36	237.90
1023.65	224.50
>>>>>End Processed Spectral Data<<<<<
