SpectraSuite Data File
++++++++++++++++++++++++++++++++++++
Date: Wed Sep 04 17:31:58 EDT 2013
User: lab3
Dark Spectrum Present: Yes
Reference Spectrum Present: No
Number of Sampled Component Spectra: 1
Spectrometers: USB2E7196
Integration Time (usec): 337000 (USB2E7196)
Spectra Averaged: 10 (USB2E7196)
Boxcar Smoothing: 10 (USB2E7196)
Correct for Electrical Dark: No (USB2E7196)
Strobe/Lamp Enabled: No (USB2E7196)
Correct for Detector Non-linearity: No (USB2E7196)
Correct for Stray Light: No (USB2E7196)
Number of Pixels in Processed Spectrum: 2048
>>>>>Begin Processed Spectral Data<<<<<
339.09	0.00
339.48	212.20
339.86	214.40
340.24	215.10
340.63	218.00
341.01	233.40
341.39	218.80
341.78	224.10
342.16	226.20
342.54	221.40
342.93	213.04
343.31	223.77
343.69	224.35
344.07	224.81
344.46	225.43
344.84	225.82
345.22	225.36
345.60	225.70
345.99	225.80
346.37	225.87
346.75	226.02
347.13	226.13
347.52	226.16
347.90	226.44
348.28	226.51
348.66	226.81
349.05	226.48
349.43	226.65
349.81	226.65
350.19	226.60
350.57	226.68
350.96	226.77
351.34	226.95
351.72	227.14
352.10	227.28
352.48	227.16
352.87	227.07
353.25	227.16
353.63	227.20
354.01	227.20
354.39	227.27
354.77	227.38
355.15	227.68
355.54	227.68
355.92	227.52
356.30	227.53
356.68	228.10
357.06	228.29
357.44	228.22
357.82	228.24
358.20	229.15
358.58	229.30
358.97	229.50
359.35	229.81
359.73	229.88
360.11	229.82
360.49	229.89
360.87	229.94
361.25	230.06
361.63	230.38
362.01	230.59
362.39	230.49
362.77	230.61
363.15	230.59
363.53	230.57
363.91	230.56
364.29	230.57
364.67	229.70
365.05	229.69
365.43	229.71
365.81	230.03
366.19	229.73
366.57	230.11
366.95	229.92
367.33	229.51
367.71	229.55
368.09	229.84
368.47	229.89
368.85	230.01
369.23	230.26
369.61	229.97
369.99	230.18
370.37	230.42
370.75	230.89
371.13	230.78
371.51	230.75
371.89	230.82
372.27	230.88
372.65	230.92
373.03	230.89
373.41	230.90
373.78	230.61
374.16	230.11
374.54	229.70
374.92	229.60
375.30	229.67
375.68	229.46
376.06	229.32
376.44	229.17
376.82	229.12
377.19	228.98
377.57	228.93
377.95	228.63
378.33	228.36
378.71	227.68
379.09	227.63
379.47	227.69
379.84	227.59
380.22	227.43
380.60	227.28
380.98	227.15
381.36	226.97
381.73	226.86
382.11	226.87
382.49	226.84
382.87	226.77
383.25	226.66
383.62	227.76
384.00	227.53
384.38	227.59
384.76	227.70
385.13	227.98
385.51	227.88
385.89	227.65
386.27	227.65
386.64	227.77
387.02	227.60
387.40	227.49
387.78	227.56
388.15	227.58
388.53	227.54
388.91	227.48
389.29	227.44
389.66	227.57
390.04	227.43
390.42	227.61
390.79	227.64
391.17	227.56
391.55	226.41
391.92	226.55
392.30	226.60
392.68	226.45
393.05	226.41
393.43	226.44
393.81	226.53
394.18	226.41
394.56	226.41
394.94	226.74
395.31	226.63
395.69	226.83
396.06	226.99
396.44	227.15
396.82	227.14
397.19	227.72
397.57	227.70
397.95	227.89
398.32	227.63
398.70	227.78
399.07	228.07
399.45	228.08
399.82	228.05
400.20	228.03
400.58	228.04
400.95	227.72
401.33	227.98
401.70	228.75
402.08	228.94
402.45	229.12
402.83	229.47
403.20	229.70
403.58	229.73
403.95	230.03
404.33	230.37
404.71	230.80
405.08	231.54
405.46	231.81
405.83	232.10
406.21	232.43
406.58	232.78
406.96	233.12
407.33	233.66
407.70	234.19
408.08	235.50
408.45	236.22
408.83	236.88
409.20	237.37
409.58	237.40
409.95	238.15
410.33	238.74
410.70	239.14
411.08	240.11
411.45	240.86
411.82	241.57
412.20	242.57
412.57	243.94
412.95	244.01
413.32	245.13
413.69	246.23
414.07	247.48
414.44	248.70
414.82	249.97
415.19	251.40
415.56	252.93
415.94	253.98
416.31	255.80
416.68	257.69
417.06	259.90
417.43	262.08
417.81	264.50
418.18	267.01
418.55	269.55
418.93	272.12
419.30	274.99
419.67	277.87
420.04	280.66
420.42	283.61
420.79	287.91
421.16	291.53
421.54	295.77
421.91	299.78
422.28	303.85
422.66	308.36
423.03	313.28
423.40	317.70
423.77	322.26
424.15	326.95
424.52	332.10
424.89	337.66
425.26	342.92
425.64	347.86
426.01	353.39
426.38	359.21
426.75	365.33
427.13	371.31
427.50	377.68
427.87	384.39
428.24	390.98
428.61	396.84
428.99	404.26
429.36	411.26
429.73	418.64
430.10	426.25
430.47	433.93
430.85	441.30
431.22	449.62
431.59	459.23
431.96	467.74
432.33	477.20
432.70	486.09
433.08	496.69
433.45	506.60
433.82	516.61
434.19	527.76
434.56	538.83
434.93	549.41
435.30	560.09
435.68	571.89
436.05	583.30
436.42	594.71
436.79	605.18
437.16	616.88
437.53	628.89
437.90	640.89
438.27	652.71
438.64	665.15
439.01	676.75
439.38	686.49
439.75	696.43
440.13	707.65
440.50	718.33
440.87	727.05
441.24	736.24
441.61	746.10
441.98	753.54
442.35	761.77
442.72	770.44
443.09	779.12
443.46	783.92
443.83	787.77
444.20	791.10
444.57	795.49
444.94	797.48
445.31	799.76
445.68	802.55
446.05	803.56
446.42	802.10
446.79	800.68
447.16	799.04
447.53	797.89
447.90	793.20
448.27	788.49
448.64	782.19
449.01	777.76
449.37	769.94
449.74	761.98
450.11	753.26
450.48	743.00
450.85	732.00
451.22	723.19
451.59	714.54
451.96	706.00
452.33	694.77
452.70	684.90
453.07	673.22
453.43	660.44
453.80	648.90
454.17	638.20
454.54	627.83
454.91	616.83
455.28	606.09
455.65	596.04
456.02	587.39
456.38	578.97
456.75	568.32
457.12	559.33
457.49	550.81
457.86	541.98
458.23	535.14
458.59	527.35
458.96	519.60
459.33	512.29
459.70	505.43
460.07	499.97
460.43	493.75
460.80	487.81
461.17	482.95
461.54	477.50
461.91	472.33
462.27	466.95
462.64	462.24
463.01	457.30
463.38	452.78
463.74	446.74
464.11	442.52
464.48	439.01
464.85	435.12
465.21	432.24
465.58	429.01
465.95	424.94
466.32	422.09
466.68	418.77
467.05	415.93
467.42	412.93
467.78	409.62
468.15	406.40
468.52	404.24
468.88	400.94
469.25	398.12
469.62	396.06
469.98	393.73
470.35	391.69
470.72	389.52
471.08	387.01
471.45	385.36
471.82	383.46
472.18	381.13
472.55	379.60
472.92	377.62
473.28	376.08
473.65	374.37
474.02	372.67
474.38	371.47
474.75	370.25
475.11	368.94
475.48	368.06
475.85	367.17
476.21	366.12
476.58	365.39
476.94	364.78
477.31	363.85
477.67	363.14
478.04	362.42
478.41	362.02
478.77	362.57
479.14	361.77
479.50	361.48
479.87	361.42
480.23	361.23
480.60	360.80
480.96	360.43
481.33	360.81
481.69	360.80
482.06	360.72
482.42	360.80
482.79	360.81
483.15	360.97
483.52	361.30
483.88	361.33
484.25	361.56
484.61	361.82
484.98	362.08
485.34	363.00
485.71	363.69
486.07	364.28
486.44	364.06
486.80	364.82
487.17	365.34
487.53	366.54
487.90	367.63
488.26	369.16
488.62	370.42
488.99	371.13
489.35	372.38
489.72	373.63
490.08	374.90
490.44	376.20
490.81	377.80
491.17	379.34
491.54	381.13
491.90	382.87
492.26	384.64
492.63	386.66
492.99	388.39
493.36	390.43
493.72	392.62
494.08	394.82
494.45	397.34
494.81	400.16
495.17	402.31
495.54	404.84
495.90	407.16
496.26	409.83
496.63	412.83
496.99	415.78
497.35	418.76
497.72	421.75
498.08	424.77
498.44	427.69
498.80	430.88
499.17	434.14
499.53	437.44
499.89	441.02
500.26	444.49
500.62	447.76
500.98	451.46
501.34	455.06
501.71	458.77
502.07	462.10
502.43	465.55
502.79	469.25
503.16	472.91
503.52	476.79
503.88	480.33
504.24	484.15
504.60	488.09
504.97	492.18
505.33	496.18
505.69	500.94
506.05	505.26
506.41	509.31
506.78	513.16
507.14	517.34
507.50	521.50
507.86	525.62
508.22	530.12
508.59	534.17
508.95	538.53
509.31	543.11
509.67	547.63
510.03	551.99
510.39	556.37
510.75	560.70
511.12	564.82
511.48	569.40
511.84	573.78
512.20	577.81
512.56	582.00
512.92	586.59
513.28	590.44
513.64	594.73
514.00	599.02
514.37	603.61
514.73	608.16
515.09	612.67
515.45	617.10
515.81	621.29
516.17	625.72
516.53	630.09
516.89	634.35
517.25	638.96
517.61	643.81
517.97	648.54
518.33	653.39
518.69	658.67
519.05	663.94
519.41	668.96
519.77	674.69
520.13	679.81
520.49	684.54
520.85	692.52
521.21	698.13
521.57	703.49
521.93	708.44
522.29	713.58
522.65	718.33
523.01	723.42
523.37	728.42
523.73	733.80
524.09	738.93
524.45	744.16
524.81	749.23
525.17	754.36
525.53	759.80
525.89	764.82
526.25	770.01
526.61	774.69
526.97	779.99
527.33	785.10
527.68	791.77
528.04	797.95
528.40	800.90
528.76	806.48
529.12	812.56
529.48	819.06
529.84	824.92
530.20	831.41
530.56	837.89
530.91	844.59
531.27	850.77
531.63	857.46
531.99	863.81
532.35	870.41
532.71	877.15
533.07	883.87
533.42	891.87
533.78	898.61
534.14	906.20
534.50	913.25
534.86	920.72
535.21	926.16
535.57	932.94
535.93	939.49
536.29	946.70
536.65	953.64
537.00	960.14
537.36	966.95
537.72	973.79
538.08	980.57
538.44	987.10
538.79	994.53
539.15	1001.04
539.51	1008.13
539.87	1015.10
540.22	1021.52
540.58	1027.85
540.94	1032.83
541.29	1038.66
541.65	1044.31
542.01	1050.51
542.37	1055.64
542.72	1061.53
543.08	1066.64
543.44	1072.55
543.79	1077.52
544.15	1082.95
544.51	1088.85
544.87	1094.48
545.22	1099.46
545.58	1104.64
545.94	1109.62
546.29	1113.72
546.65	1118.34
547.01	1122.73
547.36	1126.87
547.72	1131.03
548.07	1135.44
548.43	1140.07
548.79	1144.66
549.14	1148.68
549.50	1153.03
549.86	1157.46
550.21	1162.13
550.57	1166.70
550.92	1170.44
551.28	1174.25
551.64	1178.00
551.99	1181.68
552.35	1185.25
552.70	1188.98
553.06	1192.77
553.41	1196.83
553.77	1201.38
554.13	1205.19
554.48	1209.18
554.84	1213.03
555.19	1217.24
555.55	1221.27
555.90	1224.30
556.26	1227.33
556.61	1230.07
556.97	1232.00
557.32	1234.34
557.68	1236.84
558.03	1239.43
558.39	1242.23
558.74	1244.88
559.10	1247.19
559.45	1249.39
559.81	1251.52
560.16	1253.20
560.52	1255.00
560.87	1256.72
561.23	1257.79
561.58	1259.82
561.94	1260.58
562.29	1261.55
562.64	1262.24
563.00	1262.59
563.35	1264.14
563.71	1265.30
564.06	1266.75
564.42	1268.08
564.77	1269.77
565.12	1270.77
565.48	1272.59
565.83	1273.83
566.19	1274.80
566.54	1275.29
566.89	1275.73
567.25	1276.79
567.60	1278.49
567.96	1280.21
568.31	1281.00
568.66	1281.83
569.02	1281.43
569.37	1281.83
569.72	1282.79
570.08	1282.91
570.43	1282.64
570.78	1282.28
571.14	1281.80
571.49	1281.13
571.84	1280.83
572.20	1279.75
572.55	1279.09
572.90	1276.89
573.26	1275.47
573.61	1274.05
573.96	1273.15
574.31	1271.49
574.67	1269.55
575.02	1266.64
575.37	1263.32
575.72	1260.54
576.08	1257.89
576.43	1255.57
576.78	1253.00
577.13	1249.81
577.49	1247.11
577.84	1245.12
578.19	1242.97
578.54	1240.70
578.90	1238.60
579.25	1236.30
579.60	1233.60
579.95	1230.30
580.30	1227.70
580.66	1224.40
581.01	1221.34
581.36	1217.72
581.71	1214.72
582.06	1211.86
582.42	1208.94
582.77	1206.13
583.12	1203.50
583.47	1200.55
583.82	1198.02
584.17	1195.36
584.53	1193.05
584.88	1189.79
585.23	1186.44
585.58	1182.32
585.93	1178.61
586.28	1174.51
586.63	1170.27
586.98	1166.20
587.34	1162.85
587.69	1159.10
588.04	1155.72
588.39	1152.24
588.74	1148.35
589.09	1145.18
589.44	1140.67
589.79	1137.19
590.14	1133.36
590.49	1129.47
590.84	1125.70
591.19	1122.01
591.54	1117.91
591.89	1113.61
592.25	1111.11
592.60	1107.20
592.95	1103.79
593.30	1100.13
593.65	1096.51
594.00	1092.32
594.35	1091.36
594.70	1087.27
595.05	1083.13
595.40	1078.79
595.75	1074.68
596.10	1071.13
596.45	1066.95
596.80	1063.30
597.15	1059.27
597.50	1055.05
597.85	1051.38
598.19	1047.02
598.54	1042.46
598.89	1038.13
599.24	1034.12
599.59	1029.33
599.94	1024.99
600.29	1020.85
600.64	1016.69
600.99	1012.48
601.34	1009.01
601.69	1002.66
602.04	998.70
602.39	994.81
602.74	991.34
603.08	987.52
603.43	983.88
603.78	979.70
604.13	975.82
604.48	971.71
604.83	967.69
605.18	963.03
605.53	959.07
605.87	955.17
606.22	951.57
606.57	947.35
606.92	943.16
607.27	939.52
607.62	935.61
607.96	932.03
608.31	928.79
608.66	925.13
609.01	921.05
609.36	917.35
609.70	913.37
610.05	909.31
610.40	905.33
610.75	901.12
611.10	897.32
611.44	893.21
611.79	889.02
612.14	885.10
612.49	881.36
612.83	877.61
613.18	873.70
613.53	869.87
613.88	865.88
614.22	861.59
614.57	857.31
614.92	853.15
615.27	849.06
615.61	844.61
615.96	840.31
616.31	836.13
616.65	832.17
617.00	828.34
617.35	824.26
617.70	820.04
618.04	815.99
618.39	811.94
618.74	808.30
619.08	804.63
619.43	800.52
619.78	796.27
620.12	791.99
620.47	788.07
620.82	783.52
621.16	779.42
621.51	776.01
621.85	772.19
622.20	768.27
622.55	764.20
622.89	760.53
623.24	756.98
623.59	753.33
623.93	749.41
624.28	745.58
624.62	742.67
624.97	739.56
625.32	735.98
625.66	732.27
626.01	728.14
626.35	724.69
626.70	721.19
627.04	718.00
627.39	714.51
627.73	711.12
628.08	708.04
628.43	704.53
628.77	700.56
629.12	697.04
629.46	693.85
629.81	690.73
630.15	687.06
630.50	683.49
630.84	680.14
631.19	677.03
631.53	673.69
631.88	669.70
632.22	665.80
632.57	662.75
632.91	659.40
633.26	656.57
633.60	653.09
633.95	649.80
634.29	646.19
634.64	643.01
634.98	639.50
635.32	636.46
635.67	633.73
636.01	630.81
636.36	627.42
636.70	624.51
637.05	621.07
637.39	618.08
637.73	615.04
638.08	612.11
638.42	608.76
638.77	605.59
639.11	602.02
639.45	598.56
639.80	595.03
640.14	591.94
640.49	588.70
640.83	585.75
641.17	583.02
641.52	580.12
641.86	577.19
642.20	574.70
642.55	571.45
642.89	568.42
643.23	565.43
643.58	563.13
643.92	559.89
644.26	557.10
644.61	554.60
644.95	551.91
645.29	548.86
645.64	546.15
645.98	543.50
646.32	541.14
646.66	538.68
647.01	535.96
647.35	533.49
647.69	531.02
648.04	528.69
648.38	526.01
648.72	523.46
649.06	520.74
649.41	517.80
649.75	515.19
650.09	512.38
650.43	509.91
650.78	507.09
651.12	504.72
651.46	502.13
651.80	499.33
652.14	496.57
652.49	494.46
652.83	492.07
653.17	489.66
653.51	487.04
653.85	485.03
654.20	482.89
654.54	480.33
654.88	477.70
655.22	475.71
655.56	473.50
655.90	471.47
656.25	469.29
656.59	467.03
656.93	464.92
657.27	463.30
657.61	461.00
657.95	458.88
658.29	456.52
658.64	454.72
658.98	452.51
659.32	450.30
659.66	448.19
660.00	446.10
660.34	444.15
660.68	442.24
661.02	439.98
661.36	437.75
661.70	435.74
662.05	433.74
662.39	431.56
662.73	429.78
663.07	428.19
663.41	426.35
663.75	424.43
664.09	422.54
664.43	420.30
664.77	418.56
665.11	416.79
665.45	415.26
665.79	413.40
666.13	411.76
666.47	410.20
666.81	408.27
667.15	406.25
667.49	404.71
667.83	403.37
668.17	401.78
668.51	400.39
668.85	399.06
669.19	398.17
669.53	396.47
669.87	394.66
670.21	392.75
670.55	391.28
670.89	390.32
671.23	388.87
671.57	387.33
671.91	385.87
672.25	384.30
672.58	382.97
672.92	381.22
673.26	379.67
673.60	378.16
673.94	376.84
674.28	375.68
674.62	374.28
674.96	372.72
675.30	371.40
675.64	370.03
675.97	368.50
676.31	366.88
676.65	365.25
676.99	364.21
677.33	362.80
677.67	361.52
678.01	359.83
678.34	358.67
678.68	357.81
679.02	356.44
679.36	355.25
679.70	353.80
680.04	352.74
680.37	351.81
680.71	350.70
681.05	349.52
681.39	348.44
681.73	347.34
682.06	346.10
682.40	345.03
682.74	344.04
683.08	343.52
683.42	342.26
683.75	341.62
684.09	340.29
684.43	339.39
684.77	338.26
685.10	337.25
685.44	336.19
685.78	334.84
686.12	333.81
686.45	332.81
686.79	331.80
687.13	330.91
687.46	329.79
687.80	329.03
688.14	328.00
688.48	326.94
688.81	325.87
689.15	325.23
689.49	324.14
689.82	323.10
690.16	321.59
690.50	320.59
690.83	319.40
691.17	318.42
691.51	317.51
691.84	316.66
692.18	315.67
692.52	314.52
692.85	313.79
693.19	313.24
693.52	312.39
693.86	311.53
694.20	310.51
694.53	309.71
694.87	308.59
695.21	307.70
695.54	306.94
695.88	305.95
696.21	304.79
696.55	303.94
696.88	303.09
697.22	302.11
697.56	301.46
697.89	300.59
698.23	299.78
698.56	298.87
698.90	298.13
699.23	297.34
699.57	296.81
699.90	295.85
700.24	294.86
700.58	294.19
700.91	293.55
701.25	293.78
701.58	293.71
701.92	293.41
702.25	292.76
702.59	292.04
702.92	291.41
703.26	290.85
703.59	290.20
703.93	290.34
704.26	290.06
704.60	289.36
704.93	288.67
705.26	288.15
705.60	287.75
705.93	287.14
706.27	286.80
706.60	286.52
706.94	286.44
707.27	285.81
707.61	285.30
707.94	284.79
708.27	283.47
708.61	282.18
708.94	281.37
709.28	280.80
709.61	280.10
709.94	279.68
710.28	279.23
710.61	278.75
710.95	277.40
711.28	277.42
711.61	276.97
711.95	276.74
712.28	276.00
712.61	275.48
712.95	275.41
713.28	275.25
713.61	274.47
713.95	273.63
714.28	273.28
714.61	272.68
714.95	271.95
715.28	271.26
715.61	270.70
715.95	270.27
716.28	269.73
716.61	269.48
716.95	268.94
717.28	268.37
717.61	267.93
717.94	267.54
718.28	266.31
718.61	265.74
718.94	265.13
719.27	264.85
719.61	264.39
719.94	263.70
720.27	262.91
720.60	262.52
720.94	262.09
721.27	261.74
721.60	261.59
721.93	261.27
722.27	261.33
722.60	261.26
722.93	260.84
723.26	260.55
723.59	260.05
723.93	259.76
724.26	259.48
724.59	259.02
724.92	258.67
725.25	258.69
725.59	258.44
725.92	258.29
726.25	257.88
726.58	257.56
726.91	257.18
727.24	256.91
727.57	256.50
727.91	256.12
728.24	255.90
728.57	255.39
728.90	255.27
729.23	254.70
729.56	254.69
729.89	254.40
730.22	254.09
730.55	253.91
730.89	253.69
731.22	253.37
731.55	253.20
731.88	253.00
732.21	252.50
732.54	252.13
732.87	251.79
733.20	251.63
733.53	251.39
733.86	251.37
734.19	251.00
734.52	250.95
734.85	251.36
735.18	250.99
735.51	251.14
735.84	250.99
736.17	250.95
736.50	250.36
736.83	251.33
737.16	251.13
737.49	250.98
737.82	250.74
738.15	250.66
738.48	250.38
738.81	250.19
739.14	249.95
739.47	249.71
739.80	249.53
740.13	249.49
740.46	249.15
740.79	248.71
741.12	248.57
741.45	248.22
741.78	247.60
742.11	247.73
742.44	247.25
742.77	247.08
743.10	246.71
743.43	246.38
743.75	245.07
744.08	246.16
744.41	245.96
744.74	245.80
745.07	245.38
745.40	245.45
745.73	245.66
746.06	245.58
746.39	245.61
746.71	245.35
747.04	245.01
747.37	244.85
747.70	244.87
748.03	244.78
748.36	244.77
748.68	244.49
749.01	243.96
749.34	243.89
749.67	243.81
750.00	244.00
750.33	244.67
750.65	244.70
750.98	243.41
751.31	243.27
751.64	243.21
751.97	243.70
752.29	243.45
752.62	242.80
752.95	242.60
753.28	242.37
753.60	242.29
753.93	242.50
754.26	242.50
754.59	242.03
754.91	241.76
755.24	241.60
755.57	241.50
755.90	241.32
756.22	241.03
756.55	240.68
756.88	240.25
757.20	239.55
757.53	239.16
757.86	239.06
758.19	238.99
758.51	238.89
758.84	238.20
759.17	238.02
759.49	238.07
759.82	238.44
760.15	238.50
760.47	238.44
760.80	238.04
761.13	238.00
761.45	238.00
761.78	237.99
762.11	237.89
762.43	237.75
762.76	237.69
763.08	237.81
763.41	237.79
763.74	237.72
764.06	237.57
764.39	237.50
764.71	237.30
765.04	237.11
765.37	236.87
765.69	236.89
766.02	236.75
766.34	236.61
766.67	236.13
767.00	236.18
767.32	236.53
767.65	237.07
767.97	236.94
768.30	236.84
768.62	236.76
768.95	236.63
769.27	236.50
769.60	236.53
769.92	236.29
770.25	236.15
770.57	236.02
770.90	235.96
771.22	235.74
771.55	235.73
771.87	235.73
772.20	235.65
772.52	236.40
772.85	237.60
773.17	237.52
773.50	237.41
773.82	237.11
774.15	236.65
774.47	235.99
774.80	235.82
775.12	235.87
775.45	235.80
775.77	235.73
776.09	235.89
776.42	235.86
776.74	236.12
777.07	236.08
777.39	236.09
777.72	235.93
778.04	236.13
778.36	235.99
778.69	235.96
779.01	236.02
779.33	235.15
779.66	233.87
779.98	233.76
780.31	233.78
780.63	234.09
780.95	234.12
781.28	234.03
781.60	234.00
781.92	233.87
782.25	233.79
782.57	233.71
782.89	233.49
783.22	233.32
783.54	232.96
783.86	232.97
784.19	232.94
784.51	233.21
784.83	232.95
785.16	232.88
785.48	232.84
785.80	232.70
786.12	232.74
786.45	232.83
786.77	232.92
787.09	232.87
787.42	232.52
787.74	232.59
788.06	232.59
788.38	232.46
788.71	232.25
789.03	232.30
789.35	232.38
789.67	232.24
789.99	232.36
790.32	232.26
790.64	232.25
790.96	232.90
791.28	232.50
791.61	232.41
791.93	232.56
792.25	232.53
792.57	233.19
792.89	232.91
793.21	232.89
793.54	232.81
793.86	232.65
794.18	232.68
794.50	232.35
794.82	232.35
795.14	232.50
795.47	232.79
795.79	232.79
796.11	232.62
796.43	232.67
796.75	232.65
797.07	232.68
797.39	232.74
797.71	232.00
798.04	232.12
798.36	232.19
798.68	232.12
799.00	232.10
799.32	231.56
799.64	231.84
799.96	231.79
800.28	231.82
800.60	231.79
800.92	231.79
801.24	231.89
801.56	231.92
801.89	231.85
802.21	231.91
802.53	231.64
802.85	231.75
803.17	232.17
803.49	231.83
803.81	231.82
804.13	231.69
804.45	231.74
804.77	231.75
805.09	231.77
805.41	231.60
805.73	231.44
806.05	231.22
806.37	231.07
806.69	230.96
807.01	230.95
807.33	231.05
807.65	230.73
807.97	231.10
808.28	231.00
808.60	230.85
808.92	230.65
809.24	231.28
809.56	231.21
809.88	230.75
810.20	230.93
810.52	231.06
810.84	230.89
811.16	230.67
811.48	230.47
811.80	230.76
812.12	230.76
812.43	230.89
812.75	230.97
813.07	230.94
813.39	231.00
813.71	230.79
814.03	230.65
814.35	230.72
814.67	230.36
814.98	230.30
815.30	230.37
815.62	230.22
815.94	229.69
816.26	230.08
816.58	230.03
816.89	230.06
817.21	229.78
817.53	229.87
817.85	229.94
818.17	230.05
818.48	229.76
818.80	230.03
819.12	230.08
819.44	229.88
819.76	229.86
820.07	229.79
820.39	229.79
820.71	229.86
821.03	229.89
821.34	229.76
821.66	229.86
821.98	229.92
822.30	229.87
822.61	230.47
822.93	229.89
823.25	229.85
823.57	229.85
823.88	230.09
824.20	230.04
824.52	230.09
824.83	230.00
825.15	229.89
825.47	229.72
825.79	229.59
826.10	229.59
826.42	229.43
826.74	229.66
827.05	229.70
827.37	229.69
827.69	229.60
828.00	229.64
828.32	229.67
828.64	229.50
828.95	230.04
829.27	229.60
829.58	229.74
829.90	229.76
830.22	229.73
830.53	229.51
830.85	229.49
831.17	229.23
831.48	229.29
831.80	229.36
832.11	229.32
832.43	229.24
832.75	229.24
833.06	229.90
833.38	229.50
833.69	229.47
834.01	229.63
834.32	229.60
834.64	229.56
834.96	229.49
835.27	229.55
835.59	229.14
835.90	228.97
836.22	228.95
836.53	228.92
836.85	228.83
837.16	229.77
837.48	229.75
837.79	230.16
838.11	230.20
838.42	230.12
838.74	230.20
839.05	230.15
839.37	230.10
839.68	229.38
840.00	229.64
840.31	229.69
840.63	229.43
840.94	229.36
841.26	229.30
841.57	229.34
841.88	229.43
842.20	229.29
842.51	229.25
842.83	229.14
843.14	229.87
843.46	229.89
843.77	229.30
844.08	229.32
844.40	228.98
844.71	228.87
845.03	228.73
845.34	228.62
845.65	228.71
845.97	228.78
846.28	228.90
846.60	228.75
846.91	228.67
847.22	228.75
847.54	229.00
847.85	228.99
848.16	228.82
848.48	228.70
848.79	229.12
849.10	229.20
849.42	229.29
849.73	228.39
850.04	228.37
850.36	228.02
850.67	228.20
850.98	228.22
851.30	228.31
851.61	228.38
851.92	228.42
852.23	228.67
852.55	228.69
852.86	228.70
853.17	228.73
853.49	228.93
853.80	229.08
854.11	229.13
854.42	229.25
854.74	229.14
855.05	229.10
855.36	228.69
855.67	228.67
855.99	228.68
856.30	229.83
856.61	229.81
856.92	229.80
857.23	229.62
857.55	229.53
857.86	229.41
858.17	229.50
858.48	229.31
858.79	229.04
859.11	229.12
859.42	229.12
859.73	229.01
860.04	228.99
860.35	228.69
860.66	228.40
860.98	228.35
861.29	228.54
861.60	228.56
861.91	228.69
862.22	228.47
862.53	228.42
862.84	227.33
863.16	227.54
863.47	227.50
863.78	227.43
864.09	227.57
864.40	227.71
864.71	227.79
865.02	227.91
865.33	227.87
865.64	227.71
865.95	227.68
866.27	228.20
866.58	228.01
866.89	228.11
867.20	228.11
867.51	227.81
867.82	227.70
868.13	227.90
868.44	227.74
868.75	228.02
869.06	227.94
869.37	228.02
869.68	227.75
869.99	227.97
870.30	228.05
870.61	228.07
870.92	227.87
871.23	227.82
871.54	227.87
871.85	227.98
872.16	228.08
872.47	228.04
872.78	227.57
873.09	227.66
873.40	227.54
873.71	227.61
874.02	227.80
874.33	227.70
874.64	227.54
874.95	227.66
875.26	227.39
875.56	227.48
875.87	227.43
876.18	227.32
876.49	228.14
876.80	228.02
877.11	227.89
877.42	227.96
877.73	227.89
878.04	227.72
878.35	227.68
878.66	227.71
878.96	227.67
879.27	227.60
879.58	227.53
879.89	227.55
880.20	227.80
880.51	227.69
880.82	227.73
881.12	227.71
881.43	227.48
881.74	227.35
882.05	227.20
882.36	227.31
882.67	227.50
882.97	226.50
883.28	226.45
883.59	226.40
883.90	226.46
884.21	226.55
884.51	226.61
884.82	226.45
885.13	226.47
885.44	226.42
885.74	226.58
886.05	226.60
886.36	226.55
886.67	226.12
886.98	226.65
887.28	226.77
887.59	226.81
887.90	226.95
888.20	227.01
888.51	227.35
888.82	227.17
889.13	227.27
889.43	228.09
889.74	228.09
890.05	228.11
890.35	228.02
890.66	227.81
890.97	227.65
891.28	227.59
891.58	227.55
891.89	227.56
892.20	227.31
892.50	227.28
892.81	227.18
893.12	227.17
893.42	226.80
893.73	226.81
894.04	226.80
894.34	226.88
894.65	226.90
894.95	226.70
895.26	226.69
895.57	227.03
895.87	226.11
896.18	226.26
896.48	226.30
896.79	226.32
897.10	226.55
897.40	226.67
897.71	226.91
898.01	226.85
898.32	227.03
898.63	227.07
898.93	227.11
899.24	227.20
899.54	227.25
899.85	227.20
900.15	227.20
900.46	227.19
900.76	227.26
901.07	227.24
901.38	227.21
901.68	227.30
901.99	226.84
902.29	226.98
902.60	226.93
902.90	226.87
903.21	226.84
903.51	226.86
903.82	227.14
904.12	227.06
904.43	227.12
904.73	227.03
905.03	227.05
905.34	228.01
905.64	228.10
905.95	228.12
906.25	228.18
906.56	228.10
906.86	228.12
907.17	228.08
907.47	228.22
907.77	228.14
908.08	228.11
908.38	228.25
908.69	228.29
908.99	228.43
909.30	228.52
909.60	228.55
909.90	228.50
910.21	228.20
910.51	228.07
910.81	228.02
911.12	228.13
911.42	228.21
911.73	227.13
912.03	227.21
912.33	227.49
912.64	227.33
912.94	227.20
913.24	227.07
913.55	226.99
913.85	226.82
914.15	226.97
914.46	227.03
914.76	226.88
915.06	226.81
915.37	226.58
915.67	226.53
915.97	226.57
916.27	226.41
916.58	226.37
916.88	226.44
917.18	226.40
917.49	227.09
917.79	227.12
918.09	227.22
918.39	227.35
918.70	227.28
919.00	227.39
919.30	227.88
919.60	227.75
919.91	227.55
920.21	227.60
920.51	227.37
920.81	227.27
921.12	227.33
921.42	227.34
921.72	227.46
922.02	227.51
922.32	227.51
922.63	227.60
922.93	228.05
923.23	227.97
923.53	227.87
923.83	227.13
924.13	227.11
924.44	227.25
924.74	227.29
925.04	227.43
925.34	227.35
925.64	226.89
925.94	226.98
926.24	227.51
926.55	227.40
926.85	227.63
927.15	227.65
927.45	227.60
927.75	227.54
928.05	227.50
928.35	227.46
928.65	227.64
928.95	227.61
929.26	227.30
929.56	227.54
929.86	227.61
930.16	227.52
930.46	227.44
930.76	227.44
931.06	227.09
931.36	226.84
931.66	227.04
931.96	227.27
932.26	227.32
932.56	226.97
932.86	227.11
933.16	227.01
933.46	226.95
933.76	226.89
934.06	227.10
934.36	227.47
934.66	227.33
934.96	227.17
935.26	227.22
935.56	227.41
935.86	227.16
936.16	227.02
936.46	226.92
936.76	226.90
937.06	226.70
937.36	226.80
937.66	226.81
937.96	226.68
938.26	226.47
938.56	226.37
938.86	226.50
939.16	226.73
939.46	226.91
939.76	227.02
940.06	227.02
940.35	226.88
940.65	226.48
940.95	226.73
941.25	226.68
941.55	226.61
941.85	226.52
942.15	226.73
942.45	227.10
942.75	227.20
943.04	227.25
943.34	227.56
943.64	227.49
943.94	227.40
944.24	227.45
944.54	227.48
944.84	227.52
945.13	227.38
945.43	227.17
945.73	227.02
946.03	227.04
946.33	227.08
946.62	226.95
946.92	226.94
947.22	227.01
947.52	226.99
947.82	227.10
948.11	227.05
948.41	226.98
948.71	226.68
949.01	226.74
949.31	226.62
949.60	226.48
949.90	226.66
950.20	226.65
950.50	226.68
950.79	226.73
951.09	226.94
951.39	227.00
951.69	227.01
951.98	227.34
952.28	227.30
952.58	227.25
952.87	227.30
953.17	227.39
953.47	227.25
953.76	227.32
954.06	227.24
954.36	227.07
954.66	226.98
954.95	227.27
955.25	227.29
955.55	227.54
955.84	227.48
956.14	227.60
956.44	227.69
956.73	227.55
957.03	227.58
957.32	227.49
957.62	227.34
957.92	227.44
958.21	227.31
958.51	228.36
958.81	228.43
959.10	228.59
959.40	228.82
959.69	228.86
959.99	228.94
960.29	229.00
960.58	228.95
960.88	229.36
961.17	229.36
961.47	229.42
961.76	229.26
962.06	229.38
962.36	229.22
962.65	229.19
962.95	229.21
963.24	229.10
963.54	229.18
963.83	229.22
964.13	229.18
964.42	228.85
964.72	228.12
965.01	228.16
965.31	228.04
965.60	227.82
965.90	228.44
966.19	228.20
966.49	228.22
966.78	228.18
967.08	227.89
967.37	227.79
967.67	227.68
967.96	227.80
968.26	227.65
968.55	227.75
968.85	227.72
969.14	227.72
969.43	227.72
969.73	227.55
970.02	227.60
970.32	227.56
970.61	227.64
970.91	227.37
971.20	227.27
971.49	227.23
971.79	227.36
972.08	226.68
972.38	226.76
972.67	226.72
972.96	226.84
973.26	226.81
973.55	227.08
973.85	227.07
974.14	227.04
974.43	227.24
974.73	227.11
975.02	227.13
975.31	227.27
975.61	227.30
975.90	227.24
976.19	227.20
976.49	227.30
976.78	227.40
977.07	227.47
977.37	227.57
977.66	227.72
977.95	227.54
978.24	227.68
978.54	227.90
978.83	227.86
979.12	227.84
979.42	227.88
979.71	227.66
980.00	227.65
980.29	227.74
980.59	227.42
980.88	227.56
981.17	227.57
981.46	227.41
981.76	227.37
982.05	227.76
982.34	227.71
982.63	227.78
982.93	227.77
983.22	227.91
983.51	227.92
983.80	227.94
984.09	228.02
984.39	227.86
984.68	227.57
984.97	227.53
985.26	227.42
985.55	227.54
985.85	227.46
986.14	227.60
986.43	227.62
986.72	227.64
987.01	227.42
987.30	227.46
987.59	227.36
987.89	227.37
988.18	227.05
988.47	227.02
988.76	226.89
989.05	226.81
989.34	226.64
989.63	226.87
989.92	226.79
990.22	226.66
990.51	226.74
990.80	226.85
991.09	226.94
991.38	227.11
991.67	226.98
991.96	226.81
992.25	226.83
992.54	226.70
992.83	226.71
993.12	226.66
993.41	226.74
993.70	227.24
993.99	227.41
994.28	227.59
994.58	227.77
994.87	227.70
995.16	227.61
995.45	227.52
995.74	227.09
996.03	227.11
996.32	227.26
996.61	227.27
996.90	227.21
997.19	227.11
997.48	227.24
997.77	227.08
998.06	227.06
998.34	226.85
998.63	226.78
998.92	226.73
999.21	226.95
999.50	226.95
999.79	226.61
1000.08	226.50
1000.37	226.43
1000.66	226.26
1000.95	226.40
1001.24	226.50
1001.53	226.65
1001.82	226.60
1002.11	226.35
1002.40	226.41
1002.68	226.70
1002.97	227.43
1003.26	227.30
1003.55	227.07
1003.84	227.13
1004.13	227.62
1004.42	227.61
1004.71	227.61
1004.99	227.60
1005.28	227.76
1005.57	227.67
1005.86	227.52
1006.15	227.58
1006.44	227.54
1006.72	227.63
1007.01	227.49
1007.30	227.54
1007.59	227.39
1007.88	227.49
1008.17	227.61
1008.45	227.37
1008.74	226.97
1009.03	226.52
1009.32	226.62
1009.60	226.62
1009.89	226.60
1010.18	226.25
1010.47	226.22
1010.76	226.29
1011.04	226.35
1011.33	226.30
1011.62	226.35
1011.91	226.50
1012.19	226.45
1012.48	226.39
1012.77	226.46
1013.05	226.92
1013.34	226.74
1013.63	226.82
1013.92	226.94
1014.20	226.97
1014.49	227.10
1014.78	227.11
1015.06	226.77
1015.35	226.76
1015.64	226.95
1015.92	227.15
1016.21	227.18
1016.50	227.25
1016.78	227.30
1017.07	227.42
1017.36	227.27
1017.64	227.10
1017.93	227.20
1018.22	227.16
1018.50	227.06
1018.79	227.02
1019.08	226.54
1019.36	226.70
1019.65	226.63
1019.93	226.77
1020.22	226.84
1020.51	227.31
1020.79	227.29
1021.08	225.30
1021.36	223.20
1021.65	227.50
1021.94	225.50
1022.22	227.20
1022.51	225.60
1022.79	230.90
1023.08	227.40
1023.36	237.90
1023.65	224.60
>>>>>End Processed Spectral Data<<<<<
