SpectraSuite Data File
++++++++++++++++++++++++++++++++++++
Date: Wed Sep 04 17:33:52 EDT 2013
User: lab3
Dark Spectrum Present: Yes
Reference Spectrum Present: No
Number of Sampled Component Spectra: 1
Spectrometers: USB2E7196
Integration Time (usec): 337000 (USB2E7196)
Spectra Averaged: 10 (USB2E7196)
Boxcar Smoothing: 10 (USB2E7196)
Correct for Electrical Dark: No (USB2E7196)
Strobe/Lamp Enabled: No (USB2E7196)
Correct for Detector Non-linearity: No (USB2E7196)
Correct for Stray Light: No (USB2E7196)
Number of Pixels in Processed Spectrum: 2048
>>>>>Begin Processed Spectral Data<<<<<
339.09	0.00
339.48	212.50
339.86	213.80
340.24	213.90
340.63	217.00
341.01	233.10
341.39	217.50
341.78	222.00
342.16	224.00
342.54	223.90
342.93	212.96
343.31	223.63
343.69	224.25
344.07	224.77
344.46	225.41
344.84	225.95
345.22	225.55
345.60	225.99
345.99	226.21
346.37	226.31
346.75	226.44
347.13	226.55
347.52	226.59
347.90	226.88
348.28	226.86
348.66	227.13
349.05	226.90
349.43	226.99
349.81	227.23
350.19	227.22
350.57	227.36
350.96	227.48
351.34	227.64
351.72	227.72
352.10	227.78
352.48	227.76
352.87	227.65
353.25	227.80
353.63	227.87
354.01	227.90
354.39	228.06
354.77	228.13
355.15	228.46
355.54	228.46
355.92	228.36
356.30	228.40
356.68	229.01
357.06	229.15
357.44	229.10
357.82	229.04
358.20	229.94
358.58	229.94
358.97	230.00
359.35	230.24
359.73	230.49
360.11	230.50
360.49	230.58
360.87	230.66
361.25	230.79
361.63	231.07
362.01	231.17
362.39	231.10
362.77	231.26
363.15	231.15
363.53	231.27
363.91	231.25
364.29	231.32
364.67	230.36
365.05	230.29
365.43	230.43
365.81	230.51
366.19	230.21
366.57	230.65
366.95	230.63
367.33	230.49
367.71	230.59
368.09	230.82
368.47	230.90
368.85	230.97
369.23	231.11
369.61	230.82
369.99	231.20
370.37	231.37
370.75	231.77
371.13	231.56
371.51	231.42
371.89	231.61
372.27	231.75
372.65	231.90
373.03	231.97
373.41	232.01
373.78	231.91
374.16	231.41
374.54	231.00
374.92	230.91
375.30	230.87
375.68	230.58
376.06	230.58
376.44	230.40
376.82	230.35
377.19	230.40
377.57	230.32
377.95	229.92
378.33	229.76
378.71	229.14
379.09	229.28
379.47	229.31
379.84	229.13
380.22	228.95
380.60	228.65
380.98	228.56
381.36	228.36
381.73	228.29
382.11	228.47
382.49	228.52
382.87	228.38
383.25	228.25
383.62	229.23
384.00	229.01
384.38	229.10
384.76	229.31
385.13	229.51
385.51	229.51
385.89	229.37
386.27	229.43
386.64	229.50
387.02	229.37
387.40	229.22
387.78	229.28
388.15	229.19
388.53	229.20
388.91	229.14
389.29	229.05
389.66	229.15
390.04	228.89
390.42	228.93
390.79	228.97
391.17	229.02
391.55	228.06
391.92	228.01
392.30	228.17
392.68	228.02
393.05	227.92
393.43	227.97
393.81	228.11
394.18	228.04
394.56	228.08
394.94	228.30
395.31	228.24
395.69	228.47
396.06	228.66
396.44	228.85
396.82	228.82
397.19	229.43
397.57	229.43
397.95	229.75
398.32	229.55
398.70	229.75
399.07	230.00
399.45	229.88
399.82	230.00
400.20	229.93
400.58	229.93
400.95	229.68
401.33	229.99
401.70	230.67
402.08	230.76
402.45	230.82
402.83	231.22
403.20	231.57
403.58	231.62
403.95	231.98
404.33	232.25
404.71	232.58
405.08	233.31
405.46	233.54
405.83	233.86
406.21	234.32
406.58	234.60
406.96	234.90
407.33	235.49
407.70	236.08
408.08	237.30
408.45	237.98
408.83	238.69
409.20	239.08
409.58	239.15
409.95	239.97
410.33	240.82
410.70	241.23
411.08	242.18
411.45	243.07
411.82	243.81
412.20	244.84
412.57	246.32
412.95	246.50
413.32	247.74
413.69	248.85
414.07	250.04
414.44	251.42
414.82	252.83
415.19	254.56
415.56	256.26
415.94	257.40
416.31	259.43
416.68	261.46
417.06	263.80
417.43	266.13
417.81	268.56
418.18	271.24
418.55	273.96
418.93	276.76
419.30	279.57
419.67	282.70
420.04	285.88
420.42	288.96
420.79	293.50
421.16	297.37
421.54	301.74
421.91	306.12
422.28	310.45
422.66	315.05
423.03	320.10
423.40	324.70
423.77	329.60
424.15	334.62
424.52	339.80
424.89	345.86
425.26	351.38
425.64	356.75
426.01	362.45
426.38	368.62
426.75	375.11
427.13	381.60
427.50	388.20
427.87	395.21
428.24	402.10
428.61	408.10
428.99	415.80
429.36	423.30
429.73	430.84
430.10	438.70
430.47	446.74
430.85	454.31
431.22	462.89
431.59	472.73
431.96	481.44
432.33	490.98
432.70	499.90
433.08	511.00
433.45	521.49
433.82	531.72
434.19	543.24
434.56	554.49
434.93	565.28
435.30	576.27
435.68	588.23
436.05	600.20
436.42	612.04
436.79	622.54
437.16	634.39
437.53	646.62
437.90	658.75
438.27	670.83
438.64	683.45
439.01	695.17
439.38	705.25
439.75	715.14
440.13	726.69
440.50	737.71
440.87	746.09
441.24	754.90
441.61	764.96
441.98	772.07
442.35	780.37
442.72	788.82
443.09	797.15
443.46	801.96
443.83	805.27
444.20	807.90
444.57	811.79
444.94	813.41
445.31	815.14
445.68	817.72
446.05	818.27
446.42	816.31
446.79	814.63
447.16	812.32
447.53	810.96
447.90	805.83
448.27	800.34
448.64	793.57
449.01	788.50
449.37	779.95
449.74	771.81
450.11	762.59
450.48	751.90
450.85	740.59
451.22	731.08
451.59	722.05
451.96	713.61
452.33	702.27
452.70	692.09
453.07	680.08
453.43	666.70
453.80	654.72
454.17	643.65
454.54	632.76
454.91	621.44
455.28	609.99
455.65	599.51
456.02	590.69
456.38	581.99
456.75	571.30
457.12	561.99
457.49	553.04
457.86	543.73
458.23	536.62
458.59	528.70
458.96	520.77
459.33	513.48
459.70	506.30
460.07	500.77
460.43	494.03
460.80	488.05
461.17	483.06
461.54	477.50
461.91	472.32
462.27	467.05
462.64	462.25
463.01	457.42
463.38	453.07
463.74	446.90
464.11	442.69
464.48	439.03
464.85	435.08
465.21	432.15
465.58	429.00
465.95	424.81
466.32	421.90
466.68	418.69
467.05	415.66
467.42	412.56
467.78	409.48
468.15	406.63
468.52	404.53
468.88	401.22
469.25	398.53
469.62	396.50
469.98	394.16
470.35	392.22
470.72	390.17
471.08	387.62
471.45	386.00
471.82	384.41
472.18	382.47
472.55	381.31
472.92	379.32
473.28	377.79
473.65	376.29
474.02	374.61
474.38	373.50
474.75	372.46
475.11	371.14
475.48	370.10
475.85	369.10
476.21	368.10
476.58	367.57
476.94	367.10
477.31	366.23
477.67	365.70
478.04	365.16
478.41	364.88
478.77	365.57
479.14	365.04
479.50	364.68
479.87	364.68
480.23	364.43
480.60	364.38
480.96	364.26
481.33	364.95
481.69	365.27
482.06	365.42
482.42	365.76
482.79	366.20
483.15	366.66
483.52	367.50
483.88	368.05
484.25	368.67
484.61	369.42
484.98	370.34
485.34	371.67
485.71	372.82
486.07	374.00
486.44	374.45
486.80	375.92
487.17	377.40
487.53	379.03
487.90	380.81
488.26	383.13
488.62	385.49
488.99	387.22
489.35	389.50
489.72	391.96
490.08	394.30
490.44	396.90
490.81	399.70
491.17	402.58
491.54	405.90
491.90	409.40
492.26	412.91
492.63	416.56
492.99	420.14
493.36	424.30
493.72	428.59
494.08	432.95
494.45	437.66
494.81	442.61
495.17	447.73
495.54	453.35
495.90	458.58
496.26	464.25
496.63	470.30
496.99	476.37
497.35	482.78
497.72	489.64
498.08	496.44
498.44	503.65
498.80	511.32
499.17	518.83
499.53	526.52
499.89	535.10
500.26	543.70
500.62	552.56
500.98	561.70
501.34	571.07
501.71	580.84
502.07	590.59
502.43	600.73
502.79	611.21
503.16	622.01
503.52	633.38
503.88	644.79
504.24	656.77
504.60	669.32
504.97	682.31
505.33	695.28
505.69	709.57
506.05	723.67
506.41	737.63
506.78	752.39
507.14	767.62
507.50	783.00
507.86	798.90
508.22	814.94
508.59	831.03
508.95	848.19
509.31	866.07
509.67	883.79
510.03	901.66
510.39	919.96
510.75	938.70
511.12	957.63
511.48	976.82
511.84	996.35
512.20	1016.16
512.56	1036.07
512.92	1057.04
513.28	1077.89
513.64	1098.84
514.00	1120.33
514.37	1142.25
514.73	1164.41
515.09	1186.71
515.45	1208.97
515.81	1231.74
516.17	1254.89
516.53	1277.58
516.89	1300.10
517.25	1323.91
517.61	1348.90
517.97	1373.30
518.33	1397.28
518.69	1422.10
519.05	1447.15
519.41	1472.14
519.77	1497.77
520.13	1523.27
520.49	1547.89
520.85	1575.36
521.21	1601.13
521.57	1626.81
521.93	1651.67
522.29	1677.10
522.65	1701.83
523.01	1727.41
523.37	1752.01
523.73	1777.44
524.09	1802.35
524.45	1827.20
524.81	1852.20
525.17	1876.78
525.53	1901.60
525.89	1927.09
526.25	1951.70
526.61	1976.10
526.97	2001.22
527.33	2026.60
527.68	2052.31
528.04	2077.61
528.40	2100.40
528.76	2125.20
529.12	2149.70
529.48	2174.91
529.84	2199.17
530.20	2224.51
530.56	2249.43
530.91	2274.69
531.27	2298.82
531.63	2323.78
531.99	2348.59
532.35	2372.96
532.71	2396.80
533.07	2421.39
533.42	2445.29
533.78	2469.29
534.14	2493.63
534.50	2516.29
534.86	2538.87
535.21	2560.10
535.57	2582.55
535.93	2603.07
536.29	2624.56
536.65	2647.09
537.00	2668.32
537.36	2689.55
537.72	2709.30
538.08	2729.42
538.44	2749.05
538.79	2768.96
539.15	2788.40
539.51	2807.60
539.87	2825.45
540.22	2842.20
540.58	2859.93
540.94	2875.90
541.29	2890.91
541.65	2905.42
542.01	2920.70
542.37	2934.03
542.72	2947.20
543.08	2959.85
543.44	2974.35
543.79	2986.35
544.15	2997.96
544.51	3009.81
544.87	3021.02
545.22	3032.12
545.58	3041.89
545.94	3051.12
546.29	3059.40
546.65	3067.18
547.01	3074.19
547.36	3081.97
547.72	3089.41
548.07	3094.62
548.43	3101.04
548.79	3107.67
549.14	3113.82
549.50	3119.46
549.86	3124.15
550.21	3129.04
550.57	3134.08
550.92	3136.64
551.28	3139.12
551.64	3142.29
551.99	3145.31
552.35	3147.99
552.70	3150.86
553.06	3153.57
553.41	3156.00
553.77	3159.28
554.13	3162.64
554.48	3166.00
554.84	3168.31
555.19	3171.03
555.55	3174.57
555.90	3175.46
556.26	3175.54
556.61	3174.64
556.97	3172.85
557.32	3173.82
557.68	3174.38
558.03	3174.20
558.39	3174.03
558.74	3174.78
559.10	3172.99
559.45	3170.41
559.81	3167.17
560.16	3162.77
560.52	3159.37
560.87	3156.40
561.23	3151.86
561.58	3146.80
561.94	3140.35
562.29	3133.62
562.64	3126.87
563.00	3118.57
563.35	3112.73
563.71	3106.69
564.06	3101.19
564.42	3095.91
564.77	3089.51
565.12	3082.90
565.48	3076.57
565.83	3069.83
566.19	3062.61
566.54	3055.52
566.89	3048.43
567.25	3042.00
567.60	3036.28
567.96	3030.06
568.31	3022.69
568.66	3015.38
569.02	3006.77
569.37	2999.48
569.72	2993.20
570.08	2985.41
570.43	2976.68
570.78	2968.64
571.14	2960.26
571.49	2950.90
571.84	2942.32
572.20	2932.15
572.55	2922.59
572.90	2911.54
573.26	2901.64
573.61	2890.55
573.96	2879.27
574.31	2867.96
574.67	2856.48
575.02	2843.94
575.37	2830.27
575.72	2817.11
576.08	2804.76
576.43	2792.07
576.78	2778.67
577.13	2764.51
577.49	2751.19
577.84	2739.37
578.19	2726.57
578.54	2714.37
578.90	2702.50
579.25	2689.82
579.60	2677.80
579.95	2664.67
580.30	2651.33
580.66	2637.31
581.01	2623.67
581.36	2609.80
581.71	2596.33
582.06	2582.75
582.42	2569.77
582.77	2557.11
583.12	2544.50
583.47	2531.81
583.82	2519.62
584.17	2507.29
584.53	2495.35
584.88	2481.91
585.23	2468.06
585.58	2453.52
585.93	2438.89
586.28	2424.46
586.63	2409.59
586.98	2393.95
587.34	2380.07
587.69	2365.89
588.04	2353.18
588.39	2340.42
588.74	2327.15
589.09	2314.63
589.44	2300.67
589.79	2287.82
590.14	2275.11
590.49	2262.39
590.84	2249.35
591.19	2236.55
591.54	2223.61
591.89	2210.05
592.25	2199.99
592.60	2188.01
592.95	2175.73
593.30	2163.27
593.65	2150.24
594.00	2137.62
594.35	2128.56
594.70	2114.72
595.05	2102.36
595.40	2088.42
595.75	2075.35
596.10	2063.15
596.45	2050.14
596.80	2038.62
597.15	2025.55
597.50	2012.10
597.85	1999.82
598.19	1986.41
598.54	1972.90
598.89	1959.84
599.24	1947.85
599.59	1933.82
599.94	1920.73
600.29	1909.01
600.64	1897.21
600.99	1884.89
601.34	1873.36
601.69	1859.15
602.04	1848.58
602.39	1837.37
602.74	1827.09
603.08	1816.27
603.43	1805.26
603.78	1794.20
604.13	1782.83
604.48	1771.32
604.83	1759.84
605.18	1747.43
605.53	1735.96
605.87	1725.41
606.22	1715.45
606.57	1704.06
606.92	1692.60
607.27	1682.40
607.62	1671.49
607.96	1660.64
608.31	1651.45
608.66	1641.18
609.01	1630.69
609.36	1619.54
609.70	1609.21
610.05	1598.36
610.40	1587.90
610.75	1577.23
611.10	1566.69
611.44	1555.56
611.79	1545.32
612.14	1535.45
612.49	1525.61
612.83	1516.38
613.18	1506.47
613.53	1496.31
613.88	1486.54
614.22	1476.75
614.57	1466.37
614.92	1456.17
615.27	1446.48
615.61	1435.78
615.96	1425.85
616.31	1415.89
616.65	1406.78
617.00	1396.87
617.35	1387.25
617.70	1377.65
618.04	1367.90
618.39	1358.39
618.74	1350.23
619.08	1341.11
619.43	1331.92
619.78	1322.40
620.12	1312.33
620.47	1302.99
620.82	1293.11
621.16	1283.53
621.51	1275.22
621.85	1266.19
622.20	1256.89
622.55	1247.43
622.89	1238.54
623.24	1229.86
623.59	1220.93
623.93	1212.08
624.28	1203.33
624.62	1195.85
624.97	1187.68
625.32	1179.64
625.66	1171.10
626.01	1161.85
626.35	1153.79
626.70	1145.59
627.04	1138.20
627.39	1130.39
627.73	1122.91
628.08	1115.61
628.43	1107.75
628.77	1099.18
629.12	1091.79
629.46	1084.86
629.81	1078.29
630.15	1071.55
630.50	1064.14
630.84	1057.09
631.19	1050.16
631.53	1043.71
631.88	1035.40
632.22	1027.91
632.57	1021.25
632.91	1014.26
633.26	1007.83
633.60	1000.71
633.95	993.68
634.29	986.11
634.64	979.26
634.98	971.59
635.32	964.89
635.67	959.00
636.01	952.70
636.36	945.65
636.70	939.30
637.05	932.43
637.39	925.90
637.73	919.64
638.08	913.64
638.42	906.69
638.77	899.61
639.11	892.50
639.45	885.53
639.80	878.30
640.14	871.39
640.49	865.01
640.83	858.90
641.17	852.95
641.52	847.09
641.86	841.13
642.20	835.95
642.55	829.87
642.89	823.64
643.23	817.97
643.58	812.75
643.92	806.63
644.26	800.94
644.61	795.49
644.95	789.90
645.29	784.06
645.64	779.00
645.98	773.57
646.32	769.13
646.66	763.73
647.01	758.77
647.35	754.53
647.69	749.42
648.04	744.61
648.38	739.74
648.72	734.83
649.06	729.74
649.41	724.48
649.75	719.20
650.09	714.18
650.43	709.31
650.78	704.32
651.12	699.49
651.46	694.78
651.80	689.96
652.14	685.16
652.49	680.73
652.83	675.98
653.17	671.36
653.51	666.59
653.85	662.59
654.20	658.26
654.54	653.70
654.88	649.26
655.22	645.18
655.56	640.92
655.90	636.80
656.25	632.67
656.59	628.59
656.93	624.90
657.27	621.26
657.61	616.80
657.95	612.84
658.29	608.86
658.64	605.01
658.98	600.96
659.32	596.83
659.66	592.56
660.00	588.68
660.34	584.96
660.68	581.13
661.02	577.42
661.36	573.85
661.70	570.04
662.05	566.43
662.39	562.88
662.73	559.45
663.07	556.58
663.41	553.43
663.75	549.86
664.09	546.30
664.43	542.57
664.77	539.38
665.11	536.07
665.45	532.89
665.79	529.71
666.13	526.60
666.47	523.47
666.81	520.39
667.15	517.15
667.49	514.32
667.83	511.84
668.17	508.84
668.51	505.86
668.85	503.32
669.19	501.03
669.53	497.95
669.87	495.08
670.21	491.68
670.55	488.77
670.89	486.61
671.23	483.98
671.57	481.19
671.91	478.50
672.25	475.82
672.58	473.38
672.92	470.38
673.26	467.65
673.60	465.28
673.94	462.92
674.28	460.84
674.62	458.38
674.96	455.56
675.30	453.33
675.64	450.94
675.97	448.24
676.31	445.39
676.65	442.82
676.99	440.73
677.33	438.32
677.67	436.25
678.01	433.56
678.34	431.42
678.68	429.68
679.02	427.50
679.36	425.40
679.70	423.39
680.04	421.53
680.37	419.57
680.71	417.53
681.05	415.60
681.39	413.55
681.73	411.48
682.06	409.56
682.40	407.66
682.74	405.86
683.08	404.49
683.42	402.60
683.75	400.99
684.09	398.98
684.43	397.37
684.77	395.41
685.10	393.69
685.44	391.91
685.78	389.90
686.12	388.26
686.45	386.37
686.79	384.26
687.13	382.84
687.46	381.23
687.80	379.80
688.14	378.02
688.48	376.40
688.81	374.78
689.15	373.42
689.49	371.82
689.82	370.31
690.16	368.23
690.50	366.88
690.83	365.44
691.17	363.72
691.51	362.19
691.84	360.91
692.18	359.30
692.52	357.77
692.85	356.45
693.19	355.41
693.52	354.27
693.86	353.07
694.20	351.55
694.53	350.15
694.87	348.55
695.21	347.27
695.54	346.00
695.88	344.53
696.21	342.95
696.55	341.63
696.88	340.13
697.22	338.84
697.56	337.49
697.89	336.02
698.23	334.97
698.56	333.60
698.90	332.41
699.23	331.15
699.57	330.05
699.90	328.85
700.24	327.33
700.58	326.10
700.91	325.05
701.25	324.70
701.58	324.28
701.92	323.53
702.25	322.52
702.59	321.31
702.92	320.54
703.26	319.57
703.59	318.52
703.93	318.40
704.26	317.60
704.60	316.71
704.93	315.63
705.26	314.57
705.60	313.88
705.93	312.63
706.27	312.10
706.60	311.27
706.94	310.78
707.27	309.84
707.61	309.01
707.94	308.05
708.27	306.24
708.61	304.65
708.94	303.59
709.28	302.63
709.61	301.72
709.94	300.80
710.28	300.00
710.61	299.22
710.95	297.61
711.28	297.31
711.61	296.37
711.95	295.97
712.28	295.07
712.61	294.10
712.95	293.88
713.28	293.34
713.61	292.45
713.95	291.29
714.28	290.65
714.61	289.89
714.95	289.21
715.28	288.51
715.61	287.77
715.95	287.10
716.28	286.30
716.61	285.78
716.95	285.17
717.28	284.52
717.61	283.85
717.94	283.35
718.28	282.14
718.61	281.50
718.94	280.70
719.27	280.19
719.61	279.72
719.94	278.95
720.27	278.06
720.60	277.50
720.94	277.10
721.27	276.61
721.60	276.18
721.93	275.63
722.27	275.51
722.60	275.17
722.93	274.66
723.26	274.35
723.59	273.74
723.93	273.18
724.26	272.71
724.59	272.17
724.92	271.71
725.25	271.50
725.59	271.08
725.92	270.80
726.25	270.34
726.58	269.90
726.91	269.36
727.24	269.00
727.57	268.57
727.91	267.78
728.24	267.31
728.57	266.85
728.90	266.53
729.23	265.86
729.56	265.92
729.89	265.45
730.22	264.87
730.55	264.57
730.89	264.28
731.22	263.80
731.55	263.44
731.88	263.03
732.21	262.42
732.54	262.05
732.87	261.59
733.20	261.29
733.53	261.00
733.86	260.74
734.19	260.23
734.52	260.00
734.85	260.45
735.18	260.06
735.51	260.06
735.84	259.76
736.17	259.64
736.50	258.82
736.83	259.56
737.16	259.43
737.49	259.13
737.82	258.75
738.15	258.55
738.48	258.23
738.81	257.94
739.14	257.70
739.47	257.31
739.80	257.03
740.13	256.81
740.46	256.42
740.79	255.96
741.12	255.75
741.45	255.44
741.78	254.60
742.11	254.59
742.44	254.04
742.77	253.84
743.10	253.51
743.43	253.23
743.75	252.02
744.08	252.92
744.41	252.70
744.74	252.40
745.07	252.05
745.40	252.01
745.73	252.10
746.06	251.81
746.39	251.69
746.71	251.34
747.04	250.96
747.37	250.66
747.70	250.60
748.03	250.44
748.36	250.32
748.68	250.14
749.01	249.60
749.34	249.37
749.67	249.14
750.00	249.00
750.33	249.47
750.65	249.36
750.98	247.99
751.31	247.76
751.64	247.55
751.97	247.91
752.29	247.63
752.62	246.94
752.95	246.77
753.28	246.50
753.60	246.37
753.93	246.44
754.26	246.40
754.59	246.01
754.91	245.68
755.24	245.34
755.57	245.10
755.90	244.95
756.22	244.71
756.55	244.38
756.88	244.00
757.20	243.22
757.53	242.73
757.86	242.53
758.19	242.49
758.51	242.36
758.84	241.57
759.17	241.32
759.49	241.26
759.82	241.58
760.15	241.44
760.47	241.15
760.80	240.78
761.13	240.77
761.45	240.65
761.78	240.62
762.11	240.58
762.43	240.44
762.76	240.32
763.08	240.25
763.41	240.28
763.74	240.17
764.06	240.01
764.39	239.90
764.71	239.66
765.04	239.30
765.37	239.20
765.69	239.14
766.02	238.99
766.34	238.86
766.67	238.22
767.00	238.33
767.32	238.73
767.65	239.13
767.97	238.96
768.30	238.86
768.62	238.70
768.95	238.47
769.27	238.40
769.60	238.41
769.92	238.17
770.25	237.85
770.57	237.65
770.90	237.55
771.22	237.49
771.55	237.54
771.87	237.50
772.20	237.43
772.52	238.21
772.85	239.29
773.17	239.22
773.50	239.23
773.82	239.00
774.15	238.63
774.47	238.02
774.80	237.83
775.12	237.72
775.45	237.57
775.77	237.60
776.09	237.55
776.42	237.51
776.74	237.70
777.07	237.66
777.39	237.64
777.72	237.58
778.04	237.62
778.36	237.45
778.69	237.44
779.01	237.34
779.33	236.40
779.66	235.20
779.98	235.07
780.31	235.03
780.63	235.38
780.95	235.49
781.28	235.57
781.60	235.43
781.92	235.40
782.25	235.28
782.57	235.23
782.89	235.16
783.22	235.04
783.54	234.77
783.86	234.82
784.19	234.75
784.51	234.95
784.83	234.73
785.16	234.68
785.48	234.70
785.80	234.80
786.12	234.91
786.45	234.89
786.77	234.92
787.09	234.84
787.42	234.47
787.74	234.40
788.06	234.25
788.38	234.12
788.71	234.03
789.03	234.15
789.35	234.20
789.67	234.06
789.99	234.06
790.32	234.03
790.64	234.01
790.96	234.74
791.28	234.39
791.61	234.39
791.93	234.45
792.25	234.32
792.57	234.82
792.89	234.55
793.21	234.55
793.54	234.45
793.86	234.23
794.18	234.24
794.50	234.00
794.82	234.01
795.14	234.21
795.47	234.31
795.79	234.21
796.11	233.85
796.43	233.77
796.75	233.79
797.07	233.75
797.39	233.73
797.71	232.99
798.04	233.00
798.36	232.95
798.68	232.87
799.00	232.90
799.32	232.37
799.64	232.57
799.96	232.53
800.28	232.76
800.60	232.77
800.92	232.78
801.24	232.69
801.56	232.71
801.89	232.54
802.21	232.60
802.53	232.44
802.85	232.65
803.17	233.14
803.49	232.85
803.81	232.73
804.13	232.56
804.45	232.47
804.77	232.44
805.09	232.40
805.41	232.29
805.73	232.07
806.05	231.80
806.37	231.72
806.69	231.53
807.01	231.27
807.33	231.35
807.65	231.06
807.97	231.40
808.28	231.25
808.60	231.23
808.92	231.03
809.24	231.68
809.56	231.60
809.88	231.15
810.20	231.26
810.52	231.48
810.84	231.39
811.16	231.20
811.48	231.16
811.80	231.53
812.12	231.50
812.43	231.70
812.75	231.69
813.07	231.50
813.39	231.68
813.71	231.49
814.03	231.33
814.35	231.29
814.67	230.95
814.98	230.84
815.30	230.76
815.62	230.60
815.94	229.93
816.26	230.25
816.58	230.10
816.89	229.99
817.21	229.75
817.53	229.82
817.85	229.89
818.17	229.80
818.48	229.41
818.80	229.66
819.12	229.43
819.44	229.42
819.76	229.40
820.07	229.34
820.39	229.43
820.71	229.52
821.03	229.51
821.34	229.36
821.66	229.49
821.98	229.58
822.30	229.65
822.61	230.25
822.93	229.85
823.25	229.82
823.57	229.80
823.88	229.94
824.20	230.04
824.52	230.28
824.83	230.25
825.15	230.13
825.47	229.94
825.79	229.98
826.10	229.78
826.42	229.68
826.74	229.70
827.05	229.67
827.37	229.74
827.69	229.69
828.00	229.81
828.32	229.77
828.64	229.66
828.95	230.17
829.27	229.82
829.58	229.82
829.90	230.03
830.22	230.16
830.53	229.97
830.85	229.75
831.17	229.50
831.48	229.48
831.80	229.50
832.11	229.47
832.43	229.47
832.75	229.49
833.06	230.17
833.38	229.95
833.69	230.02
834.01	229.99
834.32	230.00
834.64	229.94
834.96	229.95
835.27	229.90
835.59	229.42
835.90	229.25
836.22	229.21
836.53	228.99
836.85	228.85
837.16	229.73
837.48	229.80
837.79	230.02
838.11	230.17
838.42	230.19
838.74	230.30
839.05	230.09
839.37	230.08
839.68	229.47
840.00	229.42
840.31	229.44
840.63	229.38
840.94	229.34
841.26	229.21
841.57	229.18
841.88	229.36
842.20	229.39
842.51	229.31
842.83	229.26
843.14	230.10
843.46	230.13
843.77	229.62
844.08	229.50
844.40	229.16
844.71	229.00
845.03	228.99
845.34	228.87
845.65	228.90
845.97	228.92
846.28	228.93
846.60	228.97
846.91	228.81
847.22	228.75
847.54	228.87
847.85	228.94
848.16	228.85
848.48	228.63
848.79	228.94
849.10	229.06
849.42	229.12
849.73	228.26
850.04	228.16
850.36	227.85
850.67	228.04
850.98	228.13
851.30	228.30
851.61	228.20
851.92	228.31
852.23	228.88
852.55	228.93
852.86	228.89
853.17	229.10
853.49	229.30
853.80	229.49
854.11	229.60
854.42	229.80
854.74	229.73
855.05	229.76
855.36	229.30
855.67	229.28
855.99	229.33
856.30	230.45
856.61	230.43
856.92	230.50
857.23	230.41
857.55	230.27
857.86	230.16
858.17	230.30
858.48	230.12
858.79	229.72
859.11	229.82
859.42	229.77
859.73	229.54
860.04	229.49
860.35	229.29
860.66	229.02
860.98	228.89
861.29	229.05
861.60	228.97
861.91	229.16
862.22	229.03
862.53	228.81
862.84	227.62
863.16	227.91
863.47	227.74
863.78	227.76
864.09	227.97
864.40	228.01
864.71	228.11
865.02	228.23
865.33	228.07
865.64	227.89
865.95	227.93
866.27	228.52
866.58	228.40
866.89	228.47
867.20	228.45
867.51	228.36
867.82	228.30
868.13	228.53
868.44	228.29
868.75	228.42
869.06	228.46
869.37	228.58
869.68	228.22
869.99	228.33
870.30	228.44
870.61	228.49
870.92	228.36
871.23	228.22
871.54	228.34
871.85	228.60
872.16	228.74
872.47	228.70
872.78	228.15
873.09	228.24
873.40	228.14
873.71	228.23
874.02	228.26
874.33	228.11
874.64	228.02
874.95	228.18
875.26	228.04
875.56	228.03
875.87	227.96
876.18	227.88
876.49	228.81
876.80	228.56
877.11	228.33
877.42	228.32
877.73	228.21
878.04	228.05
878.35	227.99
878.66	227.99
878.96	227.95
879.27	227.84
879.58	227.78
879.89	227.69
880.20	227.96
880.51	227.90
880.82	227.87
881.12	227.81
881.43	227.66
881.74	227.41
882.05	227.41
882.36	227.52
882.67	227.67
882.97	226.67
883.28	226.62
883.59	226.60
883.90	226.73
884.21	226.97
884.51	226.91
884.82	226.81
885.13	226.81
885.44	226.75
885.74	226.92
886.05	226.84
886.36	226.93
886.67	226.47
886.98	226.95
887.28	227.08
887.59	227.08
887.90	227.20
888.20	227.29
888.51	227.45
888.82	227.39
889.13	227.42
889.43	228.22
889.74	228.25
890.05	228.25
890.35	228.11
890.66	227.97
890.97	227.93
891.28	227.77
891.58	227.80
891.89	227.89
892.20	227.70
892.50	227.66
892.81	227.54
893.12	227.65
893.42	227.18
893.73	227.34
894.04	227.46
894.34	227.46
894.65	227.50
894.95	227.33
895.26	227.32
895.57	227.79
895.87	226.93
896.18	227.13
896.48	227.31
896.79	227.35
897.10	227.49
897.40	227.53
897.71	227.78
898.01	227.76
898.32	227.92
898.63	227.98
898.93	228.12
899.24	228.21
899.54	228.15
899.85	228.12
900.15	228.02
900.46	227.98
900.76	228.10
901.07	228.08
901.38	228.19
901.68	228.23
901.99	227.73
902.29	227.80
902.60	227.77
902.90	227.62
903.21	227.62
903.51	227.50
903.82	227.72
904.12	227.71
904.43	227.61
904.73	227.44
905.03	227.50
905.34	228.43
905.64	228.35
905.95	228.39
906.25	228.44
906.56	228.49
906.86	228.46
907.17	228.29
907.47	228.35
907.77	228.19
908.08	228.10
908.38	228.23
908.69	228.30
908.99	228.36
909.30	228.36
909.60	228.35
909.90	228.38
910.21	228.06
910.51	227.94
910.81	228.03
911.12	228.10
911.42	228.04
911.73	227.06
912.03	227.14
912.33	227.20
912.64	227.11
912.94	226.89
913.24	226.68
913.55	226.67
913.85	226.59
914.15	226.86
914.46	226.88
914.76	226.72
915.06	226.69
915.37	226.53
915.67	226.54
915.97	226.55
916.27	226.40
916.58	226.43
916.88	226.34
917.18	226.28
917.49	226.94
917.79	226.98
918.09	227.13
918.39	227.28
918.70	227.32
919.00	227.33
919.30	227.79
919.60	227.75
919.91	227.64
920.21	227.63
920.51	227.41
920.81	227.36
921.12	227.50
921.42	227.40
921.72	227.45
922.02	227.49
922.32	227.64
922.63	227.64
922.93	228.23
923.23	228.26
923.53	228.15
923.83	227.45
924.13	227.48
924.44	227.34
924.74	227.54
925.04	227.76
925.34	227.91
925.64	227.51
925.94	227.67
926.24	228.17
926.55	228.19
926.85	228.29
927.15	228.36
927.45	228.44
927.75	228.33
928.05	228.34
928.35	228.26
928.65	228.48
928.95	228.61
929.26	228.14
929.56	228.32
929.86	228.42
930.16	228.40
930.46	228.38
930.76	228.30
931.06	227.91
931.36	227.65
931.66	227.74
931.96	227.97
932.26	227.97
932.56	227.61
932.86	227.71
933.16	227.68
933.46	227.63
933.76	227.43
934.06	227.81
934.36	228.21
934.66	228.26
934.96	228.11
935.26	228.14
935.56	228.16
935.86	228.00
936.16	227.89
936.46	227.83
936.76	227.80
937.06	227.80
937.36	227.84
937.66	227.91
937.96	227.84
938.26	227.56
938.56	227.51
938.86	227.63
939.16	227.81
939.46	227.86
939.76	227.95
940.06	228.00
940.35	227.74
940.65	227.20
940.95	227.15
941.25	226.81
941.55	226.67
941.85	226.65
942.15	226.86
942.45	227.19
942.75	227.24
943.04	227.30
943.34	227.54
943.64	227.48
943.94	227.29
944.24	227.24
944.54	227.42
944.84	227.34
945.13	227.18
945.43	226.98
945.73	227.06
946.03	226.91
946.33	226.85
946.62	226.87
946.92	226.93
947.22	227.12
947.52	227.28
947.82	227.48
948.11	227.46
948.41	227.21
948.71	226.95
949.01	227.00
949.31	226.87
949.60	226.75
949.90	226.85
950.20	226.80
950.50	226.87
950.79	226.72
951.09	226.90
951.39	226.90
951.69	226.84
951.98	226.97
952.28	227.07
952.58	227.02
952.87	226.90
953.17	227.02
953.47	226.86
953.76	226.83
954.06	226.61
954.36	226.55
954.66	226.53
954.95	226.72
955.25	226.66
955.55	226.82
955.84	226.55
956.14	226.65
956.44	226.74
956.73	226.60
957.03	226.58
957.32	226.59
957.62	226.51
957.92	226.75
958.21	226.59
958.51	227.60
958.81	227.77
959.10	227.96
959.40	228.10
959.69	228.08
959.99	228.26
960.29	228.37
960.58	228.36
960.88	228.78
961.17	228.67
961.47	228.87
961.76	228.70
962.06	228.97
962.36	228.86
962.65	228.86
962.95	228.83
963.24	228.88
963.54	228.90
963.83	229.04
964.13	228.82
964.42	228.64
964.72	227.87
965.01	227.84
965.31	227.68
965.60	227.47
965.90	228.10
966.19	227.81
966.49	227.80
966.78	227.78
967.08	227.67
967.37	227.76
967.67	227.62
967.96	227.89
968.26	227.89
968.55	227.98
968.85	228.04
969.14	228.04
969.43	227.99
969.73	227.90
970.02	227.81
970.32	227.79
970.61	227.80
970.91	227.56
971.20	227.50
971.49	227.59
971.79	227.62
972.08	226.95
972.38	227.03
972.67	226.99
972.96	227.09
973.26	226.90
973.55	227.12
973.85	227.08
974.14	226.86
974.43	227.02
974.73	226.93
975.02	226.76
975.31	226.87
975.61	226.86
975.90	226.82
976.19	226.69
976.49	226.88
976.78	226.91
977.07	226.90
977.37	226.97
977.66	227.10
977.95	227.02
978.24	227.14
978.54	227.41
978.83	227.41
979.12	227.32
979.42	227.29
979.71	227.04
980.00	226.96
980.29	227.00
980.59	226.68
980.88	226.99
981.17	227.01
981.46	226.89
981.76	227.00
982.05	227.23
982.34	227.41
982.63	227.34
982.93	227.32
983.22	227.62
983.51	227.53
983.80	227.57
984.09	227.68
984.39	227.59
984.68	227.43
984.97	227.49
985.26	227.42
985.55	227.54
985.85	227.31
986.14	227.43
986.43	227.59
986.72	227.58
987.01	227.11
987.30	227.17
987.59	227.17
987.89	227.10
988.18	226.79
988.47	226.64
988.76	226.56
989.05	226.54
989.34	226.38
989.63	226.63
989.92	226.40
990.22	226.35
990.51	226.44
990.80	226.30
991.09	226.35
991.38	226.51
991.67	226.42
991.96	226.54
992.25	226.58
992.54	226.30
992.83	226.45
993.12	226.51
993.41	226.54
993.70	226.95
993.99	227.07
994.28	227.24
994.58	227.41
994.87	227.32
995.16	227.28
995.45	227.06
995.74	226.77
996.03	226.96
996.32	227.05
996.61	227.17
996.90	227.20
997.19	227.04
997.48	227.06
997.77	226.95
998.06	226.98
998.34	226.97
998.63	227.08
998.92	226.95
999.21	227.19
999.50	227.34
999.79	226.95
1000.08	226.94
1000.37	226.96
1000.66	226.83
1000.95	227.10
1001.24	227.20
1001.53	227.41
1001.82	227.24
1002.11	227.04
1002.40	227.13
1002.68	227.34
1002.97	228.09
1003.26	228.01
1003.55	227.82
1003.84	227.91
1004.13	228.21
1004.42	228.12
1004.71	228.15
1004.99	228.16
1005.28	228.27
1005.57	228.11
1005.86	228.08
1006.15	227.93
1006.44	227.77
1006.72	227.89
1007.01	227.70
1007.30	227.70
1007.59	227.65
1007.88	227.76
1008.17	227.81
1008.45	227.58
1008.74	227.16
1009.03	226.56
1009.32	226.66
1009.60	226.55
1009.89	226.45
1010.18	226.06
1010.47	226.07
1010.76	226.00
1011.04	225.98
1011.33	225.97
1011.62	226.01
1011.91	226.07
1012.19	226.25
1012.48	226.30
1012.77	226.32
1013.05	226.85
1013.34	226.79
1013.63	226.72
1013.92	226.75
1014.20	226.70
1014.49	226.80
1014.78	226.93
1015.06	226.60
1015.35	226.49
1015.64	226.85
1015.92	226.91
1016.21	226.92
1016.50	226.90
1016.78	227.03
1017.07	227.07
1017.36	226.82
1017.64	226.74
1017.93	226.88
1018.22	226.74
1018.50	226.66
1018.79	226.57
1019.08	226.10
1019.36	226.17
1019.65	225.98
1019.93	226.25
1020.22	226.45
1020.51	227.02
1020.79	226.89
1021.08	225.60
1021.36	223.90
1021.65	226.10
1021.94	226.90
1022.22	227.40
1022.51	222.80
1022.79	230.40
1023.08	229.30
1023.36	240.20
1023.65	224.80
>>>>>End Processed Spectral Data<<<<<
