SpectraSuite Data File
++++++++++++++++++++++++++++++++++++
Date: Wed Sep 04 17:33:45 EDT 2013
User: lab3
Dark Spectrum Present: Yes
Reference Spectrum Present: No
Number of Sampled Component Spectra: 1
Spectrometers: USB2E7196
Integration Time (usec): 337000 (USB2E7196)
Spectra Averaged: 10 (USB2E7196)
Boxcar Smoothing: 10 (USB2E7196)
Correct for Electrical Dark: No (USB2E7196)
Strobe/Lamp Enabled: No (USB2E7196)
Correct for Detector Non-linearity: No (USB2E7196)
Correct for Stray Light: No (USB2E7196)
Number of Pixels in Processed Spectrum: 2048
>>>>>Begin Processed Spectral Data<<<<<
339.09	0.00
339.48	213.00
339.86	212.80
340.24	214.20
340.63	216.30
341.01	232.30
341.39	221.50
341.78	223.00
342.16	224.10
342.54	222.00
342.93	213.00
343.31	223.63
343.69	224.21
344.07	224.66
344.46	225.28
344.84	225.79
345.22	225.50
345.60	225.74
345.99	225.96
346.37	226.11
346.75	226.20
347.13	226.19
347.52	226.23
347.90	226.65
348.28	226.69
348.66	226.90
349.05	226.78
349.43	227.05
349.81	227.20
350.19	227.19
350.57	227.23
350.96	227.37
351.34	227.61
351.72	227.77
352.10	228.04
352.48	227.97
352.87	227.96
353.25	228.03
353.63	228.06
354.01	228.07
354.39	228.21
354.77	228.37
355.15	228.70
355.54	228.63
355.92	228.32
356.30	228.36
356.68	229.00
357.06	229.03
357.44	228.83
357.82	228.92
358.20	229.70
358.58	229.74
358.97	229.79
359.35	229.88
359.73	229.95
360.11	229.96
360.49	230.04
360.87	230.09
361.25	230.23
361.63	230.64
362.01	230.77
362.39	230.67
362.77	230.77
363.15	230.77
363.53	230.89
363.91	230.98
364.29	231.00
364.67	230.23
365.05	230.30
365.43	230.50
365.81	230.55
366.19	230.28
366.57	230.65
366.95	230.70
367.33	230.51
367.71	230.65
368.09	230.84
368.47	230.99
368.85	231.06
369.23	231.27
369.61	230.88
369.99	231.16
370.37	231.28
370.75	231.78
371.13	231.58
371.51	231.51
371.89	231.57
372.27	231.64
372.65	231.66
373.03	231.63
373.41	231.50
373.78	231.47
374.16	231.01
374.54	230.81
374.92	230.60
375.30	230.71
375.68	230.41
376.06	230.39
376.44	230.22
376.82	230.11
377.19	229.90
377.57	229.87
377.95	229.52
378.33	229.35
378.71	228.77
379.09	228.87
379.47	228.92
379.84	228.80
380.22	228.66
380.60	228.50
380.98	228.43
381.36	228.29
381.73	228.08
382.11	228.20
382.49	228.22
382.87	228.18
383.25	228.10
383.62	229.20
384.00	229.07
384.38	229.09
384.76	229.38
385.13	229.72
385.51	229.71
385.89	229.54
386.27	229.60
386.64	229.64
387.02	229.61
387.40	229.42
387.78	229.55
388.15	229.56
388.53	229.54
388.91	229.55
389.29	229.58
389.66	229.77
390.04	229.68
390.42	229.64
390.79	229.68
391.17	229.75
391.55	228.65
391.92	228.48
392.30	228.61
392.68	228.37
393.05	228.43
393.43	228.43
393.81	228.55
394.18	228.44
394.56	228.51
394.94	228.68
395.31	228.70
395.69	228.90
396.06	229.07
396.44	229.21
396.82	229.14
397.19	229.80
397.57	229.83
397.95	230.00
398.32	229.83
398.70	229.97
399.07	230.23
399.45	230.27
399.82	230.34
400.20	230.29
400.58	230.32
400.95	229.98
401.33	230.35
401.70	231.10
402.08	231.27
402.45	231.38
402.83	231.70
403.20	231.87
403.58	231.89
403.95	232.23
404.33	232.48
404.71	232.82
405.08	233.48
405.46	233.64
405.83	233.96
406.21	234.34
406.58	234.70
406.96	234.97
407.33	235.51
407.70	236.16
408.08	237.37
408.45	238.04
408.83	238.70
409.20	239.10
409.58	239.04
409.95	239.98
410.33	240.76
410.70	241.07
411.08	242.02
411.45	242.78
411.82	243.40
412.20	244.47
412.57	246.02
412.95	246.11
413.32	247.34
413.69	248.33
414.07	249.53
414.44	250.75
414.82	252.13
415.19	253.75
415.56	255.42
415.94	256.53
416.31	258.44
416.68	260.27
417.06	262.49
417.43	264.89
417.81	267.09
418.18	269.43
418.55	272.10
418.93	274.74
419.30	277.70
419.67	280.74
420.04	283.82
420.42	286.74
420.79	291.22
421.16	294.95
421.54	299.24
421.91	303.31
422.28	307.59
422.66	311.93
423.03	316.82
423.40	321.29
423.77	326.10
424.15	331.05
424.52	336.40
424.89	342.09
425.26	347.50
425.64	352.61
426.01	358.42
426.38	364.46
426.75	370.89
427.13	377.13
427.50	383.75
427.87	390.50
428.24	397.26
428.61	403.23
428.99	410.70
429.36	418.04
429.73	425.65
430.10	433.45
430.47	441.48
430.85	448.95
431.22	457.48
431.59	467.19
431.96	475.75
432.33	485.14
432.70	494.31
433.08	505.22
433.45	515.46
433.82	525.83
434.19	537.17
434.56	548.13
434.93	558.80
435.30	569.38
435.68	581.07
436.05	592.56
436.42	604.06
436.79	614.68
437.16	626.30
437.53	638.50
437.90	650.38
438.27	662.48
438.64	674.90
439.01	686.49
439.38	696.22
439.75	705.93
440.13	717.28
440.50	727.95
440.87	736.05
441.24	745.26
441.61	754.63
441.98	761.93
442.35	770.15
442.72	778.56
443.09	787.11
443.46	792.02
443.83	795.47
444.20	798.38
444.57	802.10
444.94	803.99
445.31	805.63
445.68	808.10
446.05	808.32
446.42	806.67
446.79	804.84
447.16	802.63
447.53	801.38
447.90	796.33
448.27	791.06
448.64	784.81
449.01	779.89
449.37	771.71
449.74	763.31
450.11	754.29
450.48	743.53
450.85	732.13
451.22	722.87
451.59	713.90
451.96	705.18
452.33	694.20
452.70	683.90
453.07	672.02
453.43	659.09
453.80	647.51
454.17	636.37
454.54	625.70
454.91	614.65
455.28	603.50
455.65	593.27
456.02	584.57
456.38	575.83
456.75	564.95
457.12	556.03
457.49	547.33
457.86	538.24
458.23	531.45
458.59	523.82
458.96	515.80
459.33	508.75
459.70	501.96
460.07	496.19
460.43	489.84
460.80	484.06
461.17	479.13
461.54	473.45
461.91	468.20
462.27	462.85
462.64	458.25
463.01	453.40
463.38	448.95
463.74	442.84
464.11	438.65
464.48	435.13
464.85	431.12
465.21	428.17
465.58	424.98
465.95	420.81
466.32	417.72
466.68	414.74
467.05	411.80
467.42	408.68
467.78	405.46
468.15	402.58
468.52	400.34
468.88	397.22
469.25	394.69
469.62	392.82
469.98	390.70
470.35	388.64
470.72	386.74
471.08	384.29
471.45	382.61
471.82	380.91
472.18	378.93
472.55	377.64
472.92	375.89
473.28	374.39
473.65	372.90
474.02	371.43
474.38	370.35
474.75	369.30
475.11	368.05
475.48	367.30
475.85	366.28
476.21	365.28
476.58	364.52
476.94	363.94
477.31	363.29
477.67	362.78
478.04	362.27
478.41	361.83
478.77	362.44
479.14	361.89
479.50	361.70
479.87	361.55
480.23	361.50
480.60	361.37
480.96	361.36
481.33	362.00
481.69	362.14
482.06	362.30
482.42	362.60
482.79	363.00
483.15	363.38
483.52	364.15
483.88	364.70
484.25	365.31
484.61	366.09
484.98	366.85
485.34	368.05
485.71	369.23
486.07	370.37
486.44	370.58
486.80	371.88
487.17	373.10
487.53	374.80
487.90	376.32
488.26	378.43
488.62	380.50
488.99	382.06
489.35	384.12
489.72	386.19
490.08	388.46
490.44	390.89
490.81	393.70
491.17	396.31
491.54	399.50
491.90	402.72
492.26	405.97
492.63	409.37
492.99	412.68
493.36	416.45
493.72	420.60
494.08	424.87
494.45	429.54
494.81	434.48
495.17	439.17
495.54	444.32
495.90	449.17
496.26	454.64
496.63	460.40
496.99	466.24
497.35	472.34
497.72	478.68
498.08	485.13
498.44	491.64
498.80	498.76
499.17	505.66
499.53	513.05
499.89	520.90
500.26	528.76
500.62	536.95
500.98	545.56
501.34	554.22
501.71	563.25
502.07	572.15
502.43	581.35
502.79	591.00
503.16	600.89
503.52	611.52
503.88	621.89
504.24	633.12
504.60	644.81
504.97	656.87
505.33	668.84
505.69	682.12
506.05	694.87
506.41	708.14
506.78	721.69
507.14	735.34
507.50	749.30
507.86	763.80
508.22	778.37
508.59	793.22
508.95	808.81
509.31	825.26
509.67	841.71
510.03	858.12
510.39	874.57
510.75	891.58
511.12	908.77
511.48	926.53
511.84	944.45
512.20	962.42
512.56	980.65
512.92	999.64
513.28	1018.23
513.64	1037.82
514.00	1057.40
514.37	1077.36
514.73	1098.04
515.09	1119.06
515.45	1140.07
515.81	1161.09
516.17	1182.61
516.53	1203.41
516.89	1224.17
517.25	1245.91
517.61	1268.92
517.97	1292.33
518.33	1315.05
518.69	1337.90
519.05	1361.09
519.41	1383.90
519.77	1407.76
520.13	1431.16
520.49	1454.36
520.85	1480.83
521.21	1504.54
521.57	1528.57
521.93	1551.90
522.29	1575.52
522.65	1598.48
523.01	1621.58
523.37	1644.80
523.73	1667.82
524.09	1690.83
524.45	1714.20
524.81	1737.17
525.17	1759.70
525.53	1782.10
525.89	1805.63
526.25	1828.90
526.61	1851.52
526.97	1875.36
527.33	1898.78
527.68	1923.29
528.04	1946.96
528.40	1967.38
528.76	1991.06
529.12	2013.79
529.48	2037.11
529.84	2059.48
530.20	2083.12
530.56	2106.81
530.91	2130.57
531.27	2153.50
531.63	2176.91
531.99	2199.78
532.35	2222.60
532.71	2245.50
533.07	2269.26
533.42	2291.89
533.78	2313.86
534.14	2336.80
534.50	2357.81
534.86	2379.58
535.21	2399.11
535.57	2419.92
535.93	2439.73
536.29	2459.80
536.65	2480.58
537.00	2500.53
537.36	2520.13
537.72	2539.01
538.08	2558.26
538.44	2576.50
538.79	2595.30
539.15	2613.85
539.51	2632.21
539.87	2649.82
540.22	2665.83
540.58	2682.10
540.94	2696.85
541.29	2711.36
541.65	2724.97
542.01	2739.55
542.37	2751.55
542.72	2764.12
543.08	2776.18
543.44	2789.69
543.79	2801.08
544.15	2812.20
544.51	2824.38
544.87	2836.10
545.22	2845.93
545.58	2855.02
545.94	2863.77
546.29	2871.83
546.65	2879.65
547.01	2886.43
547.36	2893.82
547.72	2900.40
548.07	2905.12
548.43	2911.55
548.79	2918.14
549.14	2923.90
549.50	2929.20
549.86	2934.20
550.21	2939.85
550.57	2945.08
550.92	2947.90
551.28	2950.91
551.64	2954.60
551.99	2957.53
552.35	2959.58
552.70	2962.74
553.06	2966.10
553.41	2968.78
553.77	2971.79
554.13	2974.88
554.48	2977.96
554.84	2980.29
555.19	2983.32
555.55	2987.14
555.90	2987.78
556.26	2988.71
556.61	2988.60
556.97	2987.79
557.32	2988.74
557.68	2989.05
558.03	2988.71
558.39	2988.95
558.74	2989.75
559.10	2987.68
559.45	2985.46
559.81	2983.41
560.16	2980.06
560.52	2976.00
560.87	2973.12
561.23	2969.10
561.58	2964.67
561.94	2958.99
562.29	2952.70
562.64	2946.93
563.00	2939.24
563.35	2934.39
563.71	2928.80
564.06	2923.87
564.42	2918.54
564.77	2913.60
565.12	2907.69
565.48	2902.56
565.83	2896.45
566.19	2890.14
566.54	2884.48
566.89	2877.72
567.25	2871.88
567.60	2866.98
567.96	2861.92
568.31	2856.03
568.66	2849.78
569.02	2842.27
569.37	2835.81
569.72	2830.27
570.08	2822.95
570.43	2815.31
570.78	2808.14
571.14	2800.50
571.49	2791.70
571.84	2784.21
572.20	2774.77
572.55	2765.57
572.90	2755.28
573.26	2746.20
573.61	2735.96
573.96	2725.52
574.31	2714.84
574.67	2703.57
575.02	2690.99
575.37	2679.03
575.72	2666.53
576.08	2654.90
576.43	2643.40
576.78	2631.01
577.13	2618.03
577.49	2605.94
577.84	2595.31
578.19	2583.84
578.54	2572.02
578.90	2561.51
579.25	2550.03
579.60	2538.37
579.95	2526.43
580.30	2514.05
580.66	2500.65
581.01	2487.90
581.36	2474.60
581.71	2462.70
582.06	2450.44
582.42	2439.10
582.77	2426.70
583.12	2415.64
583.47	2403.92
583.82	2392.57
584.17	2381.06
584.53	2369.81
584.88	2357.49
585.23	2345.03
585.58	2330.81
585.93	2317.63
586.28	2304.26
586.63	2290.09
586.98	2275.80
587.34	2262.81
587.69	2249.75
588.04	2238.19
588.39	2225.73
588.74	2214.02
589.09	2202.21
589.44	2189.31
589.79	2177.33
590.14	2165.39
590.49	2153.10
590.84	2140.77
591.19	2128.52
591.54	2116.41
591.89	2103.94
592.25	2094.40
592.60	2082.22
592.95	2071.41
593.30	2059.35
593.65	2047.03
594.00	2034.89
594.35	2026.44
594.70	2014.32
595.05	2002.60
595.40	1989.37
595.75	1977.43
596.10	1965.63
596.45	1953.41
596.80	1942.46
597.15	1930.39
597.50	1918.39
597.85	1906.33
598.19	1894.07
598.54	1881.46
598.89	1869.73
599.24	1858.83
599.59	1845.75
599.94	1834.51
600.29	1823.20
600.64	1812.30
600.99	1800.95
601.34	1790.52
601.69	1777.21
602.04	1766.04
602.39	1755.60
602.74	1745.94
603.08	1735.35
603.43	1725.13
603.78	1714.51
604.13	1703.97
604.48	1693.07
604.83	1681.80
605.18	1670.60
605.53	1660.21
605.87	1650.13
606.22	1640.37
606.57	1629.47
606.92	1618.84
607.27	1608.40
607.62	1598.00
607.96	1588.01
608.31	1579.20
608.66	1569.90
609.01	1560.05
609.36	1550.68
609.70	1540.83
610.05	1531.08
610.40	1521.51
610.75	1511.35
611.10	1501.56
611.44	1490.64
611.79	1480.82
612.14	1471.72
612.49	1462.51
612.83	1453.50
613.18	1444.08
613.53	1434.93
613.88	1425.55
614.22	1415.98
614.57	1406.40
614.92	1396.83
615.27	1387.80
615.61	1378.03
615.96	1368.29
616.31	1358.85
616.65	1349.99
617.00	1340.90
617.35	1331.68
617.70	1322.72
618.04	1313.68
618.39	1304.94
618.74	1297.75
619.08	1289.38
619.43	1280.28
619.78	1271.17
620.12	1261.64
620.47	1252.99
620.82	1243.45
621.16	1234.72
621.51	1226.85
621.85	1218.61
622.20	1210.13
622.55	1201.08
622.89	1192.42
623.24	1184.30
623.59	1175.91
623.93	1167.19
624.28	1158.67
624.62	1151.29
624.97	1143.73
625.32	1135.91
625.66	1127.72
626.01	1118.92
626.35	1111.19
626.70	1104.07
627.04	1096.84
627.39	1089.61
627.73	1082.65
628.08	1075.65
628.43	1067.88
628.77	1059.95
629.12	1052.85
629.46	1046.11
629.81	1039.65
630.15	1032.81
630.50	1025.80
630.84	1018.79
631.19	1012.14
631.53	1006.08
631.88	998.23
632.22	990.87
632.57	984.83
632.91	978.28
633.26	972.27
633.60	965.69
633.95	958.92
634.29	952.13
634.64	945.64
634.98	938.18
635.32	931.91
635.67	926.15
636.01	920.07
636.36	913.39
636.70	907.42
637.05	901.14
637.39	895.34
637.73	889.43
638.08	883.50
638.42	877.22
638.77	870.37
639.11	863.87
639.45	857.23
639.80	850.09
640.14	843.79
640.49	837.68
640.83	831.63
641.17	825.77
641.52	819.87
641.86	814.25
642.20	809.32
642.55	803.57
642.89	798.07
643.23	792.50
643.58	787.65
643.92	781.81
644.26	776.50
644.61	771.16
644.95	765.58
645.29	760.34
645.64	755.46
645.98	750.49
646.32	746.13
646.66	741.11
647.01	736.56
647.35	732.14
647.69	727.30
648.04	722.75
648.38	718.16
648.72	713.69
649.06	708.66
649.41	703.76
649.75	698.78
650.09	694.00
650.43	689.49
650.78	684.60
651.12	680.16
651.46	675.29
651.80	670.79
652.14	666.53
652.49	662.47
652.83	658.10
653.17	653.74
653.51	649.23
653.85	645.71
654.20	641.70
654.54	637.12
654.88	632.86
655.22	629.07
655.56	625.10
655.90	621.20
656.25	617.48
656.59	613.70
656.93	609.95
657.27	606.52
657.61	602.28
657.95	598.48
658.29	594.62
658.64	591.30
658.98	587.39
659.32	583.38
659.66	579.52
660.00	576.02
660.34	572.61
660.68	569.07
661.02	565.20
661.36	561.68
661.70	558.31
662.05	554.89
662.39	551.49
662.73	548.13
663.07	545.19
663.41	541.82
663.75	538.37
664.09	535.20
664.43	531.43
664.77	528.52
665.11	525.35
665.45	522.32
665.79	519.11
666.13	515.97
666.47	512.84
666.81	509.71
667.15	506.25
667.49	503.41
667.83	500.92
668.17	498.28
668.51	495.46
668.85	493.04
669.19	490.84
669.53	487.78
669.87	485.09
670.21	482.01
670.55	479.30
670.89	477.12
671.23	474.38
671.57	471.70
671.91	469.07
672.25	466.34
672.58	463.89
672.92	461.16
673.26	458.87
673.60	456.59
673.94	454.12
674.28	452.09
674.62	449.72
674.96	446.97
675.30	444.63
675.64	442.19
675.97	439.62
676.31	436.88
676.65	434.51
676.99	432.59
677.33	430.39
677.67	428.42
678.01	425.81
678.34	423.82
678.68	422.07
679.02	420.05
679.36	418.34
679.70	416.25
680.04	414.46
680.37	412.47
680.71	410.51
681.05	408.73
681.39	406.85
681.73	404.85
682.06	403.12
682.40	401.23
682.74	399.64
683.08	398.40
683.42	396.69
683.75	395.22
684.09	393.11
684.43	391.41
684.77	389.54
685.10	387.93
685.44	386.38
685.78	384.60
686.12	382.89
686.45	381.10
686.79	379.34
687.13	377.87
687.46	376.32
687.80	375.09
688.14	373.49
688.48	371.95
688.81	370.36
689.15	369.00
689.49	367.42
689.82	366.12
690.16	364.02
690.50	362.65
690.83	360.98
691.17	359.38
691.51	357.96
691.84	356.85
692.18	355.40
692.52	353.73
692.85	352.35
693.19	351.44
693.52	350.24
693.86	348.96
694.20	347.63
694.53	346.23
694.87	344.71
695.21	343.34
695.54	342.00
695.88	340.64
696.21	339.06
696.55	337.68
696.88	336.22
697.22	334.99
697.56	333.72
697.89	332.44
698.23	331.50
698.56	330.35
698.90	329.24
699.23	328.08
699.57	326.97
699.90	325.80
700.24	324.28
700.58	323.16
700.91	322.31
701.25	321.81
701.58	321.46
701.92	320.66
702.25	319.75
702.59	318.75
702.92	317.79
703.26	316.98
703.59	316.20
703.93	316.09
704.26	315.34
704.60	314.42
704.93	313.48
705.26	312.40
705.60	311.57
705.93	310.44
706.27	309.86
706.60	309.33
706.94	308.97
707.27	308.19
707.61	307.38
707.94	306.44
708.27	304.98
708.61	303.46
708.94	302.48
709.28	301.62
709.61	300.83
709.94	299.97
710.28	299.10
710.61	298.34
710.95	296.58
711.28	296.40
711.61	295.62
711.95	295.09
712.28	294.24
712.61	293.35
712.95	293.03
713.28	292.57
713.61	291.63
713.95	290.51
714.28	289.87
714.61	288.97
714.95	288.24
715.28	287.50
715.61	286.77
715.95	286.14
716.28	285.41
716.61	284.74
716.95	284.00
717.28	283.37
717.61	282.73
717.94	282.09
718.28	280.79
718.61	280.04
718.94	279.25
719.27	278.58
719.61	278.25
719.94	277.46
720.27	276.46
720.60	275.77
720.94	275.29
721.27	274.71
721.60	274.44
721.93	273.80
722.27	273.68
722.60	273.33
722.93	272.71
723.26	272.29
723.59	271.78
723.93	271.57
724.26	271.19
724.59	270.54
724.92	270.23
725.25	269.99
725.59	269.60
725.92	269.28
726.25	269.01
726.58	268.45
726.91	267.88
727.24	267.66
727.57	267.41
727.91	266.81
728.24	266.50
728.57	265.95
728.90	265.72
729.23	264.97
729.56	265.05
729.89	264.69
730.22	264.32
730.55	263.89
730.89	263.43
731.22	262.99
731.55	262.71
731.88	262.40
732.21	261.95
732.54	261.45
732.87	260.99
733.20	260.66
733.53	260.31
733.86	260.06
734.19	259.45
734.52	259.09
734.85	259.37
735.18	258.90
735.51	258.89
735.84	258.69
736.17	258.51
736.50	257.72
736.83	258.50
737.16	258.21
737.49	258.02
737.82	257.73
738.15	257.68
738.48	257.46
738.81	257.03
739.14	256.57
739.47	256.37
739.80	256.19
740.13	256.05
740.46	255.59
740.79	255.08
741.12	254.86
741.45	254.57
741.78	253.89
742.11	253.88
742.44	253.44
742.77	253.21
743.10	252.93
743.43	252.58
743.75	251.30
744.08	252.28
744.41	251.96
744.74	251.70
745.07	251.25
745.40	251.15
745.73	251.37
746.06	251.20
746.39	251.21
746.71	250.91
747.04	250.46
747.37	250.32
747.70	250.34
748.03	250.17
748.36	250.10
748.68	249.83
749.01	249.38
749.34	249.10
749.67	248.88
750.00	248.80
750.33	249.36
750.65	249.31
750.98	247.86
751.31	247.66
751.64	247.55
751.97	247.89
752.29	247.57
752.62	246.99
752.95	246.81
753.28	246.46
753.60	246.22
753.93	246.38
754.26	246.21
754.59	245.82
754.91	245.50
755.24	245.23
755.57	245.20
755.90	244.99
756.22	244.80
756.55	244.57
756.88	244.19
757.20	243.37
757.53	242.96
757.86	242.79
758.19	242.68
758.51	242.43
758.84	241.76
759.17	241.56
759.49	241.49
759.82	241.77
760.15	241.65
760.47	241.50
760.80	241.17
761.13	241.19
761.45	241.07
761.78	241.10
762.11	241.01
762.43	240.69
762.76	240.53
763.08	240.47
763.41	240.38
763.74	240.29
764.06	240.20
764.39	240.03
764.71	239.93
765.04	239.71
765.37	239.56
765.69	239.48
766.02	239.34
766.34	239.00
766.67	238.50
767.00	238.50
767.32	238.93
767.65	239.22
767.97	239.08
768.30	239.03
768.62	238.86
768.95	238.62
769.27	238.54
769.60	238.61
769.92	238.46
770.25	238.21
770.57	237.92
770.90	237.78
771.22	237.73
771.55	237.70
771.87	237.68
772.20	237.58
772.52	238.23
772.85	239.25
773.17	239.36
773.50	239.15
773.82	239.00
774.15	238.40
774.47	237.73
774.80	237.44
775.12	237.32
775.45	237.23
775.77	237.11
776.09	237.05
776.42	236.95
776.74	237.11
777.07	236.91
777.39	236.93
777.72	236.80
778.04	236.81
778.36	236.66
778.69	236.58
779.01	236.58
779.33	235.69
779.66	234.59
779.98	234.48
780.31	234.64
780.63	234.92
780.95	235.00
781.28	234.96
781.60	234.89
781.92	234.83
782.25	234.69
782.57	234.74
782.89	234.62
783.22	234.55
783.54	234.19
783.86	234.36
784.19	234.28
784.51	234.54
784.83	234.33
785.16	234.18
785.48	234.18
785.80	234.10
786.12	234.14
786.45	234.06
786.77	233.98
787.09	233.79
787.42	233.43
787.74	233.46
788.06	233.49
788.38	233.49
788.71	233.32
789.03	233.40
789.35	233.47
789.67	233.24
789.99	233.17
790.32	233.08
790.64	233.09
790.96	233.91
791.28	233.48
791.61	233.44
791.93	233.45
792.25	233.40
792.57	234.06
792.89	233.79
793.21	233.85
793.54	233.75
793.86	233.55
794.18	233.52
794.50	233.26
794.82	233.22
795.14	233.29
795.47	233.47
795.79	233.46
796.11	233.22
796.43	233.19
796.75	233.14
797.07	233.17
797.39	233.07
797.71	232.25
798.04	232.31
798.36	232.29
798.68	232.24
799.00	232.15
799.32	231.63
799.64	231.81
799.96	231.73
800.28	231.82
800.60	231.84
800.92	231.85
801.24	231.86
801.56	231.97
801.89	231.83
802.21	231.84
802.53	231.59
802.85	231.72
803.17	232.11
803.49	231.94
803.81	231.90
804.13	231.75
804.45	231.64
804.77	231.66
805.09	231.74
805.41	231.70
805.73	231.57
806.05	231.30
806.37	231.30
806.69	231.17
807.01	231.05
807.33	231.14
807.65	230.83
807.97	231.32
808.28	231.10
808.60	231.06
808.92	230.87
809.24	231.45
809.56	231.29
809.88	231.08
810.20	231.05
810.52	231.20
810.84	231.05
811.16	230.92
811.48	230.89
811.80	231.16
812.12	231.17
812.43	231.20
812.75	231.32
813.07	231.16
813.39	231.25
813.71	231.16
814.03	231.03
814.35	231.14
814.67	230.74
814.98	230.73
815.30	230.76
815.62	230.71
815.94	230.10
816.26	230.48
816.58	230.28
816.89	230.49
817.21	230.24
817.53	230.39
817.85	230.48
818.17	230.43
818.48	230.09
818.80	230.21
819.12	230.17
819.44	229.93
819.76	229.80
820.07	229.82
820.39	229.83
820.71	229.92
821.03	229.80
821.34	229.65
821.66	229.81
821.98	229.89
822.30	229.86
822.61	230.43
822.93	230.00
823.25	230.01
823.57	229.89
823.88	230.17
824.20	230.08
824.52	230.09
824.83	229.99
825.15	229.90
825.47	229.93
825.79	230.13
826.10	230.18
826.42	230.21
826.74	230.23
827.05	230.18
827.37	230.17
827.69	230.19
828.00	230.21
828.32	230.12
828.64	229.98
828.95	230.48
829.27	230.23
829.58	230.17
829.90	230.31
830.22	230.32
830.53	230.03
830.85	229.89
831.17	229.78
831.48	229.78
831.80	229.73
832.11	229.55
832.43	229.35
832.75	229.31
833.06	229.99
833.38	229.75
833.69	229.71
834.01	229.71
834.32	229.63
834.64	229.47
834.96	229.46
835.27	229.50
835.59	229.15
835.90	228.84
836.22	228.77
836.53	228.57
836.85	228.42
837.16	229.36
837.48	229.49
837.79	229.77
838.11	229.80
838.42	229.82
838.74	229.90
839.05	229.74
839.37	229.65
839.68	228.78
840.00	228.70
840.31	228.85
840.63	228.70
840.94	228.66
841.26	228.64
841.57	228.53
841.88	228.60
842.20	228.40
842.51	228.44
842.83	228.56
843.14	229.46
843.46	229.60
843.77	228.96
844.08	228.84
844.40	228.55
844.71	228.44
845.03	228.29
845.34	228.25
845.65	228.30
845.97	228.30
846.28	228.45
846.60	228.49
846.91	228.30
847.22	228.41
847.54	228.52
847.85	228.64
848.16	228.66
848.48	228.43
848.79	228.80
849.10	228.85
849.42	228.95
849.73	227.97
850.04	227.81
850.36	227.59
850.67	227.78
850.98	227.85
851.30	227.90
851.61	227.90
851.92	227.92
852.23	228.15
852.55	228.35
852.86	228.40
853.17	228.51
853.49	228.78
853.80	228.93
854.11	229.03
854.42	229.07
854.74	228.91
855.05	228.97
855.36	228.48
855.67	228.50
855.99	228.45
856.30	229.62
856.61	229.71
856.92	229.79
857.23	229.78
857.55	229.62
857.86	229.66
858.17	229.88
858.48	229.72
858.79	229.56
859.11	229.58
859.42	229.53
859.73	229.37
860.04	229.31
860.35	228.98
860.66	228.76
860.98	228.74
861.29	228.93
861.60	228.87
861.91	229.15
862.22	229.01
862.53	228.89
862.84	227.70
863.16	227.90
863.47	227.77
863.78	227.71
864.09	227.87
864.40	227.90
864.71	227.88
865.02	227.95
865.33	227.91
865.64	227.60
865.95	227.63
866.27	228.30
866.58	228.20
866.89	228.48
867.20	228.45
867.51	228.37
867.82	228.29
868.13	228.53
868.44	228.30
868.75	228.52
869.06	228.57
869.37	228.71
869.68	228.39
869.99	228.46
870.30	228.48
870.61	228.53
870.92	228.41
871.23	228.30
871.54	228.44
871.85	228.70
872.16	228.89
872.47	228.73
872.78	228.10
873.09	228.09
873.40	227.83
873.71	227.94
874.02	227.98
874.33	227.86
874.64	227.62
874.95	227.81
875.26	227.59
875.56	227.54
875.87	227.53
876.18	227.48
876.49	228.42
876.80	228.35
877.11	228.16
877.42	228.25
877.73	228.23
878.04	228.05
878.35	227.95
878.66	227.98
878.96	228.04
879.27	228.08
879.58	228.12
879.89	228.10
880.20	228.31
880.51	228.18
880.82	228.24
881.12	228.34
881.43	228.17
881.74	228.09
882.05	227.99
882.36	228.02
882.67	228.20
882.97	227.20
883.28	227.12
883.59	227.01
883.90	227.06
884.21	227.21
884.51	227.19
884.82	227.08
885.13	227.07
885.44	227.06
885.74	227.08
886.05	226.96
886.36	226.98
886.67	226.67
886.98	227.22
887.28	227.24
887.59	227.24
887.90	227.25
888.20	227.18
888.51	227.43
888.82	227.26
889.13	227.21
889.43	227.93
889.74	227.86
890.05	227.93
890.35	227.79
890.66	227.59
890.97	227.51
891.28	227.42
891.58	227.48
891.89	227.46
892.20	227.35
892.50	227.35
892.81	227.35
893.12	227.31
893.42	226.86
893.73	226.90
894.04	226.89
894.34	227.02
894.65	227.00
894.95	226.86
895.26	226.98
895.57	227.42
895.87	226.60
896.18	226.79
896.48	226.90
896.79	226.87
897.10	227.09
897.40	227.06
897.71	227.27
898.01	227.04
898.32	227.16
898.63	227.16
898.93	227.20
899.24	227.32
899.54	227.30
899.85	227.28
900.15	227.34
900.46	227.35
900.76	227.47
901.07	227.50
901.38	227.48
901.68	227.50
901.99	226.99
902.29	227.00
902.60	226.94
902.90	226.78
903.21	226.77
903.51	226.70
903.82	226.98
904.12	226.87
904.43	227.07
904.73	227.04
905.03	227.09
905.34	228.02
905.64	227.86
905.95	227.96
906.25	228.07
906.56	227.97
906.86	227.96
907.17	227.75
907.47	227.87
907.77	227.84
908.08	227.69
908.38	227.83
908.69	228.01
908.99	228.17
909.30	228.25
909.60	228.31
909.90	228.35
910.21	228.08
910.51	227.87
910.81	227.87
911.12	227.84
911.42	227.77
911.73	226.70
912.03	226.79
912.33	226.95
912.64	226.89
912.94	226.82
913.24	226.67
913.55	226.59
913.85	226.53
914.15	226.80
914.46	226.87
914.76	226.72
915.06	226.62
915.37	226.50
915.67	226.46
915.97	226.45
916.27	226.25
916.58	226.33
916.88	226.40
917.18	226.37
917.49	227.15
917.79	227.19
918.09	227.44
918.39	227.70
918.70	227.56
919.00	227.54
919.30	227.99
919.60	228.02
919.91	228.06
920.21	228.14
920.51	227.80
920.81	227.82
921.12	228.07
921.42	227.98
921.72	228.00
922.02	228.07
922.32	228.19
922.63	228.29
922.93	228.85
923.23	229.00
923.53	228.90
923.83	228.25
924.13	228.34
924.44	228.33
924.74	228.42
925.04	228.67
925.34	228.64
925.64	228.26
925.94	228.20
926.24	228.66
926.55	228.57
926.85	228.66
927.15	228.76
927.45	228.70
927.75	228.85
928.05	228.87
928.35	228.81
928.65	228.95
928.95	228.99
929.26	228.53
929.56	228.63
929.86	228.76
930.16	228.64
930.46	228.53
930.76	228.48
931.06	228.03
931.36	227.78
931.66	227.95
931.96	227.99
932.26	228.17
932.56	227.81
932.86	227.81
933.16	227.88
933.46	227.75
933.76	227.60
934.06	227.67
934.36	228.03
934.66	228.09
934.96	227.99
935.26	228.10
935.56	228.15
935.86	227.89
936.16	227.65
936.46	227.57
936.76	227.58
937.06	227.43
937.36	227.44
937.66	227.50
937.96	227.38
938.26	227.22
938.56	227.05
938.86	227.08
939.16	227.35
939.46	227.40
939.76	227.40
940.06	227.43
940.35	227.24
940.65	226.70
940.95	226.72
941.25	226.51
941.55	226.21
941.85	226.20
942.15	226.44
942.45	226.77
942.75	226.77
943.04	226.82
943.34	227.06
943.64	227.09
943.94	226.97
944.24	226.98
944.54	227.06
944.84	227.05
945.13	226.97
945.43	226.72
945.73	226.79
946.03	226.65
946.33	226.56
946.62	226.48
946.92	226.41
947.22	226.47
947.52	226.47
947.82	226.68
948.11	226.61
948.41	226.46
948.71	226.21
949.01	226.30
949.31	226.26
949.60	226.14
949.90	226.32
950.20	226.35
950.50	226.38
950.79	226.31
951.09	226.45
951.39	226.40
951.69	226.40
951.98	226.50
952.28	226.60
952.58	226.54
952.87	226.62
953.17	226.88
953.47	226.74
953.76	226.71
954.06	226.64
954.36	226.48
954.66	226.35
954.95	226.58
955.25	226.60
955.55	226.70
955.84	226.63
956.14	226.63
956.44	226.70
956.73	226.52
957.03	226.65
957.32	226.61
957.62	226.57
957.92	226.84
958.21	226.69
958.51	227.71
958.81	227.85
959.10	227.91
959.40	228.11
959.69	228.25
959.99	228.47
960.29	228.43
960.58	228.40
960.88	228.81
961.17	228.76
961.47	228.90
961.76	228.74
962.06	228.88
962.36	228.80
962.65	228.76
962.95	228.92
963.24	228.81
963.54	228.90
963.83	229.03
964.13	228.88
964.42	228.70
964.72	227.94
965.01	228.03
965.31	227.96
965.60	227.72
965.90	228.25
966.19	227.94
966.49	228.00
966.78	228.02
967.08	228.03
967.37	227.97
967.67	227.68
967.96	227.90
968.26	227.85
968.55	227.86
968.85	227.88
969.14	227.89
969.43	227.91
969.73	227.84
970.02	227.76
970.32	227.69
970.61	227.76
970.91	227.52
971.20	227.39
971.49	227.31
971.79	227.29
972.08	226.71
972.38	226.94
972.67	226.90
972.96	227.10
973.26	226.83
973.55	227.22
973.85	227.17
974.14	227.09
974.43	227.18
974.73	227.14
975.02	227.13
975.31	226.96
975.61	226.89
975.90	226.78
976.19	226.82
976.49	226.92
976.78	226.94
977.07	226.99
977.37	227.06
977.66	227.13
977.95	227.08
978.24	227.14
978.54	227.35
978.83	227.29
979.12	227.20
979.42	227.27
979.71	227.01
980.00	227.12
980.29	227.11
980.59	226.96
980.88	227.25
981.17	227.10
981.46	227.30
981.76	227.38
982.05	227.73
982.34	227.67
982.63	227.64
982.93	227.59
983.22	227.82
983.51	227.75
983.80	227.93
984.09	228.05
984.39	227.89
984.68	227.67
984.97	227.70
985.26	227.65
985.55	227.73
985.85	227.44
986.14	227.65
986.43	227.72
986.72	227.62
987.01	227.20
987.30	227.20
987.59	226.93
987.89	226.94
988.18	226.60
988.47	226.56
988.76	226.37
989.05	226.28
989.34	226.02
989.63	226.33
989.92	226.08
990.22	225.96
990.51	225.99
990.80	225.93
991.09	225.92
991.38	226.02
991.67	225.81
991.96	225.79
992.25	225.65
992.54	225.51
992.83	225.53
993.12	225.57
993.41	225.76
993.70	226.21
993.99	226.37
994.28	226.56
994.58	226.71
994.87	226.71
995.16	226.79
995.45	226.76
995.74	226.38
996.03	226.50
996.32	226.59
996.61	226.70
996.90	226.56
997.19	226.64
997.48	226.50
997.77	226.41
998.06	226.40
998.34	226.33
998.63	226.22
998.92	226.28
999.21	226.33
999.50	226.29
999.79	225.97
1000.08	225.87
1000.37	225.78
1000.66	225.69
1000.95	225.93
1001.24	225.93
1001.53	226.09
1001.82	226.05
1002.11	225.97
1002.40	226.08
1002.68	226.33
1002.97	227.09
1003.26	226.90
1003.55	226.74
1003.84	226.95
1004.13	227.38
1004.42	227.37
1004.71	227.49
1004.99	227.40
1005.28	227.74
1005.57	227.75
1005.86	227.72
1006.15	227.68
1006.44	227.52
1006.72	227.65
1007.01	227.50
1007.30	227.53
1007.59	227.49
1007.88	227.50
1008.17	227.58
1008.45	227.40
1008.74	226.94
1009.03	226.55
1009.32	226.68
1009.60	226.85
1009.89	226.65
1010.18	226.22
1010.47	226.24
1010.76	226.22
1011.04	226.31
1011.33	226.31
1011.62	226.37
1011.91	226.48
1012.19	226.53
1012.48	226.58
1012.77	226.44
1013.05	226.90
1013.34	226.95
1013.63	226.87
1013.92	227.01
1014.20	226.97
1014.49	227.09
1014.78	227.28
1015.06	226.91
1015.35	226.83
1015.64	227.04
1015.92	227.29
1016.21	227.46
1016.50	227.47
1016.78	227.56
1017.07	227.60
1017.36	227.30
1017.64	227.03
1017.93	227.04
1018.22	226.97
1018.50	227.02
1018.79	227.03
1019.08	226.59
1019.36	226.60
1019.65	226.50
1019.93	226.75
1020.22	226.87
1020.51	227.34
1020.79	227.12
1021.08	226.10
1021.36	225.50
1021.65	226.30
1021.94	227.20
1022.22	227.40
1022.51	224.40
1022.79	232.40
1023.08	228.20
1023.36	239.10
1023.65	222.50
>>>>>End Processed Spectral Data<<<<<
