SpectraSuite Data File
++++++++++++++++++++++++++++++++++++
Date: Wed Sep 04 17:33:25 EDT 2013
User: lab3
Dark Spectrum Present: Yes
Reference Spectrum Present: No
Number of Sampled Component Spectra: 1
Spectrometers: USB2E7196
Integration Time (usec): 337000 (USB2E7196)
Spectra Averaged: 10 (USB2E7196)
Boxcar Smoothing: 10 (USB2E7196)
Correct for Electrical Dark: No (USB2E7196)
Strobe/Lamp Enabled: No (USB2E7196)
Correct for Detector Non-linearity: No (USB2E7196)
Correct for Stray Light: No (USB2E7196)
Number of Pixels in Processed Spectrum: 2048
>>>>>Begin Processed Spectral Data<<<<<
339.09	0.00
339.48	212.70
339.86	213.50
340.24	215.50
340.63	217.00
341.01	231.80
341.39	220.20
341.78	222.30
342.16	224.40
342.54	224.50
342.93	212.99
343.31	223.71
343.69	224.32
344.07	224.89
344.46	225.53
344.84	226.04
345.22	225.76
345.60	226.11
345.99	226.40
346.37	226.48
346.75	226.60
347.13	226.74
347.52	226.82
347.90	227.24
348.28	227.23
348.66	227.56
349.05	227.22
349.43	227.47
349.81	227.46
350.19	227.49
350.57	227.57
350.96	227.74
351.34	227.86
351.72	227.91
352.10	228.01
352.48	227.93
352.87	227.91
353.25	227.94
353.63	227.90
354.01	227.77
354.39	227.90
354.77	227.95
355.15	228.14
355.54	228.02
355.92	227.67
356.30	227.74
356.68	228.35
357.06	228.51
357.44	228.39
357.82	228.45
358.20	229.27
358.58	229.34
358.97	229.43
359.35	229.65
359.73	229.87
360.11	229.88
360.49	229.92
360.87	229.99
361.25	230.16
361.63	230.51
362.01	230.77
362.39	230.78
362.77	230.84
363.15	230.84
363.53	231.00
363.91	231.02
364.29	231.09
364.67	230.10
365.05	230.14
365.43	230.29
365.81	230.40
366.19	230.09
366.57	230.48
366.95	230.50
367.33	230.27
367.71	230.29
368.09	230.48
368.47	230.58
368.85	230.52
369.23	230.68
369.61	230.39
369.99	230.62
370.37	230.68
370.75	231.20
371.13	231.00
371.51	230.92
371.89	231.10
372.27	231.20
372.65	231.40
373.03	231.38
373.41	231.30
373.78	231.24
374.16	230.73
374.54	230.33
374.92	230.12
375.30	230.18
375.68	229.96
376.06	229.99
376.44	229.76
376.82	229.74
377.19	229.60
377.57	229.45
377.95	229.00
378.33	228.83
378.71	228.10
379.09	228.22
379.47	228.25
379.84	228.10
380.22	227.82
380.60	227.48
380.98	227.42
381.36	227.23
381.73	227.12
382.11	227.24
382.49	227.25
382.87	227.07
383.25	226.99
383.62	227.91
384.00	227.60
384.38	227.64
384.76	227.79
385.13	228.16
385.51	228.20
385.89	228.07
386.27	228.14
386.64	228.23
387.02	228.08
387.40	227.92
387.78	227.83
388.15	227.91
388.53	227.94
388.91	227.94
389.29	227.95
389.66	227.97
390.04	227.80
390.42	227.99
390.79	228.11
391.17	228.07
391.55	227.10
391.92	227.17
392.30	227.21
392.68	226.96
393.05	226.90
393.43	226.90
393.81	226.96
394.18	226.81
394.56	226.85
394.94	227.08
395.31	227.01
395.69	227.58
396.06	227.68
396.44	227.73
396.82	227.66
397.19	228.18
397.57	228.19
397.95	228.40
398.32	228.09
398.70	228.20
399.07	228.53
399.45	228.58
399.82	228.61
400.20	228.65
400.58	228.80
400.95	228.42
401.33	228.77
401.70	229.63
402.08	229.82
402.45	229.94
402.83	230.30
403.20	230.67
403.58	230.59
403.95	230.90
404.33	231.31
404.71	231.60
405.08	232.28
405.46	232.58
405.83	232.90
406.21	233.30
406.58	233.66
406.96	233.88
407.33	234.35
407.70	234.74
408.08	235.94
408.45	236.63
408.83	237.33
409.20	237.65
409.58	237.67
409.95	238.42
410.33	239.14
410.70	239.50
411.08	240.32
411.45	241.05
411.82	241.70
412.20	242.81
412.57	244.26
412.95	244.34
413.32	245.50
413.69	246.58
414.07	247.80
414.44	249.16
414.82	250.57
415.19	252.12
415.56	253.74
415.94	254.86
416.31	256.69
416.68	258.65
417.06	260.80
417.43	263.05
417.81	265.27
418.18	267.68
418.55	270.18
418.93	272.63
419.30	275.42
419.67	278.44
420.04	281.15
420.42	284.05
420.79	288.37
421.16	292.07
421.54	296.24
421.91	300.13
422.28	304.06
422.66	308.32
423.03	313.12
423.40	317.60
423.77	322.31
424.15	326.72
424.52	331.60
424.89	337.13
425.26	342.28
425.64	347.11
426.01	352.50
426.38	358.13
426.75	364.23
427.13	370.21
427.50	376.47
427.87	382.86
428.24	389.30
428.61	394.87
428.99	401.93
429.36	408.84
429.73	416.01
430.10	423.19
430.47	430.57
430.85	437.84
431.22	445.96
431.59	455.14
431.96	463.35
432.33	472.34
432.70	480.66
433.08	490.67
433.45	500.46
433.82	509.97
434.19	520.91
434.56	531.36
434.93	541.30
435.30	551.28
435.68	562.57
436.05	573.55
436.42	584.54
436.79	594.52
437.16	605.55
437.53	617.08
437.90	628.60
438.27	639.93
438.64	651.25
439.01	661.99
439.38	670.73
439.75	680.54
440.13	691.30
440.50	701.69
440.87	709.79
441.24	718.42
441.61	727.86
441.98	734.50
442.35	742.09
442.72	750.14
443.09	758.23
443.46	762.58
443.83	765.83
444.20	768.56
444.57	772.35
444.94	773.95
445.31	775.75
445.68	778.36
446.05	778.68
446.42	777.31
446.79	775.77
447.16	773.83
447.53	772.13
447.90	767.30
448.27	762.34
448.64	756.15
449.01	751.25
449.37	743.04
449.74	735.23
450.11	727.10
450.48	717.10
450.85	706.55
451.22	698.23
451.59	689.74
451.96	681.68
452.33	670.97
452.70	661.20
453.07	649.89
453.43	637.24
453.80	626.41
454.17	615.97
454.54	605.78
454.91	595.46
455.28	585.09
455.65	575.30
456.02	567.11
456.38	558.82
456.75	548.78
457.12	540.60
457.49	532.42
457.86	523.73
458.23	517.08
458.59	509.49
458.96	501.64
459.33	494.78
459.70	488.15
460.07	482.92
460.43	477.01
460.80	471.29
461.17	466.63
461.54	461.39
461.91	456.46
462.27	451.50
462.64	447.17
463.01	442.46
463.38	438.37
463.74	432.51
464.11	428.60
464.48	425.25
464.85	421.46
465.21	418.67
465.58	415.61
465.95	411.80
466.32	408.97
466.68	406.15
467.05	403.30
467.42	400.44
467.78	397.44
468.15	394.56
468.52	392.65
468.88	389.63
469.25	386.97
469.62	385.16
469.98	382.82
470.35	380.80
470.72	378.92
471.08	376.58
471.45	375.04
471.82	373.48
472.18	371.52
472.55	370.33
472.92	368.65
473.28	367.21
473.65	365.83
474.02	364.44
474.38	363.30
474.75	362.46
475.11	361.23
475.48	360.33
475.85	359.26
476.21	358.17
476.58	357.50
476.94	357.05
477.31	356.09
477.67	355.75
478.04	355.20
478.41	354.83
478.77	355.50
479.14	354.94
479.50	354.69
479.87	354.63
480.23	354.41
480.60	354.19
480.96	354.02
481.33	354.38
481.69	354.32
482.06	354.52
482.42	354.56
482.79	354.98
483.15	355.35
483.52	356.15
483.88	356.50
484.25	356.91
484.61	357.24
484.98	358.02
485.34	358.98
485.71	360.01
486.07	360.90
486.44	360.89
486.80	362.04
487.17	363.06
487.53	364.50
487.90	365.94
488.26	367.81
488.62	369.51
488.99	371.03
489.35	372.97
489.72	374.61
490.08	376.42
490.44	378.30
490.81	380.41
491.17	382.33
491.54	384.93
491.90	387.61
492.26	390.38
492.63	393.09
492.99	395.61
493.36	398.59
493.72	401.93
494.08	405.29
494.45	408.79
494.81	412.65
495.17	416.24
495.54	420.22
495.90	423.95
496.26	428.12
496.63	432.54
496.99	436.95
497.35	441.86
497.72	447.07
498.08	452.10
498.44	457.42
498.80	463.18
499.17	468.67
499.53	474.30
499.89	480.49
500.26	486.73
500.62	493.23
500.98	499.91
501.34	506.61
501.71	513.79
502.07	521.02
502.43	528.29
502.79	535.87
503.16	543.45
503.52	551.52
503.88	559.62
504.24	568.07
504.60	577.19
504.97	586.56
505.33	595.82
505.69	605.75
506.05	615.41
506.41	625.43
506.78	635.80
507.14	646.48
507.50	657.26
507.86	668.23
508.22	679.52
508.59	690.95
508.95	702.90
509.31	715.20
509.67	727.48
510.03	739.76
510.39	752.48
510.75	765.49
511.12	778.51
511.48	792.12
511.84	805.40
512.20	818.85
512.56	832.53
512.92	846.47
513.28	860.54
513.64	875.09
514.00	889.83
514.37	904.92
514.73	920.08
515.09	935.54
515.45	951.07
515.81	966.79
516.17	982.70
516.53	998.44
516.89	1014.03
517.25	1030.27
517.61	1047.71
517.97	1064.75
518.33	1082.23
518.69	1099.86
519.05	1117.14
519.41	1135.09
519.77	1153.45
520.13	1170.95
520.49	1188.79
520.85	1209.39
521.21	1227.65
521.57	1245.68
521.93	1263.29
522.29	1281.72
522.65	1299.07
523.01	1317.32
523.37	1335.00
523.73	1353.00
524.09	1370.72
524.45	1388.44
524.81	1406.61
525.17	1424.40
525.53	1442.10
525.89	1459.59
526.25	1477.21
526.61	1494.91
526.97	1513.08
527.33	1531.02
527.68	1550.26
528.04	1568.58
528.40	1584.04
528.76	1602.41
529.12	1620.65
529.48	1638.98
529.84	1656.50
530.20	1675.53
530.56	1693.85
530.91	1712.35
531.27	1729.97
531.63	1748.52
531.99	1767.10
532.35	1784.78
532.71	1802.76
533.07	1821.13
533.42	1840.05
533.78	1857.79
534.14	1876.02
534.50	1893.00
534.86	1910.64
535.21	1926.47
535.57	1943.58
535.93	1959.82
536.29	1976.37
536.65	1993.36
537.00	2009.61
537.36	2025.47
537.72	2040.56
538.08	2056.45
538.44	2071.58
538.79	2087.41
539.15	2102.40
539.51	2117.01
539.87	2130.99
540.22	2143.93
540.58	2157.79
540.94	2169.26
541.29	2181.94
541.65	2194.06
542.01	2206.28
542.37	2216.86
542.72	2227.82
543.08	2237.80
543.44	2249.27
543.79	2258.60
544.15	2268.47
544.51	2278.71
544.87	2288.88
545.22	2298.06
545.58	2306.09
545.94	2314.13
546.29	2321.27
546.65	2328.00
547.01	2334.60
547.36	2341.74
547.72	2348.26
548.07	2352.98
548.43	2359.24
548.79	2364.70
549.14	2370.04
549.50	2375.31
549.86	2380.24
550.21	2385.43
550.57	2390.60
550.92	2393.60
551.28	2396.91
551.64	2400.14
551.99	2403.74
552.35	2406.65
552.70	2409.95
553.06	2413.05
553.41	2416.34
553.77	2420.27
554.13	2423.64
554.48	2427.03
554.84	2430.29
555.19	2433.32
555.55	2437.53
555.90	2439.79
556.26	2441.13
556.61	2441.63
556.97	2441.34
557.32	2442.33
557.68	2443.16
558.03	2443.83
558.39	2444.69
558.74	2446.30
559.10	2446.00
559.45	2445.12
559.81	2443.67
560.16	2442.08
560.52	2440.19
560.87	2438.58
561.23	2435.48
561.58	2433.79
561.94	2430.16
562.29	2425.79
562.64	2422.19
563.00	2416.88
563.35	2413.39
563.71	2410.35
564.06	2407.21
564.42	2404.53
564.77	2401.61
565.12	2398.00
565.48	2395.02
565.83	2391.68
566.19	2387.32
566.54	2383.41
566.89	2379.26
567.25	2375.75
567.60	2372.40
567.96	2369.57
568.31	2365.85
568.66	2361.87
569.02	2356.33
569.37	2352.28
569.72	2348.72
570.08	2343.52
570.43	2338.80
570.78	2333.52
571.14	2328.42
571.49	2322.33
571.84	2316.59
572.20	2309.73
572.55	2303.20
572.90	2295.20
573.26	2287.92
573.61	2280.75
573.96	2273.17
574.31	2264.70
574.67	2256.85
575.02	2248.00
575.37	2238.50
575.72	2229.32
576.08	2220.67
576.43	2211.52
576.78	2201.79
577.13	2191.97
577.49	2182.78
577.84	2173.57
578.19	2165.10
578.54	2155.85
578.90	2147.74
579.25	2139.22
579.60	2130.77
579.95	2121.36
580.30	2112.15
580.66	2102.50
581.01	2092.48
581.36	2082.23
581.71	2073.09
582.06	2063.65
582.42	2054.61
582.77	2045.44
583.12	2036.31
583.47	2027.55
583.82	2019.11
584.17	2010.80
584.53	2002.37
584.88	1992.71
585.23	1983.38
585.58	1972.20
585.93	1961.75
586.28	1951.25
586.63	1940.24
586.98	1928.67
587.34	1918.99
587.69	1908.79
588.04	1899.55
588.39	1890.42
588.74	1881.02
589.09	1871.97
589.44	1861.60
589.79	1852.27
590.14	1843.09
590.49	1833.50
590.84	1823.70
591.19	1814.30
591.54	1804.29
591.89	1794.51
592.25	1787.45
592.60	1778.50
592.95	1770.05
593.30	1760.61
593.65	1751.08
594.00	1741.46
594.35	1735.49
594.70	1725.56
595.05	1716.64
595.40	1706.71
595.75	1697.02
596.10	1688.06
596.45	1678.57
596.80	1669.69
597.15	1659.72
597.50	1649.96
597.85	1640.88
598.19	1631.37
598.54	1621.37
598.89	1611.85
599.24	1602.92
599.59	1592.40
599.94	1582.53
600.29	1573.35
600.64	1564.70
600.99	1555.69
601.34	1547.62
601.69	1536.64
602.04	1527.97
602.39	1518.98
602.74	1510.87
603.08	1502.52
603.43	1494.20
603.78	1485.30
604.13	1476.82
604.48	1468.43
604.83	1459.01
605.18	1449.33
605.53	1440.60
605.87	1432.40
606.22	1424.78
606.57	1415.83
606.92	1406.92
607.27	1399.12
607.62	1391.15
607.96	1382.94
608.31	1375.52
608.66	1367.49
609.01	1359.01
609.36	1351.28
609.70	1343.70
610.05	1335.30
610.40	1327.59
610.75	1319.16
611.10	1311.53
611.44	1302.68
611.79	1294.36
612.14	1287.07
612.49	1279.52
612.83	1272.01
613.18	1264.19
613.53	1256.37
613.88	1248.72
614.22	1240.89
614.57	1232.88
614.92	1224.62
615.27	1217.17
615.61	1208.86
615.96	1200.91
616.31	1193.27
616.65	1185.95
617.00	1177.93
617.35	1170.76
617.70	1163.00
618.04	1155.66
618.39	1148.20
618.74	1142.18
619.08	1134.93
619.43	1127.48
619.78	1120.39
620.12	1112.70
620.47	1105.32
620.82	1097.73
621.16	1090.38
621.51	1083.97
621.85	1077.15
622.20	1069.98
622.55	1062.61
622.89	1056.16
623.24	1049.54
623.59	1042.63
623.93	1035.58
624.28	1028.56
624.62	1022.59
624.97	1016.12
625.32	1009.65
625.66	1002.79
626.01	995.42
626.35	989.35
626.70	982.93
627.04	977.03
627.39	970.60
627.73	964.75
628.08	958.83
628.43	952.44
628.77	945.99
629.12	940.02
629.46	934.53
629.81	929.40
630.15	923.51
630.50	917.84
630.84	912.23
631.19	906.46
631.53	901.39
631.88	894.67
632.22	888.92
632.57	883.83
632.91	878.24
633.26	873.41
633.60	867.59
633.95	862.16
634.29	855.96
634.64	850.90
634.98	844.83
635.32	839.48
635.67	834.64
636.01	829.48
636.36	824.04
636.70	819.07
637.05	813.62
637.39	808.30
637.73	802.95
638.08	797.96
638.42	792.56
638.77	787.06
639.11	781.54
639.45	775.86
639.80	769.81
640.14	764.90
640.49	759.37
640.83	754.50
641.17	749.76
641.52	745.01
641.86	740.09
642.20	736.05
642.55	731.09
642.89	726.26
643.23	721.50
643.58	717.23
643.92	712.00
644.26	707.27
644.61	703.19
644.95	698.78
645.29	694.06
645.64	690.12
645.98	685.90
646.32	682.04
646.66	677.94
647.01	673.90
647.35	669.88
647.69	666.12
648.04	662.27
648.38	658.22
648.72	654.54
649.06	650.34
649.41	645.98
649.75	641.70
650.09	637.67
650.43	633.60
650.78	629.27
651.12	625.40
651.46	621.51
651.80	617.19
652.14	613.21
652.49	609.76
652.83	605.86
653.17	602.07
653.51	597.90
653.85	594.32
654.20	590.85
654.54	587.03
654.88	583.31
655.22	580.20
655.56	576.70
655.90	573.01
656.25	569.70
656.59	566.36
656.93	563.30
657.27	560.39
657.61	556.98
657.95	553.72
658.29	550.69
658.64	547.55
658.98	544.50
659.32	541.02
659.66	537.70
660.00	534.42
660.34	531.37
660.68	528.48
661.02	525.40
661.36	522.39
661.70	519.18
662.05	516.14
662.39	512.89
662.73	510.11
663.07	507.77
663.41	505.05
663.75	502.04
664.09	499.30
664.43	496.00
664.77	493.44
665.11	490.64
665.45	487.83
665.79	485.16
666.13	482.35
666.47	479.77
666.81	477.00
667.15	474.16
667.49	471.68
667.83	469.65
668.17	467.30
668.51	465.02
668.85	463.03
669.19	461.10
669.53	458.62
669.87	456.32
670.21	453.67
670.55	451.28
670.89	449.58
671.23	447.32
671.57	445.37
671.91	443.24
672.25	440.90
672.58	439.03
672.92	436.68
673.26	434.53
673.60	432.62
673.94	430.58
674.28	429.00
674.62	426.98
674.96	424.63
675.30	422.59
675.64	420.38
675.97	418.20
676.31	415.74
676.65	413.67
676.99	412.03
677.33	410.06
677.67	408.17
678.01	405.72
678.34	403.83
678.68	402.04
679.02	400.01
679.36	398.46
679.70	396.50
680.04	394.89
680.37	393.30
680.71	391.69
681.05	390.19
681.39	388.49
681.73	386.88
682.06	385.20
682.40	383.60
682.74	382.09
683.08	380.77
683.42	379.21
683.75	377.92
684.09	376.03
684.43	374.55
684.77	372.93
685.10	371.51
685.44	370.13
685.78	368.46
686.12	367.11
686.45	365.78
686.79	364.27
687.13	363.08
687.46	361.65
687.80	360.36
688.14	358.88
688.48	357.45
688.81	356.00
689.15	354.98
689.49	353.62
689.82	352.32
690.16	350.72
690.50	349.51
690.83	348.06
691.17	346.61
691.51	345.37
691.84	344.30
692.18	342.99
692.52	341.50
692.85	340.44
693.19	339.67
693.52	338.32
693.86	337.14
694.20	335.85
694.53	334.79
694.87	333.47
695.21	332.26
695.54	331.08
695.88	329.81
696.21	328.40
696.55	327.19
696.88	326.05
697.22	324.91
697.56	323.82
697.89	322.65
698.23	321.72
698.56	320.53
698.90	319.60
699.23	318.65
699.57	317.89
699.90	316.73
700.24	315.40
700.58	314.45
700.91	313.63
701.25	313.31
701.58	312.87
701.92	312.21
702.25	311.37
702.59	310.44
702.92	309.77
703.26	309.11
703.59	308.19
703.93	308.09
704.26	307.38
704.60	306.64
704.93	305.77
705.26	304.83
705.60	304.15
705.93	303.03
706.27	302.41
706.60	301.58
706.94	301.20
707.27	300.34
707.61	299.73
707.94	298.98
708.27	297.41
708.61	296.03
708.94	295.21
709.28	294.34
709.61	293.52
709.94	292.75
710.28	291.96
710.61	291.47
710.95	289.93
711.28	289.80
711.61	288.98
711.95	288.54
712.28	287.79
712.61	287.14
712.95	286.93
713.28	286.65
713.61	285.88
713.95	285.01
714.28	284.40
714.61	283.53
714.95	282.77
715.28	282.19
715.61	281.52
715.95	280.88
716.28	280.21
716.61	279.77
716.95	279.03
717.28	278.30
717.61	277.56
717.94	277.00
718.28	275.82
718.61	275.17
718.94	274.47
719.27	273.98
719.61	273.44
719.94	272.81
720.27	271.80
720.60	271.35
720.94	270.76
721.27	270.35
721.60	270.21
721.93	269.75
722.27	269.50
722.60	269.25
722.93	268.61
723.26	268.44
723.59	267.78
723.93	267.55
724.26	267.21
724.59	266.93
724.92	266.74
725.25	266.52
725.59	266.13
725.92	265.85
726.25	265.64
726.58	265.35
726.91	264.82
727.24	264.57
727.57	264.19
727.91	263.70
728.24	263.40
728.57	262.82
728.90	262.68
729.23	262.08
729.56	262.10
729.89	261.85
730.22	261.35
730.55	261.16
730.89	260.80
731.22	260.45
731.55	260.03
731.88	259.58
732.21	259.19
732.54	258.82
732.87	258.53
733.20	258.07
733.53	257.72
733.86	257.57
734.19	257.25
734.52	257.10
734.85	257.57
735.18	257.18
735.51	257.32
735.84	257.11
736.17	257.14
736.50	256.37
736.83	257.19
737.16	257.01
737.49	256.72
737.82	256.34
738.15	256.29
738.48	256.05
738.81	255.87
739.14	255.48
739.47	255.28
739.80	254.98
740.13	254.87
740.46	254.41
740.79	254.04
741.12	253.81
741.45	253.48
741.78	252.66
742.11	252.60
742.44	252.10
742.77	251.89
743.10	251.42
743.43	251.10
743.75	249.89
744.08	250.83
744.41	250.56
744.74	250.30
745.07	249.80
745.40	249.73
745.73	249.83
746.06	249.71
746.39	249.59
746.71	249.37
747.04	249.08
747.37	248.94
747.70	248.90
748.03	248.61
748.36	248.63
748.68	248.37
749.01	247.99
749.34	247.72
749.67	247.57
750.00	247.60
750.33	248.22
750.65	248.03
750.98	246.63
751.31	246.45
751.64	246.46
751.97	246.87
752.29	246.63
752.62	246.10
752.95	245.88
753.28	245.60
753.60	245.40
753.93	245.51
754.26	245.52
754.59	245.00
754.91	244.74
755.24	244.42
755.57	244.28
755.90	244.06
756.22	243.90
756.55	243.53
756.88	243.19
757.20	242.42
757.53	242.04
757.86	241.89
758.19	241.93
758.51	241.75
758.84	241.14
759.17	240.81
759.49	240.70
759.82	241.01
760.15	241.02
760.47	240.75
760.80	240.35
761.13	240.20
761.45	240.11
761.78	239.96
762.11	239.81
762.43	239.62
762.76	239.54
763.08	239.60
763.41	239.52
763.74	239.45
764.06	239.29
764.39	239.36
764.71	239.20
765.04	238.92
765.37	238.74
765.69	238.62
766.02	238.58
766.34	238.40
766.67	237.87
767.00	237.90
767.32	238.42
767.65	238.82
767.97	238.76
768.30	238.81
768.62	238.80
768.95	238.65
769.27	238.55
769.60	238.57
769.92	238.26
770.25	238.08
770.57	237.69
770.90	237.57
771.22	237.31
771.55	237.34
771.87	237.32
772.20	237.20
772.52	237.89
772.85	239.04
773.17	238.99
773.50	238.90
773.82	238.73
774.15	238.20
774.47	237.53
774.80	237.30
775.12	237.19
775.45	237.06
775.77	237.01
776.09	237.00
776.42	236.89
776.74	237.08
777.07	236.98
777.39	237.10
777.72	236.90
778.04	237.00
778.36	236.73
778.69	236.65
779.01	236.60
779.33	235.67
779.66	234.40
779.98	234.31
780.31	234.38
780.63	234.63
780.95	234.61
781.28	234.52
781.60	234.45
781.92	234.37
782.25	234.28
782.57	234.26
782.89	234.14
783.22	234.13
783.54	233.90
783.86	233.81
784.19	233.70
784.51	234.12
784.83	233.84
785.16	233.88
785.48	233.88
785.80	233.86
786.12	233.87
786.45	233.92
786.77	233.94
787.09	233.75
787.42	233.37
787.74	233.58
788.06	233.70
788.38	233.51
788.71	233.36
789.03	233.40
789.35	233.41
789.67	233.27
789.99	233.21
790.32	233.06
790.64	233.29
790.96	234.03
791.28	233.53
791.61	233.50
791.93	233.50
792.25	233.33
792.57	234.00
792.89	233.84
793.21	233.85
793.54	233.70
793.86	233.60
794.18	233.68
794.50	233.36
794.82	233.30
795.14	233.50
795.47	233.74
795.79	233.77
796.11	233.60
796.43	233.47
796.75	233.49
797.07	233.49
797.39	233.48
797.71	232.74
798.04	232.77
798.36	232.90
798.68	232.84
799.00	233.03
799.32	232.45
799.64	232.63
799.96	232.47
800.28	232.56
800.60	232.56
800.92	232.44
801.24	232.36
801.56	232.39
801.89	232.21
802.21	232.17
802.53	231.97
802.85	232.17
803.17	232.74
803.49	232.43
803.81	232.28
804.13	232.04
804.45	231.90
804.77	232.05
805.09	231.99
805.41	231.88
805.73	231.61
806.05	231.39
806.37	231.24
806.69	231.19
807.01	231.08
807.33	231.01
807.65	230.78
807.97	231.14
808.28	230.95
808.60	230.90
808.92	230.75
809.24	231.28
809.56	231.12
809.88	230.70
810.20	230.77
810.52	231.05
810.84	230.98
811.16	230.91
811.48	230.78
811.80	231.04
812.12	230.94
812.43	231.10
812.75	231.12
813.07	231.06
813.39	231.06
813.71	230.92
814.03	230.85
814.35	230.85
814.67	230.53
814.98	230.50
815.30	230.48
815.62	230.23
815.94	229.57
816.26	229.97
816.58	229.84
816.89	229.89
817.21	229.60
817.53	229.65
817.85	229.67
818.17	229.60
818.48	229.26
818.80	229.42
819.12	229.28
819.44	229.15
819.76	229.04
820.07	228.97
820.39	229.00
820.71	229.19
821.03	229.20
821.34	229.04
821.66	229.14
821.98	229.24
822.30	229.29
822.61	229.90
822.93	229.39
823.25	229.39
823.57	229.34
823.88	229.60
824.20	229.60
824.52	229.75
824.83	229.74
825.15	229.64
825.47	229.62
825.79	229.71
826.10	229.78
826.42	229.84
826.74	230.00
827.05	230.00
827.37	229.97
827.69	229.94
828.00	230.15
828.32	230.12
828.64	230.02
828.95	230.56
829.27	230.30
829.58	230.30
829.90	230.48
830.22	230.50
830.53	230.19
830.85	230.02
831.17	229.79
831.48	229.76
831.80	229.86
832.11	229.71
832.43	229.63
832.75	229.61
833.06	230.06
833.38	229.90
833.69	229.90
834.01	229.93
834.32	229.93
834.64	229.70
834.96	229.74
835.27	229.76
835.59	229.39
835.90	229.20
836.22	229.23
836.53	229.07
836.85	228.99
837.16	229.96
837.48	230.01
837.79	230.33
838.11	230.47
838.42	230.37
838.74	230.63
839.05	230.52
839.37	230.51
839.68	229.95
840.00	229.81
840.31	229.96
840.63	229.87
840.94	229.76
841.26	229.66
841.57	229.58
841.88	229.67
842.20	229.44
842.51	229.32
842.83	229.30
843.14	230.07
843.46	230.12
843.77	229.57
844.08	229.53
844.40	229.21
844.71	228.95
845.03	228.90
845.34	228.80
845.65	228.76
845.97	228.66
846.28	228.68
846.60	228.76
846.91	228.46
847.22	228.36
847.54	228.56
847.85	228.60
848.16	228.55
848.48	228.33
848.79	228.72
849.10	228.89
849.42	228.99
849.73	228.14
850.04	228.10
850.36	227.79
850.67	228.00
850.98	227.96
851.30	228.15
851.61	228.16
851.92	228.13
852.23	228.46
852.55	228.56
852.86	228.79
853.17	228.83
853.49	229.09
853.80	229.26
854.11	229.40
854.42	229.61
854.74	229.50
855.05	229.50
855.36	229.07
855.67	229.04
855.99	229.01
856.30	230.04
856.61	229.95
856.92	229.90
857.23	229.78
857.55	229.74
857.86	229.72
858.17	229.84
858.48	229.56
858.79	229.28
859.11	229.29
859.42	229.13
859.73	228.94
860.04	228.91
860.35	228.67
860.66	228.30
860.98	228.19
861.29	228.40
861.60	228.36
861.91	228.52
862.22	228.30
862.53	228.07
862.84	226.96
863.16	227.21
863.47	227.16
863.78	227.19
864.09	227.34
864.40	227.37
864.71	227.36
865.02	227.52
865.33	227.48
865.64	227.28
865.95	227.25
866.27	227.89
866.58	227.82
866.89	228.03
867.20	228.07
867.51	227.91
867.82	227.70
868.13	228.10
868.44	228.03
868.75	228.27
869.06	228.42
869.37	228.62
869.68	228.32
869.99	228.45
870.30	228.43
870.61	228.40
870.92	228.30
871.23	228.27
871.54	228.50
871.85	228.72
872.16	228.89
872.47	228.80
872.78	228.38
873.09	228.40
873.40	228.30
873.71	228.37
874.02	228.48
874.33	228.52
874.64	228.15
874.95	228.22
875.26	228.02
875.56	228.04
875.87	227.93
876.18	227.89
876.49	228.79
876.80	228.80
877.11	228.65
877.42	228.68
877.73	228.67
878.04	228.44
878.35	228.34
878.66	228.43
878.96	228.48
879.27	228.41
879.58	228.42
879.89	228.31
880.20	228.56
880.51	228.59
880.82	228.52
881.12	228.61
881.43	228.49
881.74	228.40
882.05	228.24
882.36	228.30
882.67	228.39
882.97	227.35
883.28	227.26
883.59	227.29
883.90	227.34
884.21	227.49
884.51	227.54
884.82	227.51
885.13	227.40
885.44	227.38
885.74	227.40
886.05	227.33
886.36	227.40
886.67	227.01
886.98	227.41
887.28	227.55
887.59	227.66
887.90	227.74
888.20	227.74
888.51	227.99
888.82	227.79
889.13	227.87
889.43	228.70
889.74	228.61
890.05	228.60
890.35	228.58
890.66	228.49
890.97	228.26
891.28	228.20
891.58	228.33
891.89	228.28
892.20	228.12
892.50	228.01
892.81	227.89
893.12	227.94
893.42	227.38
893.73	227.29
894.04	227.19
894.34	227.21
894.65	227.24
894.95	227.20
895.26	227.28
895.57	227.73
895.87	226.85
896.18	226.99
896.48	227.00
896.79	226.92
897.10	227.02
897.40	227.19
897.71	227.24
898.01	227.18
898.32	227.34
898.63	227.36
898.93	227.43
899.24	227.56
899.54	227.50
899.85	227.65
900.15	227.72
900.46	227.71
900.76	227.77
901.07	227.64
901.38	227.46
901.68	227.60
901.99	227.05
902.29	227.10
902.60	227.10
902.90	227.01
903.21	227.00
903.51	226.87
903.82	227.07
904.12	227.06
904.43	227.06
904.73	227.03
905.03	227.09
905.34	228.00
905.64	227.85
905.95	227.92
906.25	227.79
906.56	227.76
906.86	227.79
907.17	227.73
907.47	227.88
907.77	227.81
908.08	227.51
908.38	227.65
908.69	227.73
908.99	227.85
909.30	227.98
909.60	227.96
909.90	228.12
910.21	227.82
910.51	227.75
910.81	227.65
911.12	227.72
911.42	227.76
911.73	226.84
912.03	227.00
912.33	227.12
912.64	227.21
912.94	227.17
913.24	226.92
913.55	226.88
913.85	226.78
914.15	227.01
914.46	227.32
914.76	227.24
915.06	227.14
915.37	226.93
915.67	226.81
915.97	226.88
916.27	226.55
916.58	226.58
916.88	226.54
917.18	226.49
917.49	227.12
917.79	227.06
918.09	227.15
918.39	227.26
918.70	227.23
919.00	227.19
919.30	227.61
919.60	227.57
919.91	227.39
920.21	227.54
920.51	227.30
920.81	227.21
921.12	227.23
921.42	227.21
921.72	227.27
922.02	227.41
922.32	227.51
922.63	227.67
922.93	228.15
923.23	228.24
923.53	228.28
923.83	227.60
924.13	227.76
924.44	227.78
924.74	228.00
925.04	228.21
925.34	228.24
925.64	227.94
925.94	228.16
926.24	228.75
926.55	228.63
926.85	228.86
927.15	228.80
927.45	228.92
927.75	228.95
928.05	229.03
928.35	228.86
928.65	229.02
928.95	229.00
929.26	228.67
929.56	228.76
929.86	228.88
930.16	228.83
930.46	228.76
930.76	228.80
931.06	228.42
931.36	228.10
931.66	228.26
931.96	228.24
932.26	228.27
932.56	227.89
932.86	227.90
933.16	227.85
933.46	227.75
933.76	227.62
934.06	227.80
934.36	228.08
934.66	228.10
934.96	227.88
935.26	228.03
935.56	228.15
935.86	227.94
936.16	227.82
936.46	227.75
936.76	227.70
937.06	227.60
937.36	227.56
937.66	227.70
937.96	227.56
938.26	227.42
938.56	227.31
938.86	227.34
939.16	227.50
939.46	227.52
939.76	227.64
940.06	227.71
940.35	227.56
940.65	227.08
940.95	227.15
941.25	226.91
941.55	226.73
941.85	226.63
942.15	226.88
942.45	227.06
942.75	226.98
943.04	227.05
943.34	227.19
943.64	227.18
943.94	227.01
944.24	227.06
944.54	227.11
944.84	227.11
945.13	226.92
945.43	226.85
945.73	226.81
946.03	226.74
946.33	226.67
946.62	226.61
946.92	226.66
947.22	226.63
947.52	226.80
947.82	226.97
948.11	226.93
948.41	226.61
948.71	226.39
949.01	226.58
949.31	226.47
949.60	226.35
949.90	226.40
950.20	226.35
950.50	226.41
950.79	226.34
951.09	226.57
951.39	226.60
951.69	226.50
951.98	226.78
952.28	226.82
952.58	226.79
952.87	226.68
953.17	226.80
953.47	226.85
953.76	226.78
954.06	226.56
954.36	226.50
954.66	226.58
954.95	226.84
955.25	226.81
955.55	226.83
955.84	226.74
956.14	226.88
956.44	227.00
956.73	226.85
957.03	226.94
957.32	226.81
957.62	226.87
957.92	227.13
958.21	227.00
958.51	228.10
958.81	228.24
959.10	228.53
959.40	228.75
959.69	228.81
959.99	229.14
960.29	229.31
960.58	229.23
960.88	229.66
961.17	229.50
961.47	229.64
961.76	229.60
962.06	229.76
962.36	229.71
962.65	229.69
962.95	229.62
963.24	229.53
963.54	229.62
963.83	229.62
964.13	229.59
964.42	229.34
964.72	228.55
965.01	228.41
965.31	228.29
965.60	228.05
965.90	228.67
966.19	228.33
966.49	228.27
966.78	228.25
967.08	228.05
967.37	228.10
967.67	227.89
967.96	228.20
968.26	228.12
968.55	228.26
968.85	228.17
969.14	228.26
969.43	228.26
969.73	228.21
970.02	228.26
970.32	228.10
970.61	228.12
970.91	227.82
971.20	227.75
971.49	227.63
971.79	227.75
972.08	227.04
972.38	227.03
972.67	227.13
972.96	227.19
973.26	227.01
973.55	227.35
973.85	227.37
974.14	227.17
974.43	227.29
974.73	227.01
975.02	226.95
975.31	226.89
975.61	226.85
975.90	226.79
976.19	226.56
976.49	226.68
976.78	226.61
977.07	226.62
977.37	226.78
977.66	226.92
977.95	226.67
978.24	226.70
978.54	226.90
978.83	226.78
979.12	226.79
979.42	226.83
979.71	226.52
980.00	226.49
980.29	226.55
980.59	226.29
980.88	226.64
981.17	226.76
981.46	226.80
981.76	226.81
982.05	227.06
982.34	227.22
982.63	227.19
982.93	227.27
983.22	227.56
983.51	227.50
983.80	227.64
984.09	227.87
984.39	227.82
984.68	227.72
984.97	227.70
985.26	227.70
985.55	227.76
985.85	227.56
986.14	227.62
986.43	227.69
986.72	227.73
987.01	227.39
987.30	227.42
987.59	227.39
987.89	227.44
988.18	227.09
988.47	226.93
988.76	226.95
989.05	226.83
989.34	226.73
989.63	226.92
989.92	226.75
990.22	226.55
990.51	226.56
990.80	226.51
991.09	226.53
991.38	226.61
991.67	226.55
991.96	226.58
992.25	226.60
992.54	226.40
992.83	226.43
993.12	226.38
993.41	226.44
993.70	226.99
993.99	227.14
994.28	227.34
994.58	227.56
994.87	227.41
995.16	227.46
995.45	227.37
995.74	227.20
996.03	227.26
996.32	227.45
996.61	227.62
996.90	227.59
997.19	227.56
997.48	227.55
997.77	227.43
998.06	227.49
998.34	227.37
998.63	227.36
998.92	227.45
999.21	227.68
999.50	227.66
999.79	227.14
1000.08	227.17
1000.37	227.17
1000.66	226.97
1000.95	227.25
1001.24	227.35
1001.53	227.35
1001.82	227.21
1002.11	227.07
1002.40	227.08
1002.68	227.37
1002.97	228.03
1003.26	227.99
1003.55	227.80
1003.84	227.84
1004.13	228.19
1004.42	228.14
1004.71	228.10
1004.99	227.92
1005.28	228.15
1005.57	228.11
1005.86	228.10
1006.15	227.94
1006.44	227.75
1006.72	227.97
1007.01	227.80
1007.30	227.75
1007.59	227.66
1007.88	227.60
1008.17	227.64
1008.45	227.37
1008.74	226.88
1009.03	226.45
1009.32	226.46
1009.60	226.56
1009.89	226.50
1010.18	226.05
1010.47	226.13
1010.76	226.24
1011.04	226.27
1011.33	226.22
1011.62	226.25
1011.91	226.28
1012.19	226.34
1012.48	226.35
1012.77	226.29
1013.05	226.74
1013.34	226.78
1013.63	226.80
1013.92	226.95
1014.20	226.99
1014.49	227.06
1014.78	227.30
1015.06	227.01
1015.35	226.94
1015.64	227.04
1015.92	227.18
1016.21	227.21
1016.50	227.17
1016.78	227.15
1017.07	227.25
1017.36	227.02
1017.64	226.88
1017.93	226.92
1018.22	226.90
1018.50	226.92
1018.79	226.87
1019.08	226.43
1019.36	226.46
1019.65	226.32
1019.93	226.43
1020.22	226.55
1020.51	227.15
1020.79	226.91
1021.08	226.90
1021.36	224.70
1021.65	226.10
1021.94	227.60
1022.22	227.40
1022.51	224.50
1022.79	228.40
1023.08	228.80
1023.36	238.50
1023.65	224.00
>>>>>End Processed Spectral Data<<<<<
