SpectraSuite Data File
++++++++++++++++++++++++++++++++++++
Date: Wed Sep 04 17:33:04 EDT 2013
User: lab3
Dark Spectrum Present: Yes
Reference Spectrum Present: No
Number of Sampled Component Spectra: 1
Spectrometers: USB2E7196
Integration Time (usec): 337000 (USB2E7196)
Spectra Averaged: 10 (USB2E7196)
Boxcar Smoothing: 10 (USB2E7196)
Correct for Electrical Dark: No (USB2E7196)
Strobe/Lamp Enabled: No (USB2E7196)
Correct for Detector Non-linearity: No (USB2E7196)
Correct for Stray Light: No (USB2E7196)
Number of Pixels in Processed Spectrum: 2048
>>>>>Begin Processed Spectral Data<<<<<
339.09	0.00
339.48	212.90
339.86	213.30
340.24	216.50
340.63	216.50
341.01	233.10
341.39	218.50
341.78	222.90
342.16	226.70
342.54	224.10
342.93	212.90
343.31	223.57
343.69	224.14
344.07	224.69
344.46	225.19
344.84	225.67
345.22	225.27
345.60	225.65
345.99	225.85
346.37	225.80
346.75	225.80
347.13	225.95
347.52	225.97
347.90	226.33
348.28	226.41
348.66	226.74
349.05	226.49
349.43	226.63
349.81	226.78
350.19	226.82
350.57	226.89
350.96	227.18
351.34	227.33
351.72	227.39
352.10	227.51
352.48	227.43
352.87	227.40
353.25	227.52
353.63	227.53
354.01	227.51
354.39	227.60
354.77	227.76
355.15	227.91
355.54	227.98
355.92	227.71
356.30	227.76
356.68	228.44
357.06	228.50
357.44	228.44
357.82	228.40
358.20	229.20
358.58	229.31
358.97	229.28
359.35	229.52
359.73	229.85
360.11	229.87
360.49	230.09
360.87	230.18
361.25	230.31
361.63	230.65
362.01	230.81
362.39	230.90
362.77	230.93
363.15	230.97
363.53	230.96
363.91	231.04
364.29	231.06
364.67	230.07
365.05	230.09
365.43	230.20
365.81	230.34
366.19	230.08
366.57	230.41
366.95	230.50
367.33	230.33
367.71	230.23
368.09	230.41
368.47	230.29
368.85	230.32
369.23	230.48
369.61	230.16
369.99	230.45
370.37	230.56
370.75	231.09
371.13	230.98
371.51	230.86
371.89	230.97
372.27	231.06
372.65	231.13
373.03	231.12
373.41	231.08
373.78	231.00
374.16	230.53
374.54	230.15
374.92	230.05
375.30	230.00
375.68	229.76
376.06	229.72
376.44	229.67
376.82	229.70
377.19	229.67
377.57	229.59
377.95	229.16
378.33	228.88
378.71	228.27
379.09	228.29
379.47	228.29
379.84	228.17
380.22	227.92
380.60	227.77
380.98	227.65
381.36	227.64
381.73	227.40
382.11	227.38
382.49	227.41
382.87	227.21
383.25	227.16
383.62	228.36
384.00	228.03
384.38	228.01
384.76	228.00
385.13	228.17
385.51	228.15
385.89	228.00
386.27	228.16
386.64	228.26
387.02	228.12
387.40	228.05
387.78	228.01
388.15	228.04
388.53	227.92
388.91	227.93
389.29	227.78
389.66	228.00
390.04	227.92
390.42	228.05
390.79	228.12
391.17	228.05
391.55	226.87
391.92	227.01
392.30	227.17
392.68	227.00
393.05	226.90
393.43	227.03
393.81	227.15
394.18	226.95
394.56	227.01
394.94	227.27
395.31	227.22
395.69	227.50
396.06	227.77
396.44	227.91
396.82	227.89
397.19	228.42
397.57	228.29
397.95	228.43
398.32	228.02
398.70	228.21
399.07	228.47
399.45	228.55
399.82	228.56
400.20	228.44
400.58	228.54
400.95	228.40
401.33	228.65
401.70	229.43
402.08	229.63
402.45	229.70
402.83	229.99
403.20	230.25
403.58	230.39
403.95	230.61
404.33	231.00
404.71	231.26
405.08	232.01
405.46	232.28
405.83	232.74
406.21	233.30
406.58	233.67
406.96	233.91
407.33	234.32
407.70	234.90
408.08	236.13
408.45	236.73
408.83	237.25
409.20	237.58
409.58	237.55
409.95	238.33
410.33	239.00
410.70	239.39
411.08	240.21
411.45	240.90
411.82	241.60
412.20	242.61
412.57	244.08
412.95	244.13
413.32	245.33
413.69	246.24
414.07	247.31
414.44	248.37
414.82	249.86
415.19	251.26
415.56	252.56
415.94	253.64
416.31	255.52
416.68	257.42
417.06	259.45
417.43	261.60
417.81	263.72
418.18	266.00
418.55	268.43
418.93	270.90
419.30	273.67
419.67	276.50
420.04	279.18
420.42	282.01
420.79	286.33
421.16	289.80
421.54	293.92
421.91	297.82
422.28	301.75
422.66	305.81
423.03	310.50
423.40	314.94
423.77	319.25
424.15	323.90
424.52	328.73
424.89	334.14
425.26	339.06
425.64	343.83
426.01	349.15
426.38	354.66
426.75	360.45
427.13	366.18
427.50	372.19
427.87	378.56
428.24	384.70
428.61	390.16
428.99	397.13
429.36	403.62
429.73	410.62
430.10	417.70
430.47	424.79
430.85	431.81
431.22	439.69
431.59	448.81
431.96	456.52
432.33	465.35
432.70	473.75
433.08	483.94
433.45	493.50
433.82	502.87
434.19	513.54
434.56	524.10
434.93	533.77
435.30	543.63
435.68	554.66
436.05	565.58
436.42	576.18
436.79	586.15
437.16	597.19
437.53	608.50
437.90	619.51
438.27	630.63
438.64	642.17
439.01	652.82
439.38	661.64
439.75	670.94
440.13	681.40
440.50	691.12
440.87	698.88
441.24	707.04
441.61	716.07
441.98	722.67
442.35	730.14
442.72	738.16
443.09	746.13
443.46	750.40
443.83	753.44
444.20	756.32
444.57	759.97
444.94	761.51
445.31	763.12
445.68	765.85
446.05	766.30
446.42	764.67
446.79	763.20
447.16	761.56
447.53	760.27
447.90	755.82
448.27	751.55
448.64	745.68
449.01	741.40
449.37	733.89
449.74	726.38
450.11	718.16
450.48	708.45
450.85	698.10
451.22	689.60
451.59	681.19
451.96	673.34
452.33	662.83
452.70	653.47
453.07	642.48
453.43	630.40
453.80	619.87
454.17	609.80
454.54	599.89
454.91	589.42
455.28	579.21
455.65	569.58
456.02	561.16
456.38	553.01
456.75	543.01
457.12	534.56
457.49	526.53
457.86	518.02
458.23	511.62
458.59	504.42
458.96	497.20
459.33	490.77
459.70	484.10
460.07	478.89
460.43	472.94
460.80	467.47
461.17	462.81
461.54	457.59
461.91	452.63
462.27	447.67
462.64	443.54
463.01	438.96
463.38	434.72
463.74	429.22
464.11	425.19
464.48	421.78
464.85	418.21
465.21	415.56
465.58	412.52
465.95	408.69
466.32	405.73
466.68	402.63
467.05	399.75
467.42	396.90
467.78	393.95
468.15	391.08
468.52	389.09
468.88	386.00
469.25	383.57
469.62	381.72
469.98	379.59
470.35	377.63
470.72	375.74
471.08	373.46
471.45	371.89
471.82	370.42
472.18	368.56
472.55	367.09
472.92	365.20
473.28	363.69
473.65	362.27
474.02	360.85
474.38	359.90
474.75	358.92
475.11	357.64
475.48	356.81
475.85	355.93
476.21	354.84
476.58	354.23
476.94	353.52
477.31	352.91
477.67	352.18
478.04	351.70
478.41	351.24
478.77	351.96
479.14	351.35
479.50	350.98
479.87	350.89
480.23	350.87
480.60	350.65
480.96	350.55
481.33	350.88
481.69	350.90
482.06	350.95
482.42	351.20
482.79	351.51
483.15	351.70
483.52	352.40
483.88	352.71
484.25	353.10
484.61	353.51
484.98	353.83
485.34	354.86
485.71	355.50
486.07	356.23
486.44	355.87
486.80	356.70
487.17	357.54
487.53	358.75
487.90	359.99
488.26	361.54
488.62	363.12
488.99	364.13
489.35	365.65
489.72	367.15
490.08	368.54
490.44	370.07
490.81	371.95
491.17	373.54
491.54	375.62
491.90	377.85
492.26	380.17
492.63	382.55
492.99	384.71
493.36	387.36
493.72	390.22
494.08	393.15
494.45	396.35
494.81	399.70
495.17	402.80
495.54	406.17
495.90	409.45
496.26	412.90
496.63	416.76
496.99	420.64
497.35	424.44
497.72	428.69
498.08	433.03
498.44	437.46
498.80	442.13
499.17	446.87
499.53	451.48
499.89	456.56
500.26	461.46
500.62	466.74
500.98	472.41
501.34	477.77
501.71	483.57
502.07	489.33
502.43	495.16
502.79	501.32
503.16	507.54
503.52	513.88
503.88	520.20
504.24	526.99
504.60	534.10
504.97	541.55
505.33	548.79
505.69	556.78
506.05	564.49
506.41	572.29
506.78	580.00
507.14	588.35
507.50	596.77
507.86	605.66
508.22	614.64
508.59	623.19
508.95	632.41
509.31	642.01
509.67	651.13
510.03	660.63
510.39	670.13
510.75	679.90
511.12	689.89
511.48	700.11
511.84	710.30
512.20	720.54
512.56	730.93
512.92	741.92
513.28	752.72
513.64	763.70
514.00	775.13
514.37	786.80
514.73	798.58
515.09	810.19
515.45	821.90
515.81	833.69
516.17	845.80
516.53	857.90
516.89	869.60
517.25	882.32
517.61	895.59
517.97	908.60
518.33	921.54
518.69	934.80
519.05	948.31
519.41	961.64
519.77	976.01
520.13	989.61
520.49	1002.89
520.85	1016.47
521.21	1030.48
521.57	1044.23
521.93	1057.90
522.29	1071.87
522.65	1085.67
523.01	1099.61
523.37	1112.86
523.73	1126.80
524.09	1140.45
524.45	1154.30
524.81	1168.09
525.17	1181.59
525.53	1195.65
525.89	1209.65
526.25	1223.61
526.61	1237.15
526.97	1251.19
527.33	1264.88
527.68	1280.13
528.04	1294.86
528.40	1308.94
528.76	1323.42
529.12	1337.89
529.48	1352.39
529.84	1366.17
530.20	1380.90
530.56	1395.25
530.91	1410.31
531.27	1424.79
531.63	1439.64
531.99	1454.48
532.35	1469.30
532.71	1484.31
533.07	1499.20
533.42	1514.54
533.78	1528.90
534.14	1543.73
534.50	1557.96
534.86	1572.27
535.21	1585.14
535.57	1599.09
535.93	1612.33
536.29	1625.73
536.65	1639.65
537.00	1652.86
537.36	1666.33
537.72	1679.07
538.08	1692.45
538.44	1705.06
538.79	1717.61
539.15	1730.19
539.51	1742.90
539.87	1754.89
540.22	1765.99
540.58	1777.45
540.94	1787.60
541.29	1798.34
541.65	1808.65
542.01	1819.38
542.37	1828.63
542.72	1838.01
543.08	1846.94
543.44	1857.00
543.79	1865.44
544.15	1873.74
544.51	1882.80
544.87	1891.21
545.22	1898.91
545.58	1905.95
545.94	1912.47
546.29	1919.08
546.65	1925.29
547.01	1930.77
547.36	1936.52
547.72	1942.18
548.07	1947.00
548.43	1952.76
548.79	1958.10
549.14	1963.16
549.50	1968.05
549.86	1972.87
550.21	1977.51
550.57	1982.28
550.92	1985.70
551.28	1989.34
551.64	1993.36
551.99	1997.06
552.35	2000.52
552.70	2004.29
553.06	2008.21
553.41	2012.52
553.77	2016.78
554.13	2020.44
554.48	2024.36
554.84	2028.14
555.19	2031.41
555.55	2035.46
555.90	2037.51
556.26	2039.49
556.61	2041.04
556.97	2041.80
557.32	2043.92
557.68	2045.97
558.03	2047.41
558.39	2048.84
558.74	2050.67
559.10	2050.85
559.45	2051.49
559.81	2051.84
560.16	2051.29
560.52	2050.99
560.87	2050.28
561.23	2049.25
561.58	2048.45
561.94	2046.55
562.29	2043.99
562.64	2041.99
563.00	2038.46
563.35	2036.87
563.71	2035.26
564.06	2033.82
564.42	2032.50
564.77	2030.64
565.12	2028.28
565.48	2026.78
565.83	2025.05
566.19	2022.69
566.54	2020.59
566.89	2017.81
567.25	2015.33
567.60	2014.00
567.96	2012.05
568.31	2010.20
568.66	2007.04
569.02	2003.79
569.37	2001.35
569.72	1999.16
570.08	1995.93
570.43	1991.94
570.78	1988.03
571.14	1984.35
571.49	1979.81
571.84	1975.96
572.20	1971.07
572.55	1966.81
572.90	1960.80
573.26	1956.10
573.61	1950.92
573.96	1945.73
574.31	1939.53
574.67	1933.54
575.02	1926.28
575.37	1919.30
575.72	1911.83
576.08	1905.33
576.43	1898.46
576.78	1891.80
577.13	1883.94
577.49	1877.23
577.84	1871.75
578.19	1865.55
578.54	1858.70
578.90	1852.54
579.25	1845.94
579.60	1839.36
579.95	1831.97
580.30	1825.07
580.66	1817.06
581.01	1809.00
581.36	1800.62
581.71	1793.50
582.06	1786.43
582.42	1779.57
582.77	1772.18
583.12	1765.75
583.47	1758.81
583.82	1751.96
584.17	1744.24
584.53	1738.31
584.88	1730.29
585.23	1722.90
585.58	1714.20
585.93	1706.20
586.28	1698.02
586.63	1689.10
586.98	1680.04
587.34	1672.30
587.69	1664.27
588.04	1656.89
588.39	1650.10
588.74	1642.46
589.09	1634.93
589.44	1626.32
589.79	1618.75
590.14	1611.20
590.49	1603.55
590.84	1595.64
591.19	1588.06
591.54	1580.24
591.89	1571.73
592.25	1566.08
592.60	1558.55
592.95	1551.59
593.30	1543.78
593.65	1535.89
594.00	1528.14
594.35	1523.47
594.70	1515.54
595.05	1508.23
595.40	1499.87
595.75	1491.53
596.10	1484.61
596.45	1477.25
596.80	1470.28
597.15	1462.53
597.50	1454.71
597.85	1447.14
598.19	1439.32
598.54	1431.21
598.89	1423.38
599.24	1416.30
599.59	1407.60
599.94	1399.51
600.29	1391.92
600.64	1384.77
600.99	1377.60
601.34	1371.41
601.69	1362.05
602.04	1355.05
602.39	1347.33
602.74	1341.03
603.08	1334.32
603.43	1327.14
603.78	1319.98
604.13	1312.77
604.48	1305.67
604.83	1298.17
605.18	1290.21
605.53	1283.18
605.87	1275.95
606.22	1269.58
606.57	1262.26
606.92	1254.91
607.27	1248.01
607.62	1241.41
607.96	1234.86
608.31	1228.75
608.66	1221.93
609.01	1214.95
609.36	1207.99
609.70	1201.37
610.05	1194.25
610.40	1187.32
610.75	1180.43
611.10	1173.48
611.44	1166.49
611.79	1159.50
612.14	1153.35
612.49	1146.85
612.83	1140.78
613.18	1134.67
613.53	1128.26
613.88	1121.68
614.22	1115.09
614.57	1108.60
614.92	1101.97
615.27	1095.55
615.61	1088.39
615.96	1081.57
616.31	1075.05
616.65	1069.06
617.00	1062.97
617.35	1056.59
617.70	1050.40
618.04	1044.12
618.39	1037.76
618.74	1032.21
619.08	1026.30
619.43	1019.60
619.78	1013.44
620.12	1006.58
620.47	1000.11
620.82	993.57
621.16	987.53
621.51	982.08
621.85	976.31
622.20	970.09
622.55	963.68
622.89	958.01
623.24	952.23
623.59	946.28
623.93	940.31
624.28	934.41
624.62	929.70
624.97	924.53
625.32	919.00
625.66	913.32
626.01	907.32
626.35	901.75
626.70	896.62
627.04	891.38
627.39	885.90
627.73	880.89
628.08	875.65
628.43	870.01
628.77	864.36
629.12	858.88
629.46	854.22
629.81	849.85
630.15	844.89
630.50	839.72
630.84	834.95
631.19	830.18
631.53	825.54
631.88	819.71
632.22	814.38
632.57	809.74
632.91	805.02
633.26	800.53
633.60	795.87
633.95	790.97
634.29	786.04
634.64	781.50
634.98	776.42
635.32	771.91
635.67	767.77
636.01	763.30
636.36	758.58
636.70	754.10
637.05	749.32
637.39	744.82
637.73	740.40
638.08	736.40
638.42	731.51
638.77	726.58
639.11	721.77
639.45	716.89
639.80	711.95
640.14	707.42
640.49	702.90
640.83	698.54
641.17	694.57
641.52	690.35
641.86	686.36
642.20	682.88
642.55	678.69
642.89	674.55
643.23	670.51
643.58	667.24
643.92	662.80
644.26	658.57
644.61	654.91
644.95	650.83
645.29	646.41
645.64	642.73
645.98	639.24
646.32	635.64
646.66	632.04
647.01	628.54
647.35	625.04
647.69	621.57
648.04	618.05
648.38	614.40
648.72	611.00
649.06	607.30
649.41	603.32
649.75	599.44
650.09	595.77
650.43	592.31
650.78	588.53
651.12	584.98
651.46	581.40
651.80	578.00
652.14	574.60
652.49	571.60
652.83	568.37
653.17	564.98
653.51	561.53
653.85	558.54
654.20	555.24
654.54	552.01
654.88	548.54
655.22	545.80
655.56	542.60
655.90	539.37
656.25	536.22
656.59	533.68
656.93	531.00
657.27	528.52
657.61	525.20
657.95	522.30
658.29	519.37
658.64	516.82
658.98	513.56
659.32	510.75
659.66	507.77
660.00	504.97
660.34	502.10
660.68	499.32
661.02	496.40
661.36	493.71
661.70	491.00
662.05	488.47
662.39	485.58
662.73	483.39
663.07	481.35
663.41	479.06
663.75	476.08
664.09	473.56
664.43	470.64
664.77	468.26
665.11	465.53
665.45	463.30
665.79	460.97
666.13	458.63
666.47	456.20
666.81	453.80
667.15	451.20
667.49	449.19
667.83	447.42
668.17	445.32
668.51	443.28
668.85	441.45
669.19	439.80
669.53	437.51
669.87	435.00
670.21	432.60
670.55	430.47
670.89	429.02
671.23	426.89
671.57	424.92
671.91	423.15
672.25	421.36
672.58	419.67
672.92	417.52
673.26	415.80
673.60	414.20
673.94	412.54
674.28	410.99
674.62	409.17
674.96	407.14
675.30	405.39
675.64	403.60
675.97	401.59
676.31	399.32
676.65	397.48
676.99	396.11
677.33	394.25
677.67	392.65
678.01	390.50
678.34	388.82
678.68	387.33
679.02	385.54
679.36	383.89
679.70	382.18
680.04	380.74
680.37	379.10
680.71	377.38
681.05	375.80
681.39	374.36
681.73	372.83
682.06	371.43
682.40	369.91
682.74	368.56
683.08	367.46
683.42	366.02
683.75	364.91
684.09	363.29
684.43	362.17
684.77	360.68
685.10	359.35
685.44	358.23
685.78	356.78
686.12	355.57
686.45	354.40
686.79	352.97
687.13	351.91
687.46	350.64
687.80	349.70
688.14	348.37
688.48	347.00
688.81	345.82
689.15	344.73
689.49	343.50
689.82	342.40
690.16	340.93
690.50	339.81
690.83	338.53
691.17	337.15
691.51	335.92
691.84	334.92
692.18	333.71
692.52	332.44
692.85	331.37
693.19	330.63
693.52	329.43
693.86	328.53
694.20	327.21
694.53	326.25
694.87	325.01
695.21	323.90
695.54	322.95
695.88	321.75
696.21	320.49
696.55	319.47
696.88	318.25
697.22	317.14
697.56	316.29
697.89	315.18
698.23	314.46
698.56	313.48
698.90	312.67
699.23	311.69
699.57	310.90
699.90	309.95
700.24	308.73
700.58	307.96
700.91	307.19
701.25	307.10
701.58	306.89
701.92	306.18
702.25	305.48
702.59	304.59
702.92	303.85
703.26	303.21
703.59	302.59
703.93	302.79
704.26	302.20
704.60	301.44
704.93	300.74
705.26	299.87
705.60	299.26
705.93	298.32
706.27	297.90
706.60	297.35
706.94	297.08
707.27	296.24
707.61	295.52
707.94	294.67
708.27	293.25
708.61	291.77
708.94	291.08
709.28	290.28
709.61	289.59
709.94	288.97
710.28	288.27
710.61	287.53
710.95	285.99
711.28	285.94
711.61	285.25
711.95	284.77
712.28	284.14
712.61	283.38
712.95	283.20
713.28	282.93
713.61	282.18
713.95	281.36
714.28	280.85
714.61	280.09
714.95	279.47
715.28	278.73
715.61	278.17
715.95	277.60
716.28	276.99
716.61	276.58
716.95	275.84
717.28	275.31
717.61	274.74
717.94	274.25
718.28	273.05
718.61	272.52
718.94	271.84
719.27	271.26
719.61	270.85
719.94	269.99
720.27	269.07
720.60	268.45
720.94	267.89
721.27	267.65
721.60	267.48
721.93	267.08
722.27	267.06
722.60	266.84
722.93	266.38
723.26	266.09
723.59	265.69
723.93	265.49
724.26	265.15
724.59	264.70
724.92	264.38
725.25	264.30
725.59	263.94
725.92	263.80
726.25	263.56
726.58	263.33
726.91	263.10
727.24	262.80
727.57	262.54
727.91	262.03
728.24	261.69
728.57	261.29
728.90	261.04
729.23	260.46
729.56	260.49
729.89	260.20
730.22	259.91
730.55	259.56
730.89	259.18
731.22	258.83
731.55	258.59
731.88	258.22
732.21	257.80
732.54	257.42
732.87	257.13
733.20	256.87
733.53	256.61
733.86	256.30
734.19	256.00
734.52	255.94
734.85	256.40
735.18	256.05
735.51	256.05
735.84	255.77
736.17	255.72
736.50	254.97
736.83	255.79
737.16	255.59
737.49	255.25
737.82	254.97
738.15	254.85
738.48	254.59
738.81	254.40
739.14	253.99
739.47	253.73
739.80	253.40
740.13	253.30
740.46	252.87
740.79	252.61
741.12	252.31
741.45	251.91
741.78	251.10
742.11	251.13
742.44	250.60
742.77	250.60
743.10	250.33
743.43	250.13
743.75	248.85
744.08	249.78
744.41	249.50
744.74	249.30
745.07	248.81
745.40	248.80
745.73	249.00
746.06	248.84
746.39	248.75
746.71	248.42
747.04	248.02
747.37	247.84
747.70	247.83
748.03	247.73
748.36	247.59
748.68	247.53
749.01	247.02
749.34	247.01
749.67	246.81
750.00	246.74
750.33	247.24
750.65	247.22
750.98	245.98
751.31	245.92
751.64	245.80
751.97	246.30
752.29	246.10
752.62	245.40
752.95	245.14
753.28	244.78
753.60	244.70
753.93	244.82
754.26	244.71
754.59	244.35
754.91	244.08
755.24	243.88
755.57	243.59
755.90	243.39
756.22	243.08
756.55	242.77
756.88	242.40
757.20	241.62
757.53	241.15
757.86	240.93
758.19	240.85
758.51	240.77
758.84	240.00
759.17	239.66
759.49	239.63
759.82	240.03
760.15	240.05
760.47	239.85
760.80	239.41
761.13	239.39
761.45	239.08
761.78	238.92
762.11	238.86
762.43	238.62
762.76	238.53
763.08	238.52
763.41	238.37
763.74	238.27
764.06	238.15
764.39	238.09
764.71	237.95
765.04	237.78
765.37	237.51
765.69	237.47
766.02	237.36
766.34	237.10
766.67	236.65
767.00	236.66
767.32	237.15
767.65	237.68
767.97	237.47
768.30	237.49
768.62	237.40
768.95	237.12
769.27	237.07
769.60	237.10
769.92	236.84
770.25	236.56
770.57	236.35
770.90	236.28
771.22	236.11
771.55	236.08
771.87	236.02
772.20	235.94
772.52	236.71
772.85	237.88
773.17	237.80
773.50	237.70
773.82	237.53
774.15	237.02
774.47	236.31
774.80	236.11
775.12	235.94
775.45	235.95
775.77	235.97
776.09	235.93
776.42	235.88
776.74	236.09
777.07	236.11
777.39	236.14
777.72	236.00
778.04	236.17
778.36	236.03
778.69	235.98
779.01	235.93
779.33	235.09
779.66	233.96
779.98	233.94
780.31	233.88
780.63	234.21
780.95	234.17
781.28	234.12
781.60	234.06
781.92	234.16
782.25	233.98
782.57	233.92
782.89	233.87
783.22	233.80
783.54	233.63
783.86	233.66
784.19	233.47
784.51	233.71
784.83	233.54
785.16	233.52
785.48	233.59
785.80	233.60
786.12	233.64
786.45	233.54
786.77	233.60
787.09	233.50
787.42	233.12
787.74	233.13
788.06	233.14
788.38	233.09
788.71	232.93
789.03	233.03
789.35	233.10
789.67	232.94
789.99	232.83
790.32	232.67
790.64	232.82
790.96	233.59
791.28	233.20
791.61	233.12
791.93	233.07
792.25	232.90
792.57	233.62
792.89	233.32
793.21	233.32
793.54	233.15
793.86	233.05
794.18	233.04
794.50	232.84
794.82	232.81
795.14	233.00
795.47	233.16
795.79	233.14
796.11	232.93
796.43	232.83
796.75	232.83
797.07	232.81
797.39	232.61
797.71	231.96
798.04	232.02
798.36	231.96
798.68	231.90
799.00	231.95
799.32	231.28
799.64	231.41
799.96	231.34
800.28	231.52
800.60	231.47
800.92	231.49
801.24	231.46
801.56	231.59
801.89	231.49
802.21	231.50
802.53	231.32
802.85	231.52
803.17	232.00
803.49	231.94
803.81	231.79
804.13	231.74
804.45	231.58
804.77	231.63
805.09	231.62
805.41	231.51
805.73	231.26
806.05	231.07
806.37	231.07
806.69	231.08
807.01	230.96
807.33	231.05
807.65	230.76
807.97	231.30
808.28	231.14
808.60	230.96
808.92	230.78
809.24	231.36
809.56	231.06
809.88	230.75
810.20	230.67
810.52	230.97
810.84	230.84
811.16	230.80
811.48	230.63
811.80	230.97
812.12	230.97
812.43	231.12
812.75	231.20
813.07	231.08
813.39	230.96
813.71	230.90
814.03	230.76
814.35	230.80
814.67	230.23
814.98	230.19
815.30	230.12
815.62	229.98
815.94	229.34
816.26	229.93
816.58	229.76
816.89	229.88
817.21	229.62
817.53	229.72
817.85	229.73
818.17	229.70
818.48	229.36
818.80	229.52
819.12	229.34
819.44	229.15
819.76	229.06
820.07	229.13
820.39	229.01
820.71	228.98
821.03	228.95
821.34	228.89
821.66	228.95
821.98	229.06
822.30	229.02
822.61	229.68
822.93	229.13
823.25	229.10
823.57	229.04
823.88	229.28
824.20	229.18
824.52	229.37
824.83	229.39
825.15	229.26
825.47	229.28
825.79	229.43
826.10	229.47
826.42	229.47
826.74	229.52
827.05	229.55
827.37	229.71
827.69	229.70
828.00	229.69
828.32	229.70
828.64	229.61
828.95	230.18
829.27	229.89
829.58	229.79
829.90	230.00
830.22	229.96
830.53	229.68
830.85	229.62
831.17	229.35
831.48	229.42
831.80	229.49
832.11	229.34
832.43	229.26
832.75	229.21
833.06	229.81
833.38	229.60
833.69	229.52
834.01	229.59
834.32	229.52
834.64	229.53
834.96	229.44
835.27	229.36
835.59	228.91
835.90	228.68
836.22	228.74
836.53	228.43
836.85	228.31
837.16	229.27
837.48	229.30
837.79	229.55
838.11	229.42
838.42	229.32
838.74	229.55
839.05	229.43
839.37	229.40
839.68	228.76
840.00	228.68
840.31	228.83
840.63	228.69
840.94	228.70
841.26	228.56
841.57	228.59
841.88	228.80
842.20	228.75
842.51	228.65
842.83	228.68
843.14	229.71
843.46	229.77
843.77	229.21
844.08	229.14
844.40	228.90
844.71	228.86
845.03	228.90
845.34	228.74
845.65	228.67
845.97	228.69
846.28	228.72
846.60	228.86
846.91	228.75
847.22	228.69
847.54	228.87
847.85	229.04
848.16	229.01
848.48	228.79
848.79	229.11
849.10	229.29
849.42	229.24
849.73	228.31
850.04	228.34
850.36	228.10
850.67	228.23
850.98	228.28
851.30	228.42
851.61	228.40
851.92	228.35
852.23	228.78
852.55	228.73
852.86	228.73
853.17	228.81
853.49	228.93
853.80	229.24
854.11	229.34
854.42	229.42
854.74	229.28
855.05	229.31
855.36	228.78
855.67	228.71
855.99	228.86
856.30	229.90
856.61	229.90
856.92	229.86
857.23	229.90
857.55	229.74
857.86	229.62
858.17	229.77
858.48	229.67
858.79	229.40
859.11	229.59
859.42	229.58
859.73	229.44
860.04	229.50
860.35	229.05
860.66	228.74
860.98	228.68
861.29	228.89
861.60	228.91
861.91	229.21
862.22	229.02
862.53	228.80
862.84	227.76
863.16	227.94
863.47	227.78
863.78	227.65
864.09	227.83
864.40	227.92
864.71	227.88
865.02	228.07
865.33	227.97
865.64	227.75
865.95	227.78
866.27	228.27
866.58	228.08
866.89	228.33
867.20	228.27
867.51	228.13
867.82	228.00
868.13	228.22
868.44	228.00
868.75	228.25
869.06	228.42
869.37	228.57
869.68	228.21
869.99	228.39
870.30	228.49
870.61	228.50
870.92	228.34
871.23	228.33
871.54	228.35
871.85	228.63
872.16	228.72
872.47	228.68
872.78	228.31
873.09	228.43
873.40	228.32
873.71	228.47
874.02	228.56
874.33	228.51
874.64	228.30
874.95	228.52
875.26	228.34
875.56	228.31
875.87	228.12
876.18	228.07
876.49	228.95
876.80	228.84
877.11	228.70
877.42	228.81
877.73	228.78
878.04	228.57
878.35	228.47
878.66	228.53
878.96	228.50
879.27	228.40
879.58	228.37
879.89	228.35
880.20	228.57
880.51	228.54
880.82	228.64
881.12	228.74
881.43	228.54
881.74	228.41
882.05	228.26
882.36	228.38
882.67	228.50
882.97	227.46
883.28	227.36
883.59	227.37
883.90	227.43
884.21	227.56
884.51	227.59
884.82	227.49
885.13	227.50
885.44	227.44
885.74	227.44
886.05	227.35
886.36	227.29
886.67	226.95
886.98	227.39
887.28	227.39
887.59	227.33
887.90	227.45
888.20	227.48
888.51	227.66
888.82	227.45
889.13	227.66
889.43	228.39
889.74	228.43
890.05	228.41
890.35	228.30
890.66	228.20
890.97	228.06
891.28	227.91
891.58	227.92
891.89	228.02
892.20	227.96
892.50	227.92
892.81	227.90
893.12	227.86
893.42	227.38
893.73	227.40
894.04	227.40
894.34	227.49
894.65	227.46
894.95	227.45
895.26	227.60
895.57	227.91
895.87	227.11
896.18	227.25
896.48	227.22
896.79	227.31
897.10	227.39
897.40	227.52
897.71	227.72
898.01	227.63
898.32	227.72
898.63	227.72
898.93	227.79
899.24	227.95
899.54	227.94
899.85	227.96
900.15	227.95
900.46	227.94
900.76	227.87
901.07	227.90
901.38	227.76
901.68	227.89
901.99	227.44
902.29	227.55
902.60	227.50
902.90	227.58
903.21	227.47
903.51	227.40
903.82	227.61
904.12	227.60
904.43	227.64
904.73	227.58
905.03	227.65
905.34	228.56
905.64	228.41
905.95	228.46
906.25	228.48
906.56	228.44
906.86	228.45
907.17	228.43
907.47	228.53
907.77	228.48
908.08	228.29
908.38	228.34
908.69	228.42
908.99	228.49
909.30	228.52
909.60	228.54
909.90	228.66
910.21	228.34
910.51	228.25
910.81	228.29
911.12	228.28
911.42	228.24
911.73	227.34
912.03	227.48
912.33	227.68
912.64	227.67
912.94	227.53
913.24	227.42
913.55	227.33
913.85	227.23
914.15	227.48
914.46	227.60
914.76	227.54
915.06	227.46
915.37	227.31
915.67	227.27
915.97	227.30
916.27	227.12
916.58	227.26
916.88	227.15
917.18	227.08
917.49	227.81
917.79	227.80
918.09	227.80
918.39	227.93
918.70	227.89
919.00	227.85
919.30	228.28
919.60	228.34
919.91	228.12
920.21	228.18
920.51	227.93
920.81	227.84
921.12	227.90
921.42	227.93
921.72	228.02
922.02	228.17
922.32	228.23
922.63	228.17
922.93	228.67
923.23	228.71
923.53	228.62
923.83	227.87
924.13	227.95
924.44	227.99
924.74	228.15
925.04	228.23
925.34	228.25
925.64	227.88
925.94	227.78
926.24	228.43
926.55	228.40
926.85	228.52
927.15	228.49
927.45	228.49
927.75	228.43
928.05	228.51
928.35	228.40
928.65	228.57
928.95	228.66
929.26	228.03
929.56	228.32
929.86	228.39
930.16	228.30
930.46	228.23
930.76	228.26
931.06	227.83
931.36	227.61
931.66	227.72
931.96	227.71
932.26	227.81
932.56	227.45
932.86	227.48
933.16	227.55
933.46	227.51
933.76	227.25
934.06	227.40
934.36	227.68
934.66	227.61
934.96	227.41
935.26	227.51
935.56	227.74
935.86	227.47
936.16	227.29
936.46	227.30
936.76	227.26
937.06	226.98
937.36	227.11
937.66	227.12
937.96	227.02
938.26	227.04
938.56	226.95
938.86	227.02
939.16	227.11
939.46	227.12
939.76	227.12
940.06	227.21
940.35	227.12
940.65	226.72
940.95	226.73
941.25	226.69
941.55	226.50
941.85	226.51
942.15	226.73
942.45	227.18
942.75	227.09
943.04	227.11
943.34	227.44
943.64	227.25
943.94	227.16
944.24	227.20
944.54	227.21
944.84	227.20
945.13	227.05
945.43	227.06
945.73	226.99
946.03	227.00
946.33	226.95
946.62	226.88
946.92	226.76
947.22	226.81
947.52	226.82
947.82	226.95
948.11	226.90
948.41	226.69
948.71	226.36
949.01	226.55
949.31	226.54
949.60	226.50
949.90	226.74
950.20	226.67
950.50	226.66
950.79	226.63
951.09	226.85
951.39	226.72
951.69	226.58
951.98	226.76
952.28	226.82
952.58	226.86
952.87	226.87
953.17	226.97
953.47	226.95
953.76	226.90
954.06	226.74
954.36	226.57
954.66	226.63
954.95	226.85
955.25	226.92
955.55	227.01
955.84	226.85
956.14	226.89
956.44	226.97
956.73	226.82
957.03	227.09
957.32	226.95
957.62	227.00
957.92	227.23
958.21	227.11
958.51	228.21
958.81	228.33
959.10	228.50
959.40	228.71
959.69	228.75
959.99	228.93
960.29	228.97
960.58	228.79
960.88	229.11
961.17	228.95
961.47	228.96
961.76	228.73
962.06	228.89
962.36	228.77
962.65	228.87
962.95	229.00
963.24	228.64
963.54	228.83
963.83	228.90
964.13	228.80
964.42	228.57
964.72	227.70
965.01	227.70
965.31	227.56
965.60	227.36
965.90	227.96
966.19	227.76
966.49	227.79
966.78	227.93
967.08	227.84
967.37	227.89
967.67	227.69
967.96	227.82
968.26	227.77
968.55	227.94
968.85	227.84
969.14	227.80
969.43	227.98
969.73	227.84
970.02	227.86
970.32	227.83
970.61	227.81
970.91	227.41
971.20	227.33
971.49	227.18
971.79	227.29
972.08	226.55
972.38	226.69
972.67	226.63
972.96	226.76
973.26	226.44
973.55	226.71
973.85	226.70
974.14	226.68
974.43	226.82
974.73	226.63
975.02	226.71
975.31	226.72
975.61	226.58
975.90	226.51
976.19	226.29
976.49	226.38
976.78	226.46
977.07	226.68
977.37	226.67
977.66	226.81
977.95	226.67
978.24	226.84
978.54	226.94
978.83	226.93
979.12	226.97
979.42	227.15
979.71	227.01
980.00	226.92
980.29	227.03
980.59	226.72
980.88	226.95
981.17	226.87
981.46	226.86
981.76	226.94
982.05	227.21
982.34	227.34
982.63	227.31
982.93	227.35
983.22	227.57
983.51	227.64
983.80	227.79
984.09	227.96
984.39	227.70
984.68	227.56
984.97	227.67
985.26	227.46
985.55	227.46
985.85	227.34
986.14	227.54
986.43	227.71
986.72	227.70
987.01	227.45
987.30	227.44
987.59	227.39
987.89	227.39
988.18	227.05
988.47	227.09
988.76	226.93
989.05	226.91
989.34	226.74
989.63	227.01
989.92	226.82
990.22	226.69
990.51	226.85
990.80	226.83
991.09	226.93
991.38	227.11
991.67	227.08
991.96	226.98
992.25	227.04
992.54	226.84
992.83	226.87
993.12	226.89
993.41	227.11
993.70	227.43
993.99	227.53
994.28	227.68
994.58	227.77
994.87	227.82
995.16	227.66
995.45	227.56
995.74	227.26
996.03	227.38
996.32	227.56
996.61	227.72
996.90	227.71
997.19	227.54
997.48	227.60
997.77	227.45
998.06	227.49
998.34	227.40
998.63	227.36
998.92	227.46
999.21	227.53
999.50	227.43
999.79	227.13
1000.08	227.03
1000.37	227.05
1000.66	226.90
1000.95	227.08
1001.24	227.20
1001.53	227.32
1001.82	227.19
1002.11	226.99
1002.40	227.01
1002.68	227.22
1002.97	227.80
1003.26	227.70
1003.55	227.41
1003.84	227.50
1004.13	227.86
1004.42	227.77
1004.71	227.74
1004.99	227.62
1005.28	227.86
1005.57	227.82
1005.86	227.71
1006.15	227.70
1006.44	227.57
1006.72	227.63
1007.01	227.44
1007.30	227.47
1007.59	227.44
1007.88	227.48
1008.17	227.53
1008.45	227.32
1008.74	226.82
1009.03	226.46
1009.32	226.47
1009.60	226.51
1009.89	226.46
1010.18	225.96
1010.47	225.99
1010.76	226.00
1011.04	226.05
1011.33	226.00
1011.62	226.02
1011.91	226.15
1012.19	226.25
1012.48	226.27
1012.77	226.43
1013.05	226.81
1013.34	226.86
1013.63	226.84
1013.92	226.89
1014.20	226.90
1014.49	227.02
1014.78	227.27
1015.06	226.89
1015.35	226.90
1015.64	227.00
1015.92	227.20
1016.21	227.30
1016.50	227.24
1016.78	227.31
1017.07	227.33
1017.36	227.14
1017.64	226.99
1017.93	226.99
1018.22	226.86
1018.50	226.85
1018.79	226.70
1019.08	226.27
1019.36	226.17
1019.65	226.03
1019.93	226.20
1020.22	226.22
1020.51	226.62
1020.79	226.48
1021.08	225.00
1021.36	225.00
1021.65	226.60
1021.94	225.50
1022.22	224.70
1022.51	225.30
1022.79	229.40
1023.08	225.80
1023.36	238.00
1023.65	225.20
>>>>>End Processed Spectral Data<<<<<
