SpectraSuite Data File
++++++++++++++++++++++++++++++++++++
Date: Wed Sep 04 17:29:47 EDT 2013
User: lab3
Dark Spectrum Present: Yes
Reference Spectrum Present: No
Number of Sampled Component Spectra: 1
Spectrometers: USB2E7196
Integration Time (usec): 337000 (USB2E7196)
Spectra Averaged: 10 (USB2E7196)
Boxcar Smoothing: 10 (USB2E7196)
Correct for Electrical Dark: No (USB2E7196)
Strobe/Lamp Enabled: No (USB2E7196)
Correct for Detector Non-linearity: No (USB2E7196)
Correct for Stray Light: No (USB2E7196)
Number of Pixels in Processed Spectrum: 2048
>>>>>Begin Processed Spectral Data<<<<<
339.09	0.00
339.48	212.60
339.86	214.70
340.24	215.80
340.63	216.20
341.01	232.80
341.39	218.50
341.78	223.80
342.16	224.90
342.54	224.60
342.93	213.17
343.31	223.90
343.69	224.46
344.07	224.96
344.46	225.56
344.84	226.13
345.22	225.80
345.60	226.25
345.99	226.46
346.37	226.58
346.75	226.64
347.13	226.71
347.52	226.83
347.90	227.17
348.28	227.11
348.66	227.41
349.05	227.05
349.43	227.14
349.81	227.18
350.19	227.28
350.57	227.36
350.96	227.64
351.34	227.78
351.72	227.84
352.10	227.90
352.48	227.80
352.87	227.74
353.25	227.80
353.63	227.82
354.01	227.81
354.39	227.85
354.77	227.98
355.15	228.30
355.54	228.17
355.92	227.89
356.30	228.06
356.68	228.63
357.06	228.77
357.44	228.74
357.82	228.84
358.20	229.69
358.58	229.68
358.97	229.69
359.35	229.90
359.73	230.16
360.11	230.18
360.49	230.29
360.87	230.39
361.25	230.55
361.63	230.81
362.01	230.84
362.39	230.83
362.77	230.91
363.15	230.87
363.53	231.03
363.91	231.22
364.29	231.15
364.67	230.26
365.05	230.31
365.43	230.54
365.81	230.66
366.19	230.26
366.57	230.64
366.95	230.66
367.33	230.43
367.71	230.47
368.09	230.71
368.47	230.71
368.85	230.71
369.23	230.92
369.61	230.58
369.99	230.85
370.37	231.02
370.75	231.51
371.13	231.31
371.51	231.05
371.89	231.09
372.27	231.10
372.65	231.36
373.03	231.37
373.41	231.20
373.78	230.95
374.16	230.45
374.54	230.12
374.92	230.08
375.30	230.08
375.68	229.76
376.06	229.73
376.44	229.65
376.82	229.59
377.19	229.50
377.57	229.45
377.95	229.20
378.33	229.03
378.71	228.31
379.09	228.43
379.47	228.59
379.84	228.46
380.22	228.40
380.60	228.04
380.98	227.96
381.36	227.91
381.73	227.85
382.11	228.19
382.49	228.22
382.87	227.98
383.25	228.00
383.62	229.10
384.00	228.74
384.38	228.88
384.76	229.06
385.13	229.22
385.51	229.29
385.89	229.09
386.27	229.10
386.64	229.23
387.02	229.06
387.40	228.90
387.78	228.91
388.15	228.97
388.53	228.94
388.91	228.97
389.29	228.87
389.66	229.07
390.04	228.79
390.42	228.93
390.79	229.01
391.17	229.00
391.55	227.94
391.92	228.13
392.30	228.19
392.68	227.92
393.05	227.90
393.43	227.91
393.81	228.07
394.18	227.93
394.56	227.89
394.94	228.21
395.31	228.17
395.69	228.51
396.06	228.68
396.44	228.78
396.82	228.79
397.19	229.34
397.57	229.34
397.95	229.52
398.32	229.40
398.70	229.60
399.07	229.88
399.45	230.02
399.82	230.11
400.20	230.02
400.58	230.27
400.95	230.10
401.33	230.50
401.70	231.26
402.08	231.52
402.45	231.94
402.83	232.31
403.20	232.69
403.58	232.71
403.95	233.17
404.33	233.63
404.71	233.98
405.08	234.78
405.46	235.07
405.83	235.42
406.21	235.79
406.58	236.26
406.96	236.69
407.33	237.26
407.70	238.03
408.08	239.50
408.45	240.25
408.83	241.05
409.20	241.69
409.58	241.96
409.95	242.93
410.33	243.90
410.70	244.62
411.08	245.90
411.45	247.04
411.82	248.01
412.20	249.46
412.57	251.30
412.95	251.87
413.32	253.69
413.69	255.48
414.07	257.30
414.44	259.36
414.82	261.46
415.19	263.91
415.56	266.21
415.94	268.34
416.31	271.19
416.68	274.09
417.06	277.45
417.43	280.78
417.81	284.38
418.18	287.95
418.55	291.93
418.93	296.00
419.30	300.39
419.67	305.05
420.04	309.70
420.42	314.57
420.79	321.04
421.16	326.93
421.54	333.21
421.91	339.59
422.28	345.87
422.66	352.65
423.03	359.89
423.40	366.80
423.77	374.10
424.15	381.68
424.52	389.78
424.89	398.70
425.26	407.27
425.64	415.52
426.01	424.62
426.38	434.08
426.75	443.76
427.13	453.65
427.50	463.91
427.87	474.75
428.24	485.60
428.61	495.57
428.99	507.08
429.36	519.34
429.73	531.45
430.10	543.82
430.47	556.38
430.85	568.94
431.22	583.00
431.59	598.27
431.96	612.42
432.33	627.99
432.70	642.77
433.08	660.28
433.45	677.10
433.82	693.68
434.19	712.37
434.56	730.95
434.93	748.62
435.30	766.48
435.68	786.00
436.05	805.08
436.42	824.41
436.79	842.20
437.16	861.73
437.53	882.40
437.90	902.98
438.27	923.12
438.64	944.39
439.01	963.98
439.38	981.19
439.75	998.39
440.13	1017.82
440.50	1036.44
440.87	1051.40
441.24	1066.76
441.61	1084.04
441.98	1096.87
442.35	1111.38
442.72	1126.57
443.09	1141.55
443.46	1150.95
443.83	1158.12
444.20	1164.22
444.57	1172.25
444.94	1176.00
445.31	1180.55
445.68	1185.00
446.05	1187.33
446.42	1185.79
446.79	1184.34
447.16	1182.18
447.53	1181.08
447.90	1174.39
448.27	1167.23
448.64	1157.56
449.01	1150.95
449.37	1138.25
449.74	1125.58
450.11	1110.75
450.48	1094.02
450.85	1076.45
451.22	1061.82
451.59	1047.54
451.96	1033.79
452.33	1015.90
452.70	1000.12
453.07	980.29
453.43	960.18
453.80	941.10
454.17	923.13
454.54	905.56
454.91	887.40
455.28	869.37
455.65	852.07
456.02	836.30
456.38	822.09
456.75	804.22
457.12	789.30
457.49	775.09
457.86	760.86
458.23	749.05
458.59	736.14
458.96	722.96
459.33	711.30
459.70	699.85
460.07	690.43
460.43	679.64
460.80	669.67
461.17	661.06
461.54	651.99
461.91	642.96
462.27	634.30
462.64	626.56
463.01	618.20
463.38	610.83
463.74	601.90
464.11	595.05
464.48	588.94
464.85	582.49
465.21	577.48
465.58	572.43
465.95	565.84
466.32	560.67
466.68	555.52
467.05	550.28
467.42	545.10
467.78	539.70
468.15	534.47
468.52	530.95
468.88	525.62
469.25	521.22
469.62	518.14
469.98	514.21
470.35	510.80
470.72	507.28
471.08	503.18
471.45	500.23
471.82	497.05
472.18	493.72
472.55	491.11
472.92	488.17
473.28	485.44
473.65	483.03
474.02	480.56
474.38	478.48
474.75	476.74
475.11	474.59
475.48	472.95
475.85	471.71
476.21	470.33
476.58	469.25
476.94	468.40
477.31	467.13
477.67	466.17
478.04	465.39
478.41	464.92
478.77	465.46
479.14	464.67
479.50	464.47
479.87	464.56
480.23	464.70
480.60	464.40
480.96	464.36
481.33	465.10
481.69	465.43
482.06	465.67
482.42	465.89
482.79	466.45
483.15	467.28
483.52	468.32
483.88	469.11
484.25	470.04
484.61	471.34
484.98	472.39
485.34	474.06
485.71	475.63
486.07	477.36
486.44	478.26
486.80	480.37
487.17	482.29
487.53	484.76
487.90	487.30
488.26	490.31
488.62	493.38
488.99	495.87
489.35	498.99
489.72	502.35
490.08	506.01
490.44	509.62
490.81	513.52
491.17	517.06
491.54	521.13
491.90	525.30
492.26	529.60
492.63	534.22
492.99	538.77
493.36	543.62
493.72	548.80
494.08	554.41
494.45	560.12
494.81	566.21
495.17	571.94
495.54	578.05
495.90	584.16
496.26	590.15
496.63	596.82
496.99	603.33
497.35	610.20
497.72	617.16
498.08	624.14
498.44	631.40
498.80	639.40
499.17	646.99
499.53	655.04
499.89	662.91
500.26	670.99
500.62	679.28
500.98	687.90
501.34	696.21
501.71	704.20
502.07	712.48
502.43	720.79
502.79	729.34
503.16	737.90
503.52	746.68
503.88	755.45
504.24	764.31
504.60	773.67
504.97	783.06
505.33	792.29
505.69	802.42
506.05	811.98
506.41	820.90
506.78	830.30
507.14	839.82
507.50	849.23
507.86	858.66
508.22	868.05
508.59	877.35
508.95	886.98
509.31	897.38
509.67	907.09
510.03	916.29
510.39	925.63
510.75	934.79
511.12	944.04
511.48	953.39
511.84	962.57
512.20	971.21
512.56	979.80
512.92	988.55
513.28	996.84
513.64	1005.30
514.00	1013.70
514.37	1021.80
514.73	1029.85
515.09	1038.20
515.45	1046.18
515.81	1054.09
516.17	1061.72
516.53	1068.94
516.89	1075.66
517.25	1083.07
517.61	1091.31
517.97	1098.91
518.33	1106.74
518.69	1113.97
519.05	1121.02
519.41	1127.97
519.77	1135.56
520.13	1142.40
520.49	1148.90
520.85	1155.34
521.21	1161.84
521.57	1168.31
521.93	1174.36
522.29	1180.34
522.65	1185.62
523.01	1191.15
523.37	1196.11
523.73	1201.10
524.09	1205.99
524.45	1210.65
524.81	1214.92
525.17	1219.09
525.53	1223.40
525.89	1227.51
526.25	1231.41
526.61	1235.25
526.97	1239.18
527.33	1243.03
527.68	1248.00
528.04	1252.24
528.40	1255.96
528.76	1259.76
529.12	1263.20
529.48	1267.18
529.84	1270.71
530.20	1274.66
530.56	1278.88
530.91	1283.01
531.27	1286.64
531.63	1290.40
531.99	1294.34
532.35	1298.27
532.71	1301.63
533.07	1305.47
533.42	1309.51
533.78	1313.14
534.14	1317.11
534.50	1320.41
534.86	1323.93
535.21	1325.76
535.57	1328.86
535.93	1331.64
536.29	1334.80
536.65	1338.33
537.00	1340.88
537.36	1343.72
537.72	1345.98
538.08	1348.69
538.44	1351.07
538.79	1353.63
539.15	1356.49
539.51	1359.46
539.87	1361.43
540.22	1363.12
540.58	1365.21
540.94	1366.07
541.29	1367.76
541.65	1368.56
542.01	1370.54
542.37	1370.87
542.72	1371.90
543.08	1372.23
543.44	1373.62
543.79	1373.85
544.15	1374.40
544.51	1375.73
544.87	1376.45
545.22	1377.47
545.58	1377.11
545.94	1376.96
546.29	1377.34
546.65	1376.77
547.01	1376.00
547.36	1376.15
547.72	1376.58
548.07	1375.95
548.43	1375.96
548.79	1375.95
549.14	1376.31
549.50	1376.05
549.86	1376.11
550.21	1376.23
550.57	1376.80
550.92	1376.19
551.28	1375.97
551.64	1375.84
551.99	1375.83
552.35	1375.63
552.70	1375.62
553.06	1376.15
553.41	1376.50
553.77	1376.89
554.13	1377.70
554.48	1378.01
554.84	1378.03
555.19	1378.09
555.55	1379.52
555.90	1379.18
556.26	1378.75
556.61	1378.02
556.97	1376.69
557.32	1376.50
557.68	1376.44
558.03	1375.97
558.39	1375.90
558.74	1375.53
559.10	1374.58
559.45	1373.43
559.81	1372.66
560.16	1371.02
560.52	1369.62
560.87	1368.86
561.23	1367.78
561.58	1367.00
561.94	1365.40
562.29	1364.05
562.64	1362.93
563.00	1360.00
563.35	1359.00
563.71	1358.29
564.06	1357.70
564.42	1357.28
564.77	1356.48
565.12	1355.35
565.48	1355.03
565.83	1354.07
566.19	1353.20
566.54	1352.41
566.89	1351.41
567.25	1350.22
567.60	1350.35
567.96	1350.46
568.31	1349.96
568.66	1348.69
569.02	1346.39
569.37	1345.53
569.72	1344.65
570.08	1342.99
570.43	1341.24
570.78	1339.81
571.14	1337.62
571.49	1335.31
571.84	1333.13
572.20	1330.74
572.55	1328.76
572.90	1325.63
573.26	1322.94
573.61	1320.18
573.96	1317.66
574.31	1314.62
574.67	1311.83
575.02	1308.10
575.37	1304.02
575.72	1300.06
576.08	1296.48
576.43	1293.48
576.78	1290.10
577.13	1286.49
577.49	1283.20
577.84	1280.32
578.19	1277.22
578.54	1274.12
578.90	1271.25
579.25	1268.74
579.60	1265.77
579.95	1262.42
580.30	1258.76
580.66	1255.40
581.01	1251.92
581.36	1247.93
581.71	1244.57
582.06	1241.45
582.42	1237.94
582.77	1234.26
583.12	1231.29
583.47	1228.08
583.82	1225.06
584.17	1222.06
584.53	1219.16
584.88	1215.22
585.23	1211.32
585.58	1206.96
585.93	1203.15
586.28	1199.10
586.63	1194.47
586.98	1189.93
587.34	1185.70
587.69	1181.85
588.04	1178.09
588.39	1174.23
588.74	1170.43
589.09	1167.18
589.44	1162.65
589.79	1159.01
590.14	1155.71
590.49	1151.38
590.84	1147.56
591.19	1143.48
591.54	1138.95
591.89	1134.31
592.25	1131.98
592.60	1128.74
592.95	1125.19
593.30	1121.07
593.65	1117.08
594.00	1112.86
594.35	1111.65
594.70	1107.59
595.05	1103.49
595.40	1098.97
595.75	1094.49
596.10	1090.43
596.45	1086.01
596.80	1081.99
597.15	1077.74
597.50	1073.30
597.85	1069.67
598.19	1065.09
598.54	1060.63
598.89	1056.12
599.24	1052.51
599.59	1047.16
599.94	1042.67
600.29	1038.52
600.64	1034.48
600.99	1030.41
601.34	1026.72
601.69	1020.05
602.04	1015.94
602.39	1012.20
602.74	1008.78
603.08	1005.33
603.43	1001.88
603.78	997.78
604.13	994.06
604.48	989.85
604.83	985.76
605.18	981.07
605.53	977.44
605.87	973.38
606.22	970.11
606.57	966.02
606.92	961.73
607.27	957.75
607.62	953.89
607.96	950.04
608.31	946.52
608.66	942.60
609.01	938.77
609.36	934.79
609.70	930.55
610.05	926.22
610.40	922.21
610.75	917.62
611.10	913.37
611.44	908.82
611.79	904.87
612.14	900.52
612.49	896.59
612.83	892.46
613.18	888.58
613.53	884.36
613.88	879.89
614.22	875.70
614.57	871.15
614.92	866.75
615.27	862.30
615.61	857.80
615.96	853.48
616.31	849.11
616.65	845.37
617.00	841.35
617.35	837.28
617.70	833.03
618.04	829.15
618.39	825.14
618.74	821.57
619.08	817.54
619.43	813.32
619.78	809.25
620.12	804.84
620.47	800.55
620.82	795.99
621.16	791.85
621.51	788.56
621.85	784.87
622.20	780.76
622.55	776.75
622.89	772.40
623.24	768.86
623.59	765.01
623.93	760.84
624.28	756.77
624.62	754.00
624.97	750.74
625.32	746.82
625.66	743.02
626.01	739.00
626.35	735.23
626.70	731.87
627.04	728.27
627.39	724.55
627.73	721.28
628.08	718.14
628.43	714.40
628.77	710.30
629.12	706.70
629.46	703.39
629.81	700.37
630.15	697.43
630.50	693.84
630.84	690.30
631.19	686.93
631.53	683.88
631.88	679.35
632.22	675.30
632.57	672.30
632.91	668.84
633.26	665.73
633.60	662.40
633.95	658.89
634.29	655.13
634.64	652.18
634.98	648.47
635.32	645.19
635.67	642.42
636.01	639.09
636.36	635.56
636.70	632.60
637.05	629.11
637.39	625.66
637.73	622.45
638.08	619.68
638.42	616.20
638.77	612.80
639.11	609.31
639.45	605.96
639.80	602.16
640.14	599.13
640.49	595.80
640.83	592.65
641.17	589.71
641.52	586.85
641.86	583.70
642.20	581.32
642.55	578.20
642.89	574.85
643.23	571.90
643.58	569.60
643.92	566.28
644.26	563.32
644.61	560.64
644.95	557.48
645.29	554.15
645.64	551.57
645.98	548.73
646.32	546.24
646.66	543.49
647.01	540.90
647.35	538.28
647.69	535.71
648.04	533.16
648.38	530.46
648.72	527.71
649.06	524.93
649.41	521.95
649.75	519.04
650.09	516.55
650.43	514.12
650.78	511.10
651.12	508.55
651.46	506.13
651.80	503.50
652.14	501.21
652.49	499.01
652.83	496.54
653.17	494.23
653.51	491.63
653.85	489.41
654.20	487.02
654.54	484.51
654.88	481.85
655.22	479.83
655.56	477.62
655.90	475.46
656.25	473.31
656.59	471.05
656.93	469.18
657.27	467.35
657.61	464.91
657.95	462.90
658.29	460.72
658.64	458.64
658.98	456.44
659.32	454.13
659.66	452.07
660.00	449.90
660.34	447.75
660.68	445.69
661.02	443.49
661.36	441.46
661.70	439.36
662.05	437.51
662.39	435.49
662.73	433.91
663.07	432.49
663.41	430.58
663.75	428.56
664.09	426.58
664.43	424.30
664.77	422.50
665.11	420.48
665.45	418.71
665.79	417.01
666.13	415.15
666.47	413.25
666.81	411.40
667.15	409.40
667.49	407.76
667.83	406.50
668.17	404.81
668.51	403.36
668.85	401.97
669.19	400.84
669.53	398.78
669.87	396.72
670.21	394.78
670.55	393.10
670.89	392.10
671.23	390.52
671.57	388.98
671.91	387.58
672.25	386.19
672.58	384.96
672.92	383.16
673.26	381.74
673.60	380.48
673.94	379.19
674.28	377.99
674.62	376.71
674.96	375.02
675.30	373.84
675.64	372.32
675.97	370.79
676.31	368.99
676.65	367.68
676.99	366.70
677.33	365.23
677.67	364.14
678.01	362.29
678.34	361.04
678.68	359.86
679.02	358.40
679.36	357.09
679.70	355.69
680.04	354.47
680.37	353.26
680.71	352.00
681.05	350.88
681.39	349.78
681.73	348.38
682.06	347.21
682.40	345.89
682.74	344.85
683.08	344.06
683.42	342.88
683.75	342.05
684.09	340.70
684.43	339.86
684.77	338.60
685.10	337.60
685.44	336.51
685.78	335.39
686.12	334.42
686.45	333.43
686.79	332.27
687.13	331.46
687.46	330.46
687.80	329.60
688.14	328.34
688.48	327.28
688.81	326.44
689.15	325.66
689.49	324.85
689.82	323.84
690.16	322.57
690.50	321.61
690.83	320.44
691.17	319.26
691.51	318.19
691.84	317.35
692.18	316.27
692.52	315.22
692.85	314.41
693.19	313.98
693.52	313.01
693.86	312.08
694.20	311.14
694.53	310.34
694.87	309.41
695.21	308.57
695.54	307.70
695.88	306.65
696.21	305.44
696.55	304.47
696.88	303.70
697.22	302.78
697.56	302.16
697.89	301.39
698.23	300.80
698.56	299.89
698.90	299.20
699.23	298.48
699.57	297.79
699.90	296.97
700.24	295.81
700.58	295.17
700.91	294.61
701.25	294.58
701.58	294.48
701.92	294.01
702.25	293.46
702.59	292.79
702.92	292.25
703.26	291.88
703.59	291.30
703.93	291.30
704.26	290.84
704.60	290.37
704.93	289.54
705.26	288.86
705.60	288.43
705.93	287.57
706.27	287.32
706.60	287.00
706.94	286.88
707.27	286.30
707.61	285.78
707.94	285.25
708.27	283.93
708.61	282.68
708.94	282.14
709.28	281.55
709.61	280.90
709.94	280.43
710.28	279.87
710.61	279.38
710.95	278.09
711.28	278.15
711.61	277.40
711.95	277.30
712.28	276.77
712.61	276.16
712.95	276.29
713.28	276.16
713.61	275.51
713.95	274.63
714.28	274.26
714.61	273.83
714.95	273.28
715.28	272.79
715.61	272.32
715.95	271.75
716.28	271.10
716.61	270.92
716.95	270.21
717.28	269.70
717.61	269.16
717.94	268.74
718.28	267.50
718.61	267.01
718.94	266.42
719.27	266.03
719.61	265.84
719.94	265.00
720.27	264.07
720.60	263.53
720.94	263.14
721.27	262.79
721.60	262.55
721.93	262.16
722.27	262.20
722.60	262.04
722.93	261.54
723.26	261.30
723.59	260.81
723.93	260.79
724.26	260.57
724.59	260.22
724.92	260.04
725.25	260.08
725.59	259.81
725.92	259.62
726.25	259.29
726.58	258.93
726.91	258.80
727.24	258.59
727.57	258.38
727.91	257.97
728.24	257.76
728.57	257.36
728.90	257.21
729.23	256.61
729.56	256.72
729.89	256.63
730.22	256.43
730.55	256.08
730.89	255.75
731.22	255.36
731.55	255.20
731.88	254.88
732.21	254.40
732.54	254.09
732.87	253.75
733.20	253.49
733.53	253.16
733.86	252.90
734.19	252.57
734.52	252.52
734.85	252.93
735.18	252.55
735.51	252.57
735.84	252.34
736.17	252.39
736.50	251.64
736.83	252.50
737.16	252.26
737.49	252.13
737.82	251.85
738.15	251.80
738.48	251.48
738.81	251.26
739.14	250.94
739.47	250.60
739.80	250.36
740.13	250.33
740.46	250.07
740.79	249.75
741.12	249.46
741.45	249.06
741.78	248.34
742.11	248.37
742.44	247.95
742.77	247.88
743.10	247.45
743.43	247.20
743.75	246.01
744.08	247.07
744.41	246.76
744.74	246.48
745.07	246.10
745.40	246.09
745.73	246.31
746.06	246.20
746.39	246.25
746.71	246.06
747.04	245.74
747.37	245.49
747.70	245.38
748.03	245.40
748.36	245.35
748.68	245.03
749.01	244.61
749.34	244.35
749.67	244.16
750.00	244.13
750.33	244.80
750.65	244.68
750.98	243.22
751.31	243.09
751.64	243.07
751.97	243.39
752.29	243.11
752.62	242.56
752.95	242.36
753.28	242.04
753.60	241.94
753.93	242.11
754.26	242.13
754.59	241.80
754.91	241.55
755.24	241.27
755.57	241.21
755.90	241.03
756.22	240.87
756.55	240.70
756.88	240.33
757.20	239.56
757.53	239.16
757.86	239.07
758.19	239.03
758.51	238.90
758.84	238.38
759.17	238.25
759.49	238.30
759.82	238.72
760.15	238.62
760.47	238.42
760.80	237.99
761.13	237.94
761.45	237.83
761.78	237.70
762.11	237.73
762.43	237.62
762.76	237.61
763.08	237.73
763.41	237.70
763.74	237.77
764.06	237.72
764.39	237.73
764.71	237.76
765.04	237.48
765.37	237.31
765.69	237.20
766.02	237.12
766.34	236.83
766.67	236.32
767.00	236.60
767.32	237.10
767.65	237.53
767.97	237.47
768.30	237.66
768.62	237.58
768.95	237.36
769.27	237.22
769.60	237.30
769.92	237.06
770.25	236.78
770.57	236.53
770.90	236.38
771.22	236.26
771.55	236.04
771.87	236.18
772.20	236.15
772.52	236.81
772.85	237.88
773.17	237.83
773.50	237.80
773.82	237.45
774.15	236.87
774.47	236.30
774.80	236.18
775.12	235.97
775.45	235.89
775.77	235.85
776.09	235.84
776.42	235.69
776.74	235.99
777.07	235.80
777.39	235.76
777.72	235.59
778.04	235.56
778.36	235.57
778.69	235.50
779.01	235.51
779.33	234.71
779.66	233.54
779.98	233.38
780.31	233.31
780.63	233.74
780.95	233.85
781.28	233.70
781.60	233.51
781.92	233.36
782.25	233.34
782.57	233.32
782.89	233.28
783.22	233.22
783.54	232.78
783.86	232.78
784.19	232.60
784.51	232.81
784.83	232.63
785.16	232.54
785.48	232.41
785.80	232.27
786.12	232.36
786.45	232.29
786.77	232.35
787.09	232.26
787.42	231.93
787.74	231.93
788.06	232.05
788.38	231.97
788.71	231.95
789.03	231.90
789.35	231.97
789.67	231.74
789.99	231.77
790.32	231.67
790.64	231.89
790.96	232.71
791.28	232.38
791.61	232.38
791.93	232.42
792.25	232.43
792.57	232.99
792.89	232.70
793.21	232.76
793.54	232.60
793.86	232.46
794.18	232.41
794.50	232.14
794.82	232.03
795.14	232.12
795.47	232.21
795.79	232.11
796.11	231.89
796.43	231.87
796.75	231.77
797.07	231.76
797.39	231.61
797.71	230.93
798.04	230.99
798.36	230.93
798.68	230.70
799.00	230.72
799.32	230.25
799.64	230.50
799.96	230.57
800.28	230.79
800.60	230.79
800.92	230.75
801.24	230.78
801.56	230.85
801.89	230.79
802.21	230.84
802.53	230.70
802.85	230.86
803.17	231.33
803.49	231.20
803.81	231.12
804.13	231.01
804.45	230.92
804.77	230.98
805.09	230.91
805.41	230.94
805.73	230.80
806.05	230.63
806.37	230.48
806.69	230.36
807.01	230.34
807.33	230.46
807.65	230.18
807.97	230.62
808.28	230.55
808.60	230.49
808.92	230.26
809.24	230.95
809.56	230.88
809.88	230.53
810.20	230.48
810.52	230.77
810.84	230.60
811.16	230.48
811.48	230.36
811.80	230.78
812.12	230.82
812.43	231.00
812.75	231.06
813.07	231.00
813.39	231.05
813.71	230.96
814.03	230.82
814.35	230.81
814.67	230.33
814.98	230.27
815.30	230.25
815.62	230.12
815.94	229.43
816.26	229.79
816.58	229.57
816.89	229.70
817.21	229.36
817.53	229.58
817.85	229.63
818.17	229.62
818.48	229.20
818.80	229.26
819.12	229.17
819.44	228.94
819.76	228.87
820.07	228.86
820.39	228.73
820.71	228.76
821.03	228.85
821.34	228.76
821.66	228.88
821.98	228.90
822.30	228.89
822.61	229.48
822.93	228.95
823.25	228.95
823.57	228.96
823.88	229.16
824.20	229.07
824.52	229.24
824.83	229.24
825.15	229.13
825.47	229.11
825.79	229.08
826.10	229.06
826.42	229.03
826.74	229.04
827.05	228.98
827.37	229.03
827.69	228.95
828.00	229.10
828.32	229.00
828.64	229.01
828.95	229.64
829.27	229.37
829.58	229.45
829.90	229.59
830.22	229.53
830.53	229.33
830.85	229.20
831.17	229.01
831.48	229.03
831.80	229.13
832.11	229.07
832.43	228.94
832.75	229.08
833.06	229.72
833.38	229.41
833.69	229.42
834.01	229.50
834.32	229.54
834.64	229.46
834.96	229.47
835.27	229.52
835.59	229.20
835.90	229.09
836.22	229.02
836.53	229.02
836.85	228.99
837.16	229.92
837.48	229.98
837.79	230.25
838.11	230.25
838.42	230.28
838.74	230.53
839.05	230.50
839.37	230.39
839.68	229.70
840.00	229.75
840.31	230.00
840.63	229.87
840.94	229.80
841.26	229.70
841.57	229.79
841.88	229.82
842.20	229.58
842.51	229.45
842.83	229.50
843.14	230.19
843.46	230.25
843.77	229.76
844.08	229.80
844.40	229.45
844.71	229.34
845.03	229.20
845.34	228.96
845.65	228.96
845.97	228.88
846.28	228.95
846.60	228.94
846.91	228.66
847.22	228.63
847.54	228.83
847.85	228.92
848.16	228.73
848.48	228.49
848.79	229.08
849.10	229.13
849.42	229.19
849.73	228.35
850.04	228.19
850.36	227.89
850.67	228.02
850.98	227.97
851.30	228.15
851.61	228.16
851.92	228.14
852.23	228.35
852.55	228.53
852.86	228.56
853.17	228.67
853.49	228.90
853.80	229.00
854.11	228.96
854.42	228.95
854.74	228.90
855.05	228.89
855.36	228.18
855.67	228.20
855.99	228.22
856.30	229.30
856.61	229.37
856.92	229.40
857.23	229.32
857.55	229.31
857.86	229.13
858.17	229.32
858.48	229.25
858.79	228.99
859.11	228.90
859.42	228.80
859.73	228.64
860.04	228.54
860.35	228.35
860.66	228.17
860.98	228.16
861.29	228.29
861.60	228.26
861.91	228.55
862.22	228.43
862.53	228.26
862.84	227.16
863.16	227.36
863.47	227.10
863.78	227.00
864.09	227.05
864.40	227.10
864.71	227.07
865.02	227.09
865.33	227.05
865.64	226.90
865.95	226.85
866.27	227.49
866.58	227.37
866.89	227.44
867.20	227.38
867.51	227.27
867.82	227.22
868.13	227.53
868.44	227.35
868.75	227.53
869.06	227.57
869.37	227.64
869.68	227.37
869.99	227.55
870.30	227.59
870.61	227.71
870.92	227.60
871.23	227.56
871.54	227.84
871.85	228.14
872.16	228.37
872.47	228.34
872.78	227.89
873.09	228.07
873.40	228.06
873.71	228.16
874.02	228.27
874.33	228.25
874.64	228.05
874.95	228.16
875.26	227.99
875.56	227.96
875.87	227.91
876.18	227.90
876.49	228.92
876.80	228.90
877.11	228.79
877.42	228.93
877.73	229.00
878.04	228.72
878.35	228.67
878.66	228.67
878.96	228.72
879.27	228.69
879.58	228.59
879.89	228.52
880.20	228.78
880.51	228.75
880.82	228.64
881.12	228.69
881.43	228.60
881.74	228.47
882.05	228.47
882.36	228.51
882.67	228.65
882.97	227.59
883.28	227.58
883.59	227.56
883.90	227.55
884.21	227.53
884.51	227.57
884.82	227.41
885.13	227.45
885.44	227.37
885.74	227.39
886.05	227.36
886.36	227.33
886.67	227.07
886.98	227.51
887.28	227.71
887.59	227.70
887.90	227.73
888.20	227.72
888.51	227.90
888.82	227.81
889.13	227.78
889.43	228.52
889.74	228.45
890.05	228.44
890.35	228.37
890.66	228.30
890.97	228.10
891.28	228.10
891.58	228.11
891.89	228.20
892.20	228.00
892.50	227.88
892.81	227.78
893.12	227.68
893.42	227.15
893.73	227.10
894.04	227.10
894.34	227.11
894.65	227.12
894.95	226.93
895.26	226.90
895.57	227.36
895.87	226.53
896.18	226.68
896.48	226.76
896.79	226.68
897.10	226.86
897.40	226.98
897.71	227.10
898.01	227.11
898.32	227.22
898.63	227.21
898.93	227.31
899.24	227.46
899.54	227.46
899.85	227.45
900.15	227.48
900.46	227.45
900.76	227.51
901.07	227.48
901.38	227.52
901.68	227.70
901.99	227.08
902.29	227.14
902.60	226.96
902.90	226.83
903.21	226.88
903.51	226.71
903.82	226.90
904.12	226.84
904.43	226.68
904.73	226.59
905.03	226.64
905.34	227.55
905.64	227.42
905.95	227.37
906.25	227.39
906.56	227.33
906.86	227.31
907.17	227.18
907.47	227.26
907.77	227.14
908.08	226.89
908.38	227.00
908.69	227.12
908.99	227.34
909.30	227.39
909.60	227.40
909.90	227.50
910.21	227.26
910.51	227.10
910.81	227.25
911.12	227.30
911.42	227.37
911.73	226.36
912.03	226.52
912.33	226.84
912.64	226.91
912.94	226.84
913.24	226.74
913.55	226.74
913.85	226.65
914.15	226.88
914.46	226.99
914.76	226.94
915.06	226.80
915.37	226.67
915.67	226.73
915.97	226.72
916.27	226.48
916.58	226.59
916.88	226.59
917.18	226.52
917.49	227.16
917.79	227.14
918.09	227.37
918.39	227.66
918.70	227.60
919.00	227.58
919.30	228.09
919.60	228.17
919.91	228.06
920.21	228.13
920.51	227.95
920.81	228.13
921.12	228.33
921.42	228.35
921.72	228.55
922.02	228.58
922.32	228.71
922.63	228.84
922.93	229.34
923.23	229.45
923.53	229.35
923.83	228.74
924.13	228.85
924.44	228.86
924.74	228.98
925.04	229.20
925.34	229.15
925.64	228.77
925.94	228.74
926.24	229.33
926.55	229.36
926.85	229.52
927.15	229.37
927.45	229.40
927.75	229.37
928.05	229.31
928.35	229.21
928.65	229.42
928.95	229.42
929.26	228.97
929.56	229.17
929.86	229.39
930.16	229.37
930.46	229.32
930.76	229.28
931.06	228.84
931.36	228.47
931.66	228.67
931.96	228.80
932.26	228.93
932.56	228.57
932.86	228.57
933.16	228.52
933.46	228.54
933.76	228.31
934.06	228.62
934.36	228.92
934.66	228.93
934.96	228.69
935.26	228.76
935.56	228.90
935.86	228.66
936.16	228.38
936.46	228.35
936.76	228.28
937.06	228.21
937.36	228.28
937.66	228.41
937.96	228.30
938.26	228.03
938.56	227.84
938.86	227.86
939.16	227.97
939.46	228.07
939.76	228.14
940.06	228.23
940.35	227.91
940.65	227.41
940.95	227.48
941.25	227.33
941.55	227.20
941.85	227.12
942.15	227.33
942.45	227.71
942.75	227.68
943.04	227.68
943.34	227.79
943.64	227.68
943.94	227.58
944.24	227.64
944.54	227.73
944.84	227.84
945.13	227.69
945.43	227.63
945.73	227.49
946.03	227.36
946.33	227.21
946.62	227.25
946.92	227.16
947.22	227.26
947.52	227.35
947.82	227.50
948.11	227.37
948.41	227.19
948.71	226.74
949.01	226.72
949.31	226.63
949.60	226.57
949.90	226.68
950.20	226.62
950.50	226.60
950.79	226.52
951.09	226.62
951.39	226.54
951.69	226.52
951.98	226.75
952.28	226.74
952.58	226.81
952.87	226.83
953.17	227.03
953.47	226.83
953.76	226.82
954.06	226.63
954.36	226.62
954.66	226.52
954.95	226.90
955.25	226.89
955.55	227.02
955.84	226.90
956.14	226.97
956.44	227.01
956.73	226.82
957.03	226.91
957.32	226.80
957.62	226.81
957.92	226.93
958.21	226.81
958.51	227.86
958.81	228.00
959.10	228.04
959.40	228.19
959.69	228.32
959.99	228.49
960.29	228.53
960.58	228.46
960.88	228.86
961.17	228.67
961.47	228.80
961.76	228.72
962.06	228.84
962.36	228.74
962.65	228.70
962.95	228.82
963.24	228.73
963.54	228.82
963.83	228.90
964.13	228.73
964.42	228.50
964.72	227.75
965.01	227.64
965.31	227.50
965.60	227.34
965.90	227.87
966.19	227.55
966.49	227.62
966.78	227.53
967.08	227.47
967.37	227.52
967.67	227.38
967.96	227.52
968.26	227.46
968.55	227.54
968.85	227.51
969.14	227.38
969.43	227.32
969.73	227.27
970.02	227.22
970.32	227.19
970.61	227.24
970.91	227.02
971.20	226.93
971.49	226.96
971.79	227.00
972.08	226.40
972.38	226.55
972.67	226.48
972.96	226.66
973.26	226.43
973.55	226.71
973.85	226.68
974.14	226.58
974.43	226.64
974.73	226.38
975.02	226.32
975.31	226.40
975.61	226.48
975.90	226.34
976.19	226.38
976.49	226.51
976.78	226.51
977.07	226.50
977.37	226.49
977.66	226.55
977.95	226.41
978.24	226.40
978.54	226.46
978.83	226.37
979.12	226.34
979.42	226.42
979.71	226.32
980.00	226.31
980.29	226.41
980.59	226.28
980.88	226.66
981.17	226.65
981.46	226.60
981.76	226.55
982.05	226.89
982.34	226.86
982.63	226.80
982.93	226.88
983.22	227.15
983.51	227.27
983.80	227.38
984.09	227.49
984.39	227.48
984.68	227.41
984.97	227.59
985.26	227.51
985.55	227.48
985.85	227.21
986.14	227.37
986.43	227.40
986.72	227.34
987.01	227.09
987.30	227.19
987.59	227.10
987.89	227.20
988.18	226.90
988.47	226.82
988.76	226.87
989.05	226.79
989.34	226.55
989.63	226.80
989.92	226.68
990.22	226.59
990.51	226.49
990.80	226.41
991.09	226.47
991.38	226.56
991.67	226.54
991.96	226.50
992.25	226.56
992.54	226.39
992.83	226.42
993.12	226.35
993.41	226.54
993.70	227.00
993.99	227.05
994.28	227.24
994.58	227.46
994.87	227.30
995.16	227.30
995.45	227.21
995.74	226.92
996.03	227.03
996.32	227.19
996.61	227.51
996.90	227.58
997.19	227.51
997.48	227.58
997.77	227.53
998.06	227.61
998.34	227.44
998.63	227.40
998.92	227.44
999.21	227.60
999.50	227.48
999.79	227.17
1000.08	227.18
1000.37	227.08
1000.66	226.89
1000.95	227.18
1001.24	227.27
1001.53	227.55
1001.82	227.49
1002.11	227.34
1002.40	227.40
1002.68	227.60
1002.97	228.22
1003.26	228.11
1003.55	227.94
1003.84	227.96
1004.13	228.31
1004.42	228.38
1004.71	228.44
1004.99	228.35
1005.28	228.61
1005.57	228.50
1005.86	228.47
1006.15	228.39
1006.44	228.39
1006.72	228.48
1007.01	228.32
1007.30	228.16
1007.59	227.94
1007.88	227.95
1008.17	228.05
1008.45	227.89
1008.74	227.39
1009.03	227.00
1009.32	227.08
1009.60	227.08
1009.89	227.00
1010.18	226.56
1010.47	226.49
1010.76	226.52
1011.04	226.59
1011.33	226.54
1011.62	226.66
1011.91	226.65
1012.19	226.66
1012.48	226.61
1012.77	226.56
1013.05	226.91
1013.34	227.06
1013.63	227.03
1013.92	227.02
1014.20	226.88
1014.49	226.96
1014.78	227.14
1015.06	226.93
1015.35	226.89
1015.64	227.10
1015.92	227.28
1016.21	227.34
1016.50	227.33
1016.78	227.46
1017.07	227.52
1017.36	227.31
1017.64	227.02
1017.93	227.01
1018.22	226.91
1018.50	227.02
1018.79	227.05
1019.08	226.66
1019.36	226.67
1019.65	226.59
1019.93	226.86
1020.22	226.97
1020.51	227.33
1020.79	227.22
1021.08	224.70
1021.36	227.90
1021.65	227.00
1021.94	226.50
1022.22	227.10
1022.51	224.80
1022.79	230.50
1023.08	227.20
1023.36	236.80
1023.65	225.80
>>>>>End Processed Spectral Data<<<<<
