SpectraSuite Data File
++++++++++++++++++++++++++++++++++++
Date: Wed Sep 04 17:29:30 EDT 2013
User: lab3
Dark Spectrum Present: Yes
Reference Spectrum Present: No
Number of Sampled Component Spectra: 1
Spectrometers: USB2E7196
Integration Time (usec): 337000 (USB2E7196)
Spectra Averaged: 10 (USB2E7196)
Boxcar Smoothing: 10 (USB2E7196)
Correct for Electrical Dark: No (USB2E7196)
Strobe/Lamp Enabled: No (USB2E7196)
Correct for Detector Non-linearity: No (USB2E7196)
Correct for Stray Light: No (USB2E7196)
Number of Pixels in Processed Spectrum: 2048
>>>>>Begin Processed Spectral Data<<<<<
339.09	0.00
339.48	212.00
339.86	214.70
340.24	215.00
340.63	218.10
341.01	233.10
341.39	219.90
341.78	223.00
342.16	224.80
342.54	222.80
342.93	213.06
343.31	223.79
343.69	224.32
344.07	224.76
344.46	225.35
344.84	225.80
345.22	225.43
345.60	225.70
345.99	225.88
346.37	225.95
346.75	226.13
347.13	226.21
347.52	226.34
347.90	226.77
348.28	226.87
348.66	227.22
349.05	227.06
349.43	227.15
349.81	227.36
350.19	227.44
350.57	227.45
350.96	227.63
351.34	227.76
351.72	227.91
352.10	228.08
352.48	228.01
352.87	228.01
353.25	228.15
353.63	228.20
354.01	228.25
354.39	228.38
354.77	228.45
355.15	228.64
355.54	228.51
355.92	228.20
356.30	228.17
356.68	228.73
357.06	228.73
357.44	228.60
357.82	228.55
358.20	229.30
358.58	229.32
358.97	229.35
359.35	229.57
359.73	229.75
360.11	229.80
360.49	230.01
360.87	230.03
361.25	230.06
361.63	230.44
362.01	230.51
362.39	230.54
362.77	230.61
363.15	230.64
363.53	230.75
363.91	230.87
364.29	230.86
364.67	230.02
365.05	230.11
365.43	230.32
365.81	230.49
366.19	230.26
366.57	230.72
366.95	230.70
367.33	230.53
367.71	230.67
368.09	230.87
368.47	230.72
368.85	230.78
369.23	231.06
369.61	230.73
369.99	231.08
370.37	231.12
370.75	231.68
371.13	231.55
371.51	231.49
371.89	231.57
372.27	231.70
372.65	231.74
373.03	231.76
373.41	231.64
373.78	231.58
374.16	231.10
374.54	230.68
374.92	230.63
375.30	230.59
375.68	230.37
376.06	230.27
376.44	230.26
376.82	230.26
377.19	230.13
377.57	230.07
377.95	229.70
378.33	229.59
378.71	228.82
379.09	228.95
379.47	229.03
379.84	228.70
380.22	228.58
380.60	228.40
380.98	228.26
381.36	228.28
381.73	228.10
382.11	228.22
382.49	228.24
382.87	227.96
383.25	227.87
383.62	228.86
384.00	228.62
384.38	228.64
384.76	228.80
385.13	229.10
385.51	229.03
385.89	228.91
386.27	228.94
386.64	229.09
387.02	228.84
387.40	228.71
387.78	229.00
388.15	228.95
388.53	228.91
388.91	228.90
389.29	228.80
389.66	228.97
390.04	228.84
390.42	229.04
390.79	229.08
391.17	229.12
391.55	228.04
391.92	228.08
392.30	228.16
392.68	227.89
393.05	227.76
393.43	227.89
393.81	227.92
394.18	227.80
394.56	227.78
394.94	228.09
395.31	228.07
395.69	228.30
396.06	228.56
396.44	228.71
396.82	228.76
397.19	229.33
397.57	229.26
397.95	229.41
398.32	229.10
398.70	229.39
399.07	229.71
399.45	229.80
399.82	229.96
400.20	229.94
400.58	230.09
400.95	229.83
401.33	230.17
401.70	231.07
402.08	231.35
402.45	231.64
402.83	232.01
403.20	232.33
403.58	232.29
403.95	232.76
404.33	233.20
404.71	233.52
405.08	234.28
405.46	234.65
405.83	235.12
406.21	235.69
406.58	236.25
406.96	236.70
407.33	237.36
407.70	238.12
408.08	239.57
408.45	240.41
408.83	241.44
409.20	242.12
409.58	242.38
409.95	243.38
410.33	244.39
410.70	245.06
411.08	246.28
411.45	247.70
411.82	248.70
412.20	250.10
412.57	252.17
412.95	252.87
413.32	254.72
413.69	256.33
414.07	258.14
414.44	260.11
414.82	262.20
415.19	264.76
415.56	267.09
415.94	269.25
416.31	272.32
416.68	275.23
417.06	278.69
417.43	282.06
417.81	285.71
418.18	289.58
418.55	293.86
418.93	298.13
419.30	302.75
419.67	307.60
420.04	312.57
420.42	317.64
420.79	324.33
421.16	330.35
421.54	337.09
421.91	343.72
422.28	350.56
422.66	357.98
423.03	365.42
423.40	372.93
423.77	380.95
424.15	389.12
424.52	397.72
424.89	406.89
425.26	415.96
425.64	424.70
426.01	434.17
426.38	443.99
426.75	454.14
427.13	464.38
427.50	474.92
427.87	486.18
428.24	497.28
428.61	507.39
428.99	519.49
429.36	532.05
429.73	544.67
430.10	557.31
430.47	570.26
430.85	583.41
431.22	597.81
431.59	613.50
431.96	627.72
432.33	643.85
432.70	659.77
433.08	678.23
433.45	695.41
433.82	713.04
434.19	732.78
434.56	752.28
434.93	770.82
435.30	789.57
435.68	810.33
436.05	830.76
436.42	851.56
436.79	870.42
437.16	891.13
437.53	912.73
437.90	934.04
438.27	955.28
438.64	977.33
439.01	998.07
439.38	1016.21
439.75	1034.33
440.13	1054.92
440.50	1073.94
440.87	1089.63
441.24	1106.66
441.61	1124.72
441.98	1138.34
442.35	1153.70
442.72	1169.51
443.09	1185.41
443.46	1195.03
443.83	1202.12
444.20	1208.10
444.57	1216.54
444.94	1221.02
445.31	1225.57
445.68	1230.39
446.05	1232.91
446.42	1231.93
446.79	1230.37
447.16	1228.22
447.53	1227.23
447.90	1219.97
448.27	1212.98
448.64	1203.00
449.01	1195.66
449.37	1182.17
449.74	1169.14
450.11	1153.70
450.48	1136.25
450.85	1117.98
451.22	1102.68
451.59	1087.99
451.96	1074.18
452.33	1055.25
452.70	1037.97
453.07	1017.92
453.43	997.30
453.80	977.11
454.17	957.91
454.54	939.83
454.91	920.48
455.28	901.58
455.65	883.92
456.02	867.30
456.38	852.33
456.75	833.68
457.12	818.17
457.49	803.00
457.86	788.13
458.23	775.95
458.59	762.45
458.96	748.60
459.33	736.31
459.70	723.83
460.07	714.04
460.43	702.95
460.80	692.53
461.17	683.44
461.54	674.00
461.91	664.85
462.27	655.37
462.64	647.74
463.01	639.08
463.38	630.84
463.74	621.40
464.11	613.90
464.48	607.47
464.85	600.41
465.21	595.27
465.58	589.64
465.95	582.66
466.32	577.07
466.68	571.66
467.05	566.53
467.42	561.14
467.78	555.70
468.15	550.21
468.52	546.18
468.88	540.57
469.25	535.90
469.62	532.43
469.98	528.51
470.35	524.57
470.72	520.99
471.08	517.02
471.45	514.04
471.82	510.87
472.18	507.30
472.55	505.03
472.92	501.65
473.28	498.83
473.65	496.31
474.02	493.72
474.38	491.53
474.75	489.45
475.11	487.40
475.48	485.66
475.85	484.32
476.21	482.84
476.58	481.68
476.94	480.90
477.31	479.63
477.67	478.53
478.04	477.83
478.41	477.33
478.77	477.83
479.14	477.16
479.50	477.23
479.87	477.24
480.23	477.15
480.60	477.12
480.96	477.23
481.33	478.10
481.69	478.63
482.06	479.14
482.42	479.56
482.79	480.15
483.15	481.20
483.52	482.53
483.88	483.33
484.25	484.57
484.61	485.84
484.98	487.10
485.34	489.10
485.71	491.11
486.07	493.02
486.44	494.11
486.80	496.21
487.17	498.20
487.53	501.05
487.90	503.88
488.26	507.13
488.62	510.47
488.99	513.12
489.35	516.35
489.72	519.95
490.08	523.85
490.44	527.75
490.81	531.77
491.17	535.61
491.54	540.47
491.90	545.08
492.26	549.82
492.63	554.92
492.99	559.81
493.36	565.04
493.72	570.61
494.08	576.47
494.45	582.62
494.81	589.06
495.17	595.03
495.54	601.70
495.90	608.24
496.26	614.89
496.63	622.10
496.99	629.29
497.35	636.51
497.72	644.30
498.08	651.97
498.44	659.80
498.80	668.34
499.17	676.32
499.53	684.59
499.89	693.32
500.26	701.95
500.62	710.86
500.98	719.95
501.34	729.14
501.71	738.45
502.07	747.40
502.43	756.83
502.79	766.52
503.16	775.90
503.52	785.74
503.88	795.60
504.24	805.69
504.60	816.09
504.97	826.57
505.33	836.62
505.69	847.56
506.05	857.90
506.41	868.29
506.78	878.68
507.14	889.35
507.50	900.09
507.86	910.95
508.22	921.84
508.59	932.20
508.95	943.01
509.31	954.27
509.67	965.47
510.03	975.57
510.39	985.97
510.75	996.16
511.12	1006.29
511.48	1016.46
511.84	1026.73
512.20	1036.78
512.56	1046.95
512.92	1056.90
513.28	1066.64
513.64	1076.71
514.00	1086.41
514.37	1096.14
514.73	1105.67
515.09	1115.15
515.45	1124.20
515.81	1132.97
516.17	1141.94
516.53	1150.61
516.89	1158.07
517.25	1166.44
517.61	1175.84
517.97	1184.70
518.33	1193.71
518.69	1202.25
519.05	1210.85
519.41	1218.87
519.77	1227.16
520.13	1234.74
520.49	1241.95
520.85	1249.50
521.21	1256.99
521.57	1264.02
521.93	1270.61
522.29	1277.47
522.65	1283.34
523.01	1289.77
523.37	1295.31
523.73	1301.40
524.09	1306.41
524.45	1312.00
524.81	1317.30
525.17	1322.33
525.53	1327.06
525.89	1331.87
526.25	1336.45
526.61	1340.49
526.97	1344.99
527.33	1349.55
527.68	1355.09
528.04	1360.11
528.40	1364.30
528.76	1368.22
529.12	1372.47
529.48	1377.24
529.84	1380.87
530.20	1385.40
530.56	1389.65
530.91	1394.30
531.27	1398.05
531.63	1402.67
531.99	1406.91
532.35	1410.72
532.71	1414.58
533.07	1418.90
533.42	1423.25
533.78	1426.95
534.14	1431.05
534.50	1434.50
534.86	1437.92
535.21	1440.07
535.57	1443.35
535.93	1446.13
536.29	1449.63
536.65	1452.94
537.00	1455.61
537.36	1458.71
537.72	1461.16
538.08	1464.06
538.44	1466.85
538.79	1470.02
539.15	1472.78
539.51	1475.61
539.87	1478.40
540.22	1480.24
540.58	1482.77
540.94	1483.93
541.29	1485.55
541.65	1487.14
542.01	1489.19
542.37	1490.04
542.72	1491.09
543.08	1491.55
543.44	1493.12
543.79	1492.89
544.15	1493.50
544.51	1494.46
544.87	1494.80
545.22	1495.01
545.58	1494.56
545.94	1494.03
546.29	1493.42
546.65	1492.23
547.01	1491.38
547.36	1490.29
547.72	1489.43
548.07	1487.81
548.43	1486.81
548.79	1486.00
549.14	1485.05
549.50	1483.83
549.86	1483.10
550.21	1482.54
550.57	1482.33
550.92	1480.32
551.28	1479.78
551.64	1478.97
551.99	1477.76
552.35	1476.93
552.70	1476.39
553.06	1476.03
553.41	1475.31
553.77	1475.24
554.13	1475.15
554.48	1475.30
554.84	1474.66
555.19	1474.60
555.55	1475.22
555.90	1474.60
556.26	1473.40
556.61	1472.27
556.97	1470.66
557.32	1469.51
557.68	1468.44
558.03	1466.98
558.39	1466.41
558.74	1465.57
559.10	1464.17
559.45	1462.75
559.81	1461.39
560.16	1459.00
560.52	1457.11
560.87	1455.50
561.23	1453.27
561.58	1452.18
561.94	1449.25
562.29	1447.46
562.64	1445.35
563.00	1441.80
563.35	1440.01
563.71	1438.98
564.06	1437.09
564.42	1436.02
564.77	1434.62
565.12	1433.03
565.48	1432.51
565.83	1431.23
566.19	1429.88
566.54	1428.10
566.89	1426.76
567.25	1425.52
567.60	1425.38
567.96	1424.91
568.31	1424.16
568.66	1422.77
569.02	1420.37
569.37	1418.95
569.72	1417.61
570.08	1415.61
570.43	1413.67
570.78	1411.77
571.14	1409.06
571.49	1406.78
571.84	1404.18
572.20	1401.86
572.55	1399.12
572.90	1395.21
573.26	1392.18
573.61	1388.80
573.96	1385.92
574.31	1382.44
574.67	1378.79
575.02	1374.31
575.37	1369.99
575.72	1365.76
576.08	1361.67
576.43	1357.68
576.78	1353.91
577.13	1349.65
577.49	1345.94
577.84	1342.85
578.19	1339.72
578.54	1336.32
578.90	1333.16
579.25	1330.04
579.60	1326.08
579.95	1322.36
580.30	1318.69
580.66	1314.86
581.01	1310.74
581.36	1306.39
581.71	1302.69
582.06	1299.26
582.42	1295.79
582.77	1291.73
583.12	1287.96
583.47	1284.50
583.82	1280.93
584.17	1277.34
584.53	1274.14
584.88	1269.70
585.23	1265.38
585.58	1260.27
585.93	1255.94
586.28	1251.35
586.63	1246.04
586.98	1241.15
587.34	1236.71
587.69	1231.89
588.04	1227.52
588.39	1223.43
588.74	1218.77
589.09	1214.66
589.44	1209.21
589.79	1205.11
590.14	1200.62
590.49	1196.23
590.84	1191.87
591.19	1187.95
591.54	1183.38
591.89	1178.37
592.25	1175.83
592.60	1171.50
592.95	1167.51
593.30	1163.35
593.65	1158.57
594.00	1154.09
594.35	1152.71
594.70	1148.09
595.05	1144.02
595.40	1139.48
595.75	1134.73
596.10	1130.52
596.45	1125.72
596.80	1121.86
597.15	1117.19
597.50	1112.43
597.85	1108.53
598.19	1103.56
598.54	1098.60
598.89	1094.02
599.24	1089.93
599.59	1084.39
599.94	1079.79
600.29	1075.13
600.64	1070.26
600.99	1065.85
601.34	1062.10
601.69	1055.10
602.04	1050.58
602.39	1046.45
602.74	1042.63
603.08	1038.76
603.43	1034.85
603.78	1030.50
604.13	1026.13
604.48	1021.69
604.83	1017.54
605.18	1012.58
605.53	1008.25
605.87	1003.87
606.22	1000.02
606.57	995.82
606.92	991.41
607.27	987.37
607.62	983.69
607.96	980.19
608.31	976.82
608.66	972.89
609.01	968.77
609.36	965.10
609.70	960.76
610.05	956.13
610.40	951.94
610.75	947.43
611.10	943.46
611.44	938.80
611.79	934.46
612.14	930.48
612.49	925.98
612.83	922.03
613.18	917.67
613.53	912.88
613.88	908.00
614.22	903.38
614.57	898.49
614.92	893.17
615.27	888.46
615.61	883.39
615.96	878.69
616.31	874.00
616.65	869.35
617.00	864.97
617.35	860.50
617.70	855.78
618.04	851.33
618.39	846.75
618.74	843.12
619.08	838.71
619.43	834.20
619.78	829.81
620.12	825.35
620.47	821.06
620.82	816.80
621.16	812.46
621.51	808.80
621.85	804.89
622.20	800.94
622.55	796.15
622.89	792.10
623.24	787.67
623.59	783.55
623.93	779.60
624.28	775.15
624.62	772.21
624.97	768.71
625.32	764.75
625.66	760.65
626.01	756.13
626.35	752.61
626.70	748.74
627.04	745.72
627.39	741.58
627.73	738.03
628.08	734.56
628.43	730.80
628.77	726.44
629.12	722.63
629.46	719.20
629.81	716.42
630.15	712.87
630.50	709.20
630.84	705.59
631.19	701.98
631.53	698.86
631.88	694.17
632.22	690.03
632.57	686.82
632.91	683.43
633.26	680.57
633.60	676.87
633.95	673.15
634.29	668.74
634.64	665.42
634.98	661.56
635.32	658.11
635.67	655.03
636.01	651.76
636.36	648.19
636.70	645.02
637.05	641.31
637.39	638.00
637.73	634.90
638.08	631.92
638.42	628.23
638.77	624.67
639.11	621.19
639.45	617.60
639.80	613.94
640.14	610.51
640.49	606.88
640.83	603.65
641.17	600.56
641.52	597.63
641.86	594.56
642.20	592.20
642.55	588.97
642.89	585.85
643.23	582.78
643.58	580.39
643.92	576.98
644.26	574.05
644.61	571.17
644.95	568.07
645.29	564.85
645.64	562.36
645.98	559.49
646.32	556.92
646.66	554.22
647.01	551.42
647.35	548.88
647.69	546.25
648.04	543.49
648.38	540.90
648.72	538.28
649.06	535.40
649.41	532.11
649.75	529.20
650.09	526.37
650.43	523.68
650.78	520.68
651.12	518.25
651.46	515.57
651.80	512.86
652.14	510.31
652.49	508.06
652.83	505.36
653.17	502.83
653.51	500.03
653.85	497.86
654.20	495.39
654.54	492.74
654.88	490.16
655.22	488.11
655.56	485.60
655.90	483.26
656.25	481.02
656.59	478.70
656.93	476.50
657.27	474.58
657.61	472.13
657.95	469.77
658.29	467.32
658.64	465.20
658.98	462.78
659.32	460.47
659.66	457.91
660.00	455.90
660.34	453.78
660.68	451.71
661.02	449.28
661.36	447.27
661.70	445.19
662.05	442.82
662.39	440.52
662.73	438.78
663.07	437.25
663.41	435.41
663.75	433.38
664.09	431.45
664.43	429.07
664.77	427.23
665.11	425.23
665.45	423.40
665.79	421.56
666.13	419.67
666.47	417.82
666.81	416.01
667.15	414.00
667.49	412.26
667.83	410.87
668.17	409.21
668.51	407.53
668.85	405.92
669.19	404.88
669.53	403.17
669.87	401.28
670.21	399.12
670.55	397.30
670.89	396.16
671.23	394.44
671.57	392.85
671.91	391.30
672.25	389.92
672.58	388.67
672.92	386.89
673.26	385.49
673.60	384.06
673.94	382.66
674.28	381.32
674.62	379.90
674.96	378.12
675.30	376.75
675.64	375.40
675.97	373.90
676.31	372.16
676.65	370.56
676.99	369.42
677.33	367.78
677.67	366.59
678.01	364.74
678.34	363.57
678.68	362.51
679.02	361.09
679.36	359.69
679.70	358.18
680.04	356.88
680.37	355.58
680.71	354.20
681.05	353.00
681.39	351.70
681.73	350.40
682.06	349.29
682.40	348.17
682.74	347.02
683.08	346.34
683.42	345.09
683.75	344.18
684.09	342.87
684.43	342.16
684.77	340.89
685.10	339.88
685.44	338.80
685.78	337.62
686.12	336.42
686.45	335.26
686.79	334.02
687.13	333.17
687.46	332.23
687.80	331.52
688.14	330.48
688.48	329.49
688.81	328.56
689.15	327.61
689.49	326.51
689.82	325.42
690.16	324.00
690.50	323.18
690.83	322.12
691.17	321.05
691.51	320.01
691.84	319.24
692.18	318.28
692.52	317.30
692.85	316.45
693.19	316.09
693.52	315.28
693.86	314.54
694.20	313.51
694.53	312.73
694.87	311.63
695.21	310.55
695.54	309.77
695.88	308.68
696.21	307.51
696.55	306.79
696.88	305.93
697.22	304.97
697.56	304.28
697.89	303.40
698.23	302.75
698.56	301.92
698.90	301.14
699.23	300.26
699.57	299.40
699.90	298.42
700.24	297.36
700.58	296.65
700.91	295.93
701.25	296.01
701.58	295.95
701.92	295.70
702.25	295.27
702.59	294.45
702.92	293.91
703.26	293.43
703.59	292.76
703.93	292.91
704.26	292.43
704.60	291.84
704.93	291.13
705.26	290.43
705.60	289.90
705.93	289.23
706.27	288.93
706.60	288.71
706.94	288.60
707.27	287.97
707.61	287.41
707.94	286.84
708.27	285.61
708.61	284.35
708.94	283.50
709.28	282.82
709.61	282.19
709.94	281.72
710.28	281.23
710.61	280.72
710.95	279.33
711.28	279.38
711.61	278.60
711.95	278.37
712.28	277.80
712.61	277.29
712.95	277.22
713.28	277.14
713.61	276.34
713.95	275.50
714.28	275.02
714.61	274.49
714.95	273.91
715.28	273.11
715.61	272.49
715.95	272.01
716.28	271.44
716.61	271.14
716.95	270.56
717.28	270.05
717.61	269.43
717.94	269.02
718.28	267.79
718.61	267.30
718.94	266.63
719.27	266.21
719.61	265.81
719.94	265.09
720.27	264.20
720.60	263.83
720.94	263.45
721.27	263.11
721.60	262.84
721.93	262.55
722.27	262.69
722.60	262.65
722.93	262.26
723.26	262.00
723.59	261.47
723.93	261.25
724.26	261.02
724.59	260.78
724.92	260.50
725.25	260.56
725.59	260.24
725.92	260.11
726.25	259.78
726.58	259.49
726.91	259.12
727.24	258.92
727.57	258.55
727.91	258.09
728.24	257.98
728.57	257.61
728.90	257.50
729.23	256.94
729.56	256.98
729.89	256.68
730.22	256.47
730.55	256.31
730.89	256.00
731.22	255.55
731.55	255.23
731.88	254.99
732.21	254.55
732.54	254.18
732.87	253.84
733.20	253.56
733.53	253.38
733.86	253.30
734.19	252.84
734.52	252.80
734.85	253.29
735.18	252.94
735.51	252.98
735.84	252.65
736.17	252.54
736.50	251.76
736.83	252.75
737.16	252.43
737.49	252.23
737.82	251.99
738.15	252.05
738.48	251.82
738.81	251.57
739.14	251.31
739.47	251.14
739.80	251.00
740.13	250.97
740.46	250.58
740.79	250.18
741.12	250.02
741.45	249.66
741.78	248.86
742.11	248.75
742.44	248.28
742.77	248.22
743.10	247.92
743.43	247.79
743.75	246.45
744.08	247.50
744.41	247.12
744.74	246.90
745.07	246.32
745.40	246.22
745.73	246.45
746.06	246.28
746.39	246.25
746.71	246.01
747.04	245.61
747.37	245.46
747.70	245.39
748.03	245.38
748.36	245.35
748.68	245.18
749.01	244.80
749.34	244.65
749.67	244.40
750.00	244.43
750.33	244.97
750.65	244.98
750.98	243.57
751.31	243.62
751.64	243.53
751.97	243.98
752.29	243.86
752.62	243.32
752.95	243.13
753.28	242.86
753.60	242.55
753.93	242.73
754.26	242.70
754.59	242.38
754.91	242.07
755.24	241.93
755.57	241.83
755.90	241.66
756.22	241.42
756.55	241.25
756.88	240.89
757.20	240.06
757.53	239.60
757.86	239.62
758.19	239.49
758.51	239.34
758.84	238.78
759.17	238.52
759.49	238.39
759.82	238.76
760.15	238.75
760.47	238.69
760.80	238.26
761.13	238.21
761.45	238.06
761.78	237.89
762.11	237.79
762.43	237.66
762.76	237.55
763.08	237.60
763.41	237.48
763.74	237.45
764.06	237.27
764.39	237.30
764.71	237.00
765.04	236.78
765.37	236.61
765.69	236.55
766.02	236.45
766.34	236.31
766.67	235.79
767.00	235.88
767.32	236.41
767.65	236.97
767.97	236.80
768.30	236.79
768.62	236.79
768.95	236.53
769.27	236.39
769.60	236.44
769.92	236.21
770.25	236.05
770.57	235.82
770.90	235.79
771.22	235.53
771.55	235.63
771.87	235.61
772.20	235.46
772.52	236.21
772.85	237.29
773.17	237.19
773.50	237.09
773.82	236.90
774.15	236.30
774.47	235.66
774.80	235.60
775.12	235.56
775.45	235.43
775.77	235.49
776.09	235.62
776.42	235.63
776.74	235.98
777.07	235.90
777.39	235.90
777.72	235.80
778.04	236.06
778.36	235.89
778.69	235.95
779.01	236.02
779.33	235.10
779.66	234.05
779.98	234.11
780.31	234.12
780.63	234.44
780.95	234.56
781.28	234.50
781.60	234.30
781.92	234.24
782.25	234.28
782.57	234.13
782.89	233.91
783.22	233.74
783.54	233.51
783.86	233.54
784.19	233.43
784.51	233.64
784.83	233.35
785.16	233.25
785.48	233.20
785.80	233.12
786.12	233.18
786.45	233.07
786.77	233.01
787.09	232.85
787.42	232.45
787.74	232.44
788.06	232.42
788.38	232.40
788.71	232.30
789.03	232.28
789.35	232.33
789.67	232.22
789.99	232.26
790.32	232.02
790.64	231.96
790.96	232.65
791.28	232.34
791.61	232.22
791.93	232.20
792.25	232.04
792.57	232.73
792.89	232.44
793.21	232.41
793.54	232.34
793.86	232.19
794.18	232.19
794.50	231.91
794.82	231.81
795.14	231.83
795.47	231.94
795.79	231.80
796.11	231.69
796.43	231.55
796.75	231.54
797.07	231.52
797.39	231.51
797.71	230.74
798.04	230.75
798.36	230.79
798.68	230.79
799.00	230.83
799.32	230.10
799.64	230.34
799.96	230.31
800.28	230.37
800.60	230.38
800.92	230.41
801.24	230.36
801.56	230.42
801.89	230.32
802.21	230.21
802.53	230.09
802.85	230.23
803.17	230.61
803.49	230.25
803.81	230.16
804.13	230.13
804.45	230.11
804.77	230.22
805.09	230.20
805.41	230.26
805.73	230.11
806.05	229.98
806.37	229.95
806.69	230.00
807.01	229.89
807.33	229.99
807.65	229.58
807.97	230.07
808.28	230.01
808.60	230.02
808.92	230.00
809.24	230.60
809.56	230.47
809.88	230.28
810.20	230.45
810.52	230.70
810.84	230.46
811.16	230.37
811.48	230.35
811.80	230.69
812.12	230.56
812.43	230.78
812.75	230.93
813.07	230.83
813.39	230.74
813.71	230.76
814.03	230.65
814.35	230.91
814.67	230.41
814.98	230.29
815.30	230.23
815.62	230.10
815.94	229.47
816.26	229.83
816.58	229.65
816.89	229.65
817.21	229.35
817.53	229.54
817.85	229.58
818.17	229.51
818.48	229.12
818.80	229.26
819.12	229.10
819.44	228.90
819.76	228.80
820.07	228.87
820.39	228.75
820.71	228.82
821.03	228.78
821.34	228.72
821.66	228.90
821.98	229.02
822.30	229.00
822.61	229.63
822.93	229.31
823.25	229.23
823.57	229.18
823.88	229.39
824.20	229.40
824.52	229.50
824.83	229.51
825.15	229.50
825.47	229.48
825.79	229.61
826.10	229.60
826.42	229.55
826.74	229.62
827.05	229.62
827.37	229.61
827.69	229.57
828.00	229.66
828.32	229.61
828.64	229.55
828.95	230.01
829.27	229.69
829.58	229.61
829.90	229.74
830.22	229.78
830.53	229.51
830.85	229.29
831.17	229.10
831.48	228.99
831.80	229.08
832.11	229.01
832.43	228.96
832.75	228.85
833.06	229.40
833.38	229.15
833.69	229.23
834.01	229.28
834.32	229.17
834.64	229.11
834.96	229.11
835.27	229.00
835.59	228.74
835.90	228.73
836.22	228.70
836.53	228.58
836.85	228.57
837.16	229.58
837.48	229.65
837.79	229.96
838.11	230.02
838.42	229.94
838.74	229.99
839.05	229.77
839.37	229.84
839.68	229.29
840.00	229.20
840.31	229.32
840.63	229.24
840.94	229.25
841.26	229.15
841.57	229.13
841.88	229.26
842.20	229.07
842.51	228.78
842.83	228.78
843.14	229.60
843.46	229.57
843.77	229.02
844.08	229.10
844.40	228.83
844.71	228.74
845.03	228.66
845.34	228.63
845.65	228.64
845.97	228.68
846.28	228.74
846.60	228.79
846.91	228.58
847.22	228.48
847.54	228.61
847.85	228.70
848.16	228.57
848.48	228.41
848.79	228.83
849.10	228.95
849.42	228.95
849.73	228.06
850.04	228.01
850.36	227.63
850.67	227.64
850.98	227.63
851.30	227.77
851.61	227.82
851.92	227.76
852.23	227.92
852.55	227.94
852.86	227.94
853.17	228.07
853.49	228.19
853.80	228.40
854.11	228.53
854.42	228.64
854.74	228.51
855.05	228.53
855.36	228.06
855.67	228.11
855.99	228.07
856.30	229.19
856.61	229.20
856.92	229.21
857.23	229.30
857.55	229.25
857.86	229.04
858.17	229.20
858.48	229.04
858.79	228.96
859.11	229.06
859.42	228.91
859.73	228.77
860.04	228.74
860.35	228.43
860.66	228.06
860.98	228.02
861.29	228.24
861.60	228.26
861.91	228.40
862.22	228.30
862.53	228.19
862.84	227.16
863.16	227.35
863.47	227.21
863.78	227.09
864.09	227.17
864.40	227.28
864.71	227.16
865.02	227.38
865.33	227.26
865.64	227.05
865.95	227.10
866.27	227.72
866.58	227.58
866.89	227.73
867.20	227.82
867.51	227.66
867.82	227.57
868.13	227.89
868.44	227.74
868.75	227.92
869.06	228.03
869.37	228.17
869.68	227.87
869.99	228.10
870.30	228.15
870.61	228.24
870.92	228.19
871.23	228.20
871.54	228.24
871.85	228.54
872.16	228.72
872.47	228.69
872.78	228.10
873.09	228.35
873.40	228.18
873.71	228.24
874.02	228.27
874.33	228.23
874.64	228.00
874.95	228.11
875.26	227.83
875.56	227.76
875.87	227.67
876.18	227.69
876.49	228.62
876.80	228.62
877.11	228.38
877.42	228.40
877.73	228.35
878.04	228.21
878.35	228.09
878.66	228.14
878.96	228.12
879.27	228.12
879.58	228.00
879.89	228.09
880.20	228.31
880.51	228.36
880.82	228.31
881.12	228.30
881.43	228.24
881.74	228.25
882.05	228.23
882.36	228.25
882.67	228.31
882.97	227.29
883.28	227.09
883.59	227.01
883.90	227.00
884.21	227.13
884.51	227.23
884.82	227.06
885.13	227.02
885.44	227.06
885.74	227.01
886.05	226.96
886.36	226.95
886.67	226.66
886.98	227.06
887.28	227.17
887.59	227.17
887.90	227.22
888.20	227.09
888.51	227.26
888.82	227.03
889.13	227.17
889.43	227.86
889.74	227.86
890.05	228.06
890.35	228.00
890.66	227.84
890.97	227.65
891.28	227.61
891.58	227.52
891.89	227.40
892.20	227.30
892.50	227.20
892.81	227.18
893.12	227.10
893.42	226.68
893.73	226.66
894.04	226.65
894.34	226.62
894.65	226.73
894.95	226.51
895.26	226.66
895.57	227.02
895.87	226.27
896.18	226.45
896.48	226.37
896.79	226.37
897.10	226.51
897.40	226.51
897.71	226.64
898.01	226.52
898.32	226.72
898.63	226.63
898.93	226.76
899.24	226.71
899.54	226.63
899.85	226.65
900.15	226.54
900.46	226.45
900.76	226.51
901.07	226.42
901.38	226.57
901.68	226.66
901.99	226.19
902.29	226.22
902.60	226.05
902.90	226.02
903.21	226.04
903.51	226.05
903.82	226.35
904.12	226.35
904.43	226.55
904.73	226.57
905.03	226.69
905.34	227.56
905.64	227.58
905.95	227.66
906.25	227.64
906.56	227.69
906.86	227.79
907.17	227.70
907.47	227.82
907.77	227.76
908.08	227.56
908.38	227.59
908.69	227.60
908.99	227.87
909.30	227.97
909.60	227.95
909.90	227.92
910.21	227.61
910.51	227.50
910.81	227.40
911.12	227.38
911.42	227.43
911.73	226.50
912.03	226.58
912.33	226.87
912.64	226.83
912.94	226.86
913.24	226.76
913.55	226.73
913.85	226.70
914.15	226.89
914.46	227.02
914.76	227.03
915.06	226.99
915.37	226.88
915.67	226.80
915.97	226.91
916.27	226.65
916.58	226.69
916.88	226.68
917.18	226.72
917.49	227.41
917.79	227.50
918.09	227.54
918.39	227.84
918.70	227.74
919.00	227.80
919.30	228.20
919.60	228.16
919.91	228.11
920.21	228.18
920.51	227.86
920.81	227.80
921.12	227.94
921.42	227.99
921.72	228.02
922.02	228.10
922.32	228.20
922.63	228.45
922.93	228.90
923.23	229.04
923.53	228.89
923.83	228.20
924.13	228.19
924.44	228.11
924.74	228.13
925.04	228.31
925.34	228.18
925.64	227.80
925.94	227.75
926.24	228.34
926.55	228.19
926.85	228.45
927.15	228.47
927.45	228.43
927.75	228.45
928.05	228.49
928.35	228.36
928.65	228.42
928.95	228.39
929.26	228.04
929.56	228.09
929.86	228.32
930.16	228.30
930.46	228.34
930.76	228.44
931.06	228.14
931.36	227.87
931.66	228.18
931.96	228.30
932.26	228.45
932.56	227.99
932.86	228.08
933.16	228.06
933.46	228.00
933.76	227.89
934.06	228.10
934.36	228.47
934.66	228.48
934.96	228.36
935.26	228.42
935.56	228.59
935.86	228.41
936.16	228.22
936.46	228.12
936.76	227.92
937.06	227.90
937.36	227.86
937.66	227.98
937.96	227.83
938.26	227.69
938.56	227.51
938.86	227.58
939.16	227.85
939.46	227.87
939.76	227.88
940.06	227.90
940.35	227.69
940.65	227.10
940.95	227.14
941.25	226.96
941.55	226.77
941.85	226.71
942.15	226.96
942.45	227.22
942.75	227.19
943.04	227.38
943.34	227.48
943.64	227.42
943.94	227.27
944.24	227.31
944.54	227.37
944.84	227.36
945.13	227.30
945.43	227.08
945.73	226.98
946.03	226.91
946.33	226.66
946.62	226.58
946.92	226.61
947.22	226.74
947.52	226.83
947.82	227.07
948.11	226.95
948.41	226.71
948.71	226.50
949.01	226.60
949.31	226.47
949.60	226.37
949.90	226.64
950.20	226.67
950.50	226.50
950.79	226.30
951.09	226.50
951.39	226.51
951.69	226.42
951.98	226.56
952.28	226.68
952.58	226.72
952.87	226.71
953.17	226.89
953.47	226.81
953.76	226.69
954.06	226.52
954.36	226.37
954.66	226.39
954.95	226.65
955.25	226.74
955.55	226.74
955.84	226.67
956.14	226.65
956.44	226.55
956.73	226.60
957.03	226.65
957.32	226.69
957.62	226.60
957.92	226.73
958.21	226.79
958.51	227.79
958.81	227.96
959.10	228.13
959.40	228.30
959.69	228.24
959.99	228.48
960.29	228.50
960.58	228.52
960.88	228.85
961.17	228.60
961.47	228.61
961.76	228.61
962.06	228.85
962.36	228.65
962.65	228.78
962.95	228.84
963.24	228.78
963.54	228.74
963.83	228.74
964.13	228.80
964.42	228.45
964.72	227.82
965.01	227.81
965.31	227.73
965.60	227.53
965.90	228.15
966.19	228.00
966.49	228.03
966.78	228.00
967.08	227.88
967.37	227.95
967.67	227.82
967.96	228.07
968.26	227.87
968.55	228.10
968.85	228.17
969.14	228.13
969.43	228.21
969.73	228.15
970.02	228.15
970.32	228.13
970.61	228.20
970.91	227.79
971.20	227.72
971.49	227.60
971.79	227.60
972.08	226.99
972.38	227.09
972.67	227.02
972.96	227.18
973.26	227.03
973.55	227.32
973.85	227.28
974.14	227.17
974.43	227.40
974.73	227.23
975.02	226.99
975.31	227.06
975.61	227.05
975.90	226.89
976.19	226.81
976.49	226.83
976.78	226.91
977.07	226.93
977.37	226.99
977.66	227.10
977.95	226.95
978.24	227.07
978.54	227.16
978.83	227.12
979.12	226.95
979.42	227.02
979.71	226.85
980.00	226.82
980.29	226.85
980.59	226.60
980.88	226.80
981.17	226.81
981.46	226.77
981.76	226.80
982.05	227.22
982.34	227.32
982.63	227.30
982.93	227.22
983.22	227.51
983.51	227.60
983.80	227.77
984.09	227.89
984.39	227.76
984.68	227.66
984.97	227.85
985.26	227.86
985.55	227.94
985.85	227.68
986.14	227.88
986.43	227.86
986.72	227.83
987.01	227.65
987.30	227.66
987.59	227.55
987.89	227.62
988.18	227.21
988.47	227.12
988.76	226.99
989.05	226.93
989.34	226.73
989.63	226.93
989.92	226.81
990.22	226.68
990.51	226.63
990.80	226.49
991.09	226.43
991.38	226.49
991.67	226.35
991.96	226.36
992.25	226.39
992.54	226.24
992.83	226.26
993.12	226.10
993.41	226.27
993.70	226.71
993.99	226.82
994.28	227.06
994.58	227.18
994.87	227.10
995.16	227.10
995.45	226.99
995.74	226.70
996.03	226.62
996.32	226.91
996.61	227.17
996.90	227.21
997.19	227.10
997.48	227.19
997.77	227.07
998.06	227.11
998.34	226.94
998.63	226.96
998.92	226.93
999.21	227.15
999.50	227.27
999.79	226.88
1000.08	226.80
1000.37	226.75
1000.66	226.66
1000.95	226.93
1001.24	227.00
1001.53	227.18
1001.82	227.12
1002.11	227.12
1002.40	227.10
1002.68	227.33
1002.97	228.03
1003.26	228.01
1003.55	227.79
1003.84	227.93
1004.13	228.24
1004.42	228.30
1004.71	228.30
1004.99	228.32
1005.28	228.51
1005.57	228.24
1005.86	228.19
1006.15	228.09
1006.44	227.93
1006.72	227.92
1007.01	227.78
1007.30	227.75
1007.59	227.70
1007.88	227.67
1008.17	227.68
1008.45	227.46
1008.74	226.95
1009.03	226.46
1009.32	226.43
1009.60	226.45
1009.89	226.23
1010.18	225.87
1010.47	225.80
1010.76	225.75
1011.04	225.66
1011.33	225.73
1011.62	225.86
1011.91	225.88
1012.19	225.98
1012.48	226.02
1012.77	226.13
1013.05	226.61
1013.34	226.69
1013.63	226.58
1013.92	226.64
1014.20	226.65
1014.49	226.78
1014.78	226.91
1015.06	226.73
1015.35	226.71
1015.64	226.95
1015.92	227.16
1016.21	227.19
1016.50	227.25
1016.78	227.37
1017.07	227.39
1017.36	227.10
1017.64	226.92
1017.93	227.04
1018.22	226.88
1018.50	226.82
1018.79	226.81
1019.08	226.36
1019.36	226.37
1019.65	226.22
1019.93	226.47
1020.22	226.49
1020.51	226.95
1020.79	226.83
1021.08	224.30
1021.36	224.10
1021.65	227.60
1021.94	226.90
1022.22	227.20
1022.51	222.90
1022.79	231.00
1023.08	227.70
1023.36	238.20
1023.65	224.20
>>>>>End Processed Spectral Data<<<<<
