SpectraSuite Data File
++++++++++++++++++++++++++++++++++++
Date: Wed Sep 04 17:28:35 EDT 2013
User: lab3
Dark Spectrum Present: Yes
Reference Spectrum Present: No
Number of Sampled Component Spectra: 1
Spectrometers: USB2E7196
Integration Time (usec): 337000 (USB2E7196)
Spectra Averaged: 10 (USB2E7196)
Boxcar Smoothing: 10 (USB2E7196)
Correct for Electrical Dark: No (USB2E7196)
Strobe/Lamp Enabled: No (USB2E7196)
Correct for Detector Non-linearity: No (USB2E7196)
Correct for Stray Light: No (USB2E7196)
Number of Pixels in Processed Spectrum: 2048
>>>>>Begin Processed Spectral Data<<<<<
339.09	0.00
339.48	214.00
339.86	214.80
340.24	216.00
340.63	217.50
341.01	233.90
341.39	221.50
341.78	223.10
342.16	224.80
342.54	223.90
342.93	213.82
343.31	224.54
343.69	225.09
344.07	225.58
344.46	226.13
344.84	226.56
345.22	226.05
345.60	226.30
345.99	226.57
346.37	226.62
346.75	226.68
347.13	226.67
347.52	226.84
347.90	227.11
348.28	227.10
348.66	227.41
349.05	227.14
349.43	227.26
349.81	227.38
350.19	227.37
350.57	227.48
350.96	227.65
351.34	227.72
351.72	227.72
352.10	227.86
352.48	227.82
352.87	227.85
353.25	228.04
353.63	228.05
354.01	228.08
354.39	228.32
354.77	228.35
355.15	228.71
355.54	228.56
355.92	228.49
356.30	228.63
356.68	229.17
357.06	229.25
357.44	229.12
357.82	229.07
358.20	229.90
358.58	229.74
358.97	229.71
359.35	230.04
359.73	230.36
360.11	230.32
360.49	230.45
360.87	230.52
361.25	230.69
361.63	231.08
362.01	231.11
362.39	231.00
362.77	231.16
363.15	231.04
363.53	231.10
363.91	231.11
364.29	231.06
364.67	230.17
365.05	230.23
365.43	230.41
365.81	230.68
366.19	230.47
366.57	231.08
366.95	231.20
367.33	231.00
367.71	230.94
368.09	231.23
368.47	231.24
368.85	231.21
369.23	231.41
369.61	231.04
369.99	231.39
370.37	231.54
370.75	231.98
371.13	231.82
371.51	231.73
371.89	231.85
372.27	231.95
372.65	232.03
373.03	232.10
373.41	231.97
373.78	231.82
374.16	231.24
374.54	230.89
374.92	230.81
375.30	230.81
375.68	230.66
376.06	230.56
376.44	230.41
376.82	230.52
377.19	230.38
377.57	230.43
377.95	229.97
378.33	229.80
378.71	229.24
379.09	229.41
379.47	229.44
379.84	229.34
380.22	229.09
380.60	228.94
380.98	228.74
381.36	228.58
381.73	228.45
382.11	228.66
382.49	228.61
382.87	228.39
383.25	228.26
383.62	229.28
384.00	229.09
384.38	229.09
384.76	229.13
385.13	229.40
385.51	229.29
385.89	229.18
386.27	229.25
386.64	229.39
387.02	229.16
387.40	229.04
387.78	229.02
388.15	229.05
388.53	228.88
388.91	228.89
389.29	228.79
389.66	228.80
390.04	228.60
390.42	228.70
390.79	228.74
391.17	228.69
391.55	227.58
391.92	227.55
392.30	227.69
392.68	227.44
393.05	227.42
393.43	227.42
393.81	227.46
394.18	227.19
394.56	227.10
394.94	227.34
395.31	227.35
395.69	227.63
396.06	227.82
396.44	228.08
396.82	228.02
397.19	228.70
397.57	228.66
397.95	228.82
398.32	228.60
398.70	228.85
399.07	229.21
399.45	229.37
399.82	229.52
400.20	229.57
400.58	229.81
400.95	229.55
401.33	229.90
401.70	230.80
402.08	231.10
402.45	231.34
402.83	231.75
403.20	232.09
403.58	232.19
403.95	232.57
404.33	232.92
404.71	233.28
405.08	234.10
405.46	234.57
405.83	235.04
406.21	235.54
406.58	236.08
406.96	236.56
407.33	237.23
407.70	237.98
408.08	239.32
408.45	240.24
408.83	241.31
409.20	242.00
409.58	242.21
409.95	243.33
410.33	244.53
410.70	245.19
411.08	246.38
411.45	247.50
411.82	248.61
412.20	250.10
412.57	252.22
412.95	252.90
413.32	254.74
413.69	256.31
414.07	258.20
414.44	260.11
414.82	262.37
415.19	264.89
415.56	267.28
415.94	269.44
416.31	272.39
416.68	275.21
417.06	278.76
417.43	282.32
417.81	286.01
418.18	289.78
418.55	294.20
418.93	298.54
419.30	303.25
419.67	308.23
420.04	313.20
420.42	318.19
420.79	324.90
421.16	330.94
421.54	337.70
421.91	344.34
422.28	351.09
422.66	358.24
423.03	365.68
423.40	373.10
423.77	381.08
424.15	388.86
424.52	397.40
424.89	406.78
425.26	415.57
425.64	423.94
426.01	433.34
426.38	443.23
426.75	453.47
427.13	463.68
427.50	474.48
427.87	485.55
428.24	496.84
428.61	506.99
428.99	518.91
429.36	531.71
429.73	544.24
430.10	557.12
430.47	570.20
430.85	583.29
431.22	597.84
431.59	613.51
431.96	628.30
432.33	644.30
432.70	659.96
433.08	678.51
433.45	696.40
433.82	713.90
434.19	733.23
434.56	752.51
434.93	771.04
435.30	789.48
435.68	810.32
436.05	830.55
436.42	850.97
436.79	869.90
437.16	890.28
437.53	912.09
437.90	933.12
438.27	954.20
438.64	976.53
439.01	997.23
439.38	1015.55
439.75	1033.51
440.13	1054.00
440.50	1073.01
440.87	1088.88
441.24	1105.37
441.61	1123.76
441.98	1137.57
442.35	1153.18
442.72	1169.20
443.09	1185.09
443.46	1194.85
443.83	1202.17
444.20	1208.22
444.57	1216.43
444.94	1220.65
445.31	1225.05
445.68	1230.33
446.05	1232.63
446.42	1230.94
446.79	1229.23
447.16	1227.26
447.53	1226.08
447.90	1218.75
448.27	1211.92
448.64	1201.74
449.01	1194.41
449.37	1180.74
449.74	1167.40
450.11	1151.67
450.48	1134.29
450.85	1115.96
451.22	1100.70
451.59	1086.08
451.96	1072.39
452.33	1053.87
452.70	1037.01
453.07	1016.58
453.43	995.39
453.80	975.84
454.17	957.24
454.54	939.02
454.91	919.24
455.28	900.26
455.65	882.87
456.02	866.13
456.38	851.02
456.75	832.37
457.12	816.76
457.49	801.83
457.86	787.12
458.23	774.80
458.59	761.18
458.96	747.12
459.33	734.78
459.70	722.46
460.07	712.58
460.43	701.30
460.80	691.07
461.17	681.98
461.54	672.19
461.91	662.92
462.27	653.67
462.64	645.98
463.01	637.32
463.38	629.22
463.74	619.90
464.11	612.63
464.48	606.37
464.85	599.51
465.21	594.31
465.58	588.75
465.95	581.85
466.32	576.50
466.68	571.17
467.05	565.70
467.42	560.24
467.78	554.57
468.15	549.40
468.52	545.63
468.88	540.30
469.25	535.70
469.62	532.32
469.98	528.57
470.35	524.90
470.72	521.56
471.08	517.66
471.45	514.59
471.82	511.53
472.18	507.85
472.55	505.45
472.92	502.36
473.28	499.60
473.65	496.93
474.02	494.21
474.38	492.23
474.75	490.31
475.11	488.23
475.48	486.88
475.85	485.43
476.21	483.74
476.58	482.61
476.94	481.90
477.31	480.64
477.67	479.37
478.04	478.49
478.41	477.97
478.77	478.29
479.14	477.46
479.50	477.29
479.87	477.51
480.23	477.51
480.60	477.44
480.96	477.32
481.33	478.25
481.69	478.75
482.06	479.01
482.42	479.61
482.79	480.26
483.15	480.90
483.52	482.13
483.88	483.20
484.25	484.47
484.61	485.66
484.98	487.03
485.34	489.20
485.71	491.21
486.07	493.09
486.44	494.48
486.80	496.76
487.17	499.01
487.53	501.68
487.90	504.48
488.26	507.61
488.62	510.94
488.99	513.69
489.35	517.10
489.72	520.72
490.08	524.31
490.44	528.25
490.81	532.42
491.17	536.31
491.54	540.88
491.90	545.24
492.26	550.06
492.63	554.90
492.99	559.77
493.36	564.98
493.72	570.55
494.08	576.11
494.45	582.30
494.81	588.64
495.17	594.71
495.54	601.18
495.90	607.70
496.26	614.60
496.63	621.53
496.99	628.40
497.35	635.73
497.72	643.54
498.08	651.35
498.44	659.37
498.80	667.93
499.17	676.12
499.53	684.50
499.89	693.30
500.26	702.19
500.62	711.08
500.98	720.23
501.34	729.30
501.71	738.60
502.07	747.43
502.43	756.32
502.79	765.65
503.16	775.37
503.52	784.97
503.88	794.74
504.24	804.90
504.60	815.40
504.97	825.78
505.33	835.53
505.69	846.36
506.05	856.69
506.41	866.66
506.78	877.18
507.14	888.22
507.50	898.58
507.86	909.09
508.22	919.58
508.59	930.01
508.95	940.90
509.31	952.06
509.67	962.98
510.03	973.97
510.39	984.90
510.75	995.49
511.12	1006.04
511.48	1016.20
511.84	1026.42
512.20	1036.21
512.56	1046.18
512.92	1056.61
513.28	1066.13
513.64	1076.05
514.00	1086.08
514.37	1095.82
514.73	1105.03
515.09	1114.25
515.45	1123.31
515.81	1132.32
516.17	1141.25
516.53	1149.75
516.89	1157.70
517.25	1166.64
517.61	1175.70
517.97	1184.69
518.33	1192.97
518.69	1201.56
519.05	1210.18
519.41	1218.08
519.77	1226.69
520.13	1234.34
520.49	1241.70
520.85	1249.35
521.21	1256.64
521.57	1263.69
521.93	1269.85
522.29	1276.88
522.65	1283.10
523.01	1289.54
523.37	1295.33
523.73	1301.36
524.09	1306.86
524.45	1312.40
524.81	1317.62
525.17	1322.33
525.53	1326.68
525.89	1331.26
526.25	1335.88
526.61	1339.72
526.97	1344.31
527.33	1348.96
527.68	1354.57
528.04	1359.56
528.40	1363.69
528.76	1368.40
529.12	1372.78
529.48	1377.61
529.84	1381.20
530.20	1386.12
530.56	1390.49
530.91	1395.19
531.27	1399.15
531.63	1403.57
531.99	1407.55
532.35	1411.20
532.71	1415.43
533.07	1419.77
533.42	1424.52
533.78	1428.33
534.14	1432.27
534.50	1436.13
534.86	1439.92
535.21	1441.97
535.57	1445.16
535.93	1447.99
536.29	1451.09
536.65	1454.42
537.00	1457.33
537.36	1460.33
537.72	1462.58
538.08	1465.88
538.44	1468.46
538.79	1471.22
539.15	1473.60
539.51	1476.38
539.87	1478.95
540.22	1480.67
540.58	1482.54
540.94	1483.36
541.29	1484.50
541.65	1486.07
542.01	1487.38
542.37	1487.70
542.72	1488.64
543.08	1488.70
543.44	1490.12
543.79	1489.83
544.15	1490.17
544.51	1490.94
544.87	1491.27
545.22	1491.13
545.58	1490.41
545.94	1489.69
546.29	1489.29
546.65	1488.51
547.01	1487.78
547.36	1487.03
547.72	1486.28
548.07	1484.88
548.43	1484.32
548.79	1483.59
549.14	1482.47
549.50	1481.68
549.86	1480.73
550.21	1480.05
550.57	1479.96
550.92	1478.32
551.28	1477.81
551.64	1476.96
551.99	1476.13
552.35	1475.38
552.70	1475.17
553.06	1474.78
553.41	1474.02
553.77	1473.95
554.13	1473.50
554.48	1473.23
554.84	1472.56
555.19	1472.30
555.55	1473.44
555.90	1472.54
556.26	1471.78
556.61	1471.07
556.97	1469.46
557.32	1468.69
557.68	1467.74
558.03	1466.47
558.39	1465.64
558.74	1464.60
559.10	1463.29
559.45	1461.77
559.81	1460.08
560.16	1458.19
560.52	1456.42
560.87	1455.50
561.23	1453.36
561.58	1452.24
561.94	1450.18
562.29	1448.00
562.64	1445.94
563.00	1442.60
563.35	1441.10
563.71	1439.47
564.06	1437.96
564.42	1436.91
564.77	1435.67
565.12	1434.50
565.48	1434.00
565.83	1432.84
566.19	1431.38
566.54	1429.80
566.89	1428.14
567.25	1427.03
567.60	1426.15
567.96	1425.73
568.31	1424.54
568.66	1423.08
569.02	1420.84
569.37	1418.81
569.72	1417.45
570.08	1415.57
570.43	1412.97
570.78	1411.01
571.14	1408.79
571.49	1405.78
571.84	1403.35
572.20	1400.40
572.55	1397.57
572.90	1393.85
573.26	1390.91
573.61	1387.71
573.96	1384.64
574.31	1381.15
574.67	1377.69
575.02	1373.48
575.37	1368.39
575.72	1364.08
576.08	1360.64
576.43	1356.81
576.78	1352.96
577.13	1349.05
577.49	1345.25
577.84	1342.34
578.19	1338.76
578.54	1335.30
578.90	1332.44
579.25	1328.93
579.60	1325.50
579.95	1321.69
580.30	1317.85
580.66	1313.71
581.01	1309.47
581.36	1304.85
581.71	1301.13
582.06	1297.36
582.42	1293.90
582.77	1290.32
583.12	1286.51
583.47	1282.45
583.82	1279.33
584.17	1275.93
584.53	1272.59
584.88	1268.10
585.23	1264.34
585.58	1259.28
585.93	1254.45
586.28	1250.11
586.63	1245.33
586.98	1240.44
587.34	1236.00
587.69	1231.23
588.04	1227.21
588.39	1223.28
588.74	1219.38
589.09	1215.42
589.44	1210.56
589.79	1206.38
590.14	1202.42
590.49	1198.37
590.84	1193.91
591.19	1189.24
591.54	1184.67
591.89	1179.89
592.25	1177.35
592.60	1172.62
592.95	1168.78
593.30	1164.53
593.65	1159.62
594.00	1154.67
594.35	1152.97
594.70	1148.35
595.05	1144.08
595.40	1139.04
595.75	1134.27
596.10	1129.63
596.45	1124.70
596.80	1120.83
597.15	1116.07
597.50	1111.29
597.85	1106.79
598.19	1102.15
598.54	1097.48
598.89	1092.63
599.24	1088.13
599.59	1082.59
599.94	1077.78
600.29	1073.42
600.64	1069.39
600.99	1064.96
601.34	1061.29
601.69	1054.64
602.04	1050.38
602.39	1046.12
602.74	1042.55
603.08	1038.57
603.43	1034.71
603.78	1030.65
604.13	1026.14
604.48	1021.57
604.83	1017.06
605.18	1012.45
605.53	1008.13
605.87	1003.82
606.22	1000.20
606.57	995.79
606.92	991.29
607.27	987.44
607.62	983.41
607.96	979.43
608.31	975.94
608.66	972.06
609.01	967.47
609.36	963.31
609.70	959.27
610.05	954.53
610.40	950.30
610.75	945.73
611.10	941.19
611.44	936.44
611.79	932.35
612.14	928.20
612.49	923.63
612.83	919.52
613.18	915.12
613.53	910.53
613.88	906.14
614.22	901.63
614.57	896.87
614.92	892.00
615.27	887.46
615.61	882.63
615.96	877.79
616.31	873.55
616.65	869.80
617.00	865.20
617.35	860.90
617.70	856.28
618.04	852.19
618.39	848.03
618.74	844.40
619.08	839.81
619.43	835.39
619.78	831.05
620.12	826.34
620.47	822.07
620.82	817.45
621.16	813.01
621.51	809.44
621.85	805.21
622.20	800.99
622.55	796.38
622.89	792.36
623.24	788.56
623.59	784.24
623.93	779.68
624.28	775.58
624.62	772.41
624.97	769.01
625.32	764.94
625.66	760.85
626.01	756.40
626.35	752.90
626.70	749.07
627.04	745.65
627.39	741.80
627.73	738.40
628.08	734.88
628.43	730.98
628.77	726.61
629.12	722.96
629.46	719.56
629.81	716.28
630.15	712.48
630.50	708.50
630.84	705.02
631.19	701.48
631.53	698.10
631.88	693.62
632.22	689.62
632.57	686.32
632.91	682.95
633.26	679.69
633.60	675.81
633.95	672.16
634.29	668.07
634.64	664.89
634.98	660.80
635.32	657.62
635.67	654.77
636.01	651.43
636.36	647.90
636.70	644.66
637.05	640.93
637.39	637.63
637.73	634.44
638.08	631.42
638.42	627.72
638.77	624.25
639.11	620.67
639.45	616.94
639.80	612.98
640.14	609.42
640.49	606.19
640.83	603.20
641.17	600.16
641.52	597.27
641.86	594.09
642.20	591.62
642.55	588.36
642.89	585.16
643.23	582.07
643.58	579.53
643.92	576.25
644.26	573.22
644.61	570.54
644.95	567.55
645.29	564.31
645.64	561.78
645.98	558.92
646.32	556.44
646.66	553.61
647.01	551.04
647.35	548.48
647.69	545.64
648.04	542.90
648.38	540.19
648.72	537.51
649.06	534.50
649.41	531.20
649.75	528.30
650.09	525.53
650.43	522.73
650.78	519.80
651.12	517.11
651.46	514.74
651.80	511.85
652.14	509.26
652.49	507.02
652.83	504.41
653.17	501.88
653.51	499.09
653.85	496.82
654.20	494.22
654.54	491.57
654.88	488.91
655.22	487.04
655.56	484.61
655.90	482.19
656.25	480.08
656.59	478.15
656.93	475.95
657.27	473.89
657.61	471.57
657.95	469.27
658.29	466.96
658.64	464.70
658.98	462.44
659.32	460.09
659.66	457.67
660.00	455.58
660.34	453.37
660.68	451.21
661.02	449.03
661.36	447.04
661.70	445.08
662.05	443.14
662.39	440.78
662.73	439.03
663.07	437.69
663.41	435.63
663.75	433.37
664.09	431.35
664.43	428.95
664.77	427.08
665.11	425.15
665.45	423.34
665.79	421.57
666.13	419.56
666.47	417.62
666.81	415.78
667.15	413.59
667.49	411.90
667.83	410.59
668.17	408.86
668.51	407.11
668.85	405.45
669.19	404.16
669.53	402.24
669.87	400.16
670.21	398.02
670.55	396.35
670.89	395.32
671.23	393.59
671.57	392.11
671.91	390.66
672.25	389.20
672.58	387.93
672.92	385.99
673.26	384.61
673.60	383.33
673.94	381.80
674.28	380.42
674.62	379.04
674.96	377.22
675.30	375.94
675.64	374.57
675.97	373.17
676.31	371.43
676.65	369.93
676.99	368.94
677.33	367.42
677.67	366.24
678.01	364.30
678.34	363.13
678.68	362.04
679.02	360.47
679.36	359.09
679.70	357.45
680.04	356.42
680.37	355.26
680.71	353.85
681.05	352.70
681.39	351.75
681.73	350.39
682.06	349.21
682.40	348.03
682.74	346.99
683.08	346.07
683.42	344.71
683.75	343.95
684.09	342.67
684.43	341.73
684.77	340.38
685.10	339.31
685.44	338.20
685.78	337.02
686.12	336.08
686.45	334.85
686.79	333.71
687.13	332.81
687.46	331.58
687.80	330.78
688.14	329.65
688.48	328.54
688.81	327.56
689.15	326.79
689.49	325.64
689.82	324.60
690.16	323.26
690.50	322.46
690.83	321.23
691.17	320.02
691.51	318.92
691.84	318.26
692.18	317.37
692.52	316.42
692.85	315.52
693.19	315.11
693.52	314.48
693.86	313.67
694.20	312.81
694.53	312.14
694.87	311.15
695.21	310.31
695.54	309.47
695.88	308.50
696.21	307.32
696.55	306.51
696.88	305.74
697.22	305.00
697.56	304.28
697.89	303.34
698.23	302.63
698.56	302.01
698.90	301.28
699.23	300.50
699.57	299.86
699.90	299.04
700.24	297.89
700.58	297.16
700.91	296.70
701.25	296.68
701.58	296.54
701.92	296.11
702.25	295.45
702.59	294.67
702.92	294.18
703.26	293.75
703.59	293.29
703.93	293.47
704.26	292.87
704.60	292.34
704.93	291.81
705.26	291.28
705.60	290.74
705.93	289.90
706.27	289.55
706.60	289.19
706.94	289.06
707.27	288.54
707.61	287.85
707.94	287.09
708.27	285.69
708.61	284.52
708.94	283.82
709.28	283.19
709.61	282.62
709.94	282.12
710.28	281.50
710.61	280.87
710.95	279.41
711.28	279.50
711.61	278.74
711.95	278.37
712.28	277.71
712.61	276.99
712.95	277.01
713.28	276.80
713.61	275.90
713.95	274.98
714.28	274.51
714.61	273.91
714.95	273.49
715.28	272.89
715.61	272.31
715.95	271.90
716.28	271.50
716.61	271.16
716.95	270.50
717.28	270.04
717.61	269.52
717.94	268.98
718.28	267.73
718.61	267.25
718.94	266.64
719.27	266.20
719.61	265.87
719.94	265.07
720.27	264.15
720.60	263.83
720.94	263.54
721.27	263.09
721.60	263.11
721.93	262.70
722.27	262.68
722.60	262.52
722.93	262.09
723.26	261.79
723.59	261.29
723.93	261.11
724.26	260.94
724.59	260.66
724.92	260.50
725.25	260.52
725.59	260.24
725.92	260.08
726.25	259.81
726.58	259.54
726.91	259.27
727.24	259.19
727.57	258.96
727.91	258.52
728.24	258.41
728.57	257.87
728.90	257.74
729.23	257.25
729.56	257.52
729.89	257.14
730.22	256.79
730.55	256.65
730.89	256.30
731.22	255.94
731.55	255.60
731.88	255.38
732.21	255.00
732.54	254.75
732.87	254.46
733.20	254.20
733.53	253.98
733.86	253.78
734.19	253.33
734.52	253.22
734.85	253.68
735.18	253.27
735.51	253.37
735.84	253.16
736.17	253.23
736.50	252.38
736.83	253.31
737.16	253.12
737.49	252.85
737.82	252.53
738.15	252.46
738.48	252.33
738.81	251.96
739.14	251.75
739.47	251.59
739.80	251.42
740.13	251.36
740.46	251.02
740.79	250.68
741.12	250.50
741.45	250.13
741.78	249.44
742.11	249.53
742.44	249.22
742.77	249.14
743.10	248.75
743.43	248.55
743.75	247.45
744.08	248.51
744.41	248.36
744.74	248.24
745.07	247.81
745.40	247.72
745.73	248.02
746.06	247.87
746.39	247.82
746.71	247.58
747.04	247.29
747.37	247.18
747.70	247.26
748.03	247.10
748.36	247.18
748.68	246.90
749.01	246.45
749.34	246.20
749.67	245.87
750.00	245.85
750.33	246.41
750.65	246.27
750.98	244.81
751.31	244.66
751.64	244.60
751.97	244.96
752.29	244.78
752.62	244.14
752.95	243.78
753.28	243.35
753.60	243.14
753.93	243.31
754.26	243.29
754.59	242.85
754.91	242.65
755.24	242.30
755.57	242.22
755.90	242.03
756.22	241.74
756.55	241.47
756.88	241.14
757.20	240.35
757.53	239.95
757.86	240.01
758.19	239.87
758.51	239.62
758.84	239.05
759.17	238.67
759.49	238.66
759.82	239.01
760.15	239.03
760.47	238.92
760.80	238.42
761.13	238.35
761.45	238.30
761.78	238.20
762.11	238.11
762.43	237.93
762.76	237.87
763.08	237.91
763.41	237.97
763.74	237.86
764.06	237.67
764.39	237.62
764.71	237.37
765.04	237.17
765.37	237.06
765.69	236.88
766.02	236.88
766.34	236.73
766.67	236.23
767.00	236.42
767.32	236.81
767.65	237.38
767.97	237.11
768.30	237.04
768.62	237.01
768.95	236.90
769.27	236.84
769.60	236.93
769.92	236.70
770.25	236.52
770.57	236.26
770.90	236.25
771.22	236.12
771.55	236.10
771.87	236.10
772.20	236.01
772.52	236.81
772.85	237.94
773.17	237.92
773.50	237.93
773.82	237.71
774.15	237.18
774.47	236.50
774.80	236.36
775.12	236.20
775.45	236.12
775.77	236.06
776.09	235.92
776.42	235.80
776.74	236.05
777.07	235.90
777.39	236.08
777.72	235.95
778.04	236.01
778.36	235.99
778.69	235.93
779.01	235.99
779.33	235.12
779.66	233.97
779.98	233.96
780.31	233.95
780.63	234.27
780.95	234.45
781.28	234.35
781.60	234.37
781.92	234.40
782.25	234.27
782.57	234.33
782.89	234.34
783.22	234.29
783.54	234.03
783.86	234.15
784.19	233.94
784.51	234.34
784.83	234.24
785.16	234.12
785.48	234.01
785.80	233.96
786.12	233.98
786.45	233.96
786.77	233.90
787.09	233.80
787.42	233.45
787.74	233.32
788.06	233.41
788.38	233.24
788.71	233.15
789.03	233.20
789.35	233.16
789.67	232.89
789.99	232.87
790.32	232.76
790.64	232.75
790.96	233.45
791.28	232.87
791.61	232.68
791.93	232.70
792.25	232.70
792.57	233.33
792.89	233.09
793.21	233.04
793.54	232.90
793.86	232.76
794.18	232.66
794.50	232.55
794.82	232.54
795.14	232.73
795.47	232.88
795.79	232.99
796.11	232.83
796.43	232.89
796.75	232.71
797.07	232.74
797.39	232.59
797.71	231.91
798.04	232.02
798.36	232.04
798.68	232.00
799.00	231.96
799.32	231.42
799.64	231.63
799.96	231.60
800.28	231.75
800.60	231.69
800.92	231.75
801.24	231.69
801.56	231.67
801.89	231.57
802.21	231.47
802.53	231.25
802.85	231.34
803.17	231.78
803.49	231.68
803.81	231.51
804.13	231.54
804.45	231.49
804.77	231.55
805.09	231.60
805.41	231.42
805.73	231.34
806.05	231.10
806.37	231.01
806.69	230.99
807.01	230.83
807.33	230.92
807.65	230.64
807.97	231.11
808.28	230.94
808.60	230.87
808.92	230.80
809.24	231.25
809.56	231.12
809.88	230.75
810.20	230.95
810.52	231.26
810.84	231.05
811.16	230.89
811.48	230.85
811.80	231.21
812.12	231.26
812.43	231.41
812.75	231.50
813.07	231.39
813.39	231.43
813.71	231.37
814.03	231.20
814.35	231.19
814.67	230.80
814.98	230.67
815.30	230.75
815.62	230.57
815.94	230.03
816.26	230.46
816.58	230.26
816.89	230.21
817.21	229.93
817.53	230.04
817.85	230.05
818.17	230.03
818.48	229.51
818.80	229.72
819.12	229.63
819.44	229.40
819.76	229.33
820.07	229.33
820.39	229.27
820.71	229.42
821.03	229.47
821.34	229.33
821.66	229.52
821.98	229.50
822.30	229.46
822.61	229.96
822.93	229.49
823.25	229.50
823.57	229.31
823.88	229.48
824.20	229.45
824.52	229.71
824.83	229.58
825.15	229.58
825.47	229.50
825.79	229.50
826.10	229.50
826.42	229.52
826.74	229.59
827.05	229.59
827.37	229.61
827.69	229.45
828.00	229.51
828.32	229.51
828.64	229.44
828.95	229.97
829.27	229.61
829.58	229.60
829.90	229.79
830.22	229.85
830.53	229.58
830.85	229.43
831.17	229.17
831.48	229.16
831.80	229.24
832.11	229.11
832.43	228.92
832.75	228.95
833.06	229.44
833.38	229.12
833.69	229.13
834.01	229.10
834.32	229.11
834.64	228.95
834.96	228.93
835.27	228.92
835.59	228.65
835.90	228.52
836.22	228.47
836.53	228.20
836.85	228.11
837.16	229.09
837.48	229.12
837.79	229.44
838.11	229.47
838.42	229.49
838.74	229.62
839.05	229.74
839.37	229.80
839.68	229.31
840.00	229.36
840.31	229.37
840.63	229.23
840.94	229.27
841.26	229.19
841.57	229.20
841.88	229.20
842.20	229.00
842.51	228.92
842.83	228.86
843.14	229.77
843.46	229.85
843.77	229.23
844.08	229.19
844.40	228.90
844.71	228.82
845.03	228.67
845.34	228.59
845.65	228.45
845.97	228.36
846.28	228.46
846.60	228.59
846.91	228.50
847.22	228.58
847.54	228.73
847.85	228.89
848.16	228.79
848.48	228.70
848.79	229.04
849.10	229.12
849.42	229.33
849.73	228.50
850.04	228.46
850.36	228.15
850.67	228.43
850.98	228.49
851.30	228.62
851.61	228.69
851.92	228.69
852.23	229.08
852.55	229.21
852.86	229.18
853.17	229.08
853.49	229.35
853.80	229.52
854.11	229.59
854.42	229.68
854.74	229.68
855.05	229.74
855.36	229.35
855.67	229.49
855.99	229.48
856.30	230.60
856.61	230.59
856.92	230.71
857.23	230.56
857.55	230.45
857.86	230.33
858.17	230.35
858.48	230.20
858.79	229.99
859.11	230.02
859.42	229.97
859.73	229.92
860.04	229.75
860.35	229.43
860.66	229.04
860.98	229.01
861.29	229.04
861.60	228.90
861.91	229.07
862.22	228.80
862.53	228.65
862.84	227.54
863.16	227.69
863.47	227.51
863.78	227.57
864.09	227.54
864.40	227.56
864.71	227.61
865.02	227.65
865.33	227.47
865.64	227.22
865.95	227.14
866.27	227.83
866.58	227.75
866.89	227.90
867.20	227.89
867.51	227.75
867.82	227.70
868.13	228.06
868.44	227.99
868.75	228.29
869.06	228.30
869.37	228.38
869.68	228.13
869.99	228.40
870.30	228.35
870.61	228.48
870.92	228.39
871.23	228.23
871.54	228.48
871.85	228.73
872.16	228.90
872.47	228.83
872.78	228.26
873.09	228.41
873.40	228.25
873.71	228.47
874.02	228.55
874.33	228.48
874.64	228.18
874.95	228.30
875.26	228.09
875.56	228.03
875.87	227.90
876.18	227.85
876.49	228.62
876.80	228.60
877.11	228.39
877.42	228.47
877.73	228.46
878.04	228.16
878.35	228.16
878.66	228.20
878.96	228.23
879.27	228.14
879.58	228.00
879.89	228.03
880.20	228.21
880.51	228.14
880.82	228.20
881.12	228.24
881.43	228.04
881.74	227.93
882.05	228.02
882.36	228.14
882.67	228.27
882.97	227.25
883.28	227.10
883.59	227.16
883.90	227.36
884.21	227.62
884.51	227.67
884.82	227.44
885.13	227.41
885.44	227.46
885.74	227.38
886.05	227.37
886.36	227.40
886.67	227.14
886.98	227.64
887.28	227.68
887.59	227.80
887.90	227.77
888.20	227.73
888.51	227.82
888.82	227.63
889.13	227.76
889.43	228.53
889.74	228.51
890.05	228.58
890.35	228.29
890.66	228.12
890.97	228.10
891.28	228.09
891.58	228.12
891.89	228.23
892.20	228.21
892.50	228.14
892.81	228.11
893.12	227.97
893.42	227.44
893.73	227.45
894.04	227.30
894.34	227.41
894.65	227.48
894.95	227.30
895.26	227.38
895.57	227.77
895.87	227.00
896.18	227.17
896.48	227.17
896.79	227.26
897.10	227.35
897.40	227.42
897.71	227.63
898.01	227.43
898.32	227.41
898.63	227.46
898.93	227.59
899.24	227.64
899.54	227.67
899.85	227.72
900.15	227.72
900.46	227.88
900.76	227.98
901.07	228.03
901.38	228.03
901.68	228.18
901.99	227.70
902.29	227.77
902.60	227.80
902.90	227.68
903.21	227.68
903.51	227.64
903.82	227.74
904.12	227.65
904.43	227.87
904.73	227.82
905.03	227.82
905.34	228.67
905.64	228.61
905.95	228.66
906.25	228.68
906.56	228.65
906.86	228.61
907.17	228.50
907.47	228.42
907.77	228.48
908.08	228.38
908.38	228.42
908.69	228.58
908.99	228.71
909.30	228.73
909.60	228.80
909.90	228.79
910.21	228.52
910.51	228.37
910.81	228.38
911.12	228.40
911.42	228.44
911.73	227.50
912.03	227.57
912.33	227.79
912.64	227.68
912.94	227.52
913.24	227.38
913.55	227.29
913.85	227.21
914.15	227.33
914.46	227.45
914.76	227.39
915.06	227.20
915.37	227.00
915.67	226.99
915.97	226.97
916.27	226.83
916.58	226.88
916.88	226.82
917.18	226.74
917.49	227.37
917.79	227.28
918.09	227.46
918.39	227.69
918.70	227.60
919.00	227.59
919.30	228.06
919.60	227.99
919.91	227.95
920.21	228.12
920.51	227.94
920.81	227.75
921.12	227.92
921.42	227.89
921.72	227.98
922.02	228.07
922.32	228.14
922.63	228.14
922.93	228.79
923.23	228.91
923.53	228.66
923.83	228.04
924.13	228.19
924.44	228.14
924.74	228.20
925.04	228.34
925.34	228.34
925.64	228.00
925.94	228.06
926.24	228.60
926.55	228.40
926.85	228.54
927.15	228.58
927.45	228.56
927.75	228.56
928.05	228.51
928.35	228.43
928.65	228.57
928.95	228.64
929.26	228.16
929.56	228.23
929.86	228.47
930.16	228.45
930.46	228.35
930.76	228.34
931.06	227.91
931.36	227.67
931.66	227.90
931.96	227.94
932.26	227.98
932.56	227.55
932.86	227.66
933.16	227.61
933.46	227.50
933.76	227.29
934.06	227.39
934.36	227.67
934.66	227.63
934.96	227.50
935.26	227.50
935.56	227.67
935.86	227.57
936.16	227.52
936.46	227.38
936.76	227.27
937.06	227.21
937.36	227.36
937.66	227.42
937.96	227.27
938.26	227.08
938.56	227.00
938.86	227.06
939.16	227.24
939.46	227.30
939.76	227.37
940.06	227.38
940.35	227.27
940.65	226.80
940.95	226.87
941.25	226.70
941.55	226.63
941.85	226.55
942.15	226.78
942.45	227.00
942.75	227.02
943.04	227.20
943.34	227.40
943.64	227.29
943.94	227.19
944.24	227.25
944.54	227.45
944.84	227.45
945.13	227.24
945.43	227.16
945.73	227.16
946.03	227.18
946.33	227.16
946.62	227.09
946.92	227.14
947.22	227.33
947.52	227.35
947.82	227.58
948.11	227.52
948.41	227.30
948.71	226.97
949.01	227.12
949.31	226.99
949.60	226.80
949.90	227.02
950.20	226.99
950.50	226.90
950.79	226.83
951.09	227.01
951.39	227.04
951.69	226.87
951.98	227.02
952.28	227.08
952.58	227.07
952.87	227.09
953.17	227.31
953.47	227.12
953.76	227.12
954.06	226.89
954.36	226.70
954.66	226.73
954.95	227.07
955.25	227.10
955.55	227.27
955.84	227.16
956.14	227.14
956.44	227.27
956.73	227.30
957.03	227.37
957.32	227.28
957.62	227.22
957.92	227.51
958.21	227.43
958.51	228.50
958.81	228.61
959.10	228.74
959.40	228.89
959.69	229.03
959.99	229.30
960.29	229.31
960.58	229.35
960.88	229.76
961.17	229.60
961.47	229.67
961.76	229.49
962.06	229.72
962.36	229.65
962.65	229.79
962.95	229.74
963.24	229.65
963.54	229.73
963.83	229.79
964.13	229.62
964.42	229.30
964.72	228.55
965.01	228.51
965.31	228.44
965.60	228.20
965.90	228.66
966.19	228.37
966.49	228.49
966.78	228.40
967.08	228.20
967.37	228.30
967.67	228.10
967.96	228.34
968.26	228.22
968.55	228.30
968.85	228.19
969.14	228.09
969.43	228.01
969.73	227.96
970.02	227.96
970.32	227.90
970.61	227.93
970.91	227.59
971.20	227.39
971.49	227.28
971.79	227.31
972.08	226.59
972.38	226.64
972.67	226.54
972.96	226.70
973.26	226.45
973.55	226.72
973.85	226.64
974.14	226.55
974.43	226.61
974.73	226.44
975.02	226.34
975.31	226.48
975.61	226.54
975.90	226.40
976.19	226.38
976.49	226.56
976.78	226.64
977.07	226.66
977.37	226.79
977.66	226.90
977.95	226.78
978.24	226.88
978.54	227.04
978.83	226.91
979.12	226.88
979.42	227.00
979.71	226.75
980.00	226.72
980.29	226.71
980.59	226.50
980.88	226.82
981.17	226.70
981.46	226.70
981.76	226.60
982.05	226.91
982.34	226.96
982.63	226.86
982.93	226.88
983.22	227.18
983.51	227.28
983.80	227.45
984.09	227.60
984.39	227.74
984.68	227.70
984.97	227.88
985.26	227.81
985.55	227.81
985.85	227.58
986.14	227.70
986.43	227.88
986.72	227.95
987.01	227.58
987.30	227.72
987.59	227.67
987.89	227.75
988.18	227.50
988.47	227.37
988.76	227.39
989.05	227.30
989.34	227.04
989.63	227.26
989.92	227.16
990.22	227.10
990.51	226.99
990.80	226.86
991.09	226.87
991.38	226.91
991.67	226.77
991.96	226.73
992.25	226.78
992.54	226.64
992.83	226.57
993.12	226.54
993.41	226.67
993.70	227.07
993.99	227.27
994.28	227.42
994.58	227.67
994.87	227.60
995.16	227.63
995.45	227.68
995.74	227.33
996.03	227.57
996.32	227.68
996.61	227.82
996.90	227.75
997.19	227.70
997.48	227.76
997.77	227.66
998.06	227.77
998.34	227.79
998.63	227.78
998.92	227.84
999.21	228.05
999.50	228.10
999.79	227.71
1000.08	227.67
1000.37	227.60
1000.66	227.46
1000.95	227.72
1001.24	227.71
1001.53	227.69
1001.82	227.73
1002.11	227.35
1002.40	227.34
1002.68	227.54
1002.97	228.27
1003.26	228.10
1003.55	227.90
1003.84	228.04
1004.13	228.37
1004.42	228.31
1004.71	228.30
1004.99	228.30
1005.28	228.59
1005.57	228.39
1005.86	228.28
1006.15	228.18
1006.44	228.04
1006.72	228.16
1007.01	227.89
1007.30	228.01
1007.59	228.01
1007.88	227.95
1008.17	228.01
1008.45	227.88
1008.74	227.51
1009.03	227.05
1009.32	227.08
1009.60	227.19
1009.89	227.07
1010.18	226.60
1010.47	226.53
1010.76	226.40
1011.04	226.40
1011.33	226.26
1011.62	226.40
1011.91	226.42
1012.19	226.45
1012.48	226.48
1012.77	226.48
1013.05	226.88
1013.34	226.86
1013.63	226.84
1013.92	226.87
1014.20	226.85
1014.49	226.83
1014.78	226.84
1015.06	226.58
1015.35	226.59
1015.64	226.69
1015.92	226.90
1016.21	226.99
1016.50	227.03
1016.78	227.31
1017.07	227.38
1017.36	227.20
1017.64	226.97
1017.93	227.06
1018.22	227.07
1018.50	227.06
1018.79	226.90
1019.08	226.44
1019.36	226.39
1019.65	226.28
1019.93	226.59
1020.22	226.71
1020.51	227.22
1020.79	227.14
1021.08	226.80
1021.36	225.60
1021.65	225.40
1021.94	225.00
1022.22	226.20
1022.51	225.20
1022.79	232.00
1023.08	228.60
1023.36	237.40
1023.65	224.00
>>>>>End Processed Spectral Data<<<<<
