SpectraSuite Data File
++++++++++++++++++++++++++++++++++++
Date: Wed Sep 04 17:30:53 EDT 2013
User: lab3
Dark Spectrum Present: Yes
Reference Spectrum Present: No
Number of Sampled Component Spectra: 1
Spectrometers: USB2E7196
Integration Time (usec): 337000 (USB2E7196)
Spectra Averaged: 10 (USB2E7196)
Boxcar Smoothing: 10 (USB2E7196)
Correct for Electrical Dark: No (USB2E7196)
Strobe/Lamp Enabled: No (USB2E7196)
Correct for Detector Non-linearity: No (USB2E7196)
Correct for Stray Light: No (USB2E7196)
Number of Pixels in Processed Spectrum: 2048
>>>>>Begin Processed Spectral Data<<<<<
339.09	0.00
339.48	212.20
339.86	213.70
340.24	214.90
340.63	218.20
341.01	229.30
341.39	219.90
341.78	223.60
342.16	225.40
342.54	223.90
342.93	212.77
343.31	223.51
343.69	224.00
344.07	224.58
344.46	225.12
344.84	225.50
345.22	225.26
345.60	225.56
345.99	225.74
346.37	225.81
346.75	225.86
347.13	225.97
347.52	226.10
347.90	226.50
348.28	226.50
348.66	226.81
349.05	226.55
349.43	226.67
349.81	226.89
350.19	227.00
350.57	226.88
350.96	227.17
351.34	227.16
351.72	227.24
352.10	227.20
352.48	227.24
352.87	227.21
353.25	227.30
353.63	227.31
354.01	227.30
354.39	227.29
354.77	227.30
355.15	227.59
355.54	227.46
355.92	227.14
356.30	227.20
356.68	227.87
357.06	227.95
357.44	227.80
357.82	227.65
358.20	228.40
358.58	228.53
358.97	228.53
359.35	228.84
359.73	229.17
360.11	229.20
360.49	229.25
360.87	229.37
361.25	229.56
361.63	229.91
362.01	229.97
362.39	230.08
362.77	230.32
363.15	230.22
363.53	230.18
363.91	230.29
364.29	230.34
364.67	229.50
365.05	229.58
365.43	229.77
365.81	230.02
366.19	229.85
366.57	230.29
366.95	230.33
367.33	230.19
367.71	230.20
368.09	230.51
368.47	230.50
368.85	230.43
369.23	230.71
369.61	230.34
369.99	230.60
370.37	230.67
370.75	231.07
371.13	230.95
371.51	230.94
371.89	230.99
372.27	231.03
372.65	230.87
373.03	230.93
373.41	230.89
373.78	230.85
374.16	230.38
374.54	230.07
374.92	229.94
375.30	229.89
375.68	229.67
376.06	229.62
376.44	229.51
376.82	229.54
377.19	229.29
377.57	229.30
377.95	228.97
378.33	228.84
378.71	228.30
379.09	228.27
379.47	228.36
379.84	228.18
380.22	228.08
380.60	227.91
380.98	227.79
381.36	227.64
381.73	227.46
382.11	227.57
382.49	227.56
382.87	227.39
383.25	227.34
383.62	228.39
384.00	228.12
384.38	228.08
384.76	228.20
385.13	228.49
385.51	228.42
385.89	228.24
386.27	228.20
386.64	228.28
387.02	228.32
387.40	228.21
387.78	228.39
388.15	228.35
388.53	228.37
388.91	228.34
389.29	228.29
389.66	228.31
390.04	228.11
390.42	228.24
390.79	228.31
391.17	228.30
391.55	227.19
391.92	227.21
392.30	227.38
392.68	227.18
393.05	227.11
393.43	227.21
393.81	227.43
394.18	227.27
394.56	227.15
394.94	227.20
395.31	227.12
395.69	227.30
396.06	227.52
396.44	227.67
396.82	227.64
397.19	228.16
397.57	228.13
397.95	228.32
398.32	228.07
398.70	228.23
399.07	228.49
399.45	228.60
399.82	228.57
400.20	228.57
400.58	228.57
400.95	228.32
401.33	228.65
401.70	229.32
402.08	229.64
402.45	229.89
402.83	230.30
403.20	230.62
403.58	230.68
403.95	231.00
404.33	231.41
404.71	231.68
405.08	232.37
405.46	232.79
405.83	233.20
406.21	233.60
406.58	234.03
406.96	234.40
407.33	234.95
407.70	235.59
408.08	236.75
408.45	237.60
408.83	238.43
409.20	238.89
409.58	238.93
409.95	239.75
410.33	240.60
410.70	241.10
411.08	242.03
411.45	243.04
411.82	243.85
412.20	245.00
412.57	246.59
412.95	247.02
413.32	248.38
413.69	249.60
414.07	250.92
414.44	252.53
414.82	254.16
415.19	256.02
415.56	257.80
415.94	259.39
416.31	261.54
416.68	263.67
417.06	266.23
417.43	269.01
417.81	271.80
418.18	274.63
418.55	277.77
418.93	280.97
419.30	284.38
419.67	287.98
420.04	291.59
420.42	295.40
420.79	300.49
421.16	304.95
421.54	309.96
421.91	314.98
422.28	319.90
422.66	325.01
423.03	330.87
423.40	336.51
423.77	342.48
424.15	348.46
424.52	354.62
424.89	361.63
425.26	368.10
425.64	374.46
426.01	381.43
426.38	388.89
426.75	396.42
427.13	404.00
427.50	411.83
427.87	420.13
428.24	428.35
428.61	435.83
428.99	445.06
429.36	454.09
429.73	463.33
430.10	472.88
430.47	482.95
430.85	492.30
431.22	502.79
431.59	514.31
431.96	525.10
432.33	537.20
432.70	548.60
433.08	562.23
433.45	574.77
433.82	587.46
434.19	601.58
434.56	615.58
434.93	628.95
435.30	642.53
435.68	657.58
436.05	672.22
436.42	686.86
436.79	700.35
437.16	715.33
437.53	730.73
437.90	746.11
438.27	761.14
438.64	777.16
439.01	792.16
439.38	805.06
439.75	817.73
440.13	832.11
440.50	845.61
440.87	856.85
441.24	868.72
441.61	881.76
441.98	891.22
442.35	902.15
442.72	913.34
443.09	924.36
443.46	931.33
443.83	936.17
444.20	940.55
444.57	946.01
444.94	948.77
445.31	951.87
445.68	955.62
446.05	957.32
446.42	955.88
446.79	954.37
447.16	952.59
447.53	951.80
447.90	946.12
448.27	940.90
448.64	933.21
449.01	927.73
449.37	917.81
449.74	908.12
450.11	897.34
450.48	884.65
450.85	871.47
451.22	860.01
451.59	849.17
451.96	838.85
452.33	825.17
452.70	812.97
453.07	798.20
453.43	782.31
453.80	767.75
454.17	753.90
454.54	740.80
454.91	726.67
455.28	712.55
455.65	699.93
456.02	688.33
456.38	677.49
456.75	664.12
457.12	652.82
457.49	641.89
457.86	630.49
458.23	621.60
458.59	611.63
458.96	601.69
459.33	592.91
459.70	583.94
460.07	576.84
460.43	568.49
460.80	561.02
461.17	554.40
461.54	547.30
461.91	541.02
462.27	534.28
462.64	528.53
463.01	522.38
463.38	516.82
463.74	509.51
464.11	504.10
464.48	499.40
464.85	494.24
465.21	490.55
465.58	486.31
465.95	481.27
466.32	477.33
466.68	473.18
467.05	469.14
467.42	465.21
467.78	461.20
468.15	457.43
468.52	454.66
468.88	450.61
469.25	447.20
469.62	444.37
469.98	441.32
470.35	438.76
470.72	436.28
471.08	433.18
471.45	431.01
471.82	428.69
472.18	426.07
472.55	424.23
472.92	421.78
473.28	419.89
473.65	417.95
474.02	416.15
474.38	414.45
474.75	413.07
475.11	411.31
475.48	410.23
475.85	409.06
476.21	407.68
476.58	406.88
476.94	406.04
477.31	405.00
477.67	404.16
478.04	403.38
478.41	402.84
478.77	403.22
479.14	402.47
479.50	402.08
479.87	401.91
480.23	401.74
480.60	401.52
480.96	401.40
481.33	401.86
481.69	401.86
482.06	402.14
482.42	402.26
482.79	402.56
483.15	402.68
483.52	403.33
483.88	403.78
484.25	404.25
484.61	404.82
484.98	405.53
485.34	406.55
485.71	407.58
486.07	408.63
486.44	408.86
486.80	410.04
487.17	411.18
487.53	412.74
487.90	414.34
488.26	416.30
488.62	418.19
488.99	419.57
489.35	421.47
489.72	423.19
490.08	425.34
490.44	427.50
490.81	429.96
491.17	432.19
491.54	434.70
491.90	437.38
492.26	440.01
492.63	442.76
492.99	445.41
493.36	448.26
493.72	451.35
494.08	454.60
494.45	457.88
494.81	461.70
495.17	465.12
495.54	468.74
495.90	472.07
496.26	475.71
496.63	479.46
496.99	483.40
497.35	487.60
497.72	491.77
498.08	495.73
498.44	499.86
498.80	504.32
499.17	508.52
499.53	512.69
499.89	517.43
500.26	521.93
500.62	526.49
500.98	531.31
501.34	535.96
501.71	540.68
502.07	545.29
502.43	549.63
502.79	554.10
503.16	558.97
503.52	563.80
503.88	568.40
504.24	573.49
504.60	578.20
504.97	582.92
505.33	587.63
505.69	593.22
506.05	598.17
506.41	602.97
506.78	607.84
507.14	612.98
507.50	617.86
507.86	622.95
508.22	627.84
508.59	632.18
508.95	636.90
509.31	641.74
509.67	646.39
510.03	651.05
510.39	655.77
510.75	660.25
511.12	664.72
511.48	668.98
511.84	672.99
512.20	677.32
512.56	681.50
512.92	685.60
513.28	689.10
513.64	692.64
514.00	696.49
514.37	700.43
514.73	704.14
515.09	707.63
515.45	710.80
515.81	714.19
516.17	717.77
516.53	720.97
516.89	723.99
517.25	727.32
517.61	730.95
517.97	734.30
518.33	737.38
518.69	740.72
519.05	744.35
519.41	747.61
519.77	751.06
520.13	754.36
520.49	757.45
520.85	763.23
521.21	766.70
521.57	769.66
521.93	772.25
522.29	775.01
522.65	777.46
523.01	780.34
523.37	782.80
523.73	785.48
524.09	787.81
524.45	790.17
524.81	792.71
525.17	794.87
525.53	797.04
525.89	799.43
526.25	801.69
526.61	803.68
526.97	806.06
527.33	808.21
527.68	811.17
528.04	813.53
528.40	813.38
528.76	816.14
529.12	818.68
529.48	821.58
529.84	824.03
530.20	827.45
530.56	830.44
530.91	833.78
531.27	836.82
531.63	840.03
531.99	843.31
532.35	846.73
532.71	849.96
533.07	853.66
533.42	857.85
533.78	861.13
534.14	864.59
534.50	867.86
534.86	871.78
535.21	874.59
535.57	878.37
535.93	881.72
536.29	885.09
536.65	888.65
537.00	892.20
537.36	895.86
537.72	898.83
538.08	902.63
538.44	905.94
538.79	909.43
539.15	913.12
539.51	917.05
539.87	920.23
540.22	923.56
540.58	926.90
540.94	929.27
541.29	932.53
541.65	935.78
542.01	939.65
542.37	942.22
542.72	945.20
543.08	947.88
543.44	950.99
543.79	953.37
544.15	956.43
544.51	959.72
544.87	962.70
545.22	965.55
545.58	967.76
545.94	970.32
546.29	972.82
546.65	975.03
547.01	977.22
547.36	980.07
547.72	982.85
548.07	985.10
548.43	987.63
548.79	990.49
549.14	993.08
549.50	995.61
549.86	998.10
550.21	1000.73
550.57	1003.52
550.92	1005.96
551.28	1009.16
551.64	1011.65
551.99	1014.20
552.35	1016.54
552.70	1019.23
553.06	1022.10
553.41	1024.96
553.77	1028.25
554.13	1031.10
554.48	1033.72
554.84	1036.16
555.19	1038.84
555.55	1042.44
555.90	1044.98
556.26	1046.92
556.61	1048.71
556.97	1050.03
557.32	1052.09
557.68	1054.16
558.03	1056.14
558.39	1057.99
558.74	1059.49
559.10	1061.10
559.45	1062.77
559.81	1064.35
560.16	1065.58
560.52	1067.14
560.87	1068.65
561.23	1069.49
561.58	1071.72
561.94	1072.79
562.29	1073.67
562.64	1074.78
563.00	1074.75
563.35	1075.90
563.71	1077.49
564.06	1079.01
564.42	1080.58
564.77	1082.25
565.12	1083.79
565.48	1086.00
565.83	1087.61
566.19	1088.82
566.54	1090.18
566.89	1091.09
567.25	1092.41
567.60	1094.50
567.96	1096.41
568.31	1098.10
568.66	1099.48
569.02	1099.53
569.37	1100.47
569.72	1101.50
570.08	1101.85
570.43	1102.23
570.78	1102.50
571.14	1102.47
571.49	1102.62
571.84	1102.53
572.20	1102.07
572.55	1101.70
572.90	1100.50
573.26	1099.65
573.61	1099.05
573.96	1098.22
574.31	1097.51
574.67	1096.57
575.02	1094.64
575.37	1092.47
575.72	1090.23
576.08	1088.46
576.43	1086.90
576.78	1085.29
577.13	1083.44
577.49	1081.77
577.84	1080.81
578.19	1079.74
578.54	1078.45
578.90	1077.23
579.25	1076.09
579.60	1074.59
579.95	1072.84
580.30	1070.88
580.66	1069.17
581.01	1067.34
581.36	1065.03
581.71	1062.84
582.06	1061.40
582.42	1059.66
582.77	1058.04
583.12	1056.75
583.47	1055.07
583.82	1053.32
584.17	1051.52
584.53	1050.25
584.88	1048.15
585.23	1045.56
585.58	1042.56
585.93	1039.74
586.28	1036.96
586.63	1034.02
586.98	1030.97
587.34	1028.66
587.69	1026.25
588.04	1024.01
588.39	1021.62
588.74	1019.15
589.09	1017.07
589.44	1013.77
589.79	1011.33
590.14	1008.67
590.49	1005.64
590.84	1002.96
591.19	1000.41
591.54	997.61
591.89	994.30
592.25	992.82
592.60	990.16
592.95	987.61
593.30	984.99
593.65	982.02
594.00	978.88
594.35	979.11
594.70	975.76
595.05	972.56
595.40	969.25
595.75	965.92
596.10	963.22
596.45	960.05
596.80	957.56
597.15	954.26
597.50	950.85
597.85	948.05
598.19	944.64
598.54	941.13
598.89	937.55
599.24	934.66
599.59	930.48
599.94	927.32
600.29	924.09
600.64	920.68
600.99	917.80
601.34	915.11
601.69	909.19
602.04	906.03
602.39	902.98
602.74	900.30
603.08	897.51
603.43	894.80
603.78	891.63
604.13	888.05
604.48	884.93
604.83	881.63
605.18	878.12
605.53	874.95
605.87	871.71
606.22	868.91
606.57	865.72
606.92	862.50
607.27	859.40
607.62	856.57
607.96	853.90
608.31	851.07
608.66	848.01
609.01	844.80
609.36	841.56
609.70	838.54
610.05	835.01
610.40	831.78
610.75	828.10
611.10	824.75
611.44	821.35
611.79	817.81
612.14	814.70
612.49	810.99
612.83	807.81
613.18	804.54
613.53	801.56
613.88	797.90
614.22	794.21
614.57	790.57
614.92	786.86
615.27	783.53
615.61	779.50
615.96	775.96
616.31	772.49
616.65	769.54
617.00	765.98
617.35	762.76
617.70	759.06
618.04	755.50
618.39	752.06
618.74	749.11
619.08	745.90
619.43	742.60
619.78	739.40
620.12	736.03
620.47	732.87
620.82	728.87
621.16	725.29
621.51	722.67
621.85	719.43
622.20	716.12
622.55	712.24
622.89	709.03
623.24	705.89
623.59	702.70
623.93	699.27
624.28	696.10
624.62	693.68
624.97	691.15
625.32	688.07
625.66	684.88
626.01	681.19
626.35	678.22
626.70	674.93
627.04	672.11
627.39	668.96
627.73	666.08
628.08	663.48
628.43	660.50
628.77	656.96
629.12	653.86
629.46	651.16
629.81	648.87
630.15	646.07
630.50	642.82
630.84	640.00
631.19	637.03
631.53	634.08
631.88	630.13
632.22	626.59
632.57	624.08
632.91	621.17
633.26	618.71
633.60	615.68
633.95	612.65
634.29	609.40
634.64	606.57
634.98	603.19
635.32	600.25
635.67	598.12
636.01	595.62
636.36	592.73
636.70	590.15
637.05	587.04
637.39	584.37
637.73	582.01
638.08	579.40
638.42	576.74
638.77	573.98
639.11	571.10
639.45	568.17
639.80	565.17
640.14	562.42
640.49	559.58
640.83	556.97
641.17	554.65
641.52	552.05
641.86	549.44
642.20	547.50
642.55	544.89
642.89	541.90
643.23	539.24
643.58	537.45
643.92	534.53
644.26	531.98
644.61	529.57
644.95	526.82
645.29	523.97
645.64	521.63
645.98	519.20
646.32	517.15
646.66	514.86
647.01	512.50
647.35	510.45
647.69	508.10
648.04	505.74
648.38	503.37
648.72	501.13
649.06	498.63
649.41	495.84
649.75	493.26
650.09	491.07
650.43	488.80
650.78	486.08
651.12	483.76
651.46	481.65
651.80	479.32
652.14	477.13
652.49	475.37
652.83	473.08
653.17	470.89
653.51	468.52
653.85	466.67
654.20	464.43
654.54	462.24
654.88	460.17
655.22	458.61
655.56	456.67
655.90	454.66
656.25	452.81
656.59	451.08
656.93	449.41
657.27	447.72
657.61	445.54
657.95	443.77
658.29	441.99
658.64	440.16
658.98	438.20
659.32	436.20
659.66	434.14
660.00	432.27
660.34	430.45
660.68	428.53
661.02	426.52
661.36	424.82
661.70	422.86
662.05	421.19
662.39	419.41
662.73	417.77
663.07	416.43
663.41	414.76
663.75	412.74
664.09	410.95
664.43	408.92
664.77	407.38
665.11	405.57
665.45	403.96
665.79	402.21
666.13	400.49
666.47	398.70
666.81	397.00
667.15	395.16
667.49	393.84
667.83	392.75
668.17	391.19
668.51	389.77
668.85	388.47
669.19	387.31
669.53	385.45
669.87	383.73
670.21	382.08
670.55	380.61
670.89	379.80
671.23	378.36
671.57	376.90
671.91	375.54
672.25	374.12
672.58	372.90
672.92	371.46
673.26	370.20
673.60	369.11
673.94	367.90
674.28	366.88
674.62	365.53
674.96	364.04
675.30	363.03
675.64	361.70
675.97	360.20
676.31	358.69
676.65	357.42
676.99	356.60
677.33	355.21
677.67	354.07
678.01	352.38
678.34	351.29
678.68	350.34
679.02	349.05
679.36	347.93
679.70	346.68
680.04	345.45
680.37	344.34
680.71	343.29
681.05	342.37
681.39	341.28
681.73	340.06
682.06	338.90
682.40	337.72
682.74	336.76
683.08	336.14
683.42	334.91
683.75	334.11
684.09	332.78
684.43	331.97
684.77	330.87
685.10	329.95
685.44	328.96
685.78	328.08
686.12	327.10
686.45	326.10
686.79	325.02
687.13	324.36
687.46	323.41
687.80	322.67
688.14	321.61
688.48	320.71
688.81	319.84
689.15	319.12
689.49	318.20
689.82	317.27
690.16	315.95
690.50	315.22
690.83	314.09
691.17	312.99
691.51	311.97
691.84	311.30
692.18	310.37
692.52	309.44
692.85	308.47
693.19	307.97
693.52	307.08
693.86	306.19
694.20	305.33
694.53	304.56
694.87	303.56
695.21	302.66
695.54	301.80
695.88	300.90
696.21	299.90
696.55	299.04
696.88	298.21
697.22	297.47
697.56	296.70
697.89	295.90
698.23	295.44
698.56	294.81
698.90	294.14
699.23	293.34
699.57	292.72
699.90	291.98
700.24	291.08
700.58	290.58
700.91	290.12
701.25	290.18
701.58	290.22
701.92	289.97
702.25	289.48
702.59	288.96
702.92	288.48
703.26	287.99
703.59	287.47
703.93	287.70
704.26	287.29
704.60	286.80
704.93	286.15
705.26	285.47
705.60	284.98
705.93	284.08
706.27	283.89
706.60	283.57
706.94	283.42
707.27	282.90
707.61	282.36
707.94	281.88
708.27	280.60
708.61	279.38
708.94	278.61
709.28	278.22
709.61	277.64
709.94	277.16
710.28	276.61
710.61	276.17
710.95	274.82
711.28	274.95
711.61	274.39
711.95	274.35
712.28	273.81
712.61	273.27
712.95	273.44
713.28	273.36
713.61	272.70
713.95	272.04
714.28	271.78
714.61	271.11
714.95	270.52
715.28	270.04
715.61	269.58
715.95	269.12
716.28	268.39
716.61	268.00
716.95	267.40
717.28	267.00
717.61	266.55
717.94	266.14
718.28	265.02
718.61	264.62
718.94	264.08
719.27	263.72
719.61	263.35
719.94	262.68
720.27	261.77
720.60	261.45
720.94	260.99
721.27	260.61
721.60	260.55
721.93	260.25
722.27	260.18
722.60	260.02
722.93	259.68
723.26	259.55
723.59	259.07
723.93	258.92
724.26	258.67
724.59	258.34
724.92	258.14
725.25	258.14
725.59	257.85
725.92	257.66
726.25	257.40
726.58	257.26
726.91	256.84
727.24	256.77
727.57	256.59
727.91	256.20
728.24	255.96
728.57	255.52
728.90	255.38
729.23	254.80
729.56	254.98
729.89	254.67
730.22	254.39
730.55	254.27
730.89	254.10
731.22	253.82
731.55	253.64
731.88	253.34
732.21	252.86
732.54	252.55
732.87	252.28
733.20	252.08
733.53	251.81
733.86	251.84
734.19	251.42
734.52	251.26
734.85	251.79
735.18	251.26
735.51	251.42
735.84	251.18
736.17	251.34
736.50	250.70
736.83	251.64
737.16	251.33
737.49	251.21
737.82	250.93
738.15	250.82
738.48	250.56
738.81	250.33
739.14	250.10
739.47	249.86
739.80	249.62
740.13	249.51
740.46	249.20
740.79	248.78
741.12	248.59
741.45	248.20
741.78	247.46
742.11	247.62
742.44	247.16
742.77	247.15
743.10	246.75
743.43	246.39
743.75	245.20
744.08	246.29
744.41	245.96
744.74	245.65
745.07	245.29
745.40	245.27
745.73	245.64
746.06	245.54
746.39	245.45
746.71	245.13
747.04	244.89
747.37	244.67
747.70	244.71
748.03	244.68
748.36	244.63
748.68	244.46
749.01	244.04
749.34	243.85
749.67	243.71
750.00	243.69
750.33	244.26
750.65	244.27
750.98	243.04
751.31	243.02
751.64	242.99
751.97	243.33
752.29	243.17
752.62	242.52
752.95	242.23
753.28	242.07
753.60	241.93
753.93	242.10
754.26	242.07
754.59	241.70
754.91	241.49
755.24	241.30
755.57	241.19
755.90	241.10
756.22	240.89
756.55	240.58
756.88	240.35
757.20	239.64
757.53	239.16
757.86	238.99
758.19	238.81
758.51	238.79
758.84	238.27
759.17	238.01
759.49	237.99
759.82	238.50
760.15	238.49
760.47	238.49
760.80	238.08
761.13	238.11
761.45	238.00
761.78	237.70
762.11	237.65
762.43	237.43
762.76	237.19
763.08	237.25
763.41	237.18
763.74	237.18
764.06	237.22
764.39	237.21
764.71	237.04
765.04	236.89
765.37	236.70
765.69	236.69
766.02	236.66
766.34	236.49
766.67	235.99
767.00	235.99
767.32	236.38
767.65	236.84
767.97	236.69
768.30	236.60
768.62	236.72
768.95	236.61
769.27	236.52
769.60	236.57
769.92	236.30
770.25	236.09
770.57	235.72
770.90	235.44
771.22	235.20
771.55	235.17
771.87	235.18
772.20	235.02
772.52	235.69
772.85	236.69
773.17	236.58
773.50	236.49
773.82	236.30
774.15	235.75
774.47	235.02
774.80	234.86
775.12	234.77
775.45	234.72
775.77	234.67
776.09	234.57
776.42	234.54
776.74	234.84
777.07	234.66
777.39	234.71
777.72	234.63
778.04	234.76
778.36	234.67
778.69	234.58
779.01	234.59
779.33	233.75
779.66	232.66
779.98	232.57
780.31	232.59
780.63	233.06
780.95	233.16
781.28	233.15
781.60	233.10
781.92	233.07
782.25	232.98
782.57	232.92
782.89	232.96
783.22	232.91
783.54	232.60
783.86	232.70
784.19	232.57
784.51	232.88
784.83	232.70
785.16	232.60
785.48	232.58
785.80	232.46
786.12	232.40
786.45	232.38
786.77	232.44
787.09	232.26
787.42	231.85
787.74	231.83
788.06	231.85
788.38	231.73
788.71	231.60
789.03	231.62
789.35	231.67
789.67	231.47
789.99	231.48
790.32	231.37
790.64	231.43
790.96	232.20
791.28	231.69
791.61	231.64
791.93	231.73
792.25	231.72
792.57	232.47
792.89	232.22
793.21	232.22
793.54	232.18
793.86	232.19
794.18	232.14
794.50	231.99
794.82	232.00
795.14	232.08
795.47	232.36
795.79	232.35
796.11	232.24
796.43	232.17
796.75	232.10
797.07	232.22
797.39	232.22
797.71	231.56
798.04	231.71
798.36	231.75
798.68	231.75
799.00	231.76
799.32	231.18
799.64	231.48
799.96	231.37
800.28	231.50
800.60	231.32
800.92	231.40
801.24	231.35
801.56	231.43
801.89	231.36
802.21	231.35
802.53	231.20
802.85	231.38
803.17	231.95
803.49	231.84
803.81	231.80
804.13	231.74
804.45	231.75
804.77	231.78
805.09	231.79
805.41	231.69
805.73	231.54
806.05	231.32
806.37	231.23
806.69	231.25
807.01	231.10
807.33	231.23
807.65	230.91
807.97	231.29
808.28	231.17
808.60	231.13
808.92	230.93
809.24	231.50
809.56	231.26
809.88	230.88
810.20	231.03
810.52	231.19
810.84	231.06
811.16	230.94
811.48	230.87
811.80	231.29
812.12	231.21
812.43	231.40
812.75	231.60
813.07	231.46
813.39	231.53
813.71	231.40
814.03	231.26
814.35	231.24
814.67	230.90
814.98	230.70
815.30	230.72
815.62	230.57
815.94	229.96
816.26	230.40
816.58	230.25
816.89	230.18
817.21	229.83
817.53	229.91
817.85	229.90
818.17	229.96
818.48	229.48
818.80	229.72
819.12	229.56
819.44	229.31
819.76	229.33
820.07	229.25
820.39	229.31
820.71	229.38
821.03	229.42
821.34	229.33
821.66	229.49
821.98	229.59
822.30	229.59
822.61	230.20
822.93	229.70
823.25	229.67
823.57	229.61
823.88	229.95
824.20	229.89
824.52	229.94
824.83	229.90
825.15	229.79
825.47	229.65
825.79	229.60
826.10	229.57
826.42	229.48
826.74	229.61
827.05	229.55
827.37	229.56
827.69	229.55
828.00	229.58
828.32	229.60
828.64	229.46
828.95	230.05
829.27	229.64
829.58	229.70
829.90	229.90
830.22	229.89
830.53	229.60
830.85	229.48
831.17	229.23
831.48	229.16
831.80	229.09
832.11	229.06
832.43	229.02
832.75	228.99
833.06	229.57
833.38	229.22
833.69	229.18
834.01	229.25
834.32	229.15
834.64	228.94
834.96	228.92
835.27	228.89
835.59	228.52
835.90	228.43
836.22	228.36
836.53	228.09
836.85	228.01
837.16	228.96
837.48	228.96
837.79	229.26
838.11	229.33
838.42	229.55
838.74	229.67
839.05	229.55
839.37	229.51
839.68	228.86
840.00	228.88
840.31	229.02
840.63	228.95
840.94	228.88
841.26	228.92
841.57	228.86
841.88	228.91
842.20	228.73
842.51	228.54
842.83	228.43
843.14	229.35
843.46	229.39
843.77	228.82
844.08	228.80
844.40	228.55
844.71	228.54
845.03	228.33
845.34	228.13
845.65	228.20
845.97	228.33
846.28	228.48
846.60	228.51
846.91	228.41
847.22	228.36
847.54	228.63
847.85	228.70
848.16	228.67
848.48	228.55
848.79	228.85
849.10	229.07
849.42	229.23
849.73	228.24
850.04	228.17
850.36	227.74
850.67	228.00
850.98	228.04
851.30	227.99
851.61	228.03
851.92	228.11
852.23	228.36
852.55	228.38
852.86	228.42
853.17	228.52
853.49	228.57
853.80	228.69
854.11	228.70
854.42	228.84
854.74	228.72
855.05	228.78
855.36	228.43
855.67	228.41
855.99	228.37
856.30	229.60
856.61	229.69
856.92	229.82
857.23	229.75
857.55	229.74
857.86	229.70
858.17	229.84
858.48	229.63
858.79	229.41
859.11	229.50
859.42	229.39
859.73	229.27
860.04	229.33
860.35	229.09
860.66	228.77
860.98	228.69
861.29	228.84
861.60	228.70
861.91	228.82
862.22	228.60
862.53	228.50
862.84	227.32
863.16	227.44
863.47	227.25
863.78	227.12
864.09	227.14
864.40	227.27
864.71	227.23
865.02	227.39
865.33	227.33
865.64	227.05
865.95	227.02
866.27	227.65
866.58	227.50
866.89	227.72
867.20	227.73
867.51	227.61
867.82	227.58
868.13	227.96
868.44	227.78
868.75	227.95
869.06	228.02
869.37	228.17
869.68	227.84
869.99	227.99
870.30	228.12
870.61	228.16
870.92	227.96
871.23	227.97
871.54	228.03
871.85	228.21
872.16	228.38
872.47	228.38
872.78	227.84
873.09	227.96
873.40	227.80
873.71	227.97
874.02	228.02
874.33	228.02
874.64	227.61
874.95	227.83
875.26	227.60
875.56	227.59
875.87	227.51
876.18	227.56
876.49	228.58
876.80	228.48
877.11	228.33
877.42	228.34
877.73	228.29
878.04	228.12
878.35	228.10
878.66	228.12
878.96	228.06
879.27	227.94
879.58	227.88
879.89	227.80
880.20	228.00
880.51	227.90
880.82	227.79
881.12	227.99
881.43	227.75
881.74	227.76
882.05	227.62
882.36	227.69
882.67	227.79
882.97	226.71
883.28	226.60
883.59	226.63
883.90	226.74
884.21	226.84
884.51	226.81
884.82	226.70
885.13	226.62
885.44	226.74
885.74	226.78
886.05	226.72
886.36	226.79
886.67	226.48
886.98	227.00
887.28	227.13
887.59	227.07
887.90	227.10
888.20	227.04
888.51	227.31
888.82	227.23
889.13	227.35
889.43	228.15
889.74	228.11
890.05	228.16
890.35	228.04
890.66	227.94
890.97	227.88
891.28	227.81
891.58	227.86
891.89	227.77
892.20	227.64
892.50	227.68
892.81	227.62
893.12	227.59
893.42	227.12
893.73	227.19
894.04	227.15
894.34	227.29
894.65	227.40
894.95	227.24
895.26	227.33
895.57	227.72
895.87	226.83
896.18	227.03
896.48	227.10
896.79	227.17
897.10	227.28
897.40	227.42
897.71	227.60
898.01	227.64
898.32	227.75
898.63	227.77
898.93	227.76
899.24	227.88
899.54	227.96
899.85	228.00
900.15	228.04
900.46	228.10
900.76	228.27
901.07	228.23
901.38	228.26
901.68	228.22
901.99	227.75
902.29	227.83
902.60	227.74
902.90	227.59
903.21	227.50
903.51	227.42
903.82	227.65
904.12	227.56
904.43	227.59
904.73	227.51
905.03	227.59
905.34	228.49
905.64	228.36
905.95	228.31
906.25	228.33
906.56	228.10
906.86	228.14
907.17	228.00
907.47	228.05
907.77	228.07
908.08	227.90
908.38	227.97
908.69	228.07
908.99	228.25
909.30	228.31
909.60	228.31
909.90	228.43
910.21	228.01
910.51	227.90
910.81	227.83
911.12	227.85
911.42	227.87
911.73	226.80
912.03	226.93
912.33	227.13
912.64	227.06
912.94	227.05
913.24	226.88
913.55	226.75
913.85	226.70
914.15	226.74
914.46	226.82
914.76	226.61
915.06	226.50
915.37	226.28
915.67	226.20
915.97	226.20
916.27	225.98
916.58	226.16
916.88	226.21
917.18	226.10
917.49	226.82
917.79	226.80
918.09	227.01
918.39	227.21
918.70	227.00
919.00	226.98
919.30	227.45
919.60	227.37
919.91	227.23
920.21	227.32
920.51	227.12
920.81	227.17
921.12	227.44
921.42	227.41
921.72	227.48
922.02	227.59
922.32	227.70
922.63	227.74
922.93	228.20
923.23	228.29
923.53	228.22
923.83	227.70
924.13	227.73
924.44	227.65
924.74	227.80
925.04	228.14
925.34	228.17
925.64	227.65
925.94	227.72
926.24	228.39
926.55	228.31
926.85	228.50
927.15	228.38
927.45	228.37
927.75	228.38
928.05	228.44
928.35	228.33
928.65	228.48
928.95	228.47
929.26	228.06
929.56	228.16
929.86	228.39
930.16	228.25
930.46	228.23
930.76	228.37
931.06	227.98
931.36	227.66
931.66	227.90
931.96	228.20
932.26	228.30
932.56	227.78
932.86	227.72
933.16	227.65
933.46	227.67
933.76	227.49
934.06	227.70
934.36	227.99
934.66	228.00
934.96	227.80
935.26	227.86
935.56	228.01
935.86	227.85
936.16	227.58
936.46	227.47
936.76	227.48
937.06	227.27
937.36	227.27
937.66	227.33
937.96	227.09
938.26	226.83
938.56	226.70
938.86	226.86
939.16	227.13
939.46	227.17
939.76	227.33
940.06	227.34
940.35	227.11
940.65	226.65
940.95	226.77
941.25	226.74
941.55	226.64
941.85	226.59
942.15	226.81
942.45	227.15
942.75	227.12
943.04	227.20
943.34	227.40
943.64	227.28
943.94	227.15
944.24	227.22
944.54	227.33
944.84	227.35
945.13	227.13
945.43	227.01
945.73	227.07
946.03	226.91
946.33	226.77
946.62	226.71
946.92	226.78
947.22	226.82
947.52	226.80
947.82	226.96
948.11	226.83
948.41	226.57
948.71	226.30
949.01	226.46
949.31	226.34
949.60	226.30
949.90	226.48
950.20	226.55
950.50	226.53
950.79	226.40
951.09	226.54
951.39	226.61
951.69	226.42
951.98	226.66
952.28	226.69
952.58	226.76
952.87	226.70
953.17	226.77
953.47	226.63
953.76	226.60
954.06	226.44
954.36	226.32
954.66	226.27
954.95	226.50
955.25	226.43
955.55	226.58
955.84	226.59
956.14	226.64
956.44	226.66
956.73	226.52
957.03	226.67
957.32	226.70
957.62	226.65
957.92	226.90
958.21	226.72
958.51	227.81
958.81	227.95
959.10	228.13
959.40	228.34
959.69	228.50
959.99	228.71
960.29	228.75
960.58	228.84
960.88	229.19
961.17	229.12
961.47	229.17
961.76	228.97
962.06	229.09
962.36	228.94
962.65	229.00
962.95	229.07
963.24	228.99
963.54	228.92
963.83	228.93
964.13	228.82
964.42	228.59
964.72	227.79
965.01	227.74
965.31	227.68
965.60	227.44
965.90	228.03
966.19	227.79
966.49	227.77
966.78	227.68
967.08	227.61
967.37	227.57
967.67	227.50
967.96	227.76
968.26	227.67
968.55	227.83
968.85	227.73
969.14	227.77
969.43	227.69
969.73	227.65
970.02	227.65
970.32	227.58
970.61	227.60
970.91	227.27
971.20	227.12
971.49	227.07
971.79	227.19
972.08	226.42
972.38	226.51
972.67	226.58
972.96	226.66
973.26	226.43
973.55	226.77
973.85	226.66
974.14	226.54
974.43	226.50
974.73	226.37
975.02	226.30
975.31	226.22
975.61	226.20
975.90	226.19
976.19	226.01
976.49	226.10
976.78	226.08
977.07	226.16
977.37	226.29
977.66	226.29
977.95	226.13
978.24	226.24
978.54	226.38
978.83	226.24
979.12	226.18
979.42	226.24
979.71	226.00
980.00	226.08
980.29	226.04
980.59	225.90
980.88	226.19
981.17	226.15
981.46	226.20
981.76	226.26
982.05	226.56
982.34	226.66
982.63	226.69
982.93	226.70
983.22	226.95
983.51	227.00
983.80	227.18
984.09	227.29
984.39	227.19
984.68	227.04
984.97	227.07
985.26	227.05
985.55	227.13
985.85	226.98
986.14	227.10
986.43	227.24
986.72	227.27
987.01	226.89
987.30	226.90
987.59	226.80
987.89	226.85
988.18	226.52
988.47	226.45
988.76	226.44
989.05	226.36
989.34	226.29
989.63	226.51
989.92	226.27
990.22	226.15
990.51	226.22
990.80	226.15
991.09	226.26
991.38	226.39
991.67	226.28
991.96	226.24
992.25	226.26
992.54	226.14
992.83	226.15
993.12	226.12
993.41	226.30
993.70	226.80
993.99	226.96
994.28	227.03
994.58	227.23
994.87	227.09
995.16	227.19
995.45	226.99
995.74	226.62
996.03	226.96
996.32	227.19
996.61	227.30
996.90	227.37
997.19	227.33
997.48	227.41
997.77	227.35
998.06	227.40
998.34	227.31
998.63	227.28
998.92	227.29
999.21	227.56
999.50	227.54
999.79	227.15
1000.08	227.20
1000.37	227.16
1000.66	227.07
1000.95	227.32
1001.24	227.34
1001.53	227.53
1001.82	227.60
1002.11	227.22
1002.40	227.30
1002.68	227.51
1002.97	228.15
1003.26	228.10
1003.55	227.83
1003.84	227.91
1004.13	228.12
1004.42	228.06
1004.71	228.11
1004.99	228.00
1005.28	228.10
1005.57	228.04
1005.86	227.88
1006.15	227.60
1006.44	227.57
1006.72	227.72
1007.01	227.50
1007.30	227.49
1007.59	227.36
1007.88	227.27
1008.17	227.44
1008.45	227.21
1008.74	226.83
1009.03	226.39
1009.32	226.40
1009.60	226.52
1009.89	226.47
1010.18	226.21
1010.47	226.11
1010.76	225.98
1011.04	226.00
1011.33	226.05
1011.62	226.20
1011.91	226.30
1012.19	226.52
1012.48	226.50
1012.77	226.42
1013.05	226.99
1013.34	227.01
1013.63	226.97
1013.92	227.02
1014.20	226.91
1014.49	226.91
1014.78	227.05
1015.06	226.72
1015.35	226.68
1015.64	226.73
1015.92	226.82
1016.21	226.88
1016.50	227.01
1016.78	227.19
1017.07	227.27
1017.36	227.08
1017.64	226.93
1017.93	227.03
1018.22	226.88
1018.50	226.91
1018.79	226.82
1019.08	226.27
1019.36	226.33
1019.65	226.26
1019.93	226.55
1020.22	226.71
1020.51	227.16
1020.79	227.01
1021.08	225.20
1021.36	225.30
1021.65	225.50
1021.94	225.60
1022.22	227.50
1022.51	224.90
1022.79	231.40
1023.08	228.20
1023.36	236.70
1023.65	224.40
>>>>>End Processed Spectral Data<<<<<
