SpectraSuite Data File
++++++++++++++++++++++++++++++++++++
Date: Wed Sep 04 17:28:52 EDT 2013
User: lab3
Dark Spectrum Present: Yes
Reference Spectrum Present: No
Number of Sampled Component Spectra: 1
Spectrometers: USB2E7196
Integration Time (usec): 337000 (USB2E7196)
Spectra Averaged: 10 (USB2E7196)
Boxcar Smoothing: 10 (USB2E7196)
Correct for Electrical Dark: No (USB2E7196)
Strobe/Lamp Enabled: No (USB2E7196)
Correct for Detector Non-linearity: No (USB2E7196)
Correct for Stray Light: No (USB2E7196)
Number of Pixels in Processed Spectrum: 2048
>>>>>Begin Processed Spectral Data<<<<<
339.09	0.00
339.48	211.40
339.86	213.80
340.24	216.00
340.63	216.00
341.01	233.30
341.39	218.40
341.78	222.20
342.16	226.70
342.54	224.00
342.93	213.16
343.31	223.83
343.69	224.49
344.07	225.05
344.46	225.64
344.84	226.24
345.22	225.89
345.60	226.37
345.99	226.55
346.37	226.54
346.75	226.60
347.13	226.68
347.52	226.82
347.90	227.18
348.28	227.24
348.66	227.50
349.05	227.16
349.43	227.40
349.81	227.46
350.19	227.59
350.57	227.58
350.96	227.74
351.34	227.89
351.72	227.93
352.10	227.97
352.48	227.95
352.87	227.89
353.25	227.96
353.63	227.88
354.01	227.98
354.39	228.10
354.77	228.15
355.15	228.44
355.54	228.40
355.92	228.10
356.30	228.03
356.68	228.83
357.06	228.96
357.44	228.87
357.82	228.93
358.20	229.69
358.58	229.75
358.97	229.74
359.35	230.00
359.73	230.23
360.11	230.26
360.49	230.29
360.87	230.32
361.25	230.46
361.63	230.87
362.01	230.97
362.39	230.96
362.77	231.20
363.15	231.16
363.53	231.14
363.91	231.29
364.29	231.34
364.67	230.30
365.05	230.41
365.43	230.50
365.81	230.65
366.19	230.39
366.57	230.78
366.95	230.75
367.33	230.59
367.71	230.61
368.09	230.86
368.47	230.90
368.85	230.95
369.23	231.20
369.61	230.80
369.99	231.10
370.37	231.25
370.75	231.65
371.13	231.52
371.51	231.42
371.89	231.47
372.27	231.53
372.65	231.66
373.03	231.75
373.41	231.67
373.78	231.52
374.16	231.01
374.54	230.73
374.92	230.79
375.30	230.68
375.68	230.52
376.06	230.49
376.44	230.41
376.82	230.50
377.19	230.31
377.57	230.40
377.95	230.08
378.33	229.92
378.71	229.29
379.09	229.47
379.47	229.59
379.84	229.46
380.22	229.42
380.60	229.17
380.98	229.10
381.36	229.09
381.73	228.93
382.11	229.06
382.49	229.00
382.87	228.86
383.25	229.00
383.62	230.03
384.00	229.83
384.38	229.80
384.76	229.82
385.13	230.20
385.51	230.09
385.89	229.97
386.27	229.99
386.64	230.20
387.02	230.02
387.40	229.94
387.78	229.94
388.15	229.83
388.53	229.82
388.91	229.76
389.29	229.61
389.66	229.76
390.04	229.69
390.42	229.90
390.79	229.90
391.17	229.79
391.55	228.71
391.92	228.70
392.30	228.80
392.68	228.61
393.05	228.51
393.43	228.58
393.81	228.59
394.18	228.49
394.56	228.43
394.94	228.66
395.31	228.55
395.69	228.86
396.06	229.12
396.44	229.29
396.82	229.30
397.19	229.89
397.57	229.85
397.95	230.04
398.32	229.82
398.70	230.04
399.07	230.33
399.45	230.44
399.82	230.53
400.20	230.57
400.58	230.80
400.95	230.59
401.33	230.90
401.70	231.80
402.08	232.02
402.45	232.18
402.83	232.62
403.20	232.98
403.58	233.09
403.95	233.50
404.33	233.95
404.71	234.32
405.08	235.06
405.46	235.43
405.83	235.86
406.21	236.34
406.58	236.75
406.96	237.30
407.33	237.86
407.70	238.60
408.08	240.10
408.45	240.97
408.83	241.95
409.20	242.61
409.58	242.92
409.95	243.95
410.33	245.10
410.70	245.77
411.08	247.01
411.45	248.22
411.82	249.22
412.20	250.65
412.57	252.61
412.95	253.42
413.32	255.24
413.69	256.91
414.07	258.76
414.44	260.84
414.82	262.96
415.19	265.55
415.56	268.08
415.94	270.16
416.31	272.91
416.68	275.81
417.06	279.29
417.43	282.75
417.81	286.52
418.18	290.32
418.55	294.57
418.93	298.84
419.30	303.40
419.67	308.35
420.04	313.26
420.42	318.35
420.79	324.94
421.16	330.98
421.54	337.55
421.91	344.16
422.28	350.96
422.66	358.19
423.03	365.68
423.40	372.96
423.77	380.86
424.15	389.06
424.52	397.47
424.89	406.73
425.26	415.65
425.64	424.13
426.01	433.59
426.38	443.40
426.75	453.61
427.13	464.05
427.50	474.77
427.87	485.90
428.24	497.14
428.61	507.39
428.99	519.61
429.36	532.34
429.73	544.97
430.10	557.63
430.47	570.58
430.85	583.58
431.22	598.04
431.59	613.85
431.96	628.38
432.33	644.65
432.70	660.45
433.08	678.80
433.45	696.32
433.82	713.87
434.19	733.40
434.56	752.70
434.93	771.04
435.30	789.72
435.68	810.53
436.05	830.63
436.42	851.04
436.79	869.31
437.16	889.68
437.53	911.21
437.90	932.71
438.27	953.82
438.64	976.07
439.01	996.76
439.38	1014.73
439.75	1032.65
440.13	1052.93
440.50	1071.81
440.87	1087.51
441.24	1104.20
441.61	1122.40
441.98	1135.70
442.35	1151.31
442.72	1167.43
443.09	1182.85
443.46	1192.50
443.83	1199.73
444.20	1206.06
444.57	1214.99
444.94	1219.24
445.31	1223.95
445.68	1228.47
446.05	1230.69
446.42	1229.19
446.79	1227.43
447.16	1225.52
447.53	1224.39
447.90	1217.26
448.27	1210.43
448.64	1200.57
449.01	1193.34
449.37	1179.43
449.74	1166.54
450.11	1150.94
450.48	1133.40
450.85	1115.34
451.22	1100.15
451.59	1085.38
451.96	1071.26
452.33	1052.25
452.70	1035.47
453.07	1015.04
453.43	994.33
453.80	974.74
454.17	956.05
454.54	937.90
454.91	918.55
455.28	899.69
455.65	882.21
456.02	865.37
456.38	850.22
456.75	831.62
457.12	816.38
457.49	801.35
457.86	786.56
458.23	774.31
458.59	760.68
458.96	746.84
459.33	734.67
459.70	722.35
460.07	712.67
460.43	701.58
460.80	691.17
461.17	682.11
461.54	672.59
461.91	663.37
462.27	654.21
462.64	646.33
463.01	637.75
463.38	629.73
463.74	620.56
464.11	613.29
464.48	606.93
464.85	599.94
465.21	594.70
465.58	589.15
465.95	582.14
466.32	576.98
466.68	571.58
467.05	566.05
467.42	560.65
467.78	554.99
468.15	549.71
468.52	545.97
468.88	540.68
469.25	536.10
469.62	532.59
469.98	528.74
470.35	525.07
470.72	521.43
471.08	517.28
471.45	514.21
471.82	510.97
472.18	507.30
472.55	505.00
472.92	501.87
473.28	499.17
473.65	496.60
474.02	493.83
474.38	491.48
474.75	489.89
475.11	487.90
475.48	486.36
475.85	484.92
476.21	483.51
476.58	482.38
476.94	481.38
477.31	480.19
477.67	479.10
478.04	478.33
478.41	477.95
478.77	478.32
479.14	477.63
479.50	477.43
479.87	477.58
480.23	477.50
480.60	477.42
480.96	477.14
481.33	477.85
481.69	478.29
482.06	478.96
482.42	479.33
482.79	480.05
483.15	481.05
483.52	482.35
483.88	483.26
484.25	484.26
484.61	485.62
484.98	487.05
485.34	489.00
485.71	490.90
486.07	492.76
486.44	493.98
486.80	496.08
487.17	498.32
487.53	501.01
487.90	503.84
488.26	507.11
488.62	510.37
488.99	513.21
489.35	516.68
489.72	520.22
490.08	523.98
490.44	527.73
490.81	531.74
491.17	535.70
491.54	540.21
491.90	544.91
492.26	549.59
492.63	554.27
492.99	559.18
493.36	564.20
493.72	569.94
494.08	575.75
494.45	581.92
494.81	588.33
495.17	594.37
495.54	601.00
495.90	607.40
496.26	614.28
496.63	621.29
496.99	628.37
497.35	635.60
497.72	643.19
498.08	651.04
498.44	659.01
498.80	667.24
499.17	675.38
499.53	683.72
499.89	692.55
500.26	701.55
500.62	710.42
500.98	719.72
501.34	728.42
501.71	737.52
502.07	746.85
502.43	756.15
502.79	765.76
503.16	775.28
503.52	785.18
503.88	795.27
504.24	805.49
504.60	815.84
504.97	826.32
505.33	836.80
505.69	847.53
506.05	857.89
506.41	868.13
506.78	878.63
507.14	889.29
507.50	899.75
507.86	910.30
508.22	921.06
508.59	931.39
508.95	942.43
509.31	954.00
509.67	965.00
510.03	975.53
510.39	985.97
510.75	996.48
511.12	1006.64
511.48	1016.78
511.84	1026.87
512.20	1036.71
512.56	1046.33
512.92	1056.44
513.28	1066.35
513.64	1076.27
514.00	1085.87
514.37	1095.66
514.73	1105.51
515.09	1115.09
515.45	1124.15
515.81	1133.03
516.17	1142.39
516.53	1150.73
516.89	1158.44
517.25	1166.64
517.61	1175.75
517.97	1184.36
518.33	1192.93
518.69	1201.72
519.05	1209.72
519.41	1217.62
519.77	1226.14
520.13	1234.38
520.49	1241.49
520.85	1248.85
521.21	1256.58
521.57	1264.13
521.93	1270.31
522.29	1276.87
522.65	1283.18
523.01	1289.65
523.37	1295.39
523.73	1301.25
524.09	1306.80
524.45	1312.27
524.81	1317.11
525.17	1321.87
525.53	1326.84
525.89	1331.68
526.25	1336.21
526.61	1340.53
526.97	1345.15
527.33	1349.70
527.68	1354.83
528.04	1359.60
528.40	1363.69
528.76	1367.86
529.12	1371.82
529.48	1376.36
529.84	1380.05
530.20	1384.22
530.56	1388.37
530.91	1392.88
531.27	1396.73
531.63	1401.18
531.99	1405.28
532.35	1409.63
532.71	1413.71
533.07	1418.06
533.42	1421.66
533.78	1425.46
534.14	1429.58
534.50	1433.54
534.86	1437.33
535.21	1439.89
535.57	1443.47
535.93	1446.70
536.29	1449.66
536.65	1453.23
537.00	1456.45
537.36	1459.22
537.72	1462.02
538.08	1465.04
538.44	1467.97
538.79	1470.69
539.15	1473.44
539.51	1476.23
539.87	1478.96
540.22	1480.92
540.58	1482.97
540.94	1484.96
541.29	1486.58
541.65	1487.91
542.01	1489.50
542.37	1490.33
542.72	1491.16
543.08	1491.18
543.44	1492.46
543.79	1492.85
544.15	1493.19
544.51	1493.89
544.87	1494.41
545.22	1494.44
545.58	1494.18
545.94	1493.60
546.29	1492.95
546.65	1492.17
547.01	1491.06
547.36	1490.00
547.72	1489.56
548.07	1488.51
548.43	1487.65
548.79	1486.64
549.14	1485.77
549.50	1484.94
549.86	1483.56
550.21	1482.83
550.57	1482.62
550.92	1480.58
551.28	1479.51
551.64	1478.91
551.99	1477.94
552.35	1476.98
552.70	1476.21
553.06	1475.55
553.41	1474.90
553.77	1475.42
554.13	1474.86
554.48	1474.72
554.84	1474.40
555.19	1473.94
555.55	1474.37
555.90	1473.24
556.26	1472.19
556.61	1471.19
556.97	1469.31
557.32	1468.30
557.68	1467.50
558.03	1466.67
558.39	1466.21
558.74	1465.59
559.10	1463.96
559.45	1462.51
559.81	1461.08
560.16	1459.20
560.52	1457.03
560.87	1455.66
561.23	1453.12
561.58	1452.24
561.94	1449.99
562.29	1447.88
562.64	1445.50
563.00	1442.30
563.35	1440.77
563.71	1439.54
564.06	1438.08
564.42	1436.79
564.77	1435.60
565.12	1434.08
565.48	1433.04
565.83	1431.42
566.19	1429.80
566.54	1427.85
566.89	1426.18
567.25	1424.78
567.60	1424.17
567.96	1423.88
568.31	1422.57
568.66	1421.22
569.02	1418.43
569.37	1417.11
569.72	1415.36
570.08	1413.41
570.43	1411.13
570.78	1409.25
571.14	1406.81
571.49	1403.87
571.84	1401.70
572.20	1398.85
572.55	1396.18
572.90	1392.43
573.26	1389.81
573.61	1386.67
573.96	1383.60
574.31	1380.18
574.67	1376.82
575.02	1372.63
575.37	1368.45
575.72	1364.38
576.08	1360.41
576.43	1356.79
576.78	1352.56
577.13	1348.71
577.49	1344.97
577.84	1341.85
578.19	1338.41
578.54	1334.65
578.90	1331.93
579.25	1328.59
579.60	1324.99
579.95	1320.91
580.30	1316.85
580.66	1312.60
581.01	1308.35
581.36	1304.29
581.71	1300.61
582.06	1297.02
582.42	1293.44
582.77	1289.59
583.12	1285.92
583.47	1282.25
583.82	1278.90
584.17	1275.33
584.53	1272.28
584.88	1268.19
585.23	1263.98
585.58	1258.97
585.93	1254.70
586.28	1249.74
586.63	1244.62
586.98	1239.81
587.34	1235.60
587.69	1231.12
588.04	1227.01
588.39	1223.04
588.74	1218.89
589.09	1215.07
589.44	1210.20
589.79	1206.00
590.14	1201.79
590.49	1197.33
590.84	1193.12
591.19	1189.13
591.54	1184.67
591.89	1179.63
592.25	1176.72
592.60	1172.49
592.95	1168.40
593.30	1164.06
593.65	1159.92
594.00	1155.20
594.35	1153.82
594.70	1148.96
595.05	1144.75
595.40	1139.93
595.75	1135.16
596.10	1130.70
596.45	1125.67
596.80	1121.77
597.15	1117.12
597.50	1112.09
597.85	1107.87
598.19	1102.85
598.54	1097.58
598.89	1092.63
599.24	1088.47
599.59	1082.93
599.94	1078.30
600.29	1074.00
600.64	1069.70
600.99	1065.10
601.34	1061.31
601.69	1054.50
602.04	1050.40
602.39	1046.30
602.74	1042.27
603.08	1037.99
603.43	1034.18
603.78	1030.21
604.13	1025.83
604.48	1021.24
604.83	1016.88
605.18	1012.08
605.53	1007.86
605.87	1003.77
606.22	1000.38
606.57	996.12
606.92	991.76
607.27	987.60
607.62	984.02
607.96	980.20
608.31	976.71
608.66	973.13
609.01	968.76
609.36	964.56
609.70	960.06
610.05	956.08
610.40	952.16
610.75	947.54
611.10	943.03
611.44	938.13
611.79	933.87
612.14	929.82
612.49	925.68
612.83	921.62
613.18	917.32
613.53	913.15
613.88	908.34
614.22	903.71
614.57	898.96
614.92	893.63
615.27	888.80
615.61	883.83
615.96	878.71
616.31	874.28
616.65	870.33
617.00	866.04
617.35	861.67
617.70	857.10
618.04	852.81
618.39	848.45
618.74	844.82
619.08	840.59
619.43	836.23
619.78	831.50
620.12	827.06
620.47	822.48
620.82	817.46
621.16	813.14
621.51	809.38
621.85	805.21
622.20	801.11
622.55	796.64
622.89	792.42
623.24	788.50
623.59	784.23
623.93	779.82
624.28	775.79
624.62	772.34
624.97	768.77
625.32	764.65
625.66	760.51
626.01	755.93
626.35	752.00
626.70	747.97
627.04	745.04
627.39	741.07
627.73	737.62
628.08	734.21
628.43	730.28
628.77	726.22
629.12	722.68
629.46	719.34
629.81	716.30
630.15	712.73
630.50	709.00
630.84	705.49
631.19	702.00
631.53	698.65
631.88	694.19
632.22	689.96
632.57	686.85
632.91	683.52
633.26	680.51
633.60	676.93
633.95	673.62
634.29	669.43
634.64	666.03
634.98	661.97
635.32	658.43
635.67	655.52
636.01	652.00
636.36	648.45
636.70	645.29
637.05	641.86
637.39	638.55
637.73	635.23
638.08	631.94
638.42	628.44
638.77	624.86
639.11	621.12
639.45	617.69
639.80	613.68
640.14	610.18
640.49	606.58
640.83	603.25
641.17	600.18
641.52	597.10
641.86	593.90
642.20	591.72
642.55	588.66
642.89	585.47
643.23	582.58
643.58	580.01
643.92	576.34
644.26	573.22
644.61	570.50
644.95	567.55
645.29	564.45
645.64	561.80
645.98	558.81
646.32	556.39
646.66	553.59
647.01	550.87
647.35	548.38
647.69	545.71
648.04	543.44
648.38	540.66
648.72	537.79
649.06	534.93
649.41	531.60
649.75	528.63
650.09	525.80
650.43	523.05
650.78	519.89
651.12	517.43
651.46	514.60
651.80	511.84
652.14	509.20
652.49	507.07
652.83	504.36
653.17	501.88
653.51	499.21
653.85	496.86
654.20	494.64
654.54	491.84
654.88	489.26
655.22	487.15
655.56	484.50
655.90	482.25
656.25	480.02
656.59	477.92
656.93	475.72
657.27	473.69
657.61	471.07
657.95	468.91
658.29	466.68
658.64	464.60
658.98	462.20
659.32	459.80
659.66	457.20
660.00	454.94
660.34	452.90
660.68	450.83
661.02	448.63
661.36	446.44
661.70	444.45
662.05	442.57
662.39	440.19
662.73	438.33
663.07	436.82
663.41	434.80
663.75	432.45
664.09	430.46
664.43	428.26
664.77	426.59
665.11	424.44
665.45	422.51
665.79	420.80
666.13	418.85
666.47	417.02
666.81	415.21
667.15	413.30
667.49	411.50
667.83	410.06
668.17	408.34
668.51	406.60
668.85	405.11
669.19	403.88
669.53	401.91
669.87	400.18
670.21	398.15
670.55	396.61
670.89	395.57
671.23	393.95
671.57	392.33
671.91	390.78
672.25	389.48
672.58	388.28
672.92	386.25
673.26	384.84
673.60	383.45
673.94	381.86
674.28	380.50
674.62	379.06
674.96	377.29
675.30	375.98
675.64	374.62
675.97	373.09
676.31	371.22
676.65	369.91
676.99	368.88
677.33	367.46
677.67	366.20
678.01	364.32
678.34	363.02
678.68	361.96
679.02	360.63
679.36	359.15
679.70	357.65
680.04	356.65
680.37	355.46
680.71	354.12
681.05	353.19
681.39	352.12
681.73	350.89
682.06	349.80
682.40	348.69
682.74	347.60
683.08	346.78
683.42	345.59
683.75	344.58
684.09	343.17
684.43	341.98
684.77	340.62
685.10	339.65
685.44	338.73
685.78	337.45
686.12	336.45
686.45	335.47
686.79	334.22
687.13	333.35
687.46	332.35
687.80	331.60
688.14	330.50
688.48	329.45
688.81	328.39
689.15	327.46
689.49	326.35
689.82	325.38
690.16	323.98
690.50	323.03
690.83	322.02
691.17	320.90
691.51	320.01
691.84	319.41
692.18	318.41
692.52	317.38
692.85	316.66
693.19	316.00
693.52	315.20
693.86	314.36
694.20	313.30
694.53	312.30
694.87	311.22
695.21	310.25
695.54	309.40
695.88	308.47
696.21	307.41
696.55	306.55
696.88	305.65
697.22	304.77
697.56	304.14
697.89	303.15
698.23	302.60
698.56	301.78
698.90	301.01
699.23	300.17
699.57	299.46
699.90	298.47
700.24	297.30
700.58	296.49
700.91	295.81
701.25	295.83
701.58	295.83
701.92	295.41
702.25	294.85
702.59	294.09
702.92	293.49
703.26	292.86
703.59	292.21
703.93	292.30
704.26	291.79
704.60	291.28
704.93	290.61
705.26	289.77
705.60	289.21
705.93	288.35
706.27	288.08
706.60	287.62
706.94	287.41
707.27	286.94
707.61	286.56
707.94	286.10
708.27	284.75
708.61	283.50
708.94	282.79
709.28	282.19
709.61	281.49
709.94	281.04
710.28	280.51
710.61	279.98
710.95	278.49
711.28	278.50
711.61	277.63
711.95	277.37
712.28	276.76
712.61	276.21
712.95	276.10
713.28	275.96
713.61	275.21
713.95	274.33
714.28	273.80
714.61	273.18
714.95	272.49
715.28	271.93
715.61	271.49
715.95	271.09
716.28	270.48
716.61	270.20
716.95	269.61
717.28	269.11
717.61	268.63
717.94	268.31
718.28	267.26
718.61	266.79
718.94	266.21
719.27	265.83
719.61	265.49
719.94	264.78
720.27	263.95
720.60	263.58
720.94	263.34
721.27	263.16
721.60	262.92
721.93	262.57
722.27	262.63
722.60	262.33
722.93	261.82
723.26	261.53
723.59	261.18
723.93	260.99
724.26	260.80
724.59	260.55
724.92	260.26
725.25	260.22
725.59	259.97
725.92	259.74
726.25	259.56
726.58	259.36
726.91	259.12
727.24	258.91
727.57	258.58
727.91	258.17
728.24	257.95
728.57	257.39
728.90	257.29
729.23	256.75
729.56	256.99
729.89	256.80
730.22	256.55
730.55	256.12
730.89	255.74
731.22	255.35
731.55	255.09
731.88	254.80
732.21	254.22
732.54	253.95
732.87	253.64
733.20	253.41
733.53	253.19
733.86	253.06
734.19	252.65
734.52	252.59
734.85	253.13
735.18	252.78
735.51	253.08
735.84	252.86
736.17	252.94
736.50	252.29
736.83	253.12
737.16	252.86
737.49	252.80
737.82	252.71
738.15	252.78
738.48	252.45
738.81	252.34
739.14	252.16
739.47	251.93
739.80	251.92
740.13	251.76
740.46	251.36
740.79	251.00
741.12	250.90
741.45	250.58
741.78	249.78
742.11	249.77
742.44	249.21
742.77	249.16
743.10	248.72
743.43	248.42
743.75	247.18
744.08	248.26
744.41	247.90
744.74	247.43
745.07	247.01
745.40	247.03
745.73	247.25
746.06	247.14
746.39	247.04
746.71	246.60
747.04	246.36
747.37	246.12
747.70	246.24
748.03	246.10
748.36	246.06
748.68	245.78
749.01	245.38
749.34	245.30
749.67	245.10
750.00	245.12
750.33	245.71
750.65	245.81
750.98	244.61
751.31	244.69
751.64	244.72
751.97	245.13
752.29	244.95
752.62	244.28
752.95	244.21
753.28	243.99
753.60	243.92
753.93	244.06
754.26	244.02
754.59	243.52
754.91	243.34
755.24	243.15
755.57	243.09
755.90	243.00
756.22	242.76
756.55	242.44
756.88	242.09
757.20	241.20
757.53	240.72
757.86	240.53
758.19	240.34
758.51	240.27
758.84	239.53
759.17	239.35
759.49	239.33
759.82	239.58
760.15	239.58
760.47	239.45
760.80	239.06
761.13	239.14
761.45	239.01
761.78	238.91
762.11	238.86
762.43	238.63
762.76	238.48
763.08	238.44
763.41	238.47
763.74	238.41
764.06	238.37
764.39	238.37
764.71	238.29
765.04	238.16
765.37	238.05
765.69	238.10
766.02	237.97
766.34	237.72
766.67	237.26
767.00	237.35
767.32	237.74
767.65	238.25
767.97	238.10
768.30	238.07
768.62	237.91
768.95	237.75
769.27	237.68
769.60	237.76
769.92	237.55
770.25	237.33
770.57	237.13
770.90	237.12
771.22	236.93
771.55	236.84
771.87	236.79
772.20	236.66
772.52	237.35
772.85	238.43
773.17	238.49
773.50	238.37
773.82	238.14
774.15	237.62
774.47	236.98
774.80	236.80
775.12	236.72
775.45	236.75
775.77	236.77
776.09	236.85
776.42	236.71
776.74	237.05
777.07	236.95
777.39	236.91
777.72	236.78
778.04	236.82
778.36	236.71
778.69	236.65
779.01	236.61
779.33	235.78
779.66	234.65
779.98	234.45
780.31	234.48
780.63	234.76
780.95	234.92
781.28	234.76
781.60	234.70
781.92	234.63
782.25	234.55
782.57	234.40
782.89	234.23
783.22	234.03
783.54	233.68
783.86	233.67
784.19	233.49
784.51	233.71
784.83	233.43
785.16	233.35
785.48	233.25
785.80	233.18
786.12	233.15
786.45	233.10
786.77	233.29
787.09	233.19
787.42	232.80
787.74	232.79
788.06	232.88
788.38	232.71
788.71	232.62
789.03	232.58
789.35	232.61
789.67	232.49
789.99	232.51
790.32	232.40
790.64	232.48
790.96	233.26
791.28	232.83
791.61	232.89
791.93	232.86
792.25	232.88
792.57	233.52
792.89	233.33
793.21	233.30
793.54	233.11
793.86	232.90
794.18	232.91
794.50	232.57
794.82	232.54
795.14	232.64
795.47	232.80
795.79	232.79
796.11	232.61
796.43	232.49
796.75	232.51
797.07	232.58
797.39	232.56
797.71	231.88
798.04	231.98
798.36	231.99
798.68	231.97
799.00	231.94
799.32	231.38
799.64	231.50
799.96	231.48
800.28	231.54
800.60	231.57
800.92	231.67
801.24	231.66
801.56	231.71
801.89	231.70
802.21	231.60
802.53	231.43
802.85	231.56
803.17	232.00
803.49	231.85
803.81	231.78
804.13	231.63
804.45	231.57
804.77	231.60
805.09	231.61
805.41	231.59
805.73	231.42
806.05	231.26
806.37	231.19
806.69	231.13
807.01	231.10
807.33	231.14
807.65	230.79
807.97	231.21
808.28	231.06
808.60	230.97
808.92	230.83
809.24	231.32
809.56	231.15
809.88	230.83
810.20	230.82
810.52	231.05
810.84	230.89
811.16	230.76
811.48	230.69
811.80	231.01
812.12	230.92
812.43	231.10
812.75	231.09
813.07	231.01
813.39	231.00
813.71	230.90
814.03	230.69
814.35	230.75
814.67	230.40
814.98	230.37
815.30	230.41
815.62	230.32
815.94	229.68
816.26	230.12
816.58	229.88
816.89	230.06
817.21	229.75
817.53	229.91
817.85	229.98
818.17	229.91
818.48	229.41
818.80	229.67
819.12	229.52
819.44	229.49
819.76	229.33
820.07	229.35
820.39	229.31
820.71	229.48
821.03	229.46
821.34	229.39
821.66	229.48
821.98	229.44
822.30	229.48
822.61	230.08
822.93	229.63
823.25	229.77
823.57	229.71
823.88	229.87
824.20	229.79
824.52	229.89
824.83	229.89
825.15	229.78
825.47	229.65
825.79	229.75
826.10	229.67
826.42	229.64
826.74	229.70
827.05	229.70
827.37	229.74
827.69	229.77
828.00	229.74
828.32	229.69
828.64	229.64
828.95	230.14
829.27	229.95
829.58	229.91
829.90	230.08
830.22	230.01
830.53	229.81
830.85	229.85
831.17	229.61
831.48	229.65
831.80	229.82
832.11	229.73
832.43	229.54
832.75	229.41
833.06	230.02
833.38	229.78
833.69	229.78
834.01	229.83
834.32	229.77
834.64	229.70
834.96	229.70
835.27	229.66
835.59	229.26
835.90	229.09
836.22	228.97
836.53	228.70
836.85	228.57
837.16	229.48
837.48	229.46
837.79	229.84
838.11	229.84
838.42	229.87
838.74	230.06
839.05	230.02
839.37	230.11
839.68	229.61
840.00	229.61
840.31	229.69
840.63	229.53
840.94	229.43
841.26	229.37
841.57	229.34
841.88	229.53
842.20	229.47
842.51	229.25
842.83	229.43
843.14	230.38
843.46	230.55
843.77	230.03
844.08	229.87
844.40	229.58
844.71	229.48
845.03	229.34
845.34	229.14
845.65	229.18
845.97	229.16
846.28	229.10
846.60	229.24
846.91	229.15
847.22	229.14
847.54	229.32
847.85	229.36
848.16	229.36
848.48	229.13
848.79	229.36
849.10	229.59
849.42	229.57
849.73	228.53
850.04	228.36
850.36	228.09
850.67	228.26
850.98	228.22
851.30	228.27
851.61	228.27
851.92	228.24
852.23	228.45
852.55	228.45
852.86	228.52
853.17	228.50
853.49	228.66
853.80	228.80
854.11	228.90
854.42	229.13
854.74	228.99
855.05	228.94
855.36	228.60
855.67	228.52
855.99	228.56
856.30	229.79
856.61	229.73
856.92	229.81
857.23	229.83
857.55	229.79
857.86	229.78
858.17	229.88
858.48	229.75
858.79	229.55
859.11	229.72
859.42	229.54
859.73	229.42
860.04	229.37
860.35	229.15
860.66	228.80
860.98	228.70
861.29	228.77
861.60	228.77
861.91	228.93
862.22	228.75
862.53	228.61
862.84	227.44
863.16	227.76
863.47	227.52
863.78	227.35
864.09	227.40
864.40	227.55
864.71	227.52
865.02	227.71
865.33	227.68
865.64	227.48
865.95	227.52
866.27	228.12
866.58	228.03
866.89	228.20
867.20	228.20
867.51	227.97
867.82	228.02
868.13	228.29
868.44	228.19
868.75	228.40
869.06	228.45
869.37	228.52
869.68	228.27
869.99	228.42
870.30	228.50
870.61	228.58
870.92	228.26
871.23	228.20
871.54	228.28
871.85	228.40
872.16	228.50
872.47	228.54
872.78	227.99
873.09	228.01
873.40	227.90
873.71	228.14
874.02	228.20
874.33	228.08
874.64	227.89
874.95	227.97
875.26	227.85
875.56	227.69
875.87	227.70
876.18	227.62
876.49	228.58
876.80	228.48
877.11	228.29
877.42	228.36
877.73	228.44
878.04	228.29
878.35	228.28
878.66	228.35
878.96	228.28
879.27	228.26
879.58	228.21
879.89	228.14
880.20	228.29
880.51	228.32
880.82	228.34
881.12	228.32
881.43	228.25
881.74	228.10
882.05	228.18
882.36	228.24
882.67	228.32
882.97	227.22
883.28	227.10
883.59	227.11
883.90	227.15
884.21	227.20
884.51	227.11
884.82	226.95
885.13	226.90
885.44	226.87
885.74	226.82
886.05	226.81
886.36	226.79
886.67	226.41
886.98	226.86
887.28	226.95
887.59	227.00
887.90	226.88
888.20	226.87
888.51	227.06
888.82	226.88
889.13	226.98
889.43	227.69
889.74	227.70
890.05	227.59
890.35	227.48
890.66	227.33
890.97	227.25
891.28	227.15
891.58	227.18
891.89	227.28
892.20	227.26
892.50	227.16
892.81	227.13
893.12	227.16
893.42	226.69
893.73	226.66
894.04	226.60
894.34	226.79
894.65	226.79
894.95	226.64
895.26	226.77
895.57	227.10
895.87	226.31
896.18	226.60
896.48	226.72
896.79	226.82
897.10	227.03
897.40	227.13
897.71	227.26
898.01	227.13
898.32	227.09
898.63	226.99
898.93	227.11
899.24	227.18
899.54	227.20
899.85	227.17
900.15	227.19
900.46	227.22
900.76	227.23
901.07	227.21
901.38	227.15
901.68	227.22
901.99	226.74
902.29	226.80
902.60	226.59
902.90	226.44
903.21	226.37
903.51	226.30
903.82	226.44
904.12	226.44
904.43	226.52
904.73	226.55
905.03	226.61
905.34	227.48
905.64	227.40
905.95	227.34
906.25	227.29
906.56	227.21
906.86	227.21
907.17	227.20
907.47	227.11
907.77	227.06
908.08	226.94
908.38	227.09
908.69	227.13
908.99	227.34
909.30	227.42
909.60	227.60
909.90	227.63
910.21	227.41
910.51	227.29
910.81	227.42
911.12	227.49
911.42	227.65
911.73	226.70
912.03	226.79
912.33	227.08
912.64	227.16
912.94	227.17
913.24	226.98
913.55	226.89
913.85	226.96
914.15	227.22
914.46	227.27
914.76	227.13
915.06	227.18
915.37	227.01
915.67	227.04
915.97	227.01
916.27	226.79
916.58	226.90
916.88	226.95
917.18	226.85
917.49	227.51
917.79	227.41
918.09	227.67
918.39	227.96
918.70	227.82
919.00	227.83
919.30	228.25
919.60	228.33
919.91	228.26
920.21	228.40
920.51	228.10
920.81	228.18
921.12	228.35
921.42	228.19
921.72	228.32
922.02	228.40
922.32	228.37
922.63	228.50
922.93	228.90
923.23	228.93
923.53	228.82
923.83	228.09
924.13	228.13
924.44	228.01
924.74	228.10
925.04	228.27
925.34	228.29
925.64	227.81
925.94	227.76
926.24	228.16
926.55	228.07
926.85	228.18
927.15	228.09
927.45	227.99
927.75	228.10
928.05	228.05
928.35	228.02
928.65	228.22
928.95	228.28
929.26	227.91
929.56	228.10
929.86	228.20
930.16	228.13
930.46	228.02
930.76	228.04
931.06	227.58
931.36	227.37
931.66	227.40
931.96	227.61
932.26	227.66
932.56	227.40
932.86	227.52
933.16	227.58
933.46	227.53
933.76	227.43
934.06	227.61
934.36	227.90
934.66	227.87
934.96	227.74
935.26	227.70
935.56	227.87
935.86	227.50
936.16	227.28
936.46	227.29
936.76	227.37
937.06	227.21
937.36	227.28
937.66	227.38
937.96	227.30
938.26	227.02
938.56	226.99
938.86	226.96
939.16	227.07
939.46	227.19
939.76	227.09
940.06	227.10
940.35	226.89
940.65	226.37
940.95	226.40
941.25	226.20
941.55	226.10
941.85	225.98
942.15	226.23
942.45	226.55
942.75	226.47
943.04	226.41
943.34	226.64
943.64	226.60
943.94	226.40
944.24	226.45
944.54	226.60
944.84	226.63
945.13	226.47
945.43	226.43
945.73	226.30
946.03	226.31
946.33	226.23
946.62	226.11
946.92	226.19
947.22	226.25
947.52	226.25
947.82	226.28
948.11	226.16
948.41	226.08
948.71	225.84
949.01	226.02
949.31	225.94
949.60	225.81
949.90	225.93
950.20	225.92
950.50	225.98
950.79	225.89
951.09	226.06
951.39	226.22
951.69	226.05
951.98	226.25
952.28	226.41
952.58	226.46
952.87	226.54
953.17	226.79
953.47	226.71
953.76	226.73
954.06	226.77
954.36	226.73
954.66	226.62
954.95	226.94
955.25	226.99
955.55	227.22
955.84	227.15
956.14	227.31
956.44	227.42
956.73	227.26
957.03	227.36
957.32	227.29
957.62	227.13
957.92	227.38
958.21	227.31
958.51	228.32
958.81	228.47
959.10	228.59
959.40	228.71
959.69	228.80
959.99	229.08
960.29	229.09
960.58	229.10
960.88	229.66
961.17	229.58
961.47	229.73
961.76	229.59
962.06	229.80
962.36	229.51
962.65	229.60
962.95	229.67
963.24	229.60
963.54	229.69
963.83	229.73
964.13	229.61
964.42	229.44
964.72	228.67
965.01	228.68
965.31	228.60
965.60	228.43
965.90	229.02
966.19	228.78
966.49	228.74
966.78	228.69
967.08	228.48
967.37	228.42
967.67	228.11
967.96	228.24
968.26	228.12
968.55	228.40
968.85	228.31
969.14	228.27
969.43	228.26
969.73	228.17
970.02	228.23
970.32	228.14
970.61	228.06
970.91	227.78
971.20	227.55
971.49	227.55
971.79	227.52
972.08	226.83
972.38	226.89
972.67	226.88
972.96	226.95
973.26	226.79
973.55	227.02
973.85	227.04
974.14	226.91
974.43	227.03
974.73	226.74
975.02	226.63
975.31	226.65
975.61	226.57
975.90	226.43
976.19	226.33
976.49	226.33
976.78	226.41
977.07	226.40
977.37	226.47
977.66	226.56
977.95	226.48
978.24	226.57
978.54	226.70
978.83	226.56
979.12	226.63
979.42	226.56
979.71	226.40
980.00	226.38
980.29	226.40
980.59	226.20
980.88	226.44
981.17	226.44
981.46	226.48
981.76	226.51
982.05	226.83
982.34	226.88
982.63	226.95
982.93	227.07
983.22	227.48
983.51	227.51
983.80	227.66
984.09	227.84
984.39	227.80
984.68	227.71
984.97	227.93
985.26	227.77
985.55	227.89
985.85	227.67
986.14	227.84
986.43	227.97
986.72	227.95
987.01	227.68
987.30	227.77
987.59	227.67
987.89	227.67
988.18	227.45
988.47	227.30
988.76	227.28
989.05	227.15
989.34	226.80
989.63	227.00
989.92	226.78
990.22	226.57
990.51	226.58
990.80	226.53
991.09	226.56
991.38	226.76
991.67	226.65
991.96	226.68
992.25	226.68
992.54	226.52
992.83	226.54
993.12	226.56
993.41	226.66
993.70	227.06
993.99	227.24
994.28	227.31
994.58	227.48
994.87	227.31
995.16	227.32
995.45	227.29
995.74	227.00
996.03	227.21
996.32	227.39
996.61	227.51
996.90	227.56
997.19	227.50
997.48	227.42
997.77	227.40
998.06	227.36
998.34	227.30
998.63	227.30
998.92	227.24
999.21	227.37
999.50	227.41
999.79	227.02
1000.08	227.04
1000.37	227.00
1000.66	226.97
1000.95	227.27
1001.24	227.34
1001.53	227.46
1001.82	227.42
1002.11	227.11
1002.40	227.15
1002.68	227.44
1002.97	227.99
1003.26	227.85
1003.55	227.75
1003.84	227.80
1004.13	228.11
1004.42	228.01
1004.71	227.97
1004.99	227.99
1005.28	228.33
1005.57	228.21
1005.86	228.11
1006.15	227.98
1006.44	227.84
1006.72	227.87
1007.01	227.68
1007.30	227.57
1007.59	227.53
1007.88	227.54
1008.17	227.61
1008.45	227.46
1008.74	226.95
1009.03	226.52
1009.32	226.53
1009.60	226.52
1009.89	226.43
1010.18	226.13
1010.47	226.13
1010.76	226.19
1011.04	226.10
1011.33	225.96
1011.62	226.06
1011.91	226.12
1012.19	226.21
1012.48	226.20
1012.77	226.17
1013.05	226.61
1013.34	226.63
1013.63	226.53
1013.92	226.61
1014.20	226.60
1014.49	226.55
1014.78	226.62
1015.06	226.28
1015.35	226.34
1015.64	226.50
1015.92	226.60
1016.21	226.67
1016.50	226.60
1016.78	226.71
1017.07	226.83
1017.36	226.73
1017.64	226.54
1017.93	226.72
1018.22	226.54
1018.50	226.70
1018.79	226.79
1019.08	226.36
1019.36	226.50
1019.65	226.30
1019.93	226.52
1020.22	226.60
1020.51	227.20
1020.79	227.15
1021.08	224.30
1021.36	227.10
1021.65	227.60
1021.94	226.50
1022.22	228.50
1022.51	222.60
1022.79	230.70
1023.08	227.20
1023.36	238.80
1023.65	224.80
>>>>>End Processed Spectral Data<<<<<
