SpectraSuite Data File
++++++++++++++++++++++++++++++++++++
Date: Wed Sep 04 17:34:09 EDT 2013
User: lab3
Dark Spectrum Present: Yes
Reference Spectrum Present: No
Number of Sampled Component Spectra: 1
Spectrometers: USB2E7196
Integration Time (usec): 337000 (USB2E7196)
Spectra Averaged: 10 (USB2E7196)
Boxcar Smoothing: 10 (USB2E7196)
Correct for Electrical Dark: No (USB2E7196)
Strobe/Lamp Enabled: No (USB2E7196)
Correct for Detector Non-linearity: No (USB2E7196)
Correct for Stray Light: No (USB2E7196)
Number of Pixels in Processed Spectrum: 2048
>>>>>Begin Processed Spectral Data<<<<<
339.09	0.00
339.48	213.50
339.86	216.20
340.24	214.90
340.63	217.40
341.01	233.40
341.39	219.70
341.78	223.10
342.16	226.30
342.54	224.00
342.93	213.57
343.31	224.27
343.69	224.71
344.07	225.10
344.46	225.70
344.84	226.26
345.22	225.90
345.60	226.42
345.99	226.61
346.37	226.66
346.75	226.79
347.13	226.98
347.52	227.10
347.90	227.45
348.28	227.51
348.66	227.86
349.05	227.63
349.43	227.85
349.81	227.93
350.19	228.00
350.57	228.02
350.96	228.09
351.34	228.30
351.72	228.54
352.10	228.61
352.48	228.53
352.87	228.53
353.25	228.57
353.63	228.42
354.01	228.45
354.39	228.54
354.77	228.64
355.15	228.87
355.54	228.87
355.92	228.63
356.30	228.54
356.68	229.13
357.06	229.21
357.44	229.10
357.82	229.03
358.20	229.76
358.58	229.85
358.97	229.98
359.35	230.27
359.73	230.54
360.11	230.72
360.49	230.95
360.87	230.83
361.25	231.12
361.63	231.49
362.01	231.58
362.39	231.60
362.77	231.71
363.15	231.54
363.53	231.51
363.91	231.66
364.29	231.81
364.67	230.97
365.05	231.12
365.43	231.22
365.81	231.34
366.19	231.11
366.57	231.52
366.95	231.61
367.33	231.19
367.71	231.07
368.09	231.23
368.47	231.14
368.85	231.20
369.23	231.35
369.61	231.05
369.99	231.39
370.37	231.43
370.75	231.88
371.13	231.85
371.51	231.85
371.89	231.76
372.27	231.73
372.65	231.77
373.03	231.73
373.41	231.64
373.78	231.54
374.16	231.02
374.54	230.50
374.92	230.28
375.30	230.41
375.68	230.22
376.06	230.24
376.44	230.20
376.82	230.28
377.19	230.09
377.57	229.96
377.95	229.60
378.33	229.55
378.71	228.92
379.09	229.00
379.47	229.02
379.84	228.96
380.22	228.94
380.60	228.70
380.98	228.67
381.36	228.65
381.73	228.52
382.11	228.74
382.49	228.90
382.87	228.76
383.25	228.68
383.62	229.86
384.00	229.51
384.38	229.42
384.76	229.52
385.13	229.89
385.51	229.87
385.89	229.69
386.27	229.62
386.64	229.67
387.02	229.49
387.40	229.34
387.78	229.43
388.15	229.40
388.53	229.38
388.91	229.25
389.29	229.05
389.66	229.24
390.04	228.97
390.42	229.15
390.79	229.22
391.17	229.16
391.55	227.98
391.92	228.01
392.30	228.24
392.68	228.08
393.05	227.98
393.43	228.03
393.81	228.11
394.18	228.03
394.56	228.01
394.94	228.35
395.31	228.40
395.69	228.67
396.06	228.75
396.44	228.93
396.82	228.98
397.19	229.68
397.57	229.64
397.95	229.92
398.32	229.62
398.70	229.76
399.07	230.06
399.45	230.10
399.82	230.23
400.20	230.25
400.58	230.31
400.95	229.91
401.33	230.33
401.70	231.07
402.08	231.21
402.45	231.54
402.83	231.82
403.20	232.06
403.58	232.04
403.95	232.46
404.33	232.80
404.71	233.13
405.08	233.82
405.46	234.10
405.83	234.53
406.21	234.98
406.58	235.38
406.96	235.66
407.33	236.22
407.70	236.80
408.08	237.95
408.45	238.67
408.83	239.54
409.20	239.91
409.58	240.10
409.95	241.05
410.33	241.68
410.70	242.07
411.08	242.96
411.45	243.91
411.82	244.62
412.20	245.72
412.57	247.36
412.95	247.65
413.32	249.04
413.69	250.09
414.07	251.37
414.44	252.81
414.82	254.43
415.19	256.19
415.56	257.88
415.94	259.22
416.31	261.35
416.68	263.47
417.06	265.91
417.43	268.49
417.81	271.14
418.18	273.99
418.55	276.90
418.93	280.03
419.30	283.07
419.67	286.50
420.04	289.77
420.42	292.95
420.79	297.75
421.16	301.86
421.54	306.64
421.91	311.25
422.28	315.85
422.66	320.61
423.03	325.95
423.40	331.00
423.77	336.27
424.15	341.55
424.52	347.23
424.89	353.51
425.26	359.10
425.64	364.51
426.01	370.65
426.38	377.23
426.75	384.03
427.13	390.88
427.50	397.92
427.87	405.45
428.24	412.85
428.61	419.29
428.99	427.37
429.36	435.21
429.73	443.33
430.10	451.58
430.47	460.07
430.85	468.25
431.22	477.49
431.59	487.74
431.96	497.00
432.33	507.12
432.70	517.17
433.08	528.89
433.45	539.90
433.82	550.79
434.19	562.94
434.56	574.85
434.93	586.12
435.30	597.68
435.68	610.30
436.05	622.79
436.42	635.42
436.79	646.94
437.16	659.32
437.53	672.39
437.90	685.45
438.27	698.25
438.64	711.60
439.01	723.76
439.38	734.38
439.75	745.15
440.13	757.15
440.50	768.41
440.87	777.54
441.24	787.45
441.61	798.13
441.98	805.83
442.35	814.74
442.72	824.25
443.09	833.38
443.46	838.65
443.83	842.17
444.20	845.26
444.57	849.17
444.94	851.26
445.31	853.20
445.68	855.71
446.05	856.32
446.42	854.72
446.79	853.11
447.16	850.97
447.53	849.16
447.90	844.12
448.27	838.59
448.64	831.49
449.01	825.93
449.37	816.79
449.74	807.97
450.11	797.91
450.48	786.32
450.85	774.26
451.22	764.29
451.59	754.88
451.96	745.47
452.33	733.55
452.70	722.52
453.07	709.52
453.43	695.67
453.80	683.18
454.17	670.90
454.54	659.36
454.91	646.99
455.28	635.11
455.65	623.78
456.02	614.06
456.38	604.78
456.75	593.38
457.12	583.65
457.49	574.35
457.86	564.66
458.23	557.13
458.59	548.53
458.96	539.78
459.33	531.90
459.70	524.22
460.07	518.08
460.43	511.11
460.80	504.92
461.17	499.46
461.54	493.60
461.91	488.10
462.27	482.42
462.64	477.64
463.01	472.45
463.38	467.74
463.74	461.34
464.11	456.90
464.48	453.10
464.85	448.85
465.21	445.62
465.58	442.39
465.95	438.15
466.32	434.94
466.68	431.50
467.05	428.38
467.42	425.17
467.78	421.80
468.15	418.78
468.52	416.39
468.88	412.97
469.25	409.95
469.62	407.87
469.98	405.37
470.35	403.34
470.72	401.24
471.08	398.67
471.45	396.96
471.82	395.15
472.18	392.80
472.55	391.53
472.92	389.57
473.28	387.83
473.65	386.05
474.02	384.43
474.38	383.44
474.75	382.38
475.11	381.19
475.48	380.22
475.85	379.23
476.21	378.34
476.58	377.77
476.94	377.36
477.31	376.73
477.67	376.23
478.04	375.59
478.41	375.36
478.77	376.17
479.14	375.61
479.50	375.31
479.87	375.57
480.23	375.46
480.60	375.60
480.96	375.67
481.33	376.43
481.69	376.92
482.06	377.20
482.42	377.55
482.79	378.28
483.15	379.04
483.52	380.03
483.88	380.70
484.25	381.48
484.61	382.37
484.98	383.21
485.34	384.88
485.71	386.39
486.07	387.82
486.44	388.47
486.80	390.26
487.17	392.18
487.53	394.14
487.90	396.29
488.26	398.90
488.62	401.63
488.99	403.84
489.35	406.49
489.72	409.31
490.08	412.21
490.44	415.14
490.81	418.42
491.17	421.79
491.54	425.63
491.90	429.60
492.26	433.78
492.63	438.27
492.99	442.37
493.36	447.17
493.72	452.18
494.08	457.36
494.45	463.05
494.81	468.87
495.17	474.71
495.54	481.04
495.90	487.13
496.26	493.72
496.63	500.83
496.99	508.01
497.35	515.57
497.72	523.64
498.08	531.95
498.44	540.63
498.80	549.62
499.17	558.63
499.53	568.14
499.89	578.36
500.26	588.66
500.62	599.34
500.98	610.76
501.34	622.14
501.71	633.84
502.07	645.76
502.43	657.95
502.79	670.90
503.16	684.39
503.52	698.20
503.88	712.30
504.24	726.94
504.60	742.33
504.97	757.89
505.33	773.86
505.69	791.06
506.05	807.86
506.41	824.92
506.78	842.87
507.14	860.97
507.50	879.64
507.86	898.76
508.22	918.48
508.59	938.01
508.95	958.59
509.31	980.01
509.67	1001.75
510.03	1023.51
510.39	1045.53
510.75	1067.89
511.12	1090.65
511.48	1114.09
511.84	1137.62
512.20	1161.46
512.56	1185.89
512.92	1210.86
513.28	1235.24
513.64	1261.20
514.00	1287.55
514.37	1314.07
514.73	1341.11
515.09	1367.86
515.45	1395.02
515.81	1422.40
516.17	1450.37
516.53	1477.88
516.89	1505.26
517.25	1533.28
517.61	1563.08
517.97	1593.02
518.33	1622.40
518.69	1652.59
519.05	1682.60
519.41	1713.00
519.77	1743.82
520.13	1774.35
520.49	1804.41
520.85	1837.67
521.21	1868.06
521.57	1898.88
521.93	1928.92
522.29	1959.66
522.65	1989.57
523.01	2019.79
523.37	2049.26
523.73	2079.29
524.09	2108.95
524.45	2138.91
524.81	2169.26
525.17	2199.08
525.53	2228.13
525.89	2257.97
526.25	2287.19
526.61	2315.72
526.97	2345.48
527.33	2375.41
527.68	2406.02
528.04	2436.34
528.40	2463.43
528.76	2493.26
529.12	2522.27
529.48	2551.91
529.84	2580.12
530.20	2610.10
530.56	2639.40
530.91	2669.44
531.27	2698.05
531.63	2727.30
531.99	2755.50
532.35	2783.58
532.71	2811.17
533.07	2840.51
533.42	2868.71
533.78	2896.56
534.14	2925.12
534.50	2951.66
534.86	2978.41
535.21	3002.71
535.57	3028.38
535.93	3053.27
536.29	3077.90
536.65	3103.40
537.00	3127.90
537.36	3152.00
537.72	3174.15
538.08	3197.69
538.44	3220.08
538.79	3242.29
539.15	3264.87
539.51	3287.59
539.87	3308.25
540.22	3327.45
540.58	3347.16
540.94	3364.81
541.29	3381.98
541.65	3398.69
542.01	3415.10
542.37	3429.70
542.72	3444.75
543.08	3458.39
543.44	3474.19
543.79	3486.99
544.15	3500.28
544.51	3512.94
544.87	3526.36
545.22	3538.74
545.58	3549.65
545.94	3559.13
546.29	3568.65
546.65	3576.87
547.01	3584.82
547.36	3592.31
547.72	3600.67
548.07	3605.31
548.43	3612.54
548.79	3618.91
549.14	3624.89
549.50	3630.33
549.86	3634.90
550.21	3640.34
550.57	3646.38
550.92	3648.09
551.28	3651.04
551.64	3653.79
551.99	3657.22
552.35	3659.35
552.70	3662.14
553.06	3664.69
553.41	3667.51
553.77	3670.11
554.13	3672.44
554.48	3674.61
554.84	3677.20
555.19	3678.95
555.55	3682.57
555.90	3682.55
556.26	3682.73
556.61	3681.85
556.97	3680.20
557.32	3680.79
557.68	3680.48
558.03	3678.86
558.39	3678.22
558.74	3677.58
559.10	3675.02
559.45	3671.02
559.81	3666.00
560.16	3660.29
560.52	3654.42
560.87	3649.51
561.23	3644.00
561.58	3638.81
561.94	3631.18
562.29	3622.72
562.64	3614.51
563.00	3604.16
563.35	3596.99
563.71	3589.29
564.06	3581.38
564.42	3574.13
564.77	3566.30
565.12	3557.18
565.48	3548.98
565.83	3539.94
566.19	3531.20
566.54	3521.59
566.89	3512.74
567.25	3504.80
567.60	3497.67
567.96	3490.12
568.31	3481.36
568.66	3471.16
569.02	3460.11
569.37	3450.78
569.72	3442.28
570.08	3431.58
570.43	3421.54
570.78	3411.04
571.14	3400.69
571.49	3389.60
571.84	3378.84
572.20	3366.58
572.55	3355.25
572.90	3341.92
573.26	3330.43
573.61	3317.65
573.96	3304.42
574.31	3290.00
574.67	3275.93
575.02	3260.20
575.37	3244.40
575.72	3228.16
576.08	3213.50
576.43	3198.07
576.78	3182.04
577.13	3165.60
577.49	3150.66
577.84	3136.14
578.19	3121.16
578.54	3105.15
578.90	3090.73
579.25	3075.83
579.60	3060.96
579.95	3045.17
580.30	3029.02
580.66	3011.39
581.01	2994.73
581.36	2977.80
581.71	2962.22
582.06	2946.03
582.42	2931.02
582.77	2915.21
583.12	2900.60
583.47	2885.62
583.82	2870.81
584.17	2855.89
584.53	2841.75
584.88	2825.39
585.23	2808.98
585.58	2791.27
585.93	2774.62
586.28	2757.65
586.63	2739.72
586.98	2721.02
587.34	2703.89
587.69	2686.96
588.04	2671.90
588.39	2656.88
588.74	2641.34
589.09	2626.63
589.44	2610.13
589.79	2594.68
590.14	2579.75
590.49	2564.55
590.84	2549.56
591.19	2534.44
591.54	2518.56
591.89	2502.12
592.25	2489.74
592.60	2475.27
592.95	2460.74
593.30	2445.61
593.65	2429.70
594.00	2414.35
594.35	2402.56
594.70	2387.58
595.05	2372.99
595.40	2357.37
595.75	2341.07
596.10	2326.54
596.45	2311.20
596.80	2297.44
597.15	2282.13
597.50	2266.38
597.85	2251.26
598.19	2235.65
598.54	2220.11
598.89	2205.13
599.24	2191.20
599.59	2175.38
599.94	2160.43
600.29	2146.79
600.64	2133.34
600.99	2119.06
601.34	2106.47
601.69	2090.45
602.04	2077.24
602.39	2064.09
602.74	2051.32
603.08	2038.17
603.43	2025.23
603.78	2011.59
604.13	1998.34
604.48	1985.02
604.83	1971.78
605.18	1957.76
605.53	1944.25
605.87	1931.56
606.22	1919.98
606.57	1907.01
606.92	1893.60
607.27	1881.19
607.62	1868.52
607.96	1856.03
608.31	1844.62
608.66	1832.02
609.01	1819.89
609.36	1807.52
609.70	1795.06
610.05	1782.44
610.40	1771.02
610.75	1758.71
611.10	1747.08
611.44	1734.42
611.79	1722.48
612.14	1710.99
612.49	1699.81
612.83	1688.57
613.18	1676.78
613.53	1665.02
613.88	1653.33
614.22	1641.78
614.57	1629.62
614.92	1617.67
615.27	1606.25
615.61	1594.72
615.96	1583.49
616.31	1572.00
616.65	1560.95
617.00	1550.13
617.35	1539.42
617.70	1528.20
618.04	1516.95
618.39	1505.98
618.74	1496.33
619.08	1485.37
619.43	1474.51
619.78	1463.20
620.12	1451.81
620.47	1440.80
620.82	1429.71
621.16	1418.74
621.51	1408.77
621.85	1398.88
622.20	1388.62
622.55	1378.03
622.89	1368.14
623.24	1358.12
623.59	1348.17
623.93	1337.74
624.28	1327.68
624.62	1318.75
624.97	1309.35
625.32	1300.08
625.66	1290.09
626.01	1279.67
626.35	1270.70
626.70	1261.11
627.04	1252.55
627.39	1243.56
627.73	1235.29
628.08	1226.87
628.43	1217.61
628.77	1208.31
629.12	1199.63
629.46	1191.44
629.81	1183.69
630.15	1175.00
630.50	1166.26
630.84	1158.03
631.19	1150.30
631.53	1142.62
631.88	1133.22
632.22	1124.62
632.57	1116.90
632.91	1108.89
633.26	1101.40
633.60	1093.10
633.95	1085.19
634.29	1076.70
634.64	1068.95
634.98	1060.23
635.32	1052.26
635.67	1045.48
636.01	1037.95
636.36	1029.81
636.70	1022.30
637.05	1014.36
637.39	1007.00
637.73	999.84
638.08	992.37
638.42	984.73
638.77	976.51
639.11	968.59
639.45	960.63
639.80	952.42
640.14	945.00
640.49	937.28
640.83	930.13
641.17	923.43
641.52	916.64
641.86	909.86
642.20	904.21
642.55	897.39
642.89	890.79
643.23	884.24
643.58	878.47
643.92	871.59
644.26	865.24
644.61	859.28
644.95	853.00
645.29	846.80
645.64	840.90
645.98	835.28
646.32	830.05
646.66	824.25
647.01	818.59
647.35	813.17
647.69	807.75
648.04	802.67
648.38	797.23
648.72	791.80
649.06	786.01
649.41	779.94
649.75	774.28
650.09	768.34
650.43	762.91
650.78	757.13
651.12	752.08
651.46	746.72
651.80	741.36
652.14	736.00
652.49	731.10
652.83	726.00
653.17	720.79
653.51	715.40
653.85	710.59
654.20	705.92
654.54	700.89
654.88	696.00
655.22	691.42
655.56	686.72
655.90	682.15
656.25	677.65
656.59	673.17
656.93	668.73
657.27	664.70
657.61	659.77
657.95	655.40
658.29	650.57
658.64	646.31
658.98	641.77
659.32	637.16
659.66	632.59
660.00	628.27
660.34	623.99
660.68	619.92
661.02	615.74
661.36	611.65
661.70	607.52
662.05	603.31
662.39	599.17
662.73	595.11
663.07	591.39
663.41	587.54
663.75	583.45
664.09	579.76
664.43	575.43
664.77	572.00
665.11	568.30
665.45	564.82
665.79	561.13
666.13	557.43
666.47	554.00
666.81	550.53
667.15	546.88
667.49	543.90
667.83	540.74
668.17	537.63
668.51	534.46
668.85	531.55
669.19	528.94
669.53	525.64
669.87	522.28
670.21	518.99
670.55	515.82
670.89	513.45
671.23	510.25
671.57	507.15
671.91	504.05
672.25	501.19
672.58	498.53
672.92	495.26
673.26	492.51
673.60	489.82
673.94	487.08
674.28	484.57
674.62	481.70
674.96	478.74
675.30	476.10
675.64	473.27
675.97	470.59
676.31	467.68
676.65	464.79
676.99	462.82
677.33	460.07
677.67	457.83
678.01	454.76
678.34	452.47
678.68	450.36
679.02	447.84
679.36	445.22
679.70	442.80
680.04	440.95
680.37	438.70
680.71	436.50
681.05	434.51
681.39	432.26
681.73	429.86
682.06	427.91
682.40	425.80
682.74	423.81
683.08	421.92
683.42	419.66
683.75	417.79
684.09	415.35
684.43	413.45
684.77	411.37
685.10	409.57
685.44	407.60
685.78	405.67
686.12	403.94
686.45	402.10
686.79	400.18
687.13	398.31
687.46	396.32
687.80	394.60
688.14	392.51
688.48	390.64
688.81	389.00
689.15	387.35
689.49	385.47
689.82	383.70
690.16	381.55
690.50	379.88
690.83	378.17
691.17	376.31
691.51	374.60
691.84	372.80
692.18	370.89
692.52	369.06
692.85	367.49
693.19	366.29
693.52	364.71
693.86	363.03
694.20	361.49
694.53	359.97
694.87	358.36
695.21	356.88
695.54	355.37
695.88	353.63
696.21	351.79
696.55	350.32
696.88	348.76
697.22	347.29
697.56	345.93
697.89	344.50
698.23	343.22
698.56	341.88
698.90	340.82
699.23	339.50
699.57	338.36
699.90	336.87
700.24	335.27
700.58	334.08
700.91	333.10
701.25	332.55
701.58	332.03
701.92	331.02
702.25	329.90
702.59	328.71
702.92	327.74
703.26	326.73
703.59	325.73
703.93	325.56
704.26	324.67
704.60	323.71
704.93	322.57
705.26	321.38
705.60	320.45
705.93	319.15
706.27	318.47
706.60	317.58
706.94	317.11
707.27	316.17
707.61	315.26
707.94	314.11
708.27	312.47
708.61	310.90
708.94	309.86
709.28	308.85
709.61	307.90
709.94	307.05
710.28	306.12
710.61	305.12
710.95	303.31
711.28	303.00
711.61	302.10
711.95	301.49
712.28	300.59
712.61	299.70
712.95	299.45
713.28	298.95
713.61	298.01
713.95	296.90
714.28	296.15
714.61	295.25
714.95	294.31
715.28	293.39
715.61	292.64
715.95	291.85
716.28	291.00
716.61	290.32
716.95	289.58
717.28	288.92
717.61	288.31
717.94	287.71
718.28	286.33
718.61	285.61
718.94	284.79
719.27	284.26
719.61	283.77
719.94	282.90
720.27	281.69
720.60	281.18
720.94	280.53
721.27	279.96
721.60	279.60
721.93	279.17
722.27	279.06
722.60	278.57
722.93	277.95
723.26	277.64
723.59	277.08
723.93	276.65
724.26	276.20
724.59	275.51
724.92	275.10
725.25	274.83
725.59	274.23
725.92	273.81
726.25	273.47
726.58	272.89
726.91	272.22
727.24	272.04
727.57	271.46
727.91	270.89
728.24	270.50
728.57	269.97
728.90	269.65
729.23	268.90
729.56	268.84
729.89	268.49
730.22	268.00
730.55	267.58
730.89	267.18
731.22	266.61
731.55	266.35
731.88	265.97
732.21	265.37
732.54	264.93
732.87	264.63
733.20	264.16
733.53	263.90
733.86	263.76
734.19	263.15
734.52	263.03
734.85	263.30
735.18	262.76
735.51	262.69
735.84	262.28
736.17	262.23
736.50	261.45
736.83	262.17
737.16	261.73
737.49	261.42
737.82	260.90
738.15	260.85
738.48	260.46
738.81	260.06
739.14	259.73
739.47	259.33
739.80	258.96
740.13	258.73
740.46	258.38
740.79	257.92
741.12	257.68
741.45	257.18
741.78	256.40
742.11	256.50
742.44	255.91
742.77	255.81
743.10	255.42
743.43	255.14
743.75	253.84
744.08	254.94
744.41	254.55
744.74	254.34
745.07	253.74
745.40	253.68
745.73	253.82
746.06	253.51
746.39	253.46
746.71	253.17
747.04	252.80
747.37	252.40
747.70	252.33
748.03	252.11
748.36	251.95
748.68	251.70
749.01	251.04
749.34	250.79
749.67	250.59
750.00	250.31
750.33	250.67
750.65	250.53
750.98	249.01
751.31	248.85
751.64	248.60
751.97	248.91
752.29	248.56
752.62	247.90
752.95	247.71
753.28	247.28
753.60	247.00
753.93	246.97
754.26	246.93
754.59	246.41
754.91	246.06
755.24	245.74
755.57	245.62
755.90	245.49
756.22	245.26
756.55	244.89
756.88	244.64
757.20	243.99
757.53	243.52
757.86	243.45
758.19	243.34
758.51	243.24
758.84	242.71
759.17	242.39
759.49	242.30
759.82	242.62
760.15	242.77
760.47	242.63
760.80	242.36
761.13	242.34
761.45	242.27
761.78	242.27
762.11	242.23
762.43	241.90
762.76	241.72
763.08	241.79
763.41	241.80
763.74	241.66
764.06	241.48
764.39	241.41
764.71	241.26
765.04	241.10
765.37	240.97
765.69	240.89
766.02	240.81
766.34	240.50
766.67	239.99
767.00	239.98
767.32	240.35
767.65	240.81
767.97	240.57
768.30	240.56
768.62	240.40
768.95	240.29
769.27	240.14
769.60	240.29
769.92	240.02
770.25	239.69
770.57	239.50
770.90	239.40
771.22	239.28
771.55	239.18
771.87	239.07
772.20	238.93
772.52	239.66
772.85	240.81
773.17	240.89
773.50	240.77
773.82	240.41
774.15	239.82
774.47	239.07
774.80	238.87
775.12	238.65
775.45	238.60
775.77	238.40
776.09	238.49
776.42	238.30
776.74	238.54
777.07	238.48
777.39	238.36
777.72	238.22
778.04	238.31
778.36	238.11
778.69	238.07
779.01	238.14
779.33	237.14
779.66	235.93
779.98	235.68
780.31	235.54
780.63	235.88
780.95	236.03
781.28	235.98
781.60	235.80
781.92	235.72
782.25	235.60
782.57	235.60
782.89	235.50
783.22	235.32
783.54	234.94
783.86	234.94
784.19	234.84
784.51	235.05
784.83	234.76
785.16	234.74
785.48	234.57
785.80	234.41
786.12	234.46
786.45	234.48
786.77	234.56
787.09	234.46
787.42	234.09
787.74	234.00
788.06	233.97
788.38	233.90
788.71	233.88
789.03	233.93
789.35	234.08
789.67	233.78
789.99	233.83
790.32	233.59
790.64	233.60
790.96	234.30
791.28	233.91
791.61	233.81
791.93	233.73
792.25	233.75
792.57	234.31
792.89	234.07
793.21	233.97
793.54	233.79
793.86	233.70
794.18	233.69
794.50	233.50
794.82	233.32
795.14	233.38
795.47	233.41
795.79	233.34
796.11	232.88
796.43	232.96
796.75	232.90
797.07	232.97
797.39	232.98
797.71	232.39
798.04	232.40
798.36	232.51
798.68	232.50
799.00	232.51
799.32	231.93
799.64	232.06
799.96	232.01
800.28	232.22
800.60	232.27
800.92	232.29
801.24	232.30
801.56	232.56
801.89	232.43
802.21	232.51
802.53	232.23
802.85	232.48
803.17	232.91
803.49	232.77
803.81	232.69
804.13	232.57
804.45	232.38
804.77	232.46
805.09	232.39
805.41	232.25
805.73	232.04
806.05	231.87
806.37	231.82
806.69	231.74
807.01	231.71
807.33	231.70
807.65	231.39
807.97	231.70
808.28	231.53
808.60	231.57
808.92	231.47
809.24	232.17
809.56	232.01
809.88	231.58
810.20	231.46
810.52	231.67
810.84	231.50
811.16	231.34
811.48	231.25
811.80	231.59
812.12	231.65
812.43	231.83
812.75	231.85
813.07	231.77
813.39	231.71
813.71	231.50
814.03	231.35
814.35	231.33
814.67	230.92
814.98	230.86
815.30	230.80
815.62	230.50
815.94	229.78
816.26	230.11
816.58	229.91
816.89	230.10
817.21	229.82
817.53	229.93
817.85	229.96
818.17	229.90
818.48	229.46
818.80	229.55
819.12	229.45
819.44	229.30
819.76	229.15
820.07	229.22
820.39	229.18
820.71	229.33
821.03	229.30
821.34	229.33
821.66	229.45
821.98	229.48
822.30	229.59
822.61	230.11
822.93	229.71
823.25	229.70
823.57	229.64
823.88	229.79
824.20	229.72
824.52	229.92
824.83	229.87
825.15	229.79
825.47	229.80
825.79	229.89
826.10	229.87
826.42	229.84
826.74	229.79
827.05	229.74
827.37	229.69
827.69	229.66
828.00	229.64
828.32	229.59
828.64	229.44
828.95	229.84
829.27	229.58
829.58	229.52
829.90	229.70
830.22	229.75
830.53	229.50
830.85	229.47
831.17	229.16
831.48	229.15
831.80	229.21
832.11	229.16
832.43	229.03
832.75	228.96
833.06	229.58
833.38	229.43
833.69	229.40
834.01	229.43
834.32	229.44
834.64	229.25
834.96	229.14
835.27	229.21
835.59	228.92
835.90	228.88
836.22	228.87
836.53	228.69
836.85	228.57
837.16	229.67
837.48	229.63
837.79	229.96
838.11	230.04
838.42	230.08
838.74	230.06
839.05	229.97
839.37	230.06
839.68	229.50
840.00	229.54
840.31	229.70
840.63	229.63
840.94	229.67
841.26	229.65
841.57	229.63
841.88	229.71
842.20	229.56
842.51	229.40
842.83	229.39
843.14	230.24
843.46	230.29
843.77	229.70
844.08	229.59
844.40	229.41
844.71	229.32
845.03	229.18
845.34	229.17
845.65	229.16
845.97	229.14
846.28	229.26
846.60	229.29
846.91	229.17
847.22	229.16
847.54	229.23
847.85	229.41
848.16	229.44
848.48	229.24
848.79	229.72
849.10	229.89
849.42	229.90
849.73	229.04
850.04	229.00
850.36	228.73
850.67	229.03
850.98	228.98
851.30	229.03
851.61	229.12
851.92	229.10
852.23	229.37
852.55	229.25
852.86	229.20
853.17	229.28
853.49	229.47
853.80	229.68
854.11	229.84
854.42	229.91
854.74	229.87
855.05	229.96
855.36	229.38
855.67	229.34
855.99	229.47
856.30	230.57
856.61	230.45
856.92	230.43
857.23	230.23
857.55	230.15
857.86	230.11
858.17	230.21
858.48	230.07
858.79	229.97
859.11	230.19
859.42	230.07
859.73	229.93
860.04	229.86
860.35	229.63
860.66	229.35
860.98	229.32
861.29	229.38
861.60	229.28
861.91	229.59
862.22	229.49
862.53	229.33
862.84	228.23
863.16	228.54
863.47	228.48
863.78	228.54
864.09	228.55
864.40	228.62
864.71	228.53
865.02	228.61
865.33	228.41
865.64	228.27
865.95	228.42
866.27	229.03
866.58	228.88
866.89	229.01
867.20	228.97
867.51	228.73
867.82	228.68
868.13	229.04
868.44	228.86
868.75	228.99
869.06	228.94
869.37	229.00
869.68	228.81
869.99	228.81
870.30	228.89
870.61	229.00
870.92	228.86
871.23	228.83
871.54	229.08
871.85	229.36
872.16	229.53
872.47	229.44
872.78	228.87
873.09	229.01
873.40	228.86
873.71	228.95
874.02	229.10
874.33	229.04
874.64	228.84
874.95	228.97
875.26	228.77
875.56	228.84
875.87	228.83
876.18	228.74
876.49	229.79
876.80	229.61
877.11	229.53
877.42	229.63
877.73	229.65
878.04	229.48
878.35	229.51
878.66	229.46
878.96	229.37
879.27	229.34
879.58	229.30
879.89	229.19
880.20	229.45
880.51	229.32
880.82	229.40
881.12	229.39
881.43	229.12
881.74	229.05
882.05	228.92
882.36	229.10
882.67	229.04
882.97	227.93
883.28	227.91
883.59	227.83
883.90	227.85
884.21	228.07
884.51	227.95
884.82	227.67
885.13	227.62
885.44	227.61
885.74	227.62
886.05	227.65
886.36	227.78
886.67	227.26
886.98	227.82
887.28	227.81
887.59	227.80
887.90	227.82
888.20	227.86
888.51	228.07
888.82	227.81
889.13	227.98
889.43	228.68
889.74	228.55
890.05	228.54
890.35	228.48
890.66	228.24
890.97	228.13
891.28	228.04
891.58	228.09
891.89	228.12
892.20	228.01
892.50	227.73
892.81	227.60
893.12	227.71
893.42	227.14
893.73	227.17
894.04	227.10
894.34	227.24
894.65	227.10
894.95	226.98
895.26	227.02
895.57	227.34
895.87	226.52
896.18	226.70
896.48	226.81
896.79	226.82
897.10	226.90
897.40	226.90
897.71	227.03
898.01	226.86
898.32	226.92
898.63	226.91
898.93	226.99
899.24	227.02
899.54	226.90
899.85	226.98
900.15	226.90
900.46	226.90
900.76	226.93
901.07	227.02
901.38	227.01
901.68	227.14
901.99	226.76
902.29	226.87
902.60	226.89
902.90	226.70
903.21	226.61
903.51	226.57
903.82	226.84
904.12	226.88
904.43	226.99
904.73	226.89
905.03	227.02
905.34	228.06
905.64	228.03
905.95	228.15
906.25	228.12
906.56	228.10
906.86	228.11
907.17	228.04
907.47	228.14
907.77	228.09
908.08	227.94
908.38	228.00
908.69	228.02
908.99	228.10
909.30	228.19
909.60	228.24
909.90	228.24
910.21	227.93
910.51	227.78
910.81	227.84
911.12	227.98
911.42	227.94
911.73	226.90
912.03	226.99
912.33	227.13
912.64	227.12
912.94	227.02
913.24	226.91
913.55	226.84
913.85	226.69
914.15	226.90
914.46	227.02
914.76	226.90
915.06	226.83
915.37	226.69
915.67	226.66
915.97	226.68
916.27	226.54
916.58	226.70
916.88	226.69
917.18	226.51
917.49	227.20
917.79	227.13
918.09	227.28
918.39	227.48
918.70	227.45
919.00	227.48
919.30	227.96
919.60	227.88
919.91	227.75
920.21	227.80
920.51	227.57
920.81	227.46
921.12	227.66
921.42	227.57
921.72	227.64
922.02	227.77
922.32	227.90
922.63	227.94
922.93	228.35
923.23	228.46
923.53	228.49
923.83	227.71
924.13	227.86
924.44	227.76
924.74	227.99
925.04	228.12
925.34	228.02
925.64	227.60
925.94	227.74
926.24	228.33
926.55	228.24
926.85	228.28
927.15	228.33
927.45	228.20
927.75	228.44
928.05	228.41
928.35	228.30
928.65	228.41
928.95	228.50
929.26	228.12
929.56	228.24
929.86	228.31
930.16	228.25
930.46	228.11
930.76	228.16
931.06	227.62
931.36	227.34
931.66	227.62
931.96	227.71
932.26	227.75
932.56	227.31
932.86	227.42
933.16	227.45
933.46	227.35
933.76	227.22
934.06	227.30
934.36	227.56
934.66	227.50
934.96	227.28
935.26	227.28
935.56	227.36
935.86	227.04
936.16	226.87
936.46	226.89
936.76	226.85
937.06	226.73
937.36	226.83
937.66	226.97
937.96	226.78
938.26	226.58
938.56	226.44
938.86	226.62
939.16	226.86
939.46	227.02
939.76	227.04
940.06	227.10
940.35	226.89
940.65	226.49
940.95	226.58
941.25	226.42
941.55	226.29
941.85	226.32
942.15	226.69
942.45	227.00
942.75	227.03
943.04	227.13
943.34	227.39
943.64	227.31
943.94	227.14
944.24	227.20
944.54	227.32
944.84	227.32
945.13	227.07
945.43	226.87
945.73	226.76
946.03	226.69
946.33	226.62
946.62	226.58
946.92	226.62
947.22	226.71
947.52	226.83
947.82	226.94
948.11	226.78
948.41	226.55
948.71	226.27
949.01	226.32
949.31	226.24
949.60	226.22
949.90	226.47
950.20	226.50
950.50	226.53
950.79	226.47
951.09	226.58
951.39	226.64
951.69	226.58
951.98	226.81
952.28	226.92
952.58	226.94
952.87	227.00
953.17	227.18
953.47	227.11
953.76	227.15
954.06	227.06
954.36	227.05
954.66	227.01
954.95	227.28
955.25	227.26
955.55	227.36
955.84	227.09
956.14	227.12
956.44	227.15
956.73	226.92
957.03	227.12
957.32	227.28
957.62	227.30
957.92	227.51
958.21	227.37
958.51	228.36
958.81	228.49
959.10	228.57
959.40	228.75
959.69	228.72
959.99	228.80
960.29	228.80
960.58	228.71
960.88	229.09
961.17	228.93
961.47	229.07
961.76	228.99
962.06	229.26
962.36	229.05
962.65	229.11
962.95	229.14
963.24	229.00
963.54	228.87
963.83	228.92
964.13	228.84
964.42	228.64
964.72	227.89
965.01	227.80
965.31	227.69
965.60	227.40
965.90	228.06
966.19	227.78
966.49	227.89
966.78	227.95
967.08	227.83
967.37	227.89
967.67	227.80
967.96	227.95
968.26	227.94
968.55	228.14
968.85	228.13
969.14	228.21
969.43	228.19
969.73	228.21
970.02	228.05
970.32	227.94
970.61	227.99
970.91	227.76
971.20	227.77
971.49	227.74
971.79	227.99
972.08	227.22
972.38	227.28
972.67	227.20
972.96	227.33
973.26	227.11
973.55	227.42
973.85	227.26
974.14	227.19
974.43	227.19
974.73	226.90
975.02	226.76
975.31	226.73
975.61	226.71
975.90	226.60
976.19	226.52
976.49	226.65
976.78	226.73
977.07	226.76
977.37	226.77
977.66	226.95
977.95	226.65
978.24	226.83
978.54	227.04
978.83	227.02
979.12	226.87
979.42	226.82
979.71	226.63
980.00	226.62
980.29	226.63
980.59	226.40
980.88	226.65
981.17	226.72
981.46	226.72
981.76	226.81
982.05	227.13
982.34	227.34
982.63	227.24
982.93	227.26
983.22	227.50
983.51	227.60
983.80	227.65
984.09	227.83
984.39	227.70
984.68	227.63
984.97	227.53
985.26	227.48
985.55	227.66
985.85	227.39
986.14	227.60
986.43	227.68
986.72	227.66
987.01	227.53
987.30	227.50
987.59	227.50
987.89	227.43
988.18	227.12
988.47	227.03
988.76	227.06
989.05	226.86
989.34	226.66
989.63	226.80
989.92	226.70
990.22	226.59
990.51	226.67
990.80	226.61
991.09	226.89
991.38	227.09
991.67	227.02
991.96	226.99
992.25	226.97
992.54	226.78
992.83	226.93
993.12	226.84
993.41	227.00
993.70	227.40
993.99	227.60
994.28	227.65
994.58	227.79
994.87	227.74
995.16	227.75
995.45	227.64
995.74	227.44
996.03	227.53
996.32	227.59
996.61	227.77
996.90	227.71
997.19	227.55
997.48	227.54
997.77	227.36
998.06	227.49
998.34	227.52
998.63	227.62
998.92	227.54
999.21	227.77
999.50	227.84
999.79	227.45
1000.08	227.47
1000.37	227.64
1000.66	227.45
1000.95	227.71
1001.24	227.76
1001.53	228.00
1001.82	227.89
1002.11	227.70
1002.40	227.83
1002.68	228.05
1002.97	228.79
1003.26	228.71
1003.55	228.55
1003.84	228.68
1004.13	228.90
1004.42	228.76
1004.71	228.74
1004.99	228.76
1005.28	228.88
1005.57	228.76
1005.86	228.78
1006.15	228.61
1006.44	228.45
1006.72	228.57
1007.01	228.35
1007.30	228.40
1007.59	228.26
1007.88	228.27
1008.17	228.34
1008.45	228.14
1008.74	227.60
1009.03	227.21
1009.32	227.30
1009.60	227.25
1009.89	227.22
1010.18	226.92
1010.47	226.92
1010.76	226.84
1011.04	226.69
1011.33	226.70
1011.62	226.80
1011.91	226.78
1012.19	226.78
1012.48	226.80
1012.77	226.80
1013.05	227.21
1013.34	227.21
1013.63	227.11
1013.92	227.09
1014.20	226.93
1014.49	226.99
1014.78	227.17
1015.06	226.80
1015.35	226.76
1015.64	227.01
1015.92	227.10
1016.21	227.20
1016.50	227.04
1016.78	227.25
1017.07	227.44
1017.36	227.22
1017.64	226.98
1017.93	227.10
1018.22	227.01
1018.50	227.05
1018.79	227.03
1019.08	226.59
1019.36	226.63
1019.65	226.61
1019.93	226.86
1020.22	227.09
1020.51	227.47
1020.79	227.28
1021.08	224.90
1021.36	227.50
1021.65	227.20
1021.94	225.90
1022.22	227.90
1022.51	225.60
1022.79	230.00
1023.08	228.80
1023.36	236.30
1023.65	223.40
>>>>>End Processed Spectral Data<<<<<
