SpectraSuite Data File
++++++++++++++++++++++++++++++++++++
Date: Wed Sep 04 17:33:42 EDT 2013
User: lab3
Dark Spectrum Present: Yes
Reference Spectrum Present: No
Number of Sampled Component Spectra: 1
Spectrometers: USB2E7196
Integration Time (usec): 337000 (USB2E7196)
Spectra Averaged: 10 (USB2E7196)
Boxcar Smoothing: 10 (USB2E7196)
Correct for Electrical Dark: No (USB2E7196)
Strobe/Lamp Enabled: No (USB2E7196)
Correct for Detector Non-linearity: No (USB2E7196)
Correct for Stray Light: No (USB2E7196)
Number of Pixels in Processed Spectrum: 2048
>>>>>Begin Processed Spectral Data<<<<<
339.09	0.00
339.48	212.40
339.86	213.70
340.24	213.90
340.63	216.60
341.01	232.50
341.39	219.60
341.78	223.50
342.16	225.60
342.54	223.30
342.93	213.02
343.31	223.72
343.69	224.28
344.07	224.82
344.46	225.47
344.84	226.04
345.22	225.80
345.60	226.12
345.99	226.32
346.37	226.39
346.75	226.48
347.13	226.44
347.52	226.48
347.90	226.68
348.28	226.88
348.66	227.12
349.05	226.90
349.43	227.09
349.81	227.21
350.19	227.27
350.57	227.33
350.96	227.53
351.34	227.70
351.72	227.85
352.10	227.94
352.48	227.89
352.87	227.80
353.25	227.80
353.63	227.80
354.01	227.78
354.39	227.93
354.77	228.05
355.15	228.38
355.54	228.36
355.92	228.22
356.30	228.10
356.68	228.68
357.06	228.85
357.44	228.73
357.82	228.69
358.20	229.53
358.58	229.55
358.97	229.51
359.35	229.77
359.73	229.96
360.11	230.03
360.49	230.12
360.87	230.14
361.25	230.31
361.63	230.70
362.01	230.74
362.39	230.69
362.77	230.78
363.15	230.86
363.53	230.89
363.91	230.95
364.29	231.05
364.67	230.23
365.05	230.30
365.43	230.40
365.81	230.71
366.19	230.45
366.57	230.91
366.95	230.94
367.33	230.65
367.71	230.58
368.09	230.75
368.47	230.81
368.85	230.93
369.23	231.17
369.61	230.90
369.99	231.19
370.37	231.26
370.75	231.65
371.13	231.41
371.51	231.36
371.89	231.44
372.27	231.58
372.65	231.62
373.03	231.67
373.41	231.60
373.78	231.39
374.16	230.84
374.54	230.49
374.92	230.35
375.30	230.38
375.68	230.25
376.06	230.26
376.44	230.07
376.82	230.06
377.19	229.92
377.57	229.78
377.95	229.49
378.33	229.42
378.71	228.91
379.09	228.98
379.47	228.97
379.84	228.80
380.22	228.69
380.60	228.49
380.98	228.33
381.36	228.28
381.73	228.16
382.11	228.39
382.49	228.39
382.87	228.27
383.25	228.29
383.62	229.46
384.00	229.20
384.38	229.34
384.76	229.53
385.13	229.70
385.51	229.85
385.89	229.68
386.27	229.67
386.64	229.80
387.02	229.58
387.40	229.52
387.78	229.60
388.15	229.53
388.53	229.49
388.91	229.52
389.29	229.49
389.66	229.70
390.04	229.54
390.42	229.65
390.79	229.79
391.17	229.76
391.55	228.62
391.92	228.60
392.30	228.68
392.68	228.42
393.05	228.36
393.43	228.30
393.81	228.48
394.18	228.40
394.56	228.36
394.94	228.68
395.31	228.58
395.69	228.91
396.06	229.07
396.44	229.25
396.82	229.12
397.19	229.72
397.57	229.67
397.95	229.84
398.32	229.63
398.70	229.85
399.07	230.16
399.45	230.25
399.82	230.42
400.20	230.42
400.58	230.47
400.95	230.13
401.33	230.42
401.70	231.19
402.08	231.28
402.45	231.51
402.83	231.90
403.20	232.14
403.58	232.08
403.95	232.41
404.33	232.62
404.71	232.98
405.08	233.53
405.46	233.74
405.83	234.17
406.21	234.49
406.58	234.85
406.96	235.05
407.33	235.48
407.70	235.93
408.08	237.16
408.45	237.84
408.83	238.67
409.20	239.04
409.58	239.03
409.95	239.86
410.33	240.50
410.70	240.89
411.08	241.80
411.45	242.65
411.82	243.26
412.20	244.39
412.57	245.80
412.95	246.01
413.32	247.18
413.69	248.05
414.07	249.26
414.44	250.53
414.82	251.89
415.19	253.41
415.56	254.98
415.94	256.09
416.31	258.04
416.68	259.88
417.06	262.02
417.43	264.25
417.81	266.60
418.18	269.03
418.55	271.52
418.93	274.20
419.30	277.03
419.67	280.00
420.04	282.94
420.42	285.89
420.79	290.37
421.16	294.05
421.54	298.33
421.91	302.34
422.28	306.43
422.66	310.78
423.03	315.73
423.40	320.32
423.77	324.96
424.15	329.64
424.52	334.84
424.89	340.76
425.26	346.07
425.64	351.16
426.01	356.90
426.38	362.92
426.75	369.23
427.13	375.55
427.50	382.03
427.87	388.70
428.24	395.32
428.61	401.28
428.99	408.87
429.36	416.10
429.73	423.64
430.10	431.21
430.47	438.92
430.85	446.50
431.22	454.82
431.59	464.32
431.96	472.80
432.33	481.98
432.70	490.74
433.08	501.34
433.45	511.21
433.82	521.21
434.19	532.42
434.56	543.40
434.93	553.70
435.30	564.25
435.68	575.70
436.05	587.40
436.42	598.58
436.79	608.83
437.16	620.19
437.53	632.08
437.90	644.00
438.27	655.78
438.64	667.88
439.01	679.40
439.38	689.10
439.75	698.87
440.13	710.10
440.50	720.35
440.87	728.80
441.24	737.71
441.61	747.33
441.98	754.20
442.35	762.03
442.72	770.42
443.09	778.82
443.46	784.03
443.83	787.28
444.20	790.06
444.57	793.72
444.94	795.57
445.31	797.42
445.68	799.92
446.05	800.30
446.42	798.70
446.79	797.05
447.16	795.00
447.53	793.47
447.90	788.66
448.27	783.89
448.64	777.16
449.01	772.35
449.37	763.79
449.74	755.82
450.11	747.04
450.48	736.49
450.85	725.22
451.22	715.90
451.59	706.99
451.96	698.62
452.33	687.67
452.70	677.66
453.07	665.82
453.43	652.89
453.80	641.60
454.17	630.68
454.54	620.06
454.91	609.06
455.28	598.28
455.65	587.97
456.02	579.41
456.38	571.12
456.75	560.72
457.12	552.10
457.49	543.63
457.86	534.61
458.23	527.88
458.59	520.33
458.96	512.42
459.33	505.63
459.70	498.68
460.07	493.31
460.43	486.91
460.80	481.17
461.17	476.23
461.54	470.84
461.91	465.50
462.27	460.16
462.64	455.61
463.01	450.76
463.38	446.60
463.74	440.47
464.11	436.40
464.48	432.76
464.85	429.00
465.21	426.01
465.58	422.95
465.95	418.99
466.32	416.10
466.68	413.17
467.05	410.02
467.42	407.02
467.78	403.87
468.15	401.10
468.52	399.00
468.88	395.76
469.25	393.10
469.62	391.31
469.98	389.21
470.35	387.16
470.72	385.24
471.08	382.69
471.45	381.19
471.82	379.51
472.18	377.59
472.55	376.17
472.92	374.34
473.28	372.78
473.65	371.26
474.02	369.62
474.38	368.41
474.75	367.39
475.11	366.27
475.48	365.39
475.85	364.31
476.21	363.47
476.58	362.93
476.94	362.36
477.31	361.53
477.67	360.96
478.04	360.49
478.41	360.13
478.77	360.77
479.14	360.14
479.50	359.96
479.87	359.83
480.23	359.72
480.60	359.65
480.96	359.62
481.33	360.20
481.69	360.49
482.06	360.56
482.42	360.72
482.79	361.02
483.15	361.35
483.52	362.20
483.88	362.53
484.25	363.10
484.61	363.80
484.98	364.42
485.34	365.59
485.71	366.69
486.07	367.74
486.44	367.99
486.80	369.15
487.17	370.25
487.53	372.01
487.90	373.64
488.26	375.69
488.62	377.79
488.99	379.37
489.35	381.31
489.72	383.49
490.08	385.71
490.44	388.04
490.81	390.77
491.17	393.19
491.54	396.19
491.90	399.20
492.26	402.18
492.63	405.54
492.99	408.70
493.36	412.31
493.72	416.07
494.08	420.05
494.45	424.72
494.81	429.29
495.17	433.47
495.54	438.40
495.90	443.07
496.26	448.20
496.63	453.49
496.99	458.95
497.35	464.58
497.72	470.82
498.08	477.04
498.44	483.51
498.80	490.51
499.17	497.13
499.53	504.16
499.89	511.80
500.26	519.47
500.62	527.41
500.98	535.59
501.34	544.05
501.71	552.75
502.07	561.29
502.43	570.34
502.79	579.92
503.16	589.51
503.52	599.52
503.88	609.44
504.24	620.05
504.60	631.05
504.97	642.79
505.33	654.08
505.69	666.37
506.05	678.43
506.41	690.69
506.78	703.61
507.14	716.94
507.50	730.36
507.86	744.35
508.22	758.51
508.59	772.53
508.95	787.52
509.31	803.17
509.67	818.66
510.03	834.10
510.39	849.64
510.75	865.76
511.12	882.17
511.48	898.93
511.84	915.89
512.20	933.26
512.56	950.38
512.92	968.71
513.28	986.82
513.64	1005.20
514.00	1023.89
514.37	1043.04
514.73	1062.33
515.09	1081.99
515.45	1101.50
515.81	1121.39
516.17	1141.65
516.53	1161.41
516.89	1181.20
517.25	1202.03
517.61	1223.87
517.97	1245.70
518.33	1267.11
518.69	1288.88
519.05	1311.15
519.41	1333.53
519.77	1356.19
520.13	1378.25
520.49	1399.79
520.85	1424.68
521.21	1447.35
521.57	1470.11
521.93	1492.00
522.29	1514.59
522.65	1536.49
523.01	1558.92
523.37	1581.09
523.73	1603.32
524.09	1625.36
524.45	1647.26
524.81	1669.58
525.17	1691.19
525.53	1713.06
525.89	1735.43
526.25	1757.65
526.61	1778.57
526.97	1800.69
527.33	1822.92
527.68	1846.52
528.04	1869.40
528.40	1889.00
528.76	1911.38
529.12	1933.46
529.48	1956.12
529.84	1977.43
530.20	2000.30
530.56	2022.39
530.91	2044.70
531.27	2066.42
531.63	2088.64
531.99	2110.71
532.35	2132.10
532.71	2154.60
533.07	2177.00
533.42	2199.01
533.78	2220.39
534.14	2242.87
534.50	2263.40
534.86	2283.76
535.21	2302.73
535.57	2323.15
535.93	2342.28
536.29	2361.88
536.65	2381.93
537.00	2401.14
537.36	2419.93
537.72	2437.46
538.08	2455.81
538.44	2473.23
538.79	2491.36
539.15	2509.10
539.51	2526.94
539.87	2543.59
540.22	2558.11
540.58	2573.65
540.94	2587.94
541.29	2601.89
541.65	2615.62
542.01	2630.00
542.37	2642.24
542.72	2654.76
543.08	2665.74
543.44	2678.86
543.79	2689.60
544.15	2699.92
544.51	2710.97
544.87	2722.29
545.22	2732.54
545.58	2741.68
545.94	2750.93
546.29	2759.24
546.65	2766.96
547.01	2773.53
547.36	2780.21
547.72	2787.54
548.07	2792.29
548.43	2798.40
548.79	2804.29
549.14	2809.62
549.50	2814.42
549.86	2820.00
550.21	2824.94
550.57	2830.32
550.92	2832.90
551.28	2835.99
551.64	2840.10
551.99	2843.00
552.35	2846.07
552.70	2849.60
553.06	2853.05
553.41	2855.42
553.77	2858.99
554.13	2862.17
554.48	2865.41
554.84	2868.60
555.19	2871.27
555.55	2875.44
555.90	2876.63
556.26	2878.26
556.61	2878.37
556.97	2877.56
557.32	2878.23
557.68	2878.28
558.03	2878.18
558.39	2878.96
558.74	2879.92
559.10	2878.41
559.45	2877.02
559.81	2874.75
560.16	2871.66
560.52	2868.60
560.87	2866.10
561.23	2861.58
561.58	2857.71
561.94	2852.18
562.29	2846.39
562.64	2840.84
563.00	2833.88
563.35	2829.50
563.71	2823.73
564.06	2819.02
564.42	2814.70
564.77	2810.00
565.12	2804.86
565.48	2799.77
565.83	2793.78
566.19	2787.79
566.54	2781.66
566.89	2775.90
567.25	2770.11
567.60	2765.06
567.96	2760.25
568.31	2755.00
568.66	2749.08
569.02	2741.94
569.37	2736.08
569.72	2730.85
570.08	2724.28
570.43	2717.24
570.78	2710.20
571.14	2703.14
571.49	2695.30
571.84	2687.36
572.20	2678.45
572.55	2670.19
572.90	2660.81
573.26	2651.93
573.61	2642.28
573.96	2632.97
574.31	2621.97
574.67	2611.88
575.02	2600.52
575.37	2588.90
575.72	2576.43
576.08	2565.63
576.43	2554.10
576.78	2542.22
577.13	2530.15
577.49	2518.47
577.84	2508.15
578.19	2496.90
578.54	2485.72
578.90	2475.20
579.25	2464.92
579.60	2453.76
579.95	2442.21
580.30	2430.61
580.66	2418.79
581.01	2406.30
581.36	2393.41
581.71	2382.52
582.06	2370.56
582.42	2359.55
582.77	2348.01
583.12	2337.34
583.47	2326.06
583.82	2315.69
584.17	2305.39
584.53	2294.63
584.88	2283.22
585.23	2270.90
585.58	2257.88
585.93	2245.37
586.28	2233.21
586.63	2219.57
586.98	2206.20
587.34	2193.83
587.69	2181.17
588.04	2169.57
588.39	2158.81
588.74	2146.99
589.09	2136.01
589.44	2124.09
589.79	2112.07
590.14	2100.62
590.49	2089.01
590.84	2077.22
591.19	2065.64
591.54	2053.68
591.89	2041.70
592.25	2032.06
592.60	2021.13
592.95	2010.20
593.30	1998.89
593.65	1986.86
594.00	1975.19
594.35	1966.73
594.70	1955.06
595.05	1944.02
595.40	1931.63
595.75	1919.20
596.10	1908.70
596.45	1896.82
596.80	1885.85
597.15	1874.28
597.50	1862.61
597.85	1851.74
598.19	1840.18
598.54	1828.04
598.89	1816.62
599.24	1805.95
599.59	1793.72
599.94	1782.62
600.29	1771.95
600.64	1761.30
600.99	1750.45
601.34	1740.93
601.69	1728.46
602.04	1718.10
602.39	1707.81
602.74	1698.53
603.08	1689.18
603.43	1679.51
603.78	1669.17
604.13	1659.12
604.48	1649.10
604.83	1638.44
605.18	1627.24
605.53	1617.20
605.87	1607.91
606.22	1598.58
606.57	1588.37
606.92	1577.59
607.27	1567.31
607.62	1557.81
607.96	1548.37
608.31	1539.45
608.66	1530.17
609.01	1520.61
609.36	1511.31
609.70	1501.96
610.05	1492.44
610.40	1483.03
610.75	1473.13
611.10	1463.97
611.44	1454.06
611.79	1444.74
612.14	1435.57
612.49	1426.50
612.83	1417.69
613.18	1408.48
613.53	1399.60
613.88	1390.24
614.22	1381.41
614.57	1372.24
614.92	1362.58
615.27	1353.71
615.61	1344.40
615.96	1334.81
616.31	1325.50
616.65	1316.91
617.00	1308.02
617.35	1298.99
617.70	1290.02
618.04	1281.21
618.39	1272.67
618.74	1264.79
619.08	1256.32
619.43	1247.87
619.78	1239.27
620.12	1230.20
620.47	1221.43
620.82	1212.09
621.16	1203.40
621.51	1195.60
621.85	1187.85
622.20	1179.51
622.55	1170.93
622.89	1163.02
623.24	1155.35
623.59	1147.22
623.93	1139.21
624.28	1131.20
624.62	1124.22
624.97	1116.98
625.32	1109.60
625.66	1101.37
626.01	1093.12
626.35	1085.69
626.70	1078.17
627.04	1071.16
627.39	1063.87
627.73	1057.15
628.08	1050.36
628.43	1043.22
628.77	1035.71
629.12	1028.89
629.46	1022.63
629.81	1016.54
630.15	1009.67
630.50	1002.62
630.84	996.16
631.19	989.63
631.53	983.39
631.88	975.93
632.22	968.91
632.57	962.79
632.91	956.34
633.26	950.66
633.60	944.33
633.95	938.17
634.29	931.41
634.64	925.52
634.98	918.52
635.32	912.66
635.67	907.44
636.01	901.64
636.36	894.86
636.70	889.00
637.05	882.75
637.39	877.14
637.73	871.46
638.08	865.86
638.42	859.55
638.77	853.26
639.11	846.87
639.45	840.73
639.80	834.09
640.14	828.42
640.49	822.18
640.83	816.53
641.17	811.20
641.52	805.89
641.86	800.21
642.20	795.47
642.55	789.73
642.89	783.78
643.23	778.56
643.58	774.19
643.92	768.50
644.26	763.32
644.61	758.07
644.95	752.84
645.29	747.48
645.64	742.70
645.98	737.78
646.32	733.58
646.66	728.64
647.01	724.03
647.35	719.84
647.69	715.37
648.04	711.10
648.38	706.60
648.72	702.20
649.06	697.56
649.41	692.79
649.75	688.07
650.09	683.62
650.43	679.04
650.78	674.14
651.12	669.83
651.46	665.44
651.80	660.91
652.14	656.67
652.49	652.84
652.83	648.83
653.17	644.65
653.51	640.15
653.85	636.34
654.20	632.45
654.54	627.94
654.88	623.78
655.22	619.84
655.56	615.72
655.90	611.95
656.25	608.32
656.59	604.56
656.93	601.00
657.27	597.62
657.61	593.62
657.95	590.03
658.29	586.27
658.64	582.62
658.98	578.95
659.32	575.09
659.66	570.94
660.00	567.24
660.34	563.68
660.68	560.14
661.02	556.68
661.36	553.28
661.70	549.80
662.05	546.46
662.39	543.06
662.73	539.84
663.07	536.64
663.41	533.23
663.75	529.82
664.09	526.76
664.43	523.33
664.77	520.39
665.11	517.16
665.45	514.09
665.79	511.18
666.13	508.23
666.47	505.22
666.81	502.56
667.15	499.30
667.49	496.75
667.83	494.54
668.17	491.71
668.51	489.01
668.85	486.67
669.19	484.43
669.53	481.59
669.87	478.70
670.21	476.09
670.55	473.52
670.89	471.59
671.23	468.90
671.57	466.30
671.91	463.73
672.25	461.31
672.58	459.21
672.92	456.46
673.26	453.89
673.60	451.70
673.94	449.40
674.28	447.43
674.62	445.12
674.96	442.37
675.30	440.17
675.64	437.67
675.97	435.20
676.31	432.71
676.65	430.31
676.99	428.57
677.33	426.15
677.67	423.98
678.01	421.25
678.34	419.20
678.68	417.31
679.02	415.26
679.36	413.27
679.70	410.97
680.04	409.10
680.37	407.30
680.71	405.42
681.05	403.65
681.39	401.71
681.73	399.96
682.06	398.28
682.40	396.60
682.74	395.01
683.08	393.61
683.42	391.74
683.75	390.16
684.09	388.05
684.43	386.53
684.77	384.88
685.10	383.45
685.44	381.94
685.78	380.26
686.12	378.66
686.45	377.03
686.79	375.45
687.13	374.06
687.46	372.45
687.80	371.29
688.14	369.65
688.48	368.28
688.81	366.64
689.15	365.23
689.49	363.70
689.82	362.38
690.16	360.49
690.50	359.09
690.83	357.70
691.17	356.23
691.51	354.82
691.84	353.61
692.18	352.17
692.52	350.68
692.85	349.23
693.19	348.28
693.52	347.00
693.86	345.68
694.20	344.31
694.53	343.14
694.87	341.58
695.21	340.15
695.54	338.88
695.88	337.45
696.21	336.06
696.55	334.88
696.88	333.56
697.22	332.33
697.56	331.24
697.89	330.05
698.23	328.92
698.56	327.70
698.90	326.69
699.23	325.40
699.57	324.44
699.90	323.40
700.24	322.00
700.58	320.98
700.91	320.10
701.25	319.81
701.58	319.45
701.92	318.63
702.25	317.82
702.59	316.64
702.92	315.84
703.26	315.02
703.59	313.91
703.93	313.72
704.26	313.13
704.60	312.32
704.93	311.39
705.26	310.64
705.60	309.86
705.93	308.66
706.27	308.20
706.60	307.48
706.94	306.89
707.27	306.10
707.61	305.39
707.94	304.56
708.27	303.10
708.61	301.59
708.94	300.67
709.28	299.85
709.61	299.19
709.94	298.50
710.28	297.60
710.61	297.01
710.95	295.36
711.28	295.07
711.61	294.23
711.95	293.79
712.28	292.86
712.61	292.09
712.95	291.88
713.28	291.45
713.61	290.48
713.95	289.56
714.28	288.97
714.61	288.21
714.95	287.37
715.28	286.55
715.61	285.87
715.95	285.21
716.28	284.36
716.61	283.83
716.95	282.98
717.28	282.41
717.61	281.60
717.94	281.15
718.28	279.87
718.61	279.33
718.94	278.36
719.27	277.76
719.61	277.20
719.94	276.48
720.27	275.47
720.60	274.97
720.94	274.43
721.27	273.88
721.60	273.59
721.93	273.10
722.27	272.89
722.60	272.50
722.93	271.99
723.26	271.74
723.59	271.07
723.93	270.75
724.26	270.42
724.59	270.05
724.92	269.55
725.25	269.39
725.59	268.87
725.92	268.66
726.25	268.30
726.58	268.04
726.91	267.53
727.24	267.25
727.57	266.92
727.91	266.41
728.24	266.09
728.57	265.47
728.90	265.31
729.23	264.57
729.56	264.65
729.89	264.36
730.22	263.83
730.55	263.50
730.89	263.21
731.22	262.69
731.55	262.33
731.88	262.14
732.21	261.58
732.54	261.24
732.87	260.87
733.20	260.62
733.53	260.22
733.86	260.02
734.19	259.58
734.52	259.34
734.85	259.80
735.18	259.41
735.51	259.47
735.84	259.07
736.17	259.10
736.50	258.27
736.83	259.02
737.16	258.85
737.49	258.70
737.82	258.30
738.15	258.30
738.48	258.10
738.81	257.80
739.14	257.50
739.47	257.18
739.80	256.99
740.13	256.84
740.46	256.46
740.79	256.08
741.12	255.80
741.45	255.43
741.78	254.57
742.11	254.55
742.44	254.11
742.77	254.11
743.10	253.77
743.43	253.61
743.75	252.29
744.08	253.26
744.41	252.86
744.74	252.72
745.07	252.23
745.40	252.10
745.73	252.16
746.06	252.04
746.39	251.92
746.71	251.48
747.04	251.09
747.37	250.89
747.70	250.90
748.03	250.79
748.36	250.72
748.68	250.49
749.01	250.01
749.34	249.66
749.67	249.35
750.00	249.22
750.33	249.67
750.65	249.64
750.98	248.21
751.31	248.00
751.64	247.80
751.97	248.14
752.29	247.84
752.62	247.29
752.95	246.95
753.28	246.68
753.60	246.50
753.93	246.56
754.26	246.46
754.59	245.96
754.91	245.69
755.24	245.35
755.57	245.32
755.90	245.07
756.22	244.92
756.55	244.56
756.88	244.30
757.20	243.62
757.53	243.07
757.86	242.91
758.19	242.92
758.51	242.76
758.84	242.01
759.17	241.75
759.49	241.71
759.82	242.08
760.15	242.03
760.47	241.92
760.80	241.60
761.13	241.49
761.45	241.29
761.78	241.14
762.11	241.02
762.43	240.71
762.76	240.55
763.08	240.41
763.41	240.43
763.74	240.37
764.06	240.15
764.39	240.10
764.71	239.97
765.04	239.78
765.37	239.53
765.69	239.39
766.02	239.31
766.34	239.01
766.67	238.45
767.00	238.39
767.32	238.80
767.65	239.29
767.97	239.01
768.30	239.00
768.62	238.83
768.95	238.56
769.27	238.43
769.60	238.53
769.92	238.24
770.25	237.96
770.57	237.63
770.90	237.45
771.22	237.24
771.55	237.13
771.87	236.95
772.20	236.88
772.52	237.65
772.85	238.66
773.17	238.55
773.50	238.56
773.82	238.33
774.15	237.83
774.47	237.11
774.80	237.10
775.12	236.96
775.45	236.89
775.77	237.00
776.09	237.05
776.42	236.92
776.74	237.30
777.07	237.15
777.39	237.03
777.72	236.94
778.04	237.10
778.36	236.94
778.69	236.94
779.01	236.97
779.33	236.10
779.66	234.96
779.98	235.03
780.31	234.95
780.63	235.32
780.95	235.34
781.28	235.30
781.60	235.10
781.92	235.03
782.25	234.96
782.57	234.99
782.89	234.79
783.22	234.72
783.54	234.37
783.86	234.48
784.19	234.42
784.51	234.68
784.83	234.43
785.16	234.37
785.48	234.30
785.80	234.20
786.12	234.20
786.45	234.20
786.77	234.10
787.09	233.90
787.42	233.40
787.74	233.36
788.06	233.32
788.38	233.38
788.71	233.29
789.03	233.38
789.35	233.30
789.67	233.17
789.99	233.13
790.32	233.00
790.64	233.07
790.96	233.80
791.28	233.39
791.61	233.35
791.93	233.40
792.25	233.33
792.57	233.94
792.89	233.73
793.21	233.85
793.54	233.68
793.86	233.64
794.18	233.68
794.50	233.44
794.82	233.39
795.14	233.38
795.47	233.60
795.79	233.64
796.11	233.47
796.43	233.53
796.75	233.52
797.07	233.55
797.39	233.38
797.71	232.70
798.04	232.69
798.36	232.78
798.68	232.72
799.00	232.80
799.32	232.32
799.64	232.50
799.96	232.35
800.28	232.59
800.60	232.54
800.92	232.67
801.24	232.70
801.56	232.74
801.89	232.63
802.21	232.60
802.53	232.31
802.85	232.49
803.17	232.79
803.49	232.62
803.81	232.50
804.13	232.42
804.45	232.32
804.77	232.39
805.09	232.41
805.41	232.28
805.73	232.05
806.05	231.72
806.37	231.57
806.69	231.41
807.01	231.30
807.33	231.38
807.65	231.04
807.97	231.47
808.28	231.48
808.60	231.60
808.92	231.31
809.24	231.94
809.56	231.84
809.88	231.49
810.20	231.55
810.52	231.67
810.84	231.59
811.16	231.52
811.48	231.49
811.80	231.65
812.12	231.68
812.43	231.89
812.75	232.03
813.07	231.92
813.39	232.04
813.71	231.81
814.03	231.61
814.35	231.73
814.67	231.34
814.98	231.13
815.30	231.01
815.62	230.89
815.94	230.21
816.26	230.59
816.58	230.44
816.89	230.47
817.21	230.33
817.53	230.40
817.85	230.46
818.17	230.39
818.48	230.04
818.80	230.20
819.12	230.00
819.44	229.83
819.76	229.86
820.07	229.78
820.39	229.81
820.71	229.90
821.03	229.83
821.34	229.70
821.66	229.81
821.98	229.79
822.30	229.78
822.61	230.35
822.93	229.78
823.25	229.77
823.57	229.66
823.88	229.83
824.20	229.78
824.52	229.87
824.83	229.84
825.15	229.69
825.47	229.55
825.79	229.68
826.10	229.65
826.42	229.61
826.74	229.62
827.05	229.57
827.37	229.59
827.69	229.47
828.00	229.40
828.32	229.36
828.64	229.37
828.95	229.93
829.27	229.65
829.58	229.65
829.90	229.88
830.22	229.87
830.53	229.65
830.85	229.49
831.17	229.24
831.48	229.19
831.80	229.30
832.11	229.24
832.43	229.08
832.75	229.03
833.06	229.46
833.38	229.25
833.69	229.30
834.01	229.34
834.32	229.32
834.64	229.29
834.96	229.35
835.27	229.30
835.59	228.95
835.90	228.78
836.22	228.75
836.53	228.41
836.85	228.37
837.16	229.39
837.48	229.43
837.79	229.79
838.11	229.85
838.42	229.86
838.74	230.11
839.05	230.06
839.37	230.02
839.68	229.58
840.00	229.60
840.31	229.69
840.63	229.60
840.94	229.60
841.26	229.60
841.57	229.54
841.88	229.63
842.20	229.47
842.51	229.40
842.83	229.45
843.14	230.44
843.46	230.41
843.77	229.80
844.08	229.80
844.40	229.53
844.71	229.41
845.03	229.29
845.34	229.09
845.65	229.06
845.97	229.04
846.28	229.03
846.60	229.12
846.91	228.94
847.22	228.94
847.54	229.06
847.85	229.11
848.16	229.01
848.48	228.84
848.79	229.21
849.10	229.28
849.42	229.35
849.73	228.43
850.04	228.41
850.36	228.03
850.67	228.18
850.98	228.20
851.30	228.40
851.61	228.45
851.92	228.40
852.23	228.69
852.55	228.78
852.86	228.89
853.17	228.94
853.49	229.20
853.80	229.43
854.11	229.56
854.42	229.70
854.74	229.63
855.05	229.70
855.36	229.24
855.67	229.34
855.99	229.32
856.30	230.49
856.61	230.42
856.92	230.52
857.23	230.48
857.55	230.32
857.86	230.21
858.17	230.23
858.48	230.04
858.79	229.93
859.11	230.02
859.42	229.86
859.73	229.72
860.04	229.66
860.35	229.23
860.66	228.99
860.98	228.89
861.29	228.91
861.60	228.83
861.91	229.11
862.22	228.86
862.53	228.57
862.84	227.40
863.16	227.66
863.47	227.49
863.78	227.55
864.09	227.72
864.40	227.84
864.71	227.88
865.02	228.12
865.33	227.91
865.64	227.70
865.95	227.88
866.27	228.44
866.58	228.36
866.89	228.70
867.20	228.53
867.51	228.38
867.82	228.43
868.13	228.63
868.44	228.36
868.75	228.59
869.06	228.79
869.37	228.88
869.68	228.60
869.99	228.71
870.30	228.67
870.61	228.74
870.92	228.52
871.23	228.40
871.54	228.45
871.85	228.65
872.16	228.78
872.47	228.63
872.78	228.13
873.09	228.13
873.40	227.89
873.71	228.13
874.02	228.27
874.33	228.12
874.64	227.96
874.95	228.20
875.26	227.97
875.56	227.86
875.87	227.70
876.18	227.71
876.49	228.66
876.80	228.51
877.11	228.27
877.42	228.35
877.73	228.44
878.04	228.30
878.35	228.30
878.66	228.38
878.96	228.19
879.27	228.11
879.58	228.09
879.89	228.02
880.20	228.17
880.51	228.16
880.82	228.23
881.12	228.34
881.43	228.08
881.74	227.98
882.05	227.95
882.36	228.15
882.67	228.20
882.97	227.16
883.28	227.16
883.59	227.10
883.90	227.17
884.21	227.39
884.51	227.42
884.82	227.26
885.13	227.11
885.44	227.28
885.74	227.33
886.05	227.32
886.36	227.37
886.67	227.06
886.98	227.45
887.28	227.51
887.59	227.39
887.90	227.46
888.20	227.50
888.51	227.71
888.82	227.53
889.13	227.60
889.43	228.39
889.74	228.32
890.05	228.34
890.35	228.23
890.66	227.97
890.97	227.80
891.28	227.82
891.58	227.98
891.89	227.89
892.20	227.81
892.50	227.68
892.81	227.62
893.12	227.60
893.42	227.14
893.73	227.15
894.04	227.26
894.34	227.34
894.65	227.28
894.95	227.10
895.26	227.17
895.57	227.53
895.87	226.61
896.18	226.85
896.48	226.92
896.79	226.98
897.10	227.15
897.40	227.30
897.71	227.32
898.01	227.20
898.32	227.27
898.63	227.24
898.93	227.35
899.24	227.45
899.54	227.42
899.85	227.35
900.15	227.31
900.46	227.29
900.76	227.33
901.07	227.38
901.38	227.42
901.68	227.54
901.99	227.08
902.29	227.15
902.60	227.04
902.90	227.00
903.21	226.95
903.51	226.92
903.82	227.00
904.12	226.95
904.43	226.96
904.73	227.00
905.03	227.05
905.34	228.00
905.64	227.98
905.95	227.96
906.25	228.05
906.56	228.02
906.86	227.97
907.17	227.98
907.47	228.08
907.77	228.03
908.08	227.82
908.38	227.97
908.69	228.10
908.99	228.28
909.30	228.33
909.60	228.33
909.90	228.34
910.21	228.10
910.51	228.04
910.81	228.12
911.12	228.20
911.42	228.12
911.73	227.05
912.03	227.04
912.33	227.30
912.64	227.24
912.94	227.29
913.24	227.17
913.55	226.98
913.85	226.84
914.15	227.03
914.46	227.23
914.76	227.09
915.06	227.02
915.37	226.82
915.67	226.74
915.97	226.78
916.27	226.60
916.58	226.70
916.88	226.67
917.18	226.57
917.49	227.11
917.79	227.17
918.09	227.34
918.39	227.64
918.70	227.54
919.00	227.47
919.30	227.84
919.60	227.86
919.91	227.85
920.21	227.92
920.51	227.70
920.81	227.65
921.12	227.84
921.42	227.84
921.72	227.94
922.02	228.07
922.32	228.11
922.63	228.16
922.93	228.61
923.23	228.67
923.53	228.54
923.83	227.95
924.13	228.04
924.44	228.11
924.74	228.20
925.04	228.48
925.34	228.55
925.64	228.06
925.94	228.07
926.24	228.62
926.55	228.57
926.85	228.73
927.15	228.68
927.45	228.67
927.75	228.64
928.05	228.68
928.35	228.53
928.65	228.67
928.95	228.71
929.26	228.45
929.56	228.67
929.86	228.85
930.16	228.71
930.46	228.62
930.76	228.54
931.06	228.12
931.36	227.76
931.66	227.87
931.96	228.08
932.26	228.06
932.56	227.68
932.86	227.74
933.16	227.70
933.46	227.65
933.76	227.52
934.06	227.83
934.36	228.14
934.66	228.13
934.96	228.02
935.26	228.04
935.56	228.06
935.86	227.81
936.16	227.73
936.46	227.75
936.76	227.70
937.06	227.62
937.36	227.65
937.66	227.84
937.96	227.85
938.26	227.52
938.56	227.65
938.86	227.65
939.16	227.97
939.46	228.03
939.76	228.08
940.06	228.02
940.35	227.70
940.65	227.13
940.95	227.17
941.25	226.90
941.55	226.81
941.85	226.80
942.15	226.93
942.45	227.15
942.75	227.20
943.04	227.26
943.34	227.46
943.64	227.48
943.94	227.30
944.24	227.31
944.54	227.46
944.84	227.30
945.13	227.14
945.43	226.87
945.73	226.78
946.03	226.67
946.33	226.69
946.62	226.65
946.92	226.66
947.22	226.75
947.52	226.97
947.82	227.04
948.11	226.91
948.41	226.79
948.71	226.53
949.01	226.53
949.31	226.50
949.60	226.35
949.90	226.50
950.20	226.32
950.50	226.20
950.79	226.18
951.09	226.31
951.39	226.40
951.69	226.25
951.98	226.45
952.28	226.59
952.58	226.47
952.87	226.47
953.17	226.65
953.47	226.48
953.76	226.42
954.06	226.30
954.36	226.24
954.66	226.17
954.95	226.44
955.25	226.51
955.55	226.55
955.84	226.40
956.14	226.33
956.44	226.45
956.73	226.35
957.03	226.45
957.32	226.40
957.62	226.24
957.92	226.43
958.21	226.36
958.51	227.36
958.81	227.47
959.10	227.55
959.40	227.70
959.69	227.89
959.99	228.04
960.29	228.01
960.58	227.88
960.88	228.30
961.17	228.11
961.47	228.14
961.76	228.03
962.06	228.26
962.36	228.21
962.65	228.33
962.95	228.40
963.24	228.26
963.54	228.34
963.83	228.47
964.13	228.49
964.42	228.31
964.72	227.50
965.01	227.59
965.31	227.47
965.60	227.19
965.90	227.70
966.19	227.40
966.49	227.46
966.78	227.64
967.08	227.46
967.37	227.53
967.67	227.33
967.96	227.50
968.26	227.47
968.55	227.58
968.85	227.58
969.14	227.55
969.43	227.51
969.73	227.46
970.02	227.35
970.32	227.20
970.61	227.13
970.91	226.81
971.20	226.62
971.49	226.66
971.79	226.89
972.08	226.29
972.38	226.40
972.67	226.35
972.96	226.32
973.26	226.21
973.55	226.42
973.85	226.38
974.14	226.35
974.43	226.40
974.73	226.20
975.02	226.05
975.31	226.16
975.61	226.21
975.90	226.06
976.19	226.10
976.49	226.19
976.78	226.24
977.07	226.30
977.37	226.39
977.66	226.47
977.95	226.40
978.24	226.52
978.54	226.77
978.83	226.67
979.12	226.69
979.42	226.75
979.71	226.56
980.00	226.56
980.29	226.59
980.59	226.43
980.88	226.74
981.17	226.74
981.46	226.66
981.76	226.56
982.05	226.86
982.34	226.85
982.63	226.82
982.93	226.90
983.22	227.28
983.51	227.31
983.80	227.42
984.09	227.46
984.39	227.31
984.68	227.04
984.97	227.25
985.26	227.14
985.55	227.13
985.85	227.00
986.14	227.22
986.43	227.33
986.72	227.28
987.01	226.98
987.30	226.96
987.59	226.91
987.89	227.02
988.18	226.77
988.47	226.72
988.76	226.60
989.05	226.47
989.34	226.14
989.63	226.37
989.92	226.18
990.22	226.00
990.51	225.99
990.80	226.05
991.09	226.01
991.38	226.10
991.67	226.12
991.96	226.00
992.25	225.99
992.54	225.70
992.83	225.63
993.12	225.58
993.41	225.76
993.70	226.09
993.99	226.31
994.28	226.44
994.58	226.52
994.87	226.52
995.16	226.60
995.45	226.49
995.74	226.23
996.03	226.42
996.32	226.60
996.61	226.80
996.90	226.74
997.19	226.59
997.48	226.67
997.77	226.40
998.06	226.53
998.34	226.42
998.63	226.54
998.92	226.63
999.21	226.80
999.50	226.70
999.79	226.40
1000.08	226.24
1000.37	226.17
1000.66	226.14
1000.95	226.38
1001.24	226.37
1001.53	226.52
1001.82	226.37
1002.11	226.11
1002.40	226.20
1002.68	226.40
1002.97	227.04
1003.26	227.04
1003.55	226.83
1003.84	227.03
1004.13	227.38
1004.42	227.40
1004.71	227.34
1004.99	227.30
1005.28	227.51
1005.57	227.63
1005.86	227.62
1006.15	227.57
1006.44	227.49
1006.72	227.56
1007.01	227.38
1007.30	227.32
1007.59	227.24
1007.88	227.32
1008.17	227.41
1008.45	227.13
1008.74	226.72
1009.03	226.31
1009.32	226.38
1009.60	226.51
1009.89	226.45
1010.18	226.03
1010.47	225.92
1010.76	225.90
1011.04	225.94
1011.33	225.96
1011.62	225.93
1011.91	226.05
1012.19	226.17
1012.48	226.25
1012.77	226.26
1013.05	226.74
1013.34	226.84
1013.63	226.85
1013.92	226.94
1014.20	226.86
1014.49	226.97
1014.78	227.16
1015.06	226.93
1015.35	227.01
1015.64	227.05
1015.92	227.10
1016.21	227.19
1016.50	227.32
1016.78	227.46
1017.07	227.51
1017.36	227.36
1017.64	227.18
1017.93	227.19
1018.22	227.17
1018.50	227.13
1018.79	227.10
1019.08	226.68
1019.36	226.67
1019.65	226.61
1019.93	226.87
1020.22	227.09
1020.51	227.63
1020.79	227.47
1021.08	227.30
1021.36	225.10
1021.65	226.50
1021.94	227.10
1022.22	226.50
1022.51	225.30
1022.79	231.60
1023.08	228.90
1023.36	239.30
1023.65	225.00
>>>>>End Processed Spectral Data<<<<<
