SpectraSuite Data File
++++++++++++++++++++++++++++++++++++
Date: Wed Sep 04 17:31:17 EDT 2013
User: lab3
Dark Spectrum Present: Yes
Reference Spectrum Present: No
Number of Sampled Component Spectra: 1
Spectrometers: USB2E7196
Integration Time (usec): 337000 (USB2E7196)
Spectra Averaged: 10 (USB2E7196)
Boxcar Smoothing: 10 (USB2E7196)
Correct for Electrical Dark: No (USB2E7196)
Strobe/Lamp Enabled: No (USB2E7196)
Correct for Detector Non-linearity: No (USB2E7196)
Correct for Stray Light: No (USB2E7196)
Number of Pixels in Processed Spectrum: 2048
>>>>>Begin Processed Spectral Data<<<<<
339.09	0.00
339.48	212.50
339.86	213.30
340.24	216.20
340.63	216.10
341.01	233.30
341.39	220.90
341.78	222.90
342.16	226.30
342.54	223.70
342.93	213.11
343.31	223.79
343.69	224.32
344.07	224.89
344.46	225.47
344.84	225.99
345.22	225.64
345.60	225.97
345.99	226.19
346.37	226.20
346.75	226.26
347.13	226.34
347.52	226.46
347.90	226.79
348.28	226.82
348.66	227.10
349.05	226.70
349.43	226.79
349.81	226.80
350.19	226.85
350.57	227.07
350.96	227.16
351.34	227.32
351.72	227.41
352.10	227.49
352.48	227.37
352.87	227.30
353.25	227.36
353.63	227.23
354.01	227.17
354.39	227.21
354.77	227.33
355.15	227.61
355.54	227.51
355.92	227.21
356.30	227.28
356.68	227.81
357.06	227.96
357.44	227.89
357.82	227.91
358.20	228.68
358.58	228.68
358.97	228.69
359.35	228.94
359.73	229.17
360.11	229.24
360.49	229.30
360.87	229.37
361.25	229.47
361.63	229.90
362.01	229.97
362.39	229.93
362.77	230.06
363.15	230.03
363.53	230.17
363.91	230.25
364.29	230.31
364.67	229.56
365.05	229.66
365.43	229.88
365.81	230.10
366.19	229.77
366.57	230.18
366.95	230.26
367.33	230.04
367.71	230.00
368.09	230.13
368.47	230.12
368.85	230.19
369.23	230.41
369.61	230.04
369.99	230.34
370.37	230.51
370.75	230.89
371.13	230.68
371.51	230.51
371.89	230.67
372.27	230.64
372.65	230.60
373.03	230.64
373.41	230.39
373.78	230.25
374.16	229.78
374.54	229.40
374.92	229.32
375.30	229.29
375.68	229.14
376.06	229.12
376.44	229.10
376.82	229.01
377.19	228.88
377.57	228.81
377.95	228.46
378.33	228.30
378.71	227.72
379.09	227.76
379.47	227.85
379.84	227.60
380.22	227.49
380.60	227.39
380.98	227.25
381.36	227.19
381.73	227.05
382.11	227.17
382.49	227.16
382.87	226.98
383.25	226.94
383.62	227.92
384.00	227.63
384.38	227.61
384.76	227.85
385.13	228.11
385.51	228.03
385.89	227.93
386.27	227.93
386.64	228.10
387.02	228.03
387.40	227.85
387.78	227.92
388.15	227.90
388.53	227.86
388.91	227.80
389.29	227.76
389.66	227.81
390.04	227.69
390.42	227.82
390.79	227.91
391.17	227.88
391.55	226.85
391.92	226.86
392.30	226.95
392.68	226.72
393.05	226.56
393.43	226.60
393.81	226.71
394.18	226.59
394.56	226.52
394.94	226.70
395.31	226.71
395.69	227.04
396.06	227.22
396.44	227.30
396.82	227.27
397.19	227.92
397.57	227.91
397.95	228.09
398.32	227.86
398.70	227.96
399.07	228.21
399.45	228.28
399.82	228.50
400.20	228.40
400.58	228.48
400.95	228.29
401.33	228.70
401.70	229.37
402.08	229.60
402.45	229.66
402.83	230.06
403.20	230.25
403.58	230.22
403.95	230.64
404.33	230.99
404.71	231.29
405.08	231.87
405.46	232.15
405.83	232.45
406.21	232.80
406.58	233.15
406.96	233.45
407.33	234.01
407.70	234.57
408.08	235.86
408.45	236.44
408.83	237.12
409.20	237.58
409.58	237.69
409.95	238.50
410.33	239.33
410.70	239.70
411.08	240.61
411.45	241.43
411.82	242.16
412.20	243.28
412.57	244.79
412.95	245.04
413.32	246.38
413.69	247.59
414.07	249.03
414.44	250.42
414.82	252.00
415.19	253.73
415.56	255.32
415.94	256.64
416.31	258.74
416.68	260.90
417.06	263.33
417.43	265.84
417.81	268.40
418.18	271.10
418.55	274.04
418.93	277.04
419.30	280.15
419.67	283.38
420.04	286.72
420.42	289.97
420.79	294.67
421.16	298.82
421.54	303.55
421.91	307.90
422.28	312.52
422.66	317.39
423.03	322.68
423.40	327.77
423.77	333.06
424.15	338.42
424.52	344.13
424.89	350.43
425.26	356.45
425.64	362.14
426.01	368.46
426.38	374.98
426.75	381.96
427.13	388.86
427.50	396.17
427.87	403.48
428.24	410.99
428.61	417.82
428.99	425.95
429.36	434.09
429.73	442.59
430.10	451.08
430.47	459.96
430.85	468.37
431.22	477.89
431.59	488.50
431.96	498.30
432.33	508.92
432.70	519.18
433.08	531.13
433.45	542.55
433.82	554.01
434.19	566.78
434.56	579.40
434.93	591.58
435.30	603.67
435.68	617.24
436.05	630.79
436.42	644.20
436.79	656.39
437.16	669.65
437.53	683.56
437.90	697.32
438.27	710.79
438.64	725.34
439.01	738.82
439.38	750.39
439.75	762.00
440.13	775.12
440.50	787.54
440.87	797.81
441.24	808.48
441.61	820.10
441.98	828.72
442.35	838.30
442.72	848.40
443.09	858.63
443.46	864.54
443.83	868.60
444.20	872.09
444.57	877.12
444.94	879.64
445.31	882.14
445.68	885.57
446.05	886.39
446.42	885.02
446.79	883.50
447.16	881.55
447.53	880.34
447.90	875.40
448.27	870.26
448.64	863.13
449.01	858.15
449.37	849.17
449.74	840.31
450.11	830.66
450.48	818.92
450.85	806.58
451.22	796.66
451.59	787.04
451.96	777.70
452.33	765.34
452.70	754.06
453.07	740.86
453.43	726.48
453.80	713.85
454.17	701.36
454.54	689.40
454.91	676.86
455.28	664.24
455.65	652.63
456.02	642.41
456.38	632.61
456.75	620.31
457.12	609.93
457.49	600.04
457.86	589.78
458.23	581.85
458.59	572.74
458.96	563.61
459.33	555.53
459.70	547.60
460.07	541.13
460.43	533.80
460.80	527.05
461.17	521.35
461.54	515.16
461.91	509.21
462.27	503.24
462.64	498.09
463.01	492.45
463.38	487.17
463.74	480.17
464.11	475.39
464.48	471.31
464.85	466.86
465.21	463.69
465.58	459.84
465.95	455.37
466.32	452.00
466.68	448.35
467.05	444.69
467.42	441.16
467.78	437.45
468.15	434.10
468.52	431.58
468.88	427.77
469.25	424.66
469.62	422.32
469.98	419.48
470.35	417.08
470.72	414.85
471.08	412.09
471.45	410.45
471.82	408.39
472.18	405.99
472.55	404.33
472.92	402.02
473.28	400.23
473.65	398.27
474.02	396.52
474.38	395.16
474.75	393.97
475.11	392.43
475.48	391.26
475.85	390.16
476.21	388.77
476.58	387.88
476.94	387.07
477.31	386.21
477.67	385.45
478.04	384.74
478.41	384.20
478.77	384.62
479.14	383.85
479.50	383.50
479.87	383.20
480.23	382.80
480.60	382.49
480.96	382.18
481.33	382.59
481.69	382.48
482.06	382.22
482.42	382.26
482.79	382.37
483.15	382.57
483.52	383.11
483.88	383.46
484.25	383.76
484.61	384.21
484.98	384.40
485.34	385.41
485.71	386.18
486.07	387.04
486.44	387.06
486.80	387.73
487.17	388.55
487.53	389.96
487.90	391.28
488.26	393.02
488.62	394.60
488.99	395.52
489.35	397.11
489.72	398.87
490.08	400.34
490.44	401.87
490.81	403.89
491.17	405.70
491.54	407.92
491.90	410.25
492.26	412.49
492.63	414.95
492.99	416.93
493.36	419.41
493.72	422.01
494.08	424.72
494.45	427.73
494.81	430.95
495.17	433.58
495.54	436.70
495.90	439.59
496.26	442.63
496.63	446.11
496.99	449.40
497.35	452.67
497.72	456.17
498.08	459.59
498.44	463.00
498.80	466.64
499.17	470.05
499.53	473.63
499.89	477.34
500.26	480.91
500.62	484.76
500.98	488.65
501.34	492.37
501.71	496.20
502.07	500.09
502.43	503.70
502.79	507.74
503.16	511.84
503.52	515.84
503.88	519.74
504.24	523.75
504.60	527.71
504.97	532.10
505.33	536.25
505.69	540.93
506.05	545.06
506.41	549.04
506.78	553.18
507.14	557.34
507.50	561.47
507.86	565.64
508.22	569.71
508.59	573.50
508.95	577.62
509.31	581.76
509.67	585.57
510.03	589.23
510.39	593.01
510.75	596.46
511.12	599.79
511.48	603.67
511.84	607.22
512.20	610.76
512.56	614.03
512.92	617.51
513.28	620.49
513.64	623.94
514.00	627.23
514.37	630.72
514.73	633.84
515.09	637.02
515.45	640.21
515.81	643.11
516.17	646.20
516.53	648.92
516.89	651.68
517.25	654.70
517.61	658.34
517.97	661.50
518.33	664.69
518.69	668.10
519.05	671.43
519.41	674.36
519.77	678.13
520.13	680.96
520.49	683.75
520.85	689.64
521.21	692.89
521.57	695.96
521.93	698.57
522.29	701.69
522.65	704.14
523.01	706.86
523.37	709.51
523.73	712.49
524.09	715.60
524.45	718.22
524.81	720.85
525.17	723.33
525.53	725.98
525.89	728.78
526.25	731.43
526.61	733.60
526.97	736.59
527.33	739.21
527.68	743.38
528.04	746.56
528.40	746.82
528.76	749.83
529.12	753.23
529.48	757.00
529.84	760.07
530.20	764.17
530.56	767.93
530.91	772.26
531.27	776.03
531.63	779.80
531.99	783.72
532.35	787.94
532.71	792.15
533.07	796.38
533.42	801.57
533.78	805.93
534.14	810.55
534.50	814.59
534.86	819.11
535.21	822.31
535.57	826.84
535.93	831.09
536.29	835.81
536.65	840.34
537.00	844.50
537.36	848.97
537.72	853.20
538.08	857.99
538.44	861.97
538.79	866.63
539.15	871.14
539.51	875.95
539.87	880.28
540.22	884.36
540.58	888.96
540.94	891.89
541.29	895.89
541.65	899.75
542.01	904.32
542.37	907.77
542.72	911.89
543.08	915.61
543.44	919.88
543.79	923.40
544.15	927.45
544.51	932.01
544.87	936.16
545.22	939.68
545.58	943.03
545.94	946.87
546.29	950.22
546.65	953.59
547.01	956.92
547.36	960.61
547.72	964.19
548.07	967.37
548.43	971.09
548.79	974.45
549.14	978.18
549.50	981.63
549.86	985.15
550.21	988.76
550.57	992.45
550.92	995.43
551.28	998.74
551.64	1001.87
551.99	1004.66
552.35	1007.72
552.70	1011.17
553.06	1014.53
553.41	1017.61
553.77	1021.17
554.13	1024.39
554.48	1027.68
554.84	1030.82
555.19	1034.11
555.55	1037.94
555.90	1040.69
556.26	1043.45
556.61	1045.49
556.97	1047.42
557.32	1049.89
557.68	1052.39
558.03	1054.64
558.39	1057.35
558.74	1059.57
559.10	1061.62
559.45	1063.71
559.81	1065.64
560.16	1067.15
560.52	1068.92
560.87	1071.00
561.23	1072.44
561.58	1074.98
561.94	1076.41
562.29	1077.59
562.64	1078.85
563.00	1079.34
563.35	1080.83
563.71	1082.62
564.06	1084.46
564.42	1085.88
564.77	1087.55
565.12	1089.36
565.48	1091.57
565.83	1093.25
566.19	1094.81
566.54	1095.96
566.89	1097.14
567.25	1098.78
567.60	1101.09
567.96	1103.33
568.31	1104.92
568.66	1106.34
569.02	1106.35
569.37	1107.31
569.72	1108.48
570.08	1108.80
570.43	1109.30
570.78	1109.91
571.14	1110.07
571.49	1110.20
571.84	1110.71
572.20	1110.76
572.55	1110.03
572.90	1108.87
573.26	1108.37
573.61	1107.68
573.96	1107.05
574.31	1106.16
574.67	1105.08
575.02	1103.27
575.37	1100.89
575.72	1099.06
576.08	1097.66
576.43	1096.07
576.78	1094.60
577.13	1092.78
577.49	1091.51
577.84	1090.48
578.19	1089.17
578.54	1087.69
578.90	1086.49
579.25	1085.23
579.60	1083.66
579.95	1082.06
580.30	1080.47
580.66	1078.00
581.01	1075.86
581.36	1073.71
581.71	1071.81
582.06	1070.09
582.42	1068.23
582.77	1066.35
583.12	1064.61
583.47	1062.59
583.82	1061.02
584.17	1058.99
584.53	1057.70
584.88	1055.66
585.23	1053.33
585.58	1050.41
585.93	1047.67
586.28	1045.05
586.63	1041.91
586.98	1039.20
587.34	1036.70
587.69	1034.05
588.04	1031.94
588.39	1029.96
588.74	1027.50
589.09	1025.14
589.44	1021.78
589.79	1019.26
590.14	1016.97
590.49	1014.25
590.84	1011.50
591.19	1009.10
591.54	1006.26
591.89	1002.78
592.25	1000.98
592.60	998.16
592.95	995.59
593.30	993.36
593.65	990.37
594.00	987.49
594.35	986.95
594.70	983.73
595.05	980.71
595.40	977.63
595.75	974.13
596.10	971.22
596.45	968.20
596.80	965.69
597.15	962.60
597.50	959.09
597.85	956.18
598.19	952.87
598.54	949.11
598.89	945.62
599.24	942.56
599.59	938.49
599.94	935.13
600.29	931.91
600.64	928.47
600.99	925.28
601.34	922.53
601.69	916.82
602.04	913.62
602.39	910.54
602.74	907.66
603.08	904.70
603.43	901.92
603.78	898.55
604.13	895.19
604.48	891.69
604.83	888.54
605.18	884.96
605.53	881.68
605.87	878.59
606.22	875.86
606.57	872.74
606.92	869.32
607.27	865.91
607.62	862.58
607.96	859.41
608.31	856.28
608.66	852.98
609.01	849.55
609.36	846.37
609.70	842.92
610.05	839.10
610.40	835.62
610.75	831.77
611.10	828.37
611.44	824.86
611.79	821.36
612.14	817.95
612.49	814.32
612.83	811.00
613.18	807.33
613.53	803.89
613.88	799.98
614.22	796.34
614.57	792.70
614.92	789.16
615.27	785.80
615.61	782.24
615.96	778.59
616.31	775.14
616.65	771.97
617.00	768.51
617.35	765.37
617.70	761.90
618.04	758.65
618.39	755.33
618.74	752.24
619.08	749.22
619.43	745.71
619.78	742.22
620.12	738.59
620.47	735.49
620.82	731.68
621.16	728.41
621.51	725.64
621.85	722.39
622.20	719.26
622.55	715.66
622.89	712.36
623.24	709.26
623.59	706.00
623.93	702.59
624.28	699.31
624.62	696.86
624.97	694.17
625.32	690.80
625.66	687.52
626.01	684.09
626.35	680.83
626.70	677.57
627.04	674.59
627.39	671.41
627.73	668.47
628.08	665.65
628.43	662.40
628.77	658.74
629.12	655.97
629.46	653.08
629.81	650.40
630.15	647.39
630.50	644.37
630.84	641.39
631.19	638.39
631.53	635.50
631.88	631.43
632.22	628.12
632.57	625.62
632.91	622.72
633.26	619.89
633.60	616.83
633.95	614.09
634.29	610.91
634.64	608.05
634.98	604.85
635.32	601.97
635.67	599.65
636.01	597.08
636.36	594.04
636.70	591.51
637.05	588.57
637.39	585.83
637.73	583.17
638.08	580.73
638.42	577.93
638.77	575.20
639.11	572.44
639.45	569.34
639.80	566.14
640.14	563.36
640.49	560.68
640.83	558.15
641.17	555.72
641.52	553.24
641.86	550.70
642.20	548.62
642.55	545.96
642.89	543.24
643.23	540.71
643.58	538.53
643.92	535.52
644.26	533.00
644.61	530.77
644.95	528.30
645.29	525.51
645.64	523.31
645.98	520.90
646.32	518.83
646.66	516.27
647.01	513.84
647.35	511.64
647.69	509.45
648.04	507.37
648.38	505.07
648.72	502.95
649.06	500.49
649.41	497.70
649.75	495.31
650.09	493.10
650.43	490.82
650.78	488.22
651.12	485.83
651.46	483.55
651.80	481.22
652.14	478.85
652.49	477.11
652.83	474.72
653.17	472.69
653.51	470.34
653.85	468.63
654.20	466.85
654.54	464.55
654.88	462.19
655.22	460.13
655.56	457.97
655.90	455.80
656.25	453.89
656.59	451.99
656.93	450.23
657.27	448.60
657.61	446.32
657.95	444.52
658.29	442.74
658.64	440.87
658.98	438.74
659.32	436.68
659.66	434.40
660.00	432.67
660.34	430.57
660.68	428.70
661.02	426.79
661.36	424.68
661.70	422.95
662.05	421.18
662.39	419.42
662.73	417.83
663.07	416.65
663.41	415.00
663.75	413.26
664.09	411.50
664.43	409.34
664.77	407.87
665.11	405.99
665.45	404.39
665.79	402.76
666.13	401.21
666.47	399.52
666.81	397.87
667.15	395.90
667.49	394.45
667.83	393.35
668.17	391.81
668.51	390.36
668.85	388.82
669.19	387.66
669.53	385.93
669.87	384.17
670.21	382.36
670.55	380.86
670.89	379.88
671.23	378.35
671.57	376.84
671.91	375.57
672.25	374.26
672.58	373.16
672.92	371.54
673.26	370.19
673.60	369.06
673.94	367.91
674.28	366.80
674.62	365.56
674.96	364.02
675.30	362.81
675.64	361.55
675.97	360.29
676.31	358.65
676.65	357.25
676.99	356.34
677.33	354.87
677.67	353.75
678.01	352.04
678.34	350.89
678.68	349.91
679.02	348.51
679.36	347.31
679.70	345.98
680.04	344.94
680.37	343.95
680.71	342.75
681.05	341.67
681.39	340.71
681.73	339.70
682.06	338.51
682.40	337.49
682.74	336.53
683.08	335.94
683.42	335.01
683.75	334.25
684.09	333.08
684.43	332.34
684.77	331.12
685.10	330.24
685.44	329.35
685.78	328.28
686.12	327.39
686.45	326.55
686.79	325.58
687.13	324.91
687.46	323.83
687.80	323.19
688.14	322.14
688.48	321.27
688.81	320.26
689.15	319.66
689.49	318.61
689.82	317.83
690.16	316.52
690.50	315.69
690.83	314.59
691.17	313.56
691.51	312.62
691.84	312.04
692.18	311.10
692.52	310.18
692.85	309.55
693.19	309.15
693.52	308.24
693.86	307.33
694.20	306.39
694.53	305.65
694.87	304.62
695.21	303.83
695.54	302.99
695.88	302.12
696.21	301.05
696.55	300.32
696.88	299.38
697.22	298.59
697.56	297.88
697.89	297.06
698.23	296.63
698.56	295.80
698.90	295.11
699.23	294.51
699.57	293.99
699.90	293.09
700.24	292.01
700.58	291.48
700.91	290.95
701.25	290.98
701.58	290.98
701.92	290.59
702.25	290.02
702.59	289.30
702.92	288.78
703.26	288.22
703.59	287.73
703.93	287.99
704.26	287.48
704.60	287.03
704.93	286.60
705.26	285.67
705.60	285.28
705.93	284.50
706.27	284.13
706.60	283.71
706.94	283.61
707.27	283.14
707.61	282.70
707.94	282.11
708.27	280.93
708.61	279.77
708.94	279.07
709.28	278.67
709.61	278.13
709.94	277.63
710.28	277.00
710.61	276.43
710.95	275.09
711.28	275.25
711.61	274.56
711.95	274.27
712.28	273.82
712.61	273.30
712.95	273.36
713.28	273.07
713.61	272.39
713.95	271.63
714.28	271.13
714.61	270.57
714.95	270.01
715.28	269.37
715.61	268.86
715.95	268.55
716.28	267.98
716.61	267.69
716.95	267.22
717.28	266.92
717.61	266.50
717.94	266.00
718.28	264.79
718.61	264.43
718.94	263.91
719.27	263.59
719.61	263.20
719.94	262.56
720.27	261.71
720.60	261.26
720.94	260.93
721.27	260.75
721.60	260.51
721.93	260.28
722.27	260.21
722.60	260.02
722.93	259.58
723.26	259.38
723.59	258.98
723.93	258.71
724.26	258.50
724.59	258.21
724.92	258.09
725.25	258.17
725.59	257.86
725.92	257.58
726.25	257.25
726.58	257.10
726.91	256.77
727.24	256.78
727.57	256.59
727.91	256.13
728.24	255.91
728.57	255.50
728.90	255.36
729.23	254.91
729.56	255.12
729.89	254.91
730.22	254.59
730.55	254.26
730.89	253.93
731.22	253.55
731.55	253.28
731.88	252.95
732.21	252.55
732.54	252.23
732.87	252.05
733.20	251.91
733.53	251.68
733.86	251.56
734.19	251.18
734.52	251.10
734.85	251.56
735.18	251.06
735.51	251.20
735.84	251.03
736.17	251.02
736.50	250.18
736.83	251.05
737.16	250.83
737.49	250.77
737.82	250.71
738.15	250.69
738.48	250.37
738.81	250.19
739.14	249.76
739.47	249.59
739.80	249.27
740.13	249.18
740.46	248.79
740.79	248.42
741.12	248.17
741.45	247.80
741.78	247.17
742.11	247.30
742.44	246.86
742.77	246.71
743.10	246.45
743.43	246.40
743.75	245.20
744.08	246.36
744.41	246.09
744.74	245.77
745.07	245.35
745.40	245.40
745.73	245.66
746.06	245.63
746.39	245.67
746.71	245.53
747.04	245.34
747.37	245.26
747.70	245.36
748.03	245.38
748.36	245.40
748.68	245.27
749.01	244.91
749.34	244.77
749.67	244.59
750.00	244.56
750.33	245.15
750.65	245.08
750.98	243.58
751.31	243.38
751.64	243.33
751.97	243.78
752.29	243.54
752.62	243.00
752.95	242.77
753.28	242.40
753.60	242.28
753.93	242.31
754.26	242.24
754.59	241.81
754.91	241.55
755.24	241.32
755.57	241.13
755.90	240.96
756.22	240.78
756.55	240.49
756.88	240.15
757.20	239.30
757.53	238.96
757.86	238.92
758.19	238.89
758.51	238.77
758.84	238.06
759.17	237.83
759.49	237.72
759.82	238.27
760.15	238.20
760.47	238.05
760.80	237.70
761.13	237.62
761.45	237.37
761.78	237.17
762.11	237.10
762.43	236.74
762.76	236.66
763.08	236.70
763.41	236.74
763.74	236.77
764.06	236.66
764.39	236.59
764.71	236.49
765.04	236.35
765.37	236.19
765.69	236.23
766.02	236.18
766.34	236.02
766.67	235.45
767.00	235.58
767.32	235.97
767.65	236.44
767.97	236.27
768.30	236.30
768.62	236.25
768.95	236.07
769.27	236.14
769.60	236.19
769.92	235.80
770.25	235.59
770.57	235.41
770.90	235.42
771.22	235.31
771.55	235.27
771.87	235.27
772.20	235.15
772.52	235.96
772.85	237.09
773.17	237.10
773.50	237.00
773.82	236.81
774.15	236.30
774.47	235.57
774.80	235.39
775.12	235.42
775.45	235.38
775.77	235.33
776.09	235.36
776.42	235.32
776.74	235.67
777.07	235.50
777.39	235.38
777.72	235.21
778.04	235.29
778.36	235.13
778.69	235.13
779.01	235.17
779.33	234.31
779.66	233.12
779.98	233.03
780.31	232.96
780.63	233.35
780.95	233.59
781.28	233.51
781.60	233.47
781.92	233.37
782.25	233.41
782.57	233.40
782.89	233.24
783.22	233.10
783.54	232.84
783.86	232.95
784.19	232.88
784.51	233.18
784.83	232.94
785.16	232.87
785.48	232.71
785.80	232.68
786.12	232.64
786.45	232.60
786.77	232.56
787.09	232.57
787.42	232.18
787.74	232.07
788.06	232.18
788.38	232.04
788.71	231.83
789.03	231.86
789.35	231.99
789.67	231.83
789.99	231.81
790.32	231.66
790.64	231.77
790.96	232.44
791.28	232.09
791.61	231.99
791.93	232.05
792.25	231.99
792.57	232.70
792.89	232.48
793.21	232.62
793.54	232.60
793.86	232.45
794.18	232.44
794.50	232.25
794.82	232.28
795.14	232.39
795.47	232.64
795.79	232.50
796.11	232.23
796.43	232.21
796.75	232.22
797.07	232.27
797.39	232.00
797.71	231.29
798.04	231.17
798.36	231.30
798.68	231.27
799.00	231.30
799.32	230.65
799.64	230.78
799.96	230.59
800.28	230.68
800.60	230.64
800.92	230.69
801.24	230.63
801.56	230.69
801.89	230.70
802.21	230.70
802.53	230.52
802.85	230.70
803.17	231.22
803.49	231.01
803.81	230.92
804.13	231.07
804.45	231.02
804.77	231.15
805.09	231.14
805.41	230.99
805.73	230.77
806.05	230.64
806.37	230.65
806.69	230.55
807.01	230.40
807.33	230.43
807.65	230.09
807.97	230.49
808.28	230.29
808.60	230.27
808.92	230.07
809.24	230.69
809.56	230.54
809.88	230.07
810.20	230.11
810.52	230.29
810.84	230.02
811.16	229.98
811.48	229.94
811.80	230.25
812.12	230.25
812.43	230.53
812.75	230.51
813.07	230.38
813.39	230.47
813.71	230.37
814.03	230.35
814.35	230.37
814.67	230.00
814.98	229.89
815.30	229.93
815.62	229.80
815.94	229.14
816.26	229.55
816.58	229.46
816.89	229.46
817.21	229.22
817.53	229.36
817.85	229.40
818.17	229.32
818.48	228.95
818.80	229.16
819.12	229.08
819.44	228.94
819.76	228.90
820.07	228.90
820.39	228.99
820.71	229.07
821.03	229.14
821.34	229.03
821.66	229.16
821.98	229.15
822.30	229.15
822.61	229.70
822.93	229.23
823.25	229.26
823.57	229.28
823.88	229.58
824.20	229.49
824.52	229.58
824.83	229.56
825.15	229.49
825.47	229.33
825.79	229.32
826.10	229.32
826.42	229.24
826.74	229.35
827.05	229.26
827.37	229.24
827.69	229.16
828.00	229.27
828.32	229.29
828.64	229.20
828.95	229.68
829.27	229.39
829.58	229.44
829.90	229.48
830.22	229.48
830.53	229.18
830.85	229.19
831.17	228.94
831.48	229.01
831.80	229.06
832.11	229.03
832.43	228.99
832.75	228.98
833.06	229.50
833.38	229.27
833.69	229.17
834.01	229.17
834.32	229.12
834.64	229.01
834.96	229.00
835.27	229.05
835.59	228.73
835.90	228.60
836.22	228.62
836.53	228.51
836.85	228.44
837.16	229.37
837.48	229.31
837.79	229.63
838.11	229.69
838.42	229.61
838.74	229.78
839.05	229.63
839.37	229.53
839.68	229.00
840.00	228.96
840.31	229.19
840.63	229.05
840.94	228.97
841.26	228.85
841.57	228.81
841.88	228.90
842.20	228.85
842.51	228.65
842.83	228.55
843.14	229.39
843.46	229.49
843.77	228.92
844.08	228.84
844.40	228.51
844.71	228.17
845.03	228.13
845.34	227.85
845.65	227.89
845.97	227.91
846.28	228.01
846.60	228.06
846.91	227.79
847.22	227.80
847.54	227.95
847.85	227.95
848.16	227.89
848.48	227.64
848.79	228.00
849.10	228.26
849.42	228.29
849.73	227.36
850.04	227.18
850.36	226.79
850.67	227.00
850.98	227.01
851.30	227.27
851.61	227.22
851.92	227.30
852.23	227.56
852.55	227.60
852.86	227.60
853.17	227.63
853.49	227.89
853.80	228.09
854.11	228.19
854.42	228.37
854.74	228.24
855.05	228.25
855.36	227.75
855.67	227.66
855.99	227.66
856.30	228.81
856.61	228.86
856.92	229.00
857.23	228.96
857.55	229.03
857.86	228.95
858.17	229.17
858.48	229.04
858.79	228.90
859.11	229.00
859.42	228.84
859.73	228.71
860.04	228.67
860.35	228.41
860.66	228.16
860.98	228.14
861.29	228.33
861.60	228.36
861.91	228.58
862.22	228.48
862.53	228.32
862.84	227.24
863.16	227.53
863.47	227.36
863.78	227.33
864.09	227.33
864.40	227.42
864.71	227.41
865.02	227.53
865.33	227.41
865.64	227.30
865.95	227.38
866.27	228.11
866.58	228.00
866.89	228.11
867.20	228.11
867.51	228.00
867.82	227.95
868.13	228.24
868.44	228.05
868.75	228.30
869.06	228.50
869.37	228.60
869.68	228.27
869.99	228.43
870.30	228.34
870.61	228.48
870.92	228.39
871.23	228.29
871.54	228.35
871.85	228.59
872.16	228.74
872.47	228.68
872.78	228.00
873.09	228.20
873.40	228.11
873.71	228.20
874.02	228.21
874.33	228.09
874.64	227.72
874.95	227.81
875.26	227.64
875.56	227.46
875.87	227.30
876.18	227.36
876.49	228.31
876.80	228.38
877.11	228.22
877.42	228.18
877.73	228.27
878.04	228.12
878.35	228.07
878.66	227.99
878.96	227.99
879.27	228.10
879.58	228.00
879.89	227.98
880.20	228.25
880.51	228.16
880.82	228.21
881.12	228.30
881.43	228.27
881.74	228.15
882.05	228.17
882.36	228.28
882.67	228.27
882.97	227.23
883.28	227.10
883.59	227.05
883.90	227.15
884.21	227.20
884.51	227.27
884.82	227.11
885.13	227.06
885.44	227.00
885.74	226.87
886.05	226.80
886.36	226.78
886.67	226.43
886.98	226.98
887.28	227.09
887.59	227.18
887.90	227.10
888.20	227.01
888.51	227.18
888.82	227.04
889.13	227.12
889.43	227.90
889.74	227.85
890.05	227.85
890.35	227.72
890.66	227.55
890.97	227.37
891.28	227.31
891.58	227.37
891.89	227.35
892.20	227.24
892.50	227.19
892.81	227.12
893.12	227.06
893.42	226.57
893.73	226.54
894.04	226.43
894.34	226.50
894.65	226.58
894.95	226.42
895.26	226.61
895.57	226.95
895.87	226.09
896.18	226.28
896.48	226.32
896.79	226.37
897.10	226.60
897.40	226.65
897.71	226.77
898.01	226.67
898.32	226.80
898.63	226.77
898.93	226.78
899.24	226.80
899.54	226.82
899.85	226.87
900.15	226.81
900.46	226.85
900.76	226.90
901.07	226.89
901.38	226.94
901.68	226.97
901.99	226.59
902.29	226.78
902.60	226.70
902.90	226.60
903.21	226.59
903.51	226.39
903.82	226.65
904.12	226.71
904.43	226.83
904.73	226.89
905.03	227.12
905.34	228.15
905.64	228.23
905.95	228.25
906.25	228.10
906.56	228.05
906.86	228.10
907.17	228.08
907.47	228.16
907.77	228.10
908.08	227.87
908.38	227.98
908.69	228.00
908.99	228.32
909.30	228.48
909.60	228.50
909.90	228.61
910.21	228.40
910.51	228.19
910.81	228.19
911.12	228.20
911.42	228.27
911.73	227.23
912.03	227.28
912.33	227.45
912.64	227.62
912.94	227.59
913.24	227.43
913.55	227.47
913.85	227.37
914.15	227.53
914.46	227.75
914.76	227.58
915.06	227.45
915.37	227.25
915.67	227.12
915.97	227.17
916.27	226.92
916.58	227.00
916.88	227.00
917.18	226.99
917.49	227.65
917.79	227.54
918.09	227.67
918.39	227.81
918.70	227.76
919.00	227.69
919.30	228.23
919.60	228.28
919.91	228.09
920.21	228.11
920.51	227.93
920.81	227.79
921.12	228.05
921.42	228.00
921.72	228.11
922.02	228.21
922.32	228.42
922.63	228.59
922.93	229.00
923.23	229.15
923.53	229.00
923.83	228.35
924.13	228.35
924.44	228.40
924.74	228.54
925.04	228.80
925.34	228.86
925.64	228.38
925.94	228.35
926.24	228.88
926.55	228.92
926.85	229.00
927.15	229.11
927.45	229.05
927.75	229.06
928.05	228.95
928.35	228.86
928.65	228.92
928.95	228.94
929.26	228.59
929.56	228.70
929.86	228.90
930.16	228.81
930.46	228.77
930.76	228.66
931.06	228.27
931.36	227.96
931.66	228.09
931.96	228.20
932.26	228.24
932.56	227.91
932.86	227.90
933.16	227.97
933.46	227.86
933.76	227.60
934.06	227.89
934.36	228.22
934.66	228.09
934.96	227.90
935.26	227.95
935.56	228.11
935.86	227.93
936.16	227.80
936.46	227.80
936.76	227.83
937.06	227.79
937.36	227.90
937.66	227.99
937.96	227.90
938.26	227.83
938.56	227.86
938.86	227.88
939.16	228.20
939.46	228.24
939.76	228.27
940.06	228.40
940.35	228.06
940.65	227.63
940.95	227.82
941.25	227.67
941.55	227.57
941.85	227.49
942.15	227.66
942.45	227.91
942.75	227.80
943.04	227.77
943.34	227.96
943.64	227.81
943.94	227.61
944.24	227.64
944.54	227.55
944.84	227.56
945.13	227.51
945.43	227.20
945.73	227.11
946.03	227.00
946.33	226.91
946.62	226.92
946.92	226.79
947.22	226.88
947.52	226.88
947.82	227.02
948.11	226.91
948.41	226.68
948.71	226.45
949.01	226.62
949.31	226.60
949.60	226.53
949.90	226.81
950.20	226.79
950.50	226.74
950.79	226.72
951.09	226.78
951.39	226.69
951.69	226.60
951.98	226.81
952.28	226.90
952.58	226.83
952.87	226.82
953.17	227.00
953.47	226.87
953.76	226.93
954.06	226.72
954.36	226.59
954.66	226.59
954.95	226.88
955.25	226.83
955.55	226.97
955.84	226.73
956.14	226.70
956.44	226.84
956.73	226.69
957.03	226.88
957.32	226.92
957.62	226.94
957.92	227.17
958.21	227.02
958.51	227.97
958.81	228.14
959.10	228.27
959.40	228.56
959.69	228.64
959.99	228.76
960.29	228.76
960.58	228.68
960.88	229.10
961.17	228.83
961.47	228.99
961.76	228.79
962.06	228.98
962.36	228.91
962.65	228.93
962.95	229.00
963.24	228.70
963.54	228.71
963.83	228.68
964.13	228.58
964.42	228.35
964.72	227.72
965.01	227.73
965.31	227.61
965.60	227.33
965.90	227.87
966.19	227.62
966.49	227.70
966.78	227.69
967.08	227.52
967.37	227.66
967.67	227.36
967.96	227.61
968.26	227.66
968.55	227.77
968.85	227.68
969.14	227.74
969.43	227.79
969.73	227.63
970.02	227.62
970.32	227.69
970.61	227.68
970.91	227.40
971.20	227.17
971.49	227.12
971.79	227.15
972.08	226.49
972.38	226.66
972.67	226.55
972.96	226.75
973.26	226.57
973.55	226.76
973.85	226.76
974.14	226.62
974.43	226.59
974.73	226.34
975.02	226.30
975.31	226.26
975.61	226.30
975.90	226.30
976.19	226.19
976.49	226.16
976.78	226.26
977.07	226.22
977.37	226.36
977.66	226.45
977.95	226.38
978.24	226.49
978.54	226.60
978.83	226.53
979.12	226.50
979.42	226.49
979.71	226.27
980.00	226.28
980.29	226.27
980.59	226.08
980.88	226.43
981.17	226.41
981.46	226.40
981.76	226.38
982.05	226.61
982.34	226.68
982.63	226.60
982.93	226.64
983.22	226.85
983.51	226.89
983.80	227.04
984.09	227.06
984.39	226.92
984.68	226.69
984.97	226.82
985.26	226.67
985.55	226.71
985.85	226.53
986.14	226.70
986.43	226.83
986.72	226.83
987.01	226.44
987.30	226.45
987.59	226.35
987.89	226.37
988.18	226.13
988.47	226.10
988.76	226.11
989.05	226.05
989.34	225.91
989.63	226.08
989.92	226.02
990.22	225.95
990.51	225.91
990.80	225.93
991.09	226.07
991.38	226.17
991.67	226.12
991.96	226.12
992.25	226.07
992.54	225.91
992.83	225.97
993.12	225.97
993.41	226.19
993.70	226.60
993.99	226.83
994.28	226.91
994.58	227.15
994.87	227.09
995.16	227.00
995.45	226.92
995.74	226.71
996.03	226.73
996.32	226.85
996.61	227.13
996.90	227.15
997.19	227.10
997.48	227.15
997.77	227.05
998.06	227.11
998.34	227.05
998.63	227.12
998.92	227.04
999.21	227.21
999.50	227.13
999.79	226.89
1000.08	226.77
1000.37	226.96
1000.66	226.66
1000.95	226.84
1001.24	227.01
1001.53	227.14
1001.82	227.15
1002.11	226.96
1002.40	227.10
1002.68	227.27
1002.97	228.00
1003.26	227.88
1003.55	227.75
1003.84	227.98
1004.13	228.30
1004.42	228.25
1004.71	228.16
1004.99	228.23
1005.28	228.47
1005.57	228.40
1005.86	228.25
1006.15	228.23
1006.44	227.87
1006.72	228.03
1007.01	227.87
1007.30	227.82
1007.59	227.66
1007.88	227.64
1008.17	227.70
1008.45	227.49
1008.74	227.13
1009.03	226.61
1009.32	226.64
1009.60	226.63
1009.89	226.42
1010.18	225.96
1010.47	225.96
1010.76	225.95
1011.04	225.88
1011.33	225.86
1011.62	225.93
1011.91	226.03
1012.19	226.00
1012.48	226.12
1012.77	226.10
1013.05	226.58
1013.34	226.48
1013.63	226.50
1013.92	226.39
1014.20	226.38
1014.49	226.35
1014.78	226.40
1015.06	226.05
1015.35	225.88
1015.64	226.04
1015.92	226.16
1016.21	226.17
1016.50	226.18
1016.78	226.30
1017.07	226.36
1017.36	226.13
1017.64	226.04
1017.93	226.06
1018.22	226.03
1018.50	225.98
1018.79	226.02
1019.08	225.54
1019.36	225.65
1019.65	225.56
1019.93	226.00
1020.22	226.10
1020.51	226.65
1020.79	226.51
1021.08	225.30
1021.36	224.70
1021.65	227.40
1021.94	225.60
1022.22	226.90
1022.51	223.60
1022.79	232.30
1023.08	227.70
1023.36	237.70
1023.65	223.30
>>>>>End Processed Spectral Data<<<<<
