SpectraSuite Data File
++++++++++++++++++++++++++++++++++++
Date: Wed Sep 04 17:33:49 EDT 2013
User: lab3
Dark Spectrum Present: Yes
Reference Spectrum Present: No
Number of Sampled Component Spectra: 1
Spectrometers: USB2E7196
Integration Time (usec): 337000 (USB2E7196)
Spectra Averaged: 10 (USB2E7196)
Boxcar Smoothing: 10 (USB2E7196)
Correct for Electrical Dark: No (USB2E7196)
Strobe/Lamp Enabled: No (USB2E7196)
Correct for Detector Non-linearity: No (USB2E7196)
Correct for Stray Light: No (USB2E7196)
Number of Pixels in Processed Spectrum: 2048
>>>>>Begin Processed Spectral Data<<<<<
339.09	0.00
339.48	212.40
339.86	213.10
340.24	215.00
340.63	217.40
341.01	233.90
341.39	219.50
341.78	222.70
342.16	226.20
342.54	224.10
342.93	213.10
343.31	223.84
343.69	224.48
344.07	225.01
344.46	225.60
344.84	226.03
345.22	225.66
345.60	225.98
345.99	226.20
346.37	226.20
346.75	226.32
347.13	226.49
347.52	226.74
347.90	227.05
348.28	227.12
348.66	227.36
349.05	227.02
349.43	227.10
349.81	227.20
350.19	227.27
350.57	227.35
350.96	227.64
351.34	227.70
351.72	227.76
352.10	227.91
352.48	227.85
352.87	227.92
353.25	227.92
353.63	227.93
354.01	227.94
354.39	228.11
354.77	228.16
355.15	228.39
355.54	228.26
355.92	228.08
356.30	228.16
356.68	228.89
357.06	229.00
357.44	228.93
357.82	228.85
358.20	229.69
358.58	229.68
358.97	229.65
359.35	229.89
359.73	230.10
360.11	230.17
360.49	230.35
360.87	230.34
361.25	230.67
361.63	231.00
362.01	231.16
362.39	231.07
362.77	231.24
363.15	231.27
363.53	231.20
363.91	231.15
364.29	231.22
364.67	230.25
365.05	230.37
365.43	230.48
365.81	230.70
366.19	230.40
366.57	230.87
366.95	230.76
367.33	230.61
367.71	230.61
368.09	230.77
368.47	230.77
368.85	230.78
369.23	230.82
369.61	230.52
369.99	230.73
370.37	230.95
370.75	231.30
371.13	231.09
371.51	231.10
371.89	231.32
372.27	231.35
372.65	231.33
373.03	231.25
373.41	231.17
373.78	231.01
374.16	230.52
374.54	230.19
374.92	230.21
375.30	230.19
375.68	229.90
376.06	229.86
376.44	229.67
376.82	229.67
377.19	229.51
377.57	229.50
377.95	229.15
378.33	229.00
378.71	228.42
379.09	228.54
379.47	228.56
379.84	228.37
380.22	228.21
380.60	228.02
380.98	227.97
381.36	227.91
381.73	227.85
382.11	228.02
382.49	228.03
382.87	227.90
383.25	227.74
383.62	228.88
384.00	228.60
384.38	228.63
384.76	228.84
385.13	229.13
385.51	229.09
385.89	229.00
386.27	228.92
386.64	229.04
387.02	228.90
387.40	228.77
387.78	228.87
388.15	228.87
388.53	228.97
388.91	229.02
389.29	228.92
389.66	228.99
390.04	228.87
390.42	229.01
390.79	229.06
391.17	229.14
391.55	228.07
391.92	228.15
392.30	228.26
392.68	227.96
393.05	227.94
393.43	228.00
393.81	228.01
394.18	227.94
394.56	227.98
394.94	228.27
395.31	228.31
395.69	228.50
396.06	228.70
396.44	228.74
396.82	228.56
397.19	229.18
397.57	229.15
397.95	229.29
398.32	229.02
398.70	229.18
399.07	229.51
399.45	229.56
399.82	229.60
400.20	229.59
400.58	229.68
400.95	229.38
401.33	229.74
401.70	230.54
402.08	230.65
402.45	230.77
402.83	231.02
403.20	231.23
403.58	231.32
403.95	231.65
404.33	231.87
404.71	232.21
405.08	232.85
405.46	233.14
405.83	233.44
406.21	233.71
406.58	234.09
406.96	234.37
407.33	234.91
407.70	235.45
408.08	236.61
408.45	237.32
408.83	238.11
409.20	238.43
409.58	238.43
409.95	239.38
410.33	240.11
410.70	240.56
411.08	241.47
411.45	242.20
411.82	242.87
412.20	244.15
412.57	245.71
412.95	245.86
413.32	247.09
413.69	248.13
414.07	249.45
414.44	250.83
414.82	252.12
415.19	253.64
415.56	255.19
415.94	256.49
416.31	258.40
416.68	260.36
417.06	262.65
417.43	265.00
417.81	267.34
418.18	269.78
418.55	272.39
418.93	275.05
419.30	278.01
419.67	281.24
420.04	284.13
420.42	287.10
420.79	291.60
421.16	295.44
421.54	299.82
421.91	303.98
422.28	308.14
422.66	312.69
423.03	317.73
423.40	322.50
423.77	327.24
424.15	332.19
424.52	337.39
424.89	343.18
425.26	348.61
425.64	353.85
426.01	359.70
426.38	365.88
426.75	372.31
427.13	378.71
427.50	385.04
427.87	392.00
428.24	398.78
428.61	404.72
428.99	412.34
429.36	419.73
429.73	427.50
430.10	435.20
430.47	443.22
430.85	450.85
431.22	459.34
431.59	469.19
431.96	477.82
432.33	487.33
432.70	496.42
433.08	507.40
433.45	517.60
433.82	527.70
434.19	539.18
434.56	550.47
434.93	561.07
435.30	571.97
435.68	583.95
436.05	595.76
436.42	607.61
436.79	618.09
437.16	629.88
437.53	641.98
437.90	654.13
438.27	666.08
438.64	678.47
439.01	690.14
439.38	699.84
439.75	709.96
440.13	721.37
440.50	732.11
440.87	740.77
441.24	749.85
441.61	759.91
441.98	767.04
442.35	775.30
442.72	783.99
443.09	792.58
443.46	797.50
443.83	800.88
444.20	803.58
444.57	807.57
444.94	809.12
445.31	811.00
445.68	813.67
446.05	814.02
446.42	812.40
446.79	810.72
447.16	808.67
447.53	807.10
447.90	801.86
448.27	796.82
448.64	789.92
449.01	785.02
449.37	776.73
449.74	768.35
450.11	759.19
450.48	748.36
450.85	736.98
451.22	727.58
451.59	718.66
451.96	710.15
452.33	698.96
452.70	688.86
453.07	676.71
453.43	663.53
453.80	651.86
454.17	640.72
454.54	629.76
454.91	618.45
455.28	607.32
455.65	597.05
456.02	588.21
456.38	579.66
456.75	568.84
457.12	559.50
457.49	550.88
457.86	541.76
458.23	534.80
458.59	526.86
458.96	518.65
459.33	511.45
459.70	504.40
460.07	498.70
460.43	492.28
460.80	486.46
461.17	481.46
461.54	476.01
461.91	470.74
462.27	465.51
462.64	460.99
463.01	456.02
463.38	451.70
463.74	445.43
464.11	441.00
464.48	437.32
464.85	433.45
465.21	430.45
465.58	427.11
465.95	423.00
466.32	420.05
466.68	416.89
467.05	413.76
467.42	410.62
467.78	407.32
468.15	404.35
468.52	402.21
468.88	399.03
469.25	396.40
469.62	394.56
469.98	392.34
470.35	390.21
470.72	388.24
471.08	385.88
471.45	384.30
471.82	382.83
472.18	380.94
472.55	379.73
472.92	377.78
473.28	376.33
473.65	375.02
474.02	373.55
474.38	372.55
474.75	371.66
475.11	370.43
475.48	369.68
475.85	368.70
476.21	367.63
476.58	367.02
476.94	366.50
477.31	365.77
477.67	365.27
478.04	364.85
478.41	364.54
478.77	365.01
479.14	364.40
479.50	364.15
479.87	364.20
480.23	363.93
480.60	363.91
480.96	363.80
481.33	364.28
481.69	364.43
482.06	364.63
482.42	364.76
482.79	365.32
483.15	365.77
483.52	366.62
483.88	367.30
484.25	367.87
484.61	368.72
484.98	369.37
485.34	370.58
485.71	371.71
486.07	373.01
486.44	373.40
486.80	374.93
487.17	376.28
487.53	377.80
487.90	379.53
488.26	381.79
488.62	384.19
488.99	385.85
489.35	388.18
489.72	390.52
490.08	393.14
490.44	395.56
490.81	398.50
491.17	401.24
491.54	404.13
491.90	407.28
492.26	410.56
492.63	414.14
492.99	417.44
493.36	421.43
493.72	425.54
494.08	429.80
494.45	434.30
494.81	439.24
495.17	444.08
495.54	449.40
495.90	454.56
496.26	460.00
496.63	465.98
496.99	471.80
497.35	478.11
497.72	484.50
498.08	491.10
498.44	497.99
498.80	505.36
499.17	513.01
499.53	520.76
499.89	528.89
500.26	537.22
500.62	545.90
500.98	555.07
501.34	564.04
501.71	573.62
502.07	583.38
502.43	593.19
502.79	603.33
503.16	613.79
503.52	624.65
503.88	635.87
504.24	647.59
504.60	659.82
504.97	672.30
505.33	685.07
505.69	698.82
506.05	712.03
506.41	725.54
506.78	739.86
507.14	754.30
507.50	769.25
507.86	784.55
508.22	800.26
508.59	815.64
508.95	832.22
509.31	849.25
509.67	866.26
510.03	883.71
510.39	901.50
510.75	919.58
511.12	937.80
511.48	956.06
511.84	974.69
512.20	993.57
512.56	1012.68
512.92	1032.57
513.28	1052.46
513.64	1073.51
514.00	1094.26
514.37	1114.96
514.73	1136.78
515.09	1158.79
515.45	1180.49
515.81	1202.20
516.17	1224.63
516.53	1246.66
516.89	1268.66
517.25	1291.48
517.61	1315.12
517.97	1338.94
518.33	1362.25
518.69	1386.33
519.05	1410.89
519.41	1435.35
519.77	1460.45
520.13	1485.34
520.49	1509.30
520.85	1536.60
521.21	1561.27
521.57	1586.51
521.93	1611.35
522.29	1636.00
522.65	1659.76
523.01	1684.20
523.37	1708.38
523.73	1733.05
524.09	1757.33
524.45	1781.33
524.81	1805.64
525.17	1829.41
525.53	1853.56
525.89	1878.20
526.25	1902.36
526.61	1925.67
526.97	1949.75
527.33	1974.54
527.68	1999.72
528.04	2024.47
528.40	2046.00
528.76	2070.51
529.12	2094.52
529.48	2118.60
529.84	2141.96
530.20	2166.77
530.56	2190.92
530.91	2215.36
531.27	2238.59
531.63	2262.16
531.99	2286.39
532.35	2309.78
532.71	2333.58
533.07	2357.57
533.42	2380.98
533.78	2404.40
534.14	2428.12
534.50	2450.50
534.86	2472.52
535.21	2492.93
535.57	2514.80
535.93	2535.53
536.29	2556.46
536.65	2577.61
537.00	2598.11
537.36	2618.41
537.72	2637.55
538.08	2657.48
538.44	2677.02
538.79	2696.54
539.15	2715.95
539.51	2735.00
539.87	2752.71
540.22	2768.88
540.58	2786.01
540.94	2801.30
541.29	2815.91
541.65	2830.28
542.01	2845.23
542.37	2858.12
542.72	2871.00
543.08	2882.96
543.44	2896.67
543.79	2907.90
544.15	2919.40
544.51	2931.33
544.87	2942.43
545.22	2952.85
545.58	2962.80
545.94	2971.51
546.29	2979.72
546.65	2987.13
547.01	2993.82
547.36	3000.92
547.72	3008.07
548.07	3013.03
548.43	3019.84
548.79	3025.65
549.14	3031.72
549.50	3037.11
549.86	3042.15
550.21	3047.49
550.57	3053.26
550.92	3055.72
551.28	3058.52
551.64	3061.92
551.99	3064.73
552.35	3068.22
552.70	3071.25
553.06	3074.20
553.41	3076.58
553.77	3079.42
554.13	3082.74
554.48	3085.90
554.84	3088.76
555.19	3092.06
555.55	3095.34
555.90	3096.10
556.26	3097.57
556.61	3097.00
556.97	3095.36
557.32	3096.00
557.68	3095.75
558.03	3095.25
558.39	3095.79
558.74	3096.47
559.10	3094.79
559.45	3092.80
559.81	3089.44
560.16	3085.52
560.52	3081.63
560.87	3079.01
561.23	3074.73
561.58	3070.59
561.94	3064.44
562.29	3058.28
562.64	3051.52
563.00	3043.31
563.35	3037.50
563.71	3031.01
564.06	3025.80
564.42	3020.72
564.77	3015.13
565.12	3009.53
565.48	3003.63
565.83	2996.31
566.19	2989.37
566.54	2982.84
566.89	2975.99
567.25	2969.74
567.60	2964.33
567.96	2958.57
568.31	2951.93
568.66	2945.10
569.02	2937.10
569.37	2930.44
569.72	2924.06
570.08	2916.31
570.43	2908.50
570.78	2900.98
571.14	2893.46
571.49	2884.44
571.84	2876.30
572.20	2866.20
572.55	2856.67
572.90	2845.88
573.26	2836.84
573.61	2826.44
573.96	2815.62
574.31	2803.71
574.67	2792.50
575.02	2779.78
575.37	2766.93
575.72	2754.27
576.08	2742.38
576.43	2729.76
576.78	2716.41
577.13	2702.95
577.49	2690.49
577.84	2679.30
578.19	2667.13
578.54	2654.22
578.90	2642.50
579.25	2630.37
579.60	2618.52
579.95	2605.84
580.30	2593.10
580.66	2579.53
581.01	2565.83
581.36	2552.20
581.71	2540.20
582.06	2527.42
582.42	2515.31
582.77	2502.32
583.12	2490.01
583.47	2477.49
583.82	2465.77
584.17	2453.99
584.53	2442.74
584.88	2429.79
585.23	2416.35
585.58	2402.04
585.93	2388.39
586.28	2374.65
586.63	2359.99
586.98	2345.16
587.34	2331.43
587.69	2318.10
588.04	2305.86
588.39	2293.81
588.74	2281.07
589.09	2268.24
589.44	2254.93
589.79	2242.00
590.14	2229.98
590.49	2217.10
590.84	2204.77
591.19	2192.52
591.54	2179.59
591.89	2166.12
592.25	2156.27
592.60	2144.42
592.95	2132.88
593.30	2120.54
593.65	2107.80
594.00	2095.07
594.35	2085.85
594.70	2073.06
595.05	2060.67
595.40	2046.90
595.75	2033.90
596.10	2022.03
596.45	2009.75
596.80	1997.68
597.15	1985.46
597.50	1972.66
597.85	1960.55
598.19	1947.83
598.54	1934.86
598.89	1922.42
599.24	1910.96
599.59	1897.01
599.94	1884.67
600.29	1872.77
600.64	1861.58
600.99	1849.64
601.34	1838.83
601.69	1824.91
602.04	1814.02
602.39	1802.95
602.74	1792.91
603.08	1782.23
603.43	1771.28
603.78	1760.21
604.13	1749.52
604.48	1738.48
604.83	1727.19
605.18	1715.52
605.53	1704.44
605.87	1693.67
606.22	1684.26
606.57	1673.17
606.92	1662.50
607.27	1651.70
607.62	1641.13
607.96	1630.90
608.31	1621.57
608.66	1611.69
609.01	1601.56
609.36	1591.49
609.70	1581.19
610.05	1570.66
610.40	1560.37
610.75	1549.72
611.10	1539.70
611.44	1528.84
611.79	1518.78
612.14	1509.01
612.49	1499.60
612.83	1490.22
613.18	1480.25
613.53	1470.25
613.88	1460.35
614.22	1450.66
614.57	1441.03
614.92	1431.00
615.27	1421.26
615.61	1410.97
615.96	1401.17
616.31	1391.59
616.65	1382.62
617.00	1373.39
617.35	1364.12
617.70	1354.95
618.04	1345.63
618.39	1336.60
618.74	1328.47
619.08	1319.81
619.43	1310.50
619.78	1300.95
620.12	1291.40
620.47	1282.36
620.82	1272.65
621.16	1263.49
621.51	1254.49
621.85	1246.05
622.20	1237.15
622.55	1228.17
622.89	1219.90
623.24	1211.63
623.59	1202.95
623.93	1193.85
624.28	1185.35
624.62	1177.78
624.97	1169.76
625.32	1162.00
625.66	1153.70
626.01	1144.99
626.35	1136.98
626.70	1129.21
627.04	1121.76
627.39	1113.89
627.73	1106.35
628.08	1099.06
628.43	1091.44
628.77	1083.77
629.12	1076.10
629.46	1069.46
629.81	1062.66
630.15	1055.37
630.50	1048.09
630.84	1040.98
631.19	1034.28
631.53	1027.62
631.88	1019.83
632.22	1012.57
632.57	1006.06
632.91	998.91
633.26	992.25
633.60	985.01
633.95	978.03
634.29	970.57
634.64	963.97
634.98	956.45
635.32	949.77
635.67	943.81
636.01	937.49
636.36	930.79
636.70	924.35
637.05	917.73
637.39	911.65
637.73	905.26
638.08	899.18
638.42	892.47
638.77	885.49
639.11	878.55
639.45	871.80
639.80	864.78
640.14	858.35
640.49	852.17
640.83	846.16
641.17	840.80
641.52	835.33
641.86	829.57
642.20	824.87
642.55	819.19
642.89	813.24
643.23	807.67
643.58	802.58
643.92	796.68
644.26	791.29
644.61	785.86
644.95	780.43
645.29	774.78
645.64	769.92
645.98	764.83
646.32	760.28
646.66	755.17
647.01	750.19
647.35	745.75
647.69	740.82
648.04	736.22
648.38	731.21
648.72	726.43
649.06	721.30
649.41	716.16
649.75	711.12
650.09	706.15
650.43	701.29
650.78	696.37
651.12	691.77
651.46	686.94
651.80	682.17
652.14	677.66
652.49	673.51
652.83	668.80
653.17	664.39
653.51	659.37
653.85	655.38
654.20	651.16
654.54	646.68
654.88	642.46
655.22	638.49
655.56	634.34
655.90	630.26
656.25	626.30
656.59	622.24
656.93	618.39
657.27	614.90
657.61	610.68
657.95	606.77
658.29	602.84
658.64	599.14
658.98	595.36
659.32	591.35
659.66	587.30
660.00	583.40
660.34	579.69
660.68	576.07
661.02	572.29
661.36	568.62
661.70	564.98
662.05	561.59
662.39	558.03
662.73	554.74
663.07	551.85
663.41	548.51
663.75	545.12
664.09	541.95
664.43	538.37
664.77	535.23
665.11	531.90
665.45	528.79
665.79	525.54
666.13	522.29
666.47	519.01
666.81	515.91
667.15	513.01
667.49	510.23
667.83	507.90
668.17	504.96
668.51	502.31
668.85	499.95
669.19	497.62
669.53	494.66
669.87	491.73
670.21	488.60
670.55	485.71
670.89	483.42
671.23	480.70
671.57	477.91
671.91	475.27
672.25	472.76
672.58	470.32
672.92	467.69
673.26	465.29
673.60	463.13
673.94	460.87
674.28	458.48
674.62	455.99
674.96	453.19
675.30	451.07
675.64	448.71
675.97	446.11
676.31	443.14
676.65	440.75
676.99	438.80
677.33	436.46
677.67	434.58
678.01	431.90
678.34	429.66
678.68	427.78
679.02	425.64
679.36	423.73
679.70	421.36
680.04	419.46
680.37	417.28
680.71	415.16
681.05	413.34
681.39	411.34
681.73	409.40
682.06	407.59
682.40	405.66
682.74	403.81
683.08	402.17
683.42	400.38
683.75	398.82
684.09	396.73
684.43	394.98
684.77	393.12
685.10	391.53
685.44	389.83
685.78	387.97
686.12	386.34
686.45	384.31
686.79	382.70
687.13	381.10
687.46	379.55
687.80	378.04
688.14	376.04
688.48	374.48
688.81	372.68
689.15	371.29
689.49	369.55
689.82	368.03
690.16	366.21
690.50	364.70
690.83	363.01
691.17	361.29
691.51	359.79
691.84	358.33
692.18	356.74
692.52	355.23
692.85	353.93
693.19	352.82
693.52	351.41
693.86	350.03
694.20	348.49
694.53	347.30
694.87	345.92
695.21	344.56
695.54	343.11
695.88	341.80
696.21	340.29
696.55	339.10
696.88	337.55
697.22	336.18
697.56	335.00
697.89	333.78
698.23	332.74
698.56	331.47
698.90	330.38
699.23	329.18
699.57	328.14
699.90	326.75
700.24	325.31
700.58	324.37
700.91	323.32
701.25	323.07
701.58	322.53
701.92	321.67
702.25	320.78
702.59	319.76
702.92	318.90
703.26	317.92
703.59	316.97
703.93	317.05
704.26	316.17
704.60	315.20
704.93	314.20
705.26	313.06
705.60	312.28
705.93	311.19
706.27	310.55
706.60	309.76
706.94	309.40
707.27	308.68
707.61	307.90
707.94	307.06
708.27	305.40
708.61	303.92
708.94	302.96
709.28	302.06
709.61	301.19
709.94	300.38
710.28	299.68
710.61	298.82
710.95	297.08
711.28	296.85
711.61	296.04
711.95	295.50
712.28	294.77
712.61	293.95
712.95	293.69
713.28	293.20
713.61	292.44
713.95	291.47
714.28	290.82
714.61	289.93
714.95	289.16
715.28	288.31
715.61	287.47
715.95	286.80
716.28	286.03
716.61	285.53
716.95	284.73
717.28	284.04
717.61	283.39
717.94	282.82
718.28	281.59
718.61	280.91
718.94	280.06
719.27	279.53
719.61	278.98
719.94	278.14
720.27	277.28
720.60	276.58
720.94	275.92
721.27	275.37
721.60	274.95
721.93	274.47
722.27	274.45
722.60	274.16
722.93	273.52
723.26	273.24
723.59	272.61
723.93	272.37
724.26	271.98
724.59	271.48
724.92	271.04
725.25	270.87
725.59	270.47
725.92	270.14
726.25	269.68
726.58	269.23
726.91	268.74
727.24	268.40
727.57	267.98
727.91	267.49
728.24	267.11
728.57	266.66
728.90	266.41
729.23	265.74
729.56	265.72
729.89	265.34
730.22	264.85
730.55	264.45
730.89	264.01
731.22	263.52
731.55	263.06
731.88	262.72
732.21	262.21
732.54	261.68
732.87	261.38
733.20	261.03
733.53	260.70
733.86	260.48
734.19	259.98
734.52	259.78
734.85	260.03
735.18	259.51
735.51	259.43
735.84	259.17
736.17	259.07
736.50	258.38
736.83	259.21
737.16	258.91
737.49	258.60
737.82	258.23
738.15	258.06
738.48	257.93
738.81	257.62
739.14	257.18
739.47	256.92
739.80	256.60
740.13	256.54
740.46	256.07
740.79	255.60
741.12	255.28
741.45	254.84
741.78	254.14
742.11	254.07
742.44	253.68
742.77	253.39
743.10	252.98
743.43	252.57
743.75	251.33
744.08	252.31
744.41	252.09
744.74	251.78
745.07	251.34
745.40	251.11
745.73	251.21
746.06	251.09
746.39	251.03
746.71	250.66
747.04	250.22
747.37	250.07
747.70	250.03
748.03	249.93
748.36	249.86
748.68	249.61
749.01	249.21
749.34	248.94
749.67	248.68
750.00	248.59
750.33	249.17
750.65	249.02
750.98	247.55
751.31	247.39
751.64	247.31
751.97	247.70
752.29	247.51
752.62	246.86
752.95	246.58
753.28	246.23
753.60	246.23
753.93	246.24
754.26	246.25
754.59	245.73
754.91	245.46
755.24	245.27
755.57	245.08
755.90	244.88
756.22	244.72
756.55	244.43
756.88	244.02
757.20	243.21
757.53	242.76
757.86	242.57
758.19	242.50
758.51	242.35
758.84	241.70
759.17	241.50
759.49	241.39
759.82	241.71
760.15	241.69
760.47	241.44
760.80	241.07
761.13	241.00
761.45	240.92
761.78	240.88
762.11	240.77
762.43	240.53
762.76	240.46
763.08	240.40
763.41	240.52
763.74	240.52
764.06	240.36
764.39	240.34
764.71	240.23
765.04	239.98
765.37	239.81
765.69	239.64
766.02	239.49
766.34	239.37
766.67	238.89
767.00	239.04
767.32	239.42
767.65	239.86
767.97	239.66
768.30	239.58
768.62	239.35
768.95	239.09
769.27	238.98
769.60	239.00
769.92	238.81
770.25	238.51
770.57	238.20
770.90	238.16
771.22	237.96
771.55	237.90
771.87	237.88
772.20	237.66
772.52	238.42
772.85	239.42
773.17	239.40
773.50	239.27
773.82	239.02
774.15	238.38
774.47	237.77
774.80	237.57
775.12	237.49
775.45	237.44
775.77	237.46
776.09	237.51
776.42	237.43
776.74	237.54
777.07	237.40
777.39	237.39
777.72	237.20
778.04	237.23
778.36	237.14
778.69	237.08
779.01	237.11
779.33	236.17
779.66	235.02
779.98	234.90
780.31	234.88
780.63	235.10
780.95	235.27
781.28	235.16
781.60	235.06
781.92	235.00
782.25	234.91
782.57	234.80
782.89	234.70
783.22	234.55
783.54	234.29
783.86	234.37
784.19	234.25
784.51	234.53
784.83	234.32
785.16	234.22
785.48	234.15
785.80	234.19
786.12	234.12
786.45	234.10
786.77	234.13
787.09	233.99
787.42	233.60
787.74	233.62
788.06	233.67
788.38	233.57
788.71	233.44
789.03	233.43
789.35	233.52
789.67	233.20
789.99	233.21
790.32	233.16
790.64	233.13
790.96	234.01
791.28	233.67
791.61	233.66
791.93	233.77
792.25	233.67
792.57	234.23
792.89	234.06
793.21	234.08
793.54	233.93
793.86	233.82
794.18	233.81
794.50	233.60
794.82	233.42
795.14	233.55
795.47	233.70
795.79	233.70
796.11	233.44
796.43	233.54
796.75	233.48
797.07	233.42
797.39	233.33
797.71	232.57
798.04	232.52
798.36	232.49
798.68	232.41
799.00	232.55
799.32	232.01
799.64	232.26
799.96	232.10
800.28	232.12
800.60	232.05
800.92	232.04
801.24	231.94
801.56	232.13
801.89	231.99
802.21	232.06
802.53	231.90
802.85	232.22
803.17	232.59
803.49	232.28
803.81	232.20
804.13	232.06
804.45	231.92
804.77	232.00
805.09	232.03
805.41	231.89
805.73	231.56
806.05	231.35
806.37	231.27
806.69	231.40
807.01	231.50
807.33	231.60
807.65	231.28
807.97	231.62
808.28	231.42
808.60	231.32
808.92	231.13
809.24	231.64
809.56	231.28
809.88	230.97
810.20	231.11
810.52	231.20
810.84	231.18
811.16	231.06
811.48	230.98
811.80	231.25
812.12	231.23
812.43	231.44
812.75	231.43
813.07	231.34
813.39	231.24
813.71	231.00
814.03	230.80
814.35	230.83
814.67	230.42
814.98	230.40
815.30	230.41
815.62	230.18
815.94	229.53
816.26	230.07
816.58	229.85
816.89	229.91
817.21	229.78
817.53	229.81
817.85	229.79
818.17	229.78
818.48	229.44
818.80	229.60
819.12	229.48
819.44	229.25
819.76	229.09
820.07	229.09
820.39	229.14
820.71	229.32
821.03	229.39
821.34	229.51
821.66	229.64
821.98	229.73
822.30	229.73
822.61	230.40
822.93	229.95
823.25	229.94
823.57	229.78
823.88	229.89
824.20	229.89
824.52	230.08
824.83	230.02
825.15	229.83
825.47	229.80
825.79	229.91
826.10	229.93
826.42	229.89
826.74	229.89
827.05	229.84
827.37	229.93
827.69	229.98
828.00	229.98
828.32	229.82
828.64	229.72
828.95	230.26
829.27	229.88
829.58	229.83
829.90	230.01
830.22	230.18
830.53	229.91
830.85	229.74
831.17	229.48
831.48	229.56
831.80	229.77
832.11	229.70
832.43	229.55
832.75	229.61
833.06	230.28
833.38	230.15
833.69	230.04
834.01	230.07
834.32	230.01
834.64	229.86
834.96	229.88
835.27	229.83
835.59	229.53
835.90	229.44
836.22	229.41
836.53	229.28
836.85	229.15
837.16	230.19
837.48	230.29
837.79	230.58
838.11	230.46
838.42	230.37
838.74	230.48
839.05	230.41
839.37	230.42
839.68	229.72
840.00	229.72
840.31	229.93
840.63	229.73
840.94	229.58
841.26	229.46
841.57	229.51
841.88	229.64
842.20	229.40
842.51	229.25
842.83	229.26
843.14	230.13
843.46	230.13
843.77	229.54
844.08	229.51
844.40	229.28
844.71	229.30
845.03	229.28
845.34	229.17
845.65	229.04
845.97	228.97
846.28	229.14
846.60	229.00
846.91	228.76
847.22	228.75
847.54	228.94
847.85	229.05
848.16	228.90
848.48	228.72
848.79	229.16
849.10	229.31
849.42	229.31
849.73	228.30
850.04	228.29
850.36	228.02
850.67	228.19
850.98	228.25
851.30	228.32
851.61	228.16
851.92	228.21
852.23	228.55
852.55	228.65
852.86	228.57
853.17	228.79
853.49	229.03
853.80	229.22
854.11	229.25
854.42	229.35
854.74	229.24
855.05	229.28
855.36	228.77
855.67	228.77
855.99	228.72
856.30	229.91
856.61	229.89
856.92	229.86
857.23	229.80
857.55	229.72
857.86	229.63
858.17	229.85
858.48	229.62
858.79	229.45
859.11	229.53
859.42	229.56
859.73	229.36
860.04	229.38
860.35	229.17
860.66	228.96
860.98	228.94
861.29	229.10
861.60	228.97
861.91	229.30
862.22	229.10
862.53	229.04
862.84	227.97
863.16	228.19
863.47	228.05
863.78	228.01
864.09	228.01
864.40	228.12
864.71	228.09
865.02	228.27
865.33	228.18
865.64	227.98
865.95	227.94
866.27	228.64
866.58	228.42
866.89	228.54
867.20	228.46
867.51	228.26
867.82	228.29
868.13	228.61
868.44	228.33
868.75	228.56
869.06	228.63
869.37	228.65
869.68	228.27
869.99	228.46
870.30	228.43
870.61	228.40
870.92	228.16
871.23	228.10
871.54	228.11
871.85	228.31
872.16	228.43
872.47	228.30
872.78	227.65
873.09	227.74
873.40	227.57
873.71	227.76
874.02	227.84
874.33	227.74
874.64	227.53
874.95	227.64
875.26	227.40
875.56	227.28
875.87	227.19
876.18	227.19
876.49	228.05
876.80	228.07
877.11	227.99
877.42	228.08
877.73	228.11
878.04	227.96
878.35	227.97
878.66	228.06
878.96	228.02
879.27	227.94
879.58	227.79
879.89	227.81
880.20	227.97
880.51	227.90
880.82	227.90
881.12	227.96
881.43	227.81
881.74	227.67
882.05	227.69
882.36	227.72
882.67	227.82
882.97	226.73
883.28	226.58
883.59	226.48
883.90	226.53
884.21	226.58
884.51	226.58
884.82	226.42
885.13	226.32
885.44	226.37
885.74	226.39
886.05	226.47
886.36	226.53
886.67	226.29
886.98	226.73
887.28	226.79
887.59	226.74
887.90	226.85
888.20	226.89
888.51	227.03
888.82	226.96
889.13	226.96
889.43	227.86
889.74	227.89
890.05	227.95
890.35	227.88
890.66	227.70
890.97	227.58
891.28	227.50
891.58	227.50
891.89	227.51
892.20	227.48
892.50	227.39
892.81	227.24
893.12	227.20
893.42	226.91
893.73	226.96
894.04	227.01
894.34	227.08
894.65	227.07
894.95	227.06
895.26	227.07
895.57	227.53
895.87	226.75
896.18	226.86
896.48	226.91
896.79	226.94
897.10	227.22
897.40	227.41
897.71	227.58
898.01	227.60
898.32	227.69
898.63	227.70
898.93	227.77
899.24	227.81
899.54	227.79
899.85	227.73
900.15	227.72
900.46	227.69
900.76	227.69
901.07	227.69
901.38	227.64
901.68	227.81
901.99	227.37
902.29	227.31
902.60	227.26
902.90	227.22
903.21	227.20
903.51	227.17
903.82	227.30
904.12	227.31
904.43	227.30
904.73	227.32
905.03	227.40
905.34	228.37
905.64	228.32
905.95	228.40
906.25	228.27
906.56	228.22
906.86	228.24
907.17	228.27
907.47	228.44
907.77	228.29
908.08	228.08
908.38	228.15
908.69	228.31
908.99	228.46
909.30	228.62
909.60	228.66
909.90	228.66
910.21	228.40
910.51	228.18
910.81	228.15
911.12	228.17
911.42	228.16
911.73	227.22
912.03	227.39
912.33	227.49
912.64	227.51
912.94	227.46
913.24	227.30
913.55	227.31
913.85	227.18
914.15	227.39
914.46	227.65
914.76	227.69
915.06	227.58
915.37	227.41
915.67	227.32
915.97	227.40
916.27	227.18
916.58	227.26
916.88	227.33
917.18	227.33
917.49	227.94
917.79	227.85
918.09	227.87
918.39	228.18
918.70	228.15
919.00	228.18
919.30	228.62
919.60	228.54
919.91	228.31
920.21	228.31
920.51	228.11
920.81	227.97
921.12	228.03
921.42	228.01
921.72	228.10
922.02	228.10
922.32	228.10
922.63	228.14
922.93	228.65
923.23	228.66
923.53	228.59
923.83	228.00
924.13	228.10
924.44	228.11
924.74	228.06
925.04	228.28
925.34	228.10
925.64	227.74
925.94	227.90
926.24	228.50
926.55	228.55
926.85	228.74
927.15	228.69
927.45	228.58
927.75	228.57
928.05	228.60
928.35	228.52
928.65	228.66
928.95	228.75
929.26	228.23
929.56	228.38
929.86	228.46
930.16	228.37
930.46	228.40
930.76	228.42
931.06	227.90
931.36	227.72
931.66	228.11
931.96	228.12
932.26	228.14
932.56	227.70
932.86	227.68
933.16	227.63
933.46	227.62
933.76	227.54
934.06	227.72
934.36	228.00
934.66	227.94
934.96	227.81
935.26	227.91
935.56	228.07
935.86	227.84
936.16	227.79
936.46	227.77
936.76	227.72
937.06	227.62
937.36	227.79
937.66	227.71
937.96	227.69
938.26	227.54
938.56	227.44
938.86	227.57
939.16	227.88
939.46	228.01
939.76	227.99
940.06	228.02
940.35	227.81
940.65	227.42
940.95	227.50
941.25	227.35
941.55	227.22
941.85	227.10
942.15	227.40
942.45	227.60
942.75	227.58
943.04	227.58
943.34	227.79
943.64	227.80
943.94	227.62
944.24	227.57
944.54	227.71
944.84	227.70
945.13	227.43
945.43	227.22
945.73	227.17
946.03	227.17
946.33	227.10
946.62	227.12
946.92	227.05
947.22	227.20
947.52	227.24
947.82	227.33
948.11	227.25
948.41	226.96
948.71	226.64
949.01	226.75
949.31	226.65
949.60	226.54
949.90	226.54
950.20	226.54
950.50	226.49
950.79	226.34
951.09	226.51
951.39	226.57
951.69	226.45
951.98	226.52
952.28	226.42
952.58	226.33
952.87	226.31
953.17	226.50
953.47	226.39
953.76	226.33
954.06	226.08
954.36	226.07
954.66	226.10
954.95	226.40
955.25	226.49
955.55	226.59
955.84	226.44
956.14	226.56
956.44	226.68
956.73	226.51
957.03	226.56
957.32	226.55
957.62	226.51
957.92	226.73
958.21	226.69
958.51	227.80
958.81	227.94
959.10	228.00
959.40	228.17
959.69	228.29
959.99	228.44
960.29	228.46
960.58	228.48
960.88	228.84
961.17	228.71
961.47	228.74
961.76	228.70
962.06	228.89
962.36	228.85
962.65	228.80
962.95	228.83
963.24	228.75
963.54	228.72
963.83	228.80
964.13	228.74
964.42	228.55
964.72	227.84
965.01	227.81
965.31	227.78
965.60	227.48
965.90	227.99
966.19	227.76
966.49	227.81
966.78	227.69
967.08	227.60
967.37	227.58
967.67	227.25
967.96	227.41
968.26	227.36
968.55	227.39
968.85	227.29
969.14	227.31
969.43	227.29
969.73	227.16
970.02	227.15
970.32	226.92
970.61	226.89
970.91	226.59
971.20	226.40
971.49	226.39
971.79	226.57
972.08	225.87
972.38	225.99
972.67	225.93
972.96	226.11
973.26	225.97
973.55	226.22
973.85	226.29
974.14	226.12
974.43	226.25
974.73	226.12
975.02	226.08
975.31	226.07
975.61	226.06
975.90	226.08
976.19	225.93
976.49	226.10
976.78	226.31
977.07	226.37
977.37	226.51
977.66	226.57
977.95	226.29
978.24	226.33
978.54	226.46
978.83	226.46
979.12	226.42
979.42	226.36
979.71	226.09
980.00	226.16
980.29	226.24
980.59	226.02
980.88	226.28
981.17	226.34
981.46	226.40
981.76	226.48
982.05	226.83
982.34	226.94
982.63	226.97
982.93	226.89
983.22	227.19
983.51	227.21
983.80	227.30
984.09	227.53
984.39	227.53
984.68	227.40
984.97	227.53
985.26	227.45
985.55	227.65
985.85	227.58
986.14	227.69
986.43	227.70
986.72	227.76
987.01	227.50
987.30	227.43
987.59	227.35
987.89	227.32
988.18	227.01
988.47	226.89
988.76	226.80
989.05	226.76
989.34	226.57
989.63	226.87
989.92	226.72
990.22	226.65
990.51	226.64
990.80	226.63
991.09	226.67
991.38	226.86
991.67	226.71
991.96	226.80
992.25	226.80
992.54	226.70
992.83	226.64
993.12	226.60
993.41	226.89
993.70	227.31
993.99	227.57
994.28	227.64
994.58	227.90
994.87	227.82
995.16	227.77
995.45	227.70
995.74	227.29
996.03	227.45
996.32	227.54
996.61	227.74
996.90	227.74
997.19	227.66
997.48	227.54
997.77	227.49
998.06	227.50
998.34	227.39
998.63	227.40
998.92	227.43
999.21	227.56
999.50	227.55
999.79	227.21
1000.08	227.15
1000.37	227.18
1000.66	227.10
1000.95	227.30
1001.24	227.31
1001.53	227.45
1001.82	227.56
1002.11	227.29
1002.40	227.45
1002.68	227.60
1002.97	228.30
1003.26	228.23
1003.55	228.19
1003.84	228.16
1004.13	228.31
1004.42	228.40
1004.71	228.41
1004.99	228.32
1005.28	228.52
1005.57	228.39
1005.86	228.40
1006.15	228.34
1006.44	228.16
1006.72	228.24
1007.01	228.18
1007.30	228.09
1007.59	227.93
1007.88	227.81
1008.17	227.90
1008.45	227.58
1008.74	227.21
1009.03	226.69
1009.32	226.68
1009.60	226.71
1009.89	226.70
1010.18	226.32
1010.47	226.19
1010.76	226.19
1011.04	226.22
1011.33	226.28
1011.62	226.31
1011.91	226.32
1012.19	226.30
1012.48	226.29
1012.77	226.19
1013.05	226.59
1013.34	226.75
1013.63	226.70
1013.92	226.81
1014.20	226.75
1014.49	226.82
1014.78	226.89
1015.06	226.64
1015.35	226.76
1015.64	226.91
1015.92	227.03
1016.21	227.25
1016.50	227.30
1016.78	227.36
1017.07	227.42
1017.36	227.20
1017.64	227.03
1017.93	227.07
1018.22	226.92
1018.50	226.85
1018.79	226.80
1019.08	226.29
1019.36	226.28
1019.65	226.24
1019.93	226.42
1020.22	226.62
1020.51	227.12
1020.79	227.08
1021.08	223.90
1021.36	222.60
1021.65	225.80
1021.94	225.60
1022.22	227.30
1022.51	225.10
1022.79	229.60
1023.08	229.00
1023.36	238.20
1023.65	224.90
>>>>>End Processed Spectral Data<<<<<
