SpectraSuite Data File
++++++++++++++++++++++++++++++++++++
Date: Wed Sep 04 17:31:27 EDT 2013
User: lab3
Dark Spectrum Present: Yes
Reference Spectrum Present: No
Number of Sampled Component Spectra: 1
Spectrometers: USB2E7196
Integration Time (usec): 337000 (USB2E7196)
Spectra Averaged: 10 (USB2E7196)
Boxcar Smoothing: 10 (USB2E7196)
Correct for Electrical Dark: No (USB2E7196)
Strobe/Lamp Enabled: No (USB2E7196)
Correct for Detector Non-linearity: No (USB2E7196)
Correct for Stray Light: No (USB2E7196)
Number of Pixels in Processed Spectrum: 2048
>>>>>Begin Processed Spectral Data<<<<<
339.09	0.00
339.48	212.80
339.86	215.50
340.24	215.40
340.63	217.00
341.01	234.50
341.39	220.50
341.78	222.10
342.16	225.00
342.54	224.30
342.93	213.33
343.31	223.97
343.69	224.42
344.07	224.86
344.46	225.49
344.84	225.98
345.22	225.59
345.60	225.91
345.99	226.18
346.37	226.26
346.75	226.32
347.13	226.37
347.52	226.46
347.90	226.82
348.28	226.78
348.66	226.93
349.05	226.66
349.43	226.80
349.81	226.95
350.19	227.11
350.57	227.21
350.96	227.34
351.34	227.60
351.72	227.76
352.10	227.78
352.48	227.70
352.87	227.58
353.25	227.55
353.63	227.45
354.01	227.33
354.39	227.40
354.77	227.42
355.15	227.73
355.54	227.68
355.92	227.33
356.30	227.48
356.68	228.16
357.06	228.22
357.44	228.00
357.82	227.94
358.20	228.61
358.58	228.50
358.97	228.58
359.35	228.71
359.73	228.94
360.11	229.00
360.49	229.00
360.87	229.05
361.25	229.23
361.63	229.71
362.01	229.92
362.39	229.88
362.77	230.06
363.15	229.98
363.53	230.03
363.91	230.25
364.29	230.17
364.67	229.23
365.05	229.37
365.43	229.57
365.81	229.79
366.19	229.60
366.57	230.11
366.95	229.99
367.33	229.78
367.71	229.81
368.09	230.00
368.47	230.07
368.85	230.16
369.23	230.40
369.61	229.94
369.99	230.19
370.37	230.40
370.75	230.81
371.13	230.65
371.51	230.50
371.89	230.47
372.27	230.63
372.65	230.75
373.03	230.74
373.41	230.61
373.78	230.51
374.16	229.96
374.54	229.57
374.92	229.55
375.30	229.61
375.68	229.32
376.06	229.27
376.44	229.17
376.82	229.15
377.19	229.05
377.57	229.08
377.95	228.69
378.33	228.53
378.71	227.92
379.09	227.99
379.47	228.07
379.84	227.90
380.22	227.74
380.60	227.51
380.98	227.30
381.36	227.28
381.73	227.03
382.11	227.19
382.49	227.24
382.87	227.06
383.25	226.99
383.62	228.18
384.00	227.96
384.38	227.98
384.76	228.19
385.13	228.46
385.51	228.40
385.89	228.28
386.27	228.19
386.64	228.27
387.02	228.18
387.40	228.10
387.78	228.15
388.15	228.20
388.53	228.13
388.91	228.23
389.29	228.21
389.66	228.34
390.04	228.17
390.42	228.36
390.79	228.50
391.17	228.40
391.55	227.33
391.92	227.38
392.30	227.46
392.68	227.09
393.05	226.98
393.43	227.00
393.81	227.03
394.18	226.99
394.56	227.00
394.94	227.26
395.31	227.26
395.69	227.49
396.06	227.54
396.44	227.68
396.82	227.53
397.19	228.09
397.57	227.95
397.95	228.17
398.32	227.91
398.70	227.88
399.07	228.17
399.45	228.22
399.82	228.30
400.20	228.20
400.58	228.41
400.95	228.14
401.33	228.51
401.70	229.45
402.08	229.58
402.45	229.76
402.83	229.98
403.20	230.27
403.58	230.50
403.95	230.91
404.33	231.28
404.71	231.61
405.08	232.28
405.46	232.75
405.83	233.04
406.21	233.34
406.58	233.88
406.96	234.23
407.33	234.61
407.70	235.14
408.08	236.44
408.45	237.03
408.83	237.71
409.20	238.04
409.58	238.00
409.95	239.00
410.33	239.75
410.70	240.15
411.08	240.98
411.45	241.74
411.82	242.38
412.20	243.42
412.57	244.97
412.95	245.15
413.32	246.30
413.69	247.40
414.07	248.73
414.44	249.98
414.82	251.36
415.19	253.08
415.56	254.67
415.94	255.82
416.31	257.90
416.68	259.87
417.06	262.28
417.43	264.67
417.81	267.04
418.18	269.59
418.55	272.36
418.93	275.19
419.30	278.10
419.67	281.22
420.04	284.40
420.42	287.62
420.79	292.30
421.16	296.35
421.54	300.92
421.91	305.33
422.28	309.90
422.66	314.62
423.03	319.76
423.40	324.56
423.77	329.80
424.15	334.95
424.52	340.54
424.89	346.60
425.26	352.22
425.64	357.59
426.01	363.65
426.38	370.08
426.75	376.74
427.13	383.58
427.50	390.42
427.87	397.77
428.24	404.92
428.61	411.25
428.99	418.92
429.36	426.84
429.73	434.82
430.10	442.83
430.47	451.17
430.85	459.34
431.22	468.70
431.59	478.95
431.96	488.27
432.33	498.38
432.70	508.27
433.08	520.08
433.45	531.47
433.82	542.61
434.19	555.11
434.56	567.41
434.93	578.73
435.30	590.75
435.68	603.56
436.05	616.33
436.42	629.12
436.79	641.28
437.16	654.10
437.53	667.63
437.90	681.15
438.27	694.35
438.64	708.16
439.01	720.97
439.38	731.91
439.75	743.08
440.13	755.48
440.50	767.28
440.87	776.94
441.24	787.00
441.61	798.12
441.98	806.00
442.35	815.26
442.72	825.01
443.09	834.22
443.46	840.23
443.83	844.34
444.20	847.90
444.57	852.46
444.94	854.61
445.31	856.77
445.68	860.12
446.05	861.39
446.42	860.08
446.79	858.97
447.16	857.39
447.53	856.17
447.90	851.46
448.27	846.78
448.64	840.12
449.01	835.11
449.37	826.43
449.74	818.06
450.11	808.54
450.48	797.45
450.85	785.81
451.22	775.97
451.59	766.58
451.96	757.69
452.33	745.78
452.70	735.34
453.07	722.47
453.43	708.25
453.80	695.61
454.17	683.62
454.54	671.81
454.91	659.55
455.28	647.57
455.65	636.43
456.02	626.50
456.38	616.88
456.75	605.14
457.12	595.13
457.49	585.59
457.86	575.69
458.23	568.13
458.59	559.60
458.96	550.80
459.33	543.08
459.70	535.08
460.07	528.84
460.43	521.61
460.80	515.50
461.17	509.99
461.54	504.03
461.91	498.27
462.27	492.35
462.64	487.13
463.01	481.83
463.38	476.91
463.74	470.33
464.11	465.68
464.48	461.65
464.85	457.29
465.21	454.14
465.58	450.43
465.95	445.69
466.32	442.37
466.68	438.83
467.05	435.27
467.42	431.96
467.78	428.42
468.15	425.03
468.52	422.57
468.88	419.02
469.25	415.88
469.62	413.60
469.98	411.00
470.35	408.78
470.72	406.29
471.08	403.50
471.45	401.54
471.82	399.65
472.18	397.25
472.55	395.80
472.92	393.66
473.28	391.93
473.65	390.23
474.02	388.44
474.38	386.93
474.75	385.71
475.11	384.21
475.48	383.06
475.85	381.83
476.21	380.43
476.58	379.62
476.94	379.00
477.31	378.11
477.67	377.48
478.04	376.73
478.41	376.34
478.77	376.81
479.14	376.01
479.50	375.57
479.87	375.55
480.23	375.13
480.60	374.75
480.96	374.63
481.33	375.07
481.69	375.01
482.06	375.10
482.42	375.21
482.79	375.45
483.15	375.56
483.52	376.29
483.88	376.77
484.25	377.00
484.61	377.30
484.98	377.76
485.34	378.49
485.71	379.35
486.07	379.97
486.44	379.92
486.80	380.82
487.17	381.71
487.53	382.82
487.90	384.01
488.26	385.71
488.62	387.13
488.99	388.16
489.35	389.63
489.72	391.02
490.08	392.45
490.44	393.90
490.81	395.75
491.17	397.34
491.54	399.40
491.90	401.49
492.26	403.67
492.63	405.69
492.99	407.61
493.36	409.91
493.72	412.57
494.08	415.03
494.45	417.80
494.81	420.66
495.17	423.24
495.54	426.22
495.90	428.82
496.26	431.72
496.63	434.86
496.99	437.92
497.35	441.25
497.72	444.68
498.08	447.96
498.44	451.26
498.80	454.78
499.17	457.91
499.53	461.36
499.89	464.67
500.26	468.34
500.62	472.25
500.98	475.86
501.34	479.23
501.71	483.17
502.07	486.89
502.43	490.47
502.79	494.22
503.16	497.74
503.52	501.44
503.88	505.11
504.24	508.88
504.60	512.90
504.97	516.97
505.33	520.58
505.69	524.91
506.05	528.99
506.41	532.89
506.78	537.02
507.14	540.85
507.50	545.03
507.86	548.94
508.22	552.70
508.59	556.41
508.95	560.44
509.31	564.42
509.67	568.05
510.03	571.81
510.39	575.59
510.75	579.39
511.12	582.92
511.48	586.42
511.84	589.92
512.20	593.27
512.56	596.38
512.92	600.14
513.28	603.10
513.64	606.41
514.00	609.62
514.37	612.93
514.73	616.40
515.09	619.80
515.45	622.97
515.81	626.13
516.17	629.60
516.53	632.57
516.89	635.46
517.25	638.65
517.61	642.16
517.97	645.35
518.33	648.58
518.69	652.14
519.05	655.78
519.41	659.24
519.77	663.23
520.13	666.70
520.49	669.52
520.85	675.91
521.21	679.71
521.57	683.10
521.93	686.15
522.29	689.40
522.65	692.08
523.01	695.50
523.37	698.35
523.73	701.50
524.09	704.80
524.45	707.89
524.81	711.10
525.17	714.26
525.53	717.57
525.89	720.83
526.25	723.88
526.61	726.74
526.97	729.70
527.33	732.83
527.68	736.86
528.04	740.85
528.40	741.70
528.76	744.99
529.12	748.82
529.48	752.84
529.84	756.54
530.20	761.11
530.56	765.16
530.91	769.92
531.27	774.25
531.63	778.66
531.99	783.26
532.35	787.70
532.71	792.15
533.07	796.87
533.42	802.64
533.78	807.27
534.14	812.34
534.50	817.54
534.86	822.47
535.21	826.64
535.57	831.79
535.93	836.04
536.29	841.33
536.65	846.60
537.00	851.32
537.36	856.26
537.72	860.93
538.08	866.15
538.44	870.76
538.79	875.61
539.15	880.54
539.51	885.49
539.87	890.65
540.22	895.28
540.58	899.96
540.94	903.45
541.29	908.02
541.65	912.33
542.01	916.61
542.37	920.94
542.72	925.35
543.08	929.11
543.44	934.17
543.79	937.78
544.15	942.09
544.51	946.72
544.87	951.33
545.22	955.54
545.58	959.06
545.94	962.82
546.29	966.84
546.65	970.58
547.01	974.09
547.36	977.80
547.72	981.53
548.07	985.27
548.43	988.99
548.79	992.89
549.14	996.60
549.50	1000.46
549.86	1003.82
550.21	1007.66
550.57	1011.35
550.92	1014.40
551.28	1018.05
551.64	1021.26
551.99	1024.45
552.35	1027.64
552.70	1030.95
553.06	1034.78
553.41	1038.70
553.77	1042.28
554.13	1045.41
554.48	1049.00
554.84	1052.10
555.19	1055.52
555.55	1059.54
555.90	1062.39
556.26	1064.95
556.61	1067.36
556.97	1069.59
557.32	1072.22
557.68	1074.58
558.03	1077.42
558.39	1080.04
558.74	1082.35
559.10	1084.13
559.45	1086.43
559.81	1088.52
560.16	1090.44
560.52	1092.28
560.87	1093.92
561.23	1095.49
561.58	1098.12
561.94	1099.22
562.29	1100.73
562.64	1102.33
563.00	1102.65
563.35	1104.58
563.71	1106.59
564.06	1108.49
564.42	1110.50
564.77	1112.29
565.12	1113.95
565.48	1116.18
565.83	1117.82
566.19	1119.31
566.54	1120.90
566.89	1122.10
567.25	1123.66
567.60	1125.17
567.96	1126.95
568.31	1128.74
568.66	1130.10
569.02	1130.44
569.37	1131.32
569.72	1132.50
570.08	1132.69
570.43	1132.94
570.78	1133.12
571.14	1133.03
571.49	1132.84
571.84	1132.90
572.20	1132.41
572.55	1132.22
572.90	1131.01
573.26	1130.45
573.61	1130.12
573.96	1129.60
574.31	1128.53
574.67	1127.33
575.02	1125.85
575.37	1123.90
575.72	1121.69
576.08	1119.68
576.43	1117.92
576.78	1116.39
577.13	1114.24
577.49	1112.92
577.84	1112.00
578.19	1110.77
578.54	1109.70
578.90	1108.66
579.25	1106.98
579.60	1105.56
579.95	1103.54
580.30	1101.72
580.66	1099.64
581.01	1097.09
581.36	1094.40
581.71	1092.62
582.06	1090.51
582.42	1088.61
582.77	1086.31
583.12	1084.71
583.47	1083.05
583.82	1081.30
584.17	1079.76
584.53	1078.13
584.88	1075.37
585.23	1072.82
585.58	1069.82
585.93	1066.70
586.28	1063.77
586.63	1060.73
586.98	1057.50
587.34	1054.93
587.69	1051.96
588.04	1049.51
588.39	1047.08
588.74	1044.60
589.09	1042.02
589.44	1038.84
589.79	1035.84
590.14	1033.48
590.49	1030.52
590.84	1027.43
591.19	1024.33
591.54	1021.10
591.89	1017.60
592.25	1016.17
592.60	1013.10
592.95	1010.38
593.30	1007.48
593.65	1004.26
594.00	1001.10
594.35	1000.94
594.70	997.57
595.05	994.22
595.40	990.59
595.75	987.04
596.10	983.87
596.45	980.44
596.80	977.69
597.15	974.52
597.50	970.90
597.85	967.75
598.19	964.10
598.54	960.63
598.89	957.00
599.24	954.03
599.59	949.73
599.94	946.16
600.29	942.68
600.64	939.35
600.99	936.23
601.34	933.10
601.69	927.23
602.04	923.98
602.39	920.70
602.74	918.26
603.08	915.25
603.43	912.52
603.78	909.11
604.13	905.63
604.48	902.19
604.83	898.72
605.18	895.26
605.53	892.02
605.87	888.84
606.22	885.86
606.57	882.49
606.92	878.88
607.27	875.72
607.62	872.53
607.96	869.53
608.31	866.44
608.66	863.07
609.01	859.68
609.36	856.44
609.70	853.18
610.05	849.32
610.40	846.04
610.75	842.03
611.10	838.61
611.44	834.87
611.79	831.51
612.14	828.45
612.49	824.89
612.83	821.78
613.18	818.45
613.53	814.90
613.88	811.25
614.22	807.43
614.57	803.79
614.92	799.99
615.27	796.26
615.61	792.42
615.96	789.14
616.31	785.54
616.65	782.21
617.00	778.85
617.35	775.12
617.70	771.28
618.04	767.68
618.39	764.24
618.74	761.33
619.08	757.62
619.43	753.86
619.78	750.16
620.12	746.35
620.47	742.80
620.82	739.01
621.16	735.32
621.51	732.69
621.85	729.25
622.20	726.07
622.55	722.27
622.89	718.97
623.24	715.78
623.59	712.33
623.93	709.00
624.28	705.67
624.62	703.26
624.97	700.56
625.32	697.42
625.66	693.95
626.01	690.00
626.35	686.99
626.70	683.78
627.04	680.89
627.39	677.59
627.73	674.70
628.08	672.00
628.43	668.83
628.77	665.40
629.12	662.29
629.46	659.20
629.81	656.81
630.15	653.66
630.50	650.20
630.84	647.19
631.19	643.86
631.53	641.09
631.88	637.20
632.22	633.64
632.57	631.12
632.91	628.34
633.26	625.86
633.60	622.89
633.95	619.89
634.29	616.50
634.64	613.76
634.98	610.46
635.32	607.55
635.67	604.95
636.01	602.21
636.36	599.19
636.70	596.68
637.05	593.50
637.39	590.70
637.73	588.22
638.08	585.66
638.42	582.84
638.77	579.65
639.11	576.73
639.45	573.90
639.80	570.65
640.14	567.71
640.49	564.86
640.83	562.26
641.17	559.66
641.52	557.03
641.86	554.33
642.20	552.10
642.55	549.33
642.89	546.82
643.23	544.15
643.58	542.09
643.92	538.87
644.26	536.26
644.61	533.96
644.95	531.32
645.29	528.58
645.64	526.38
645.98	523.82
646.32	521.63
646.66	519.19
647.01	516.66
647.35	514.52
647.69	512.10
648.04	509.90
648.38	507.48
648.72	505.02
649.06	502.48
649.41	499.78
649.75	497.04
650.09	494.53
650.43	492.12
650.78	489.51
651.12	487.34
651.46	485.11
651.80	482.79
652.14	480.53
652.49	478.60
652.83	476.23
653.17	474.13
653.51	471.72
653.85	469.78
654.20	467.78
654.54	465.49
654.88	463.45
655.22	461.64
655.56	459.64
655.90	457.68
656.25	455.72
656.59	453.71
656.93	452.03
657.27	450.48
657.61	448.27
657.95	446.40
658.29	444.44
658.64	442.75
658.98	440.64
659.32	438.55
659.66	436.49
660.00	434.61
660.34	432.59
660.68	430.54
661.02	428.61
661.36	426.66
661.70	424.76
662.05	422.80
662.39	420.73
662.73	419.18
663.07	418.04
663.41	416.35
663.75	414.38
664.09	412.74
664.43	410.61
664.77	408.91
665.11	407.12
665.45	405.52
665.79	403.78
666.13	402.14
666.47	400.40
666.81	398.68
667.15	396.83
667.49	395.62
667.83	394.66
668.17	392.94
668.51	391.45
668.85	390.25
669.19	389.20
669.53	387.49
669.87	385.70
670.21	383.81
670.55	382.35
670.89	381.62
671.23	380.07
671.57	378.68
671.91	377.40
672.25	376.15
672.58	375.15
672.92	373.52
673.26	372.19
673.60	371.05
673.94	369.80
674.28	368.70
674.62	367.39
674.96	365.75
675.30	364.68
675.64	363.52
675.97	362.05
676.31	360.44
676.65	359.17
676.99	358.25
677.33	356.94
677.67	355.81
678.01	354.11
678.34	353.07
678.68	352.00
679.02	350.76
679.36	349.58
679.70	348.06
680.04	346.94
680.37	345.78
680.71	344.67
681.05	343.75
681.39	342.70
681.73	341.51
682.06	340.46
682.40	339.40
682.74	338.52
683.08	337.96
683.42	336.84
683.75	335.88
684.09	334.55
684.43	333.60
684.77	332.50
685.10	331.65
685.44	330.57
685.78	329.56
686.12	328.59
686.45	327.51
686.79	326.44
687.13	325.71
687.46	324.82
687.80	324.02
688.14	322.85
688.48	321.95
688.81	321.01
689.15	320.36
689.49	319.31
689.82	318.34
690.16	316.86
690.50	315.98
690.83	314.96
691.17	313.93
691.51	313.07
691.84	312.43
692.18	311.36
692.52	310.48
692.85	309.66
693.19	309.15
693.52	308.39
693.86	307.67
694.20	306.78
694.53	306.04
694.87	305.05
695.21	304.23
695.54	303.33
695.88	302.39
696.21	301.10
696.55	300.33
696.88	299.43
697.22	298.71
697.56	298.05
697.89	297.27
698.23	296.74
698.56	295.86
698.90	295.23
699.23	294.49
699.57	293.78
699.90	292.92
700.24	291.94
700.58	291.28
700.91	290.65
701.25	290.71
701.58	290.73
701.92	290.32
702.25	289.75
702.59	289.11
702.92	288.62
703.26	288.33
703.59	287.86
703.93	288.15
704.26	287.70
704.60	287.13
704.93	286.61
705.26	285.94
705.60	285.65
705.93	284.69
706.27	284.37
706.60	284.03
706.94	283.96
707.27	283.39
707.61	282.93
707.94	282.45
708.27	281.14
708.61	279.87
708.94	279.24
709.28	278.75
709.61	278.21
709.94	277.73
710.28	277.07
710.61	276.53
710.95	275.12
711.28	275.20
711.61	274.70
711.95	274.37
712.28	273.83
712.61	273.20
712.95	273.40
713.28	273.27
713.61	272.62
713.95	271.71
714.28	271.31
714.61	270.65
714.95	270.14
715.28	269.60
715.61	269.17
715.95	268.78
716.28	268.09
716.61	267.79
716.95	267.30
717.28	266.88
717.61	266.35
717.94	265.99
718.28	264.84
718.61	264.35
718.94	263.80
719.27	263.40
719.61	263.06
719.94	262.33
720.27	261.53
720.60	261.11
720.94	260.86
721.27	260.48
721.60	260.39
721.93	260.05
722.27	260.00
722.60	259.70
722.93	259.19
723.26	259.07
723.59	258.54
723.93	258.33
724.26	258.16
724.59	257.84
724.92	257.65
725.25	257.60
725.59	257.30
725.92	257.16
726.25	256.97
726.58	256.73
726.91	256.46
727.24	256.28
727.57	256.11
727.91	255.74
728.24	255.66
728.57	255.17
728.90	254.99
729.23	254.45
729.56	254.72
729.89	254.50
730.22	254.16
730.55	254.00
730.89	253.66
731.22	253.23
731.55	253.00
731.88	252.72
732.21	252.45
732.54	252.13
732.87	251.86
733.20	251.67
733.53	251.54
733.86	251.30
734.19	251.00
734.52	250.84
734.85	251.20
735.18	250.80
735.51	251.00
735.84	250.90
736.17	251.07
736.50	250.28
736.83	251.20
737.16	251.03
737.49	250.85
737.82	250.66
738.15	250.67
738.48	250.50
738.81	250.29
739.14	250.00
739.47	249.84
739.80	249.60
740.13	249.43
740.46	248.98
740.79	248.73
741.12	248.47
741.45	248.18
741.78	247.40
742.11	247.57
742.44	247.16
742.77	247.08
743.10	246.80
743.43	246.65
743.75	245.54
744.08	246.57
744.41	246.22
744.74	246.04
745.07	245.69
745.40	245.71
745.73	245.91
746.06	245.67
746.39	245.71
746.71	245.54
747.04	245.23
747.37	245.11
747.70	245.06
748.03	244.98
748.36	244.95
748.68	244.93
749.01	244.41
749.34	244.14
749.67	243.96
750.00	243.88
750.33	244.43
750.65	244.32
750.98	243.05
751.31	242.95
751.64	242.77
751.97	243.24
752.29	243.02
752.62	242.41
752.95	242.33
753.28	241.93
753.60	241.87
753.93	242.04
754.26	242.01
754.59	241.65
754.91	241.42
755.24	241.20
755.57	241.05
755.90	240.90
756.22	240.78
756.55	240.44
756.88	240.10
757.20	239.31
757.53	238.91
757.86	238.86
758.19	238.90
758.51	238.89
758.84	238.26
759.17	237.99
759.49	237.95
759.82	238.31
760.15	238.30
760.47	238.11
760.80	237.78
761.13	237.72
761.45	237.65
761.78	237.50
762.11	237.45
762.43	237.28
762.76	237.26
763.08	237.30
763.41	237.25
763.74	237.20
764.06	237.09
764.39	237.08
764.71	236.90
765.04	236.63
765.37	236.41
765.69	236.29
766.02	236.12
766.34	235.98
766.67	235.48
767.00	235.68
767.32	236.18
767.65	236.66
767.97	236.50
768.30	236.44
768.62	236.40
768.95	236.17
769.27	236.05
769.60	236.15
769.92	235.90
770.25	235.70
770.57	235.52
770.90	235.42
771.22	235.23
771.55	235.17
771.87	235.27
772.20	235.08
772.52	235.89
772.85	237.09
773.17	237.07
773.50	236.97
773.82	236.72
774.15	236.08
774.47	235.38
774.80	235.33
775.12	235.29
775.45	235.31
775.77	235.28
776.09	235.34
776.42	235.21
776.74	235.50
777.07	235.40
777.39	235.40
777.72	235.38
778.04	235.52
778.36	235.36
778.69	235.28
779.01	235.40
779.33	234.43
779.66	233.21
779.98	233.04
780.31	233.05
780.63	233.38
780.95	233.56
781.28	233.57
781.60	233.53
781.92	233.52
782.25	233.37
782.57	233.38
782.89	233.41
783.22	233.28
783.54	232.96
783.86	233.07
784.19	232.98
784.51	233.15
784.83	232.94
785.16	232.89
785.48	232.81
785.80	232.73
786.12	232.88
786.45	232.93
786.77	232.98
787.09	232.90
787.42	232.51
787.74	232.52
788.06	232.47
788.38	232.28
788.71	232.02
789.03	232.08
789.35	232.05
789.67	231.83
789.99	231.95
790.32	231.80
790.64	231.77
790.96	232.49
791.28	232.15
791.61	232.12
791.93	232.24
792.25	232.20
792.57	232.89
792.89	232.52
793.21	232.50
793.54	232.40
793.86	232.25
794.18	232.16
794.50	231.95
794.82	231.97
795.14	232.21
795.47	232.48
795.79	232.50
796.11	232.32
796.43	232.23
796.75	232.19
797.07	232.27
797.39	232.22
797.71	231.49
798.04	231.54
798.36	231.51
798.68	231.38
799.00	231.33
799.32	230.93
799.64	231.26
799.96	231.27
800.28	231.38
800.60	231.35
800.92	231.39
801.24	231.27
801.56	231.34
801.89	231.13
802.21	231.07
802.53	230.86
802.85	231.06
803.17	231.52
803.49	231.25
803.81	231.20
804.13	231.11
804.45	231.00
804.77	231.06
805.09	231.07
805.41	231.03
805.73	230.91
806.05	230.60
806.37	230.45
806.69	230.35
807.01	230.29
807.33	230.44
807.65	230.12
807.97	230.54
808.28	230.43
808.60	230.45
808.92	230.33
809.24	230.87
809.56	230.60
809.88	230.28
810.20	230.31
810.52	230.50
810.84	230.43
811.16	230.38
811.48	230.28
811.80	230.59
812.12	230.61
812.43	230.80
812.75	230.90
813.07	230.79
813.39	230.83
813.71	230.78
814.03	230.65
814.35	230.81
814.67	230.44
814.98	230.29
815.30	230.24
815.62	230.12
815.94	229.59
816.26	230.10
816.58	229.85
816.89	229.96
817.21	229.70
817.53	229.69
817.85	229.80
818.17	229.77
818.48	229.32
818.80	229.44
819.12	229.29
819.44	229.04
819.76	228.96
820.07	228.90
820.39	228.82
820.71	228.99
821.03	228.94
821.34	228.96
821.66	229.12
821.98	229.14
822.30	229.24
822.61	229.85
822.93	229.39
823.25	229.43
823.57	229.26
823.88	229.47
824.20	229.47
824.52	229.55
824.83	229.56
825.15	229.62
825.47	229.55
825.79	229.64
826.10	229.73
826.42	229.76
826.74	229.89
827.05	229.88
827.37	229.81
827.69	229.80
828.00	229.76
828.32	229.82
828.64	229.74
828.95	230.14
829.27	229.75
829.58	229.82
829.90	229.94
830.22	230.08
830.53	229.86
830.85	229.79
831.17	229.53
831.48	229.56
831.80	229.52
832.11	229.31
832.43	229.25
832.75	229.17
833.06	229.77
833.38	229.49
833.69	229.51
834.01	229.51
834.32	229.40
834.64	229.24
834.96	229.19
835.27	229.19
835.59	228.86
835.90	228.79
836.22	228.63
836.53	228.42
836.85	228.24
837.16	229.18
837.48	229.26
837.79	229.62
838.11	229.60
838.42	229.61
838.74	229.86
839.05	229.68
839.37	229.71
839.68	229.05
840.00	229.09
840.31	229.22
840.63	229.13
840.94	229.09
841.26	229.04
841.57	228.88
841.88	228.94
842.20	228.79
842.51	228.67
842.83	228.69
843.14	229.64
843.46	229.73
843.77	229.22
844.08	229.06
844.40	228.80
844.71	228.66
845.03	228.60
845.34	228.50
845.65	228.50
845.97	228.48
846.28	228.58
846.60	228.42
846.91	228.30
847.22	228.20
847.54	228.42
847.85	228.51
848.16	228.45
848.48	228.27
848.79	228.60
849.10	228.72
849.42	228.89
849.73	227.90
850.04	227.90
850.36	227.57
850.67	227.75
850.98	227.70
851.30	227.75
851.61	227.75
851.92	227.72
852.23	228.09
852.55	228.22
852.86	228.19
853.17	228.49
853.49	228.60
853.80	228.80
854.11	228.84
854.42	229.01
854.74	229.00
855.05	229.03
855.36	228.62
855.67	228.57
855.99	228.50
856.30	229.73
856.61	229.73
856.92	229.72
857.23	229.70
857.55	229.65
857.86	229.71
858.17	229.84
858.48	229.75
858.79	229.54
859.11	229.53
859.42	229.51
859.73	229.37
860.04	229.33
860.35	229.16
860.66	228.95
860.98	228.85
861.29	229.06
861.60	229.02
861.91	229.32
862.22	229.22
862.53	229.15
862.84	227.91
863.16	228.20
863.47	228.00
863.78	227.92
864.09	227.96
864.40	228.03
864.71	228.07
865.02	228.09
865.33	227.97
865.64	227.80
865.95	227.81
866.27	228.39
866.58	228.30
866.89	228.40
867.20	228.36
867.51	228.23
867.82	228.11
868.13	228.46
868.44	228.16
868.75	228.36
869.06	228.36
869.37	228.48
869.68	227.95
869.99	228.09
870.30	228.19
870.61	228.25
870.92	228.00
871.23	227.88
871.54	228.09
871.85	228.29
872.16	228.47
872.47	228.39
872.78	227.71
873.09	227.73
873.40	227.53
873.71	227.59
874.02	227.62
874.33	227.50
874.64	227.17
874.95	227.39
875.26	227.03
875.56	227.01
875.87	226.94
876.18	227.05
876.49	228.07
876.80	227.93
877.11	227.77
877.42	227.84
877.73	227.80
878.04	227.62
878.35	227.67
878.66	227.63
878.96	227.63
879.27	227.70
879.58	227.62
879.89	227.69
880.20	227.97
880.51	228.00
880.82	228.11
881.12	228.17
881.43	227.85
881.74	227.85
882.05	227.87
882.36	228.02
882.67	228.05
882.97	226.93
883.28	226.82
883.59	226.80
883.90	226.94
884.21	227.12
884.51	227.01
884.82	226.77
885.13	226.65
885.44	226.64
885.74	226.57
886.05	226.55
886.36	226.50
886.67	226.07
886.98	226.58
887.28	226.62
887.59	226.67
887.90	226.78
888.20	226.76
888.51	226.91
888.82	226.76
889.13	226.95
889.43	227.87
889.74	227.96
890.05	227.90
890.35	227.76
890.66	227.57
890.97	227.50
891.28	227.54
891.58	227.65
891.89	227.61
892.20	227.65
892.50	227.59
892.81	227.58
893.12	227.71
893.42	227.18
893.73	227.32
894.04	227.43
894.34	227.47
894.65	227.53
894.95	227.49
895.26	227.48
895.57	227.77
895.87	226.91
896.18	227.03
896.48	227.17
896.79	227.13
897.10	227.24
897.40	227.33
897.71	227.37
898.01	227.26
898.32	227.37
898.63	227.40
898.93	227.60
899.24	227.66
899.54	227.63
899.85	227.57
900.15	227.42
900.46	227.34
900.76	227.43
901.07	227.44
901.38	227.39
901.68	227.52
901.99	227.10
902.29	227.26
902.60	227.19
902.90	227.17
903.21	227.28
903.51	227.28
903.82	227.50
904.12	227.57
904.43	227.64
904.73	227.68
905.03	227.69
905.34	228.51
905.64	228.50
905.95	228.50
906.25	228.53
906.56	228.51
906.86	228.59
907.17	228.56
907.47	228.70
907.77	228.52
908.08	228.40
908.38	228.50
908.69	228.48
908.99	228.61
909.30	228.68
909.60	228.62
909.90	228.65
910.21	228.47
910.51	228.24
910.81	228.24
911.12	228.27
911.42	228.20
911.73	227.29
912.03	227.31
912.33	227.45
912.64	227.50
912.94	227.35
913.24	227.14
913.55	227.00
913.85	226.84
914.15	227.15
914.46	227.22
914.76	227.04
915.06	226.90
915.37	226.78
915.67	226.65
915.97	226.66
916.27	226.42
916.58	226.34
916.88	226.39
917.18	226.39
917.49	226.90
917.79	226.90
918.09	227.07
918.39	227.24
918.70	227.17
919.00	227.13
919.30	227.65
919.60	227.54
919.91	227.51
920.21	227.64
920.51	227.43
920.81	227.27
921.12	227.42
921.42	227.36
921.72	227.37
922.02	227.49
922.32	227.67
922.63	227.74
922.93	228.23
923.23	228.22
923.53	228.05
923.83	227.49
924.13	227.60
924.44	227.44
924.74	227.57
925.04	227.78
925.34	227.72
925.64	227.26
925.94	227.28
926.24	227.77
926.55	227.54
926.85	227.61
927.15	227.67
927.45	227.68
927.75	227.75
928.05	227.79
928.35	227.64
928.65	227.70
928.95	227.84
929.26	227.47
929.56	227.61
929.86	227.72
930.16	227.73
930.46	227.63
930.76	227.69
931.06	227.28
931.36	227.05
931.66	227.21
931.96	227.31
932.26	227.36
932.56	227.00
932.86	227.08
933.16	227.09
933.46	227.03
933.76	226.87
934.06	227.19
934.36	227.50
934.66	227.53
934.96	227.33
935.26	227.39
935.56	227.53
935.86	227.34
936.16	227.23
936.46	227.19
936.76	227.16
937.06	226.99
937.36	227.12
937.66	227.07
937.96	227.06
938.26	226.87
938.56	226.84
938.86	226.85
939.16	227.13
939.46	227.26
939.76	227.44
940.06	227.49
940.35	227.15
940.65	226.63
940.95	226.56
941.25	226.48
941.55	226.32
941.85	226.25
942.15	226.33
942.45	226.62
942.75	226.57
943.04	226.54
943.34	226.77
943.64	226.60
943.94	226.50
944.24	226.57
944.54	226.78
944.84	226.86
945.13	226.78
945.43	226.63
945.73	226.51
946.03	226.37
946.33	226.21
946.62	226.15
946.92	226.16
947.22	226.40
947.52	226.48
947.82	226.64
948.11	226.71
948.41	226.67
948.71	226.50
949.01	226.63
949.31	226.59
949.60	226.50
949.90	226.78
950.20	226.82
950.50	226.80
950.79	226.60
951.09	226.68
951.39	226.70
951.69	226.64
951.98	226.90
952.28	227.00
952.58	227.09
952.87	227.13
953.17	227.35
953.47	227.27
953.76	227.26
954.06	227.12
954.36	226.93
954.66	226.98
954.95	227.16
955.25	227.25
955.55	227.42
955.84	227.31
956.14	227.35
956.44	227.46
956.73	227.26
957.03	227.41
957.32	227.43
957.62	227.38
957.92	227.53
958.21	227.37
958.51	228.34
958.81	228.35
959.10	228.46
959.40	228.70
959.69	228.81
959.99	228.92
960.29	228.90
960.58	228.87
960.88	229.20
961.17	229.06
961.47	229.13
961.76	229.02
962.06	229.11
962.36	228.99
962.65	229.05
962.95	229.17
963.24	229.04
963.54	229.12
963.83	229.23
964.13	229.36
964.42	229.09
964.72	228.30
965.01	228.47
965.31	228.39
965.60	228.08
965.90	228.54
966.19	228.27
966.49	228.31
966.78	228.32
967.08	228.21
967.37	228.22
967.67	227.99
967.96	228.20
968.26	228.21
968.55	228.34
968.85	228.17
969.14	228.14
969.43	228.19
969.73	228.08
970.02	227.99
970.32	227.76
970.61	227.86
970.91	227.60
971.20	227.43
971.49	227.51
971.79	227.60
972.08	226.93
972.38	227.08
972.67	227.03
972.96	227.13
973.26	226.97
973.55	227.26
973.85	227.18
974.14	227.18
974.43	227.28
974.73	227.17
975.02	227.19
975.31	227.23
975.61	227.21
975.90	227.13
976.19	226.99
976.49	227.05
976.78	227.11
977.07	227.11
977.37	227.13
977.66	227.05
977.95	226.80
978.24	226.94
978.54	227.09
978.83	226.96
979.12	226.86
979.42	226.81
979.71	226.62
980.00	226.65
980.29	226.57
980.59	226.34
980.88	226.61
981.17	226.49
981.46	226.41
981.76	226.43
982.05	226.74
982.34	226.88
982.63	226.84
982.93	226.73
983.22	226.96
983.51	226.95
983.80	227.10
984.09	227.29
984.39	227.19
984.68	227.06
984.97	227.20
985.26	227.18
985.55	227.29
985.85	227.12
986.14	227.29
986.43	227.38
986.72	227.33
987.01	226.80
987.30	226.87
987.59	226.78
987.89	226.83
988.18	226.52
988.47	226.44
988.76	226.32
989.05	226.23
989.34	226.08
989.63	226.37
989.92	226.22
990.22	226.15
990.51	226.17
990.80	226.22
991.09	226.26
991.38	226.43
991.67	226.29
991.96	226.17
992.25	226.15
992.54	225.94
992.83	226.10
993.12	226.24
993.41	226.33
993.70	226.77
993.99	226.86
994.28	226.87
994.58	227.01
994.87	227.01
995.16	227.10
995.45	227.10
995.74	226.70
996.03	226.76
996.32	226.96
996.61	227.13
996.90	227.01
997.19	226.93
997.48	226.89
997.77	226.83
998.06	226.96
998.34	226.88
998.63	226.84
998.92	226.83
999.21	226.98
999.50	227.00
999.79	226.75
1000.08	226.76
1000.37	226.82
1000.66	226.71
1000.95	226.98
1001.24	226.93
1001.53	227.07
1001.82	227.16
1002.11	227.07
1002.40	227.07
1002.68	227.29
1002.97	227.97
1003.26	227.85
1003.55	227.78
1003.84	227.89
1004.13	228.21
1004.42	228.14
1004.71	228.21
1004.99	228.06
1005.28	228.30
1005.57	228.23
1005.86	228.09
1006.15	227.99
1006.44	227.88
1006.72	227.99
1007.01	227.78
1007.30	227.83
1007.59	227.69
1007.88	227.61
1008.17	227.69
1008.45	227.38
1008.74	227.00
1009.03	226.53
1009.32	226.61
1009.60	226.52
1009.89	226.40
1010.18	225.92
1010.47	225.95
1010.76	225.94
1011.04	225.98
1011.33	225.93
1011.62	226.06
1011.91	226.09
1012.19	226.13
1012.48	226.20
1012.77	226.21
1013.05	226.62
1013.34	226.68
1013.63	226.58
1013.92	226.67
1014.20	226.50
1014.49	226.73
1014.78	226.83
1015.06	226.63
1015.35	226.60
1015.64	226.80
1015.92	226.97
1016.21	227.07
1016.50	227.00
1016.78	227.09
1017.07	227.18
1017.36	226.85
1017.64	226.70
1017.93	226.77
1018.22	226.72
1018.50	226.69
1018.79	226.57
1019.08	226.10
1019.36	226.06
1019.65	226.03
1019.93	226.33
1020.22	226.59
1020.51	226.95
1020.79	226.79
1021.08	226.60
1021.36	225.50
1021.65	225.70
1021.94	225.00
1022.22	225.30
1022.51	224.60
1022.79	231.90
1023.08	228.90
1023.36	236.70
1023.65	224.10
>>>>>End Processed Spectral Data<<<<<
