SpectraSuite Data File
++++++++++++++++++++++++++++++++++++
Date: Wed Sep 04 17:32:47 EDT 2013
User: lab3
Dark Spectrum Present: Yes
Reference Spectrum Present: No
Number of Sampled Component Spectra: 1
Spectrometers: USB2E7196
Integration Time (usec): 337000 (USB2E7196)
Spectra Averaged: 10 (USB2E7196)
Boxcar Smoothing: 10 (USB2E7196)
Correct for Electrical Dark: No (USB2E7196)
Strobe/Lamp Enabled: No (USB2E7196)
Correct for Detector Non-linearity: No (USB2E7196)
Correct for Stray Light: No (USB2E7196)
Number of Pixels in Processed Spectrum: 2048
>>>>>Begin Processed Spectral Data<<<<<
339.09	0.00
339.48	212.60
339.86	213.60
340.24	215.50
340.63	217.30
341.01	233.30
341.39	218.20
341.78	223.20
342.16	226.20
342.54	224.00
342.93	213.23
343.31	223.95
343.69	224.50
344.07	225.03
344.46	225.67
344.84	226.19
345.22	225.72
345.60	226.19
345.99	226.41
346.37	226.47
346.75	226.62
347.13	226.68
347.52	226.83
347.90	227.11
348.28	227.08
348.66	227.29
349.05	227.07
349.43	227.12
349.81	227.26
350.19	227.27
350.57	227.40
350.96	227.43
351.34	227.63
351.72	227.75
352.10	227.88
352.48	227.69
352.87	227.70
353.25	227.89
353.63	227.81
354.01	227.81
354.39	227.85
354.77	227.87
355.15	228.25
355.54	228.16
355.92	227.97
356.30	228.06
356.68	228.60
357.06	228.66
357.44	228.51
357.82	228.53
358.20	229.42
358.58	229.53
358.97	229.59
359.35	229.62
359.73	229.93
360.11	229.90
360.49	230.02
360.87	229.99
361.25	230.11
361.63	230.52
362.01	230.60
362.39	230.60
362.77	230.75
363.15	230.71
363.53	230.80
363.91	230.97
364.29	230.95
364.67	230.11
365.05	230.09
365.43	230.36
365.81	230.50
366.19	230.18
366.57	230.44
366.95	230.43
367.33	230.45
367.71	230.33
368.09	230.60
368.47	230.71
368.85	230.67
369.23	230.88
369.61	230.50
369.99	230.87
370.37	231.00
370.75	231.36
371.13	231.12
371.51	231.03
371.89	231.10
372.27	231.22
372.65	231.23
373.03	231.25
373.41	231.10
373.78	230.90
374.16	230.39
374.54	230.11
374.92	230.07
375.30	229.83
375.68	229.61
376.06	229.51
376.44	229.29
376.82	229.40
377.19	229.23
377.57	229.15
377.95	228.72
378.33	228.56
378.71	227.89
379.09	228.02
379.47	227.99
379.84	227.82
380.22	227.69
380.60	227.51
380.98	227.39
381.36	227.28
381.73	227.08
382.11	227.20
382.49	227.09
382.87	226.75
383.25	226.82
383.62	227.92
384.00	227.71
384.38	227.73
384.76	227.76
385.13	228.06
385.51	227.99
385.89	227.75
386.27	227.73
386.64	227.86
387.02	227.79
387.40	227.63
387.78	227.59
388.15	227.54
388.53	227.48
388.91	227.50
389.29	227.46
389.66	227.70
390.04	227.57
390.42	227.75
390.79	227.85
391.17	227.80
391.55	226.77
391.92	226.76
392.30	226.95
392.68	226.81
393.05	226.76
393.43	226.80
393.81	227.04
394.18	226.93
394.56	226.99
394.94	227.16
395.31	227.24
395.69	227.50
396.06	227.67
396.44	227.90
396.82	227.83
397.19	228.38
397.57	228.26
397.95	228.50
398.32	228.30
398.70	228.52
399.07	228.79
399.45	228.83
399.82	228.87
400.20	228.78
400.58	228.87
400.95	228.54
401.33	228.85
401.70	229.55
402.08	229.72
402.45	229.86
402.83	230.18
403.20	230.44
403.58	230.49
403.95	230.81
404.33	231.09
404.71	231.42
405.08	232.14
405.46	232.41
405.83	232.68
406.21	232.98
406.58	233.36
406.96	233.68
407.33	234.14
407.70	234.68
408.08	235.85
408.45	236.43
408.83	237.11
409.20	237.51
409.58	237.43
409.95	238.17
410.33	238.84
410.70	239.14
411.08	239.85
411.45	240.68
411.82	241.32
412.20	242.28
412.57	243.66
412.95	245.48
413.32	246.68
413.69	247.67
414.07	248.86
414.44	249.95
414.82	251.15
415.19	252.54
415.56	253.98
415.94	255.00
416.31	256.79
416.68	258.57
417.06	260.60
417.43	262.65
417.81	264.79
418.18	267.02
418.55	269.48
418.93	272.08
419.30	274.69
419.67	277.51
420.04	280.35
420.42	282.99
420.79	285.46
421.16	288.90
421.54	292.93
421.91	296.75
422.28	300.71
422.66	304.74
423.03	309.43
423.40	313.58
423.77	318.00
424.15	322.45
424.52	327.25
424.89	332.71
425.26	337.71
425.64	342.42
426.01	347.79
426.38	353.26
426.75	359.06
427.13	364.71
427.50	370.70
427.87	376.84
428.24	383.17
428.61	388.58
428.99	395.41
429.36	402.13
429.73	409.02
430.10	416.13
430.47	423.42
430.85	430.19
431.22	438.10
431.59	447.05
431.96	454.82
432.33	463.57
432.70	471.85
433.08	481.90
433.45	491.55
433.82	500.77
434.19	511.36
434.56	521.59
434.93	531.39
435.30	541.15
435.68	552.16
436.05	562.88
436.42	573.39
436.79	583.42
437.16	594.09
437.53	605.54
437.90	616.56
438.27	627.65
438.64	638.94
439.01	649.82
439.38	658.61
439.75	668.02
440.13	678.55
440.50	688.51
440.87	696.48
441.24	704.50
441.61	713.70
441.98	720.32
442.35	727.85
442.72	735.98
443.09	744.12
443.46	748.78
443.83	752.01
444.20	754.94
444.57	758.29
444.94	760.00
445.31	761.73
445.68	764.42
446.05	764.69
446.42	763.47
446.79	762.02
447.16	760.47
447.53	759.32
447.90	754.74
448.27	750.10
448.64	744.03
449.01	739.80
449.37	732.20
449.74	724.71
450.11	716.77
450.48	706.82
450.85	696.50
451.22	687.80
451.59	679.50
451.96	671.56
452.33	661.56
452.70	652.39
453.07	641.32
453.43	629.25
453.80	619.00
454.17	608.86
454.54	598.90
454.91	588.74
455.28	578.47
455.65	569.07
456.02	561.10
456.38	553.13
456.75	543.35
457.12	535.08
457.49	527.02
457.86	518.42
458.23	512.02
458.59	504.62
458.96	497.38
459.33	490.83
459.70	484.47
460.07	479.20
460.43	473.16
460.80	467.75
461.17	463.14
461.54	457.88
461.91	452.96
462.27	447.91
462.64	443.44
463.01	438.84
463.38	434.62
463.74	428.65
464.11	424.76
464.48	421.25
464.85	417.51
465.21	414.92
465.58	412.12
465.95	408.48
466.32	405.71
466.68	402.71
467.05	400.02
467.42	397.21
467.78	394.25
468.15	391.48
468.52	389.45
468.88	386.37
469.25	383.91
469.62	382.25
469.98	380.28
470.35	378.40
470.72	376.46
471.08	374.09
471.45	372.72
471.82	371.13
472.18	369.18
472.55	368.02
472.92	366.20
473.28	364.67
473.65	363.18
474.02	361.76
474.38	360.69
474.75	359.62
475.11	358.27
475.48	357.33
475.85	356.45
476.21	355.32
476.58	354.60
476.94	353.89
477.31	353.00
477.67	352.30
478.04	351.68
478.41	351.33
478.77	351.96
479.14	351.28
479.50	350.90
479.87	350.79
480.23	350.48
480.60	350.22
480.96	349.90
481.33	350.29
481.69	350.20
482.06	350.23
482.42	350.36
482.79	350.50
483.15	350.55
483.52	350.92
483.88	351.09
484.25	351.39
484.61	351.85
484.98	351.96
485.34	352.77
485.71	353.46
486.07	354.19
486.44	354.03
486.80	354.88
487.17	355.57
487.53	356.78
487.90	357.93
488.26	359.32
488.62	360.74
488.99	361.46
489.35	362.82
489.72	364.10
490.08	365.26
490.44	366.71
490.81	368.63
491.17	370.21
491.54	372.23
491.90	374.18
492.26	376.18
492.63	378.63
492.99	380.44
493.36	382.72
493.72	385.20
494.08	387.69
494.45	390.39
494.81	393.40
495.17	396.07
495.54	399.03
495.90	401.89
496.26	404.92
496.63	408.28
496.99	411.60
497.35	415.01
497.72	418.80
498.08	422.53
498.44	426.27
498.80	430.20
499.17	434.01
499.53	438.08
499.89	442.30
500.26	446.36
500.62	450.96
500.98	455.80
501.34	460.33
501.71	465.29
502.07	470.06
502.43	474.94
502.79	479.92
503.16	485.11
503.52	490.27
503.88	495.43
504.24	501.08
504.60	506.81
504.97	512.96
505.33	518.88
505.69	525.54
506.05	531.57
506.41	537.90
506.78	544.51
507.14	551.20
507.50	558.06
507.86	565.06
508.22	572.13
508.59	578.80
508.95	586.06
509.31	593.72
509.67	601.33
510.03	608.74
510.39	616.39
510.75	624.02
511.12	631.82
511.48	639.90
511.84	647.91
512.20	655.78
512.56	663.85
512.92	672.15
513.28	680.29
513.64	688.74
514.00	697.35
514.37	706.09
514.73	714.87
515.09	723.91
515.45	732.94
515.81	741.75
516.17	751.10
516.53	760.33
516.89	769.28
517.25	778.74
517.61	788.64
517.97	798.59
518.33	808.42
518.69	818.86
519.05	829.46
519.41	839.84
519.77	850.96
520.13	861.19
520.49	871.37
520.85	882.01
521.21	893.30
521.57	904.39
521.93	914.82
522.29	925.75
522.65	935.92
523.01	946.60
523.37	957.22
523.73	968.10
524.09	978.93
524.45	989.22
524.81	1000.02
525.17	1010.79
525.53	1021.46
525.89	1032.52
526.25	1043.23
526.61	1053.70
526.97	1064.57
527.33	1075.75
527.68	1088.02
528.04	1099.79
528.40	1110.85
528.76	1122.18
529.12	1133.10
529.48	1144.71
529.84	1155.69
530.20	1167.70
530.56	1179.56
530.91	1191.91
531.27	1203.49
531.63	1215.01
531.99	1227.42
532.35	1238.70
532.71	1250.42
533.07	1262.59
533.42	1275.28
533.78	1287.03
534.14	1299.10
534.50	1310.77
534.86	1322.51
535.21	1333.19
535.57	1344.60
535.93	1355.57
536.29	1366.84
536.65	1378.70
537.00	1389.87
537.36	1401.34
537.72	1412.03
538.08	1423.06
538.44	1433.15
538.79	1443.80
539.15	1454.63
539.51	1464.90
539.87	1475.10
540.22	1484.72
540.58	1494.35
540.94	1502.70
541.29	1511.68
541.65	1520.60
542.01	1529.56
542.37	1537.31
542.72	1545.18
543.08	1553.38
543.44	1562.32
543.79	1569.39
544.15	1576.69
544.51	1584.79
544.87	1591.96
545.22	1599.11
545.58	1605.85
545.94	1612.71
546.29	1619.04
546.65	1625.08
547.01	1630.63
547.36	1636.60
547.72	1642.35
548.07	1647.34
548.43	1652.58
548.79	1658.01
549.14	1662.84
549.50	1667.99
549.86	1672.65
550.21	1677.76
550.57	1681.87
550.92	1685.05
551.28	1688.98
551.64	1693.20
551.99	1696.94
552.35	1700.57
552.70	1704.35
553.06	1708.08
553.41	1711.57
553.77	1715.78
554.13	1719.41
554.48	1723.53
554.84	1727.08
555.19	1730.75
555.55	1735.33
555.90	1738.17
556.26	1740.64
556.61	1742.70
556.97	1744.20
557.32	1746.76
557.68	1748.94
558.03	1751.28
558.39	1753.61
558.74	1756.27
559.10	1757.24
559.45	1758.19
559.81	1759.18
560.16	1759.62
560.52	1760.12
560.87	1760.62
561.23	1759.66
561.58	1760.03
561.94	1758.69
562.29	1758.02
562.64	1757.15
563.00	1754.68
563.35	1753.99
563.71	1753.57
564.06	1753.17
564.42	1752.79
564.77	1752.20
565.12	1751.21
565.48	1750.78
565.83	1750.25
566.19	1748.64
566.54	1747.62
566.89	1745.95
567.25	1744.91
567.60	1744.53
567.96	1743.70
568.31	1742.83
568.66	1741.86
569.02	1739.07
569.37	1737.91
569.72	1736.09
570.08	1733.79
570.43	1731.80
570.78	1729.90
571.14	1727.40
571.49	1724.23
571.84	1721.59
572.20	1718.57
572.55	1715.29
572.90	1711.13
573.26	1707.28
573.61	1703.42
573.96	1699.57
574.31	1695.42
574.67	1690.76
575.02	1685.24
575.37	1679.82
575.72	1674.16
576.08	1669.36
576.43	1664.55
576.78	1659.12
577.13	1653.53
577.49	1648.18
577.84	1642.96
578.19	1637.79
578.54	1632.31
578.90	1627.61
579.25	1622.40
579.60	1616.86
579.95	1611.50
580.30	1606.09
580.66	1599.94
581.01	1594.08
581.36	1587.70
581.71	1581.94
582.06	1576.43
582.42	1570.79
582.77	1564.86
583.12	1559.61
583.47	1554.01
583.82	1548.63
584.17	1543.28
584.53	1538.36
584.88	1532.24
585.23	1526.35
585.58	1519.25
585.93	1512.79
586.28	1506.24
586.63	1499.25
586.98	1491.99
587.34	1485.35
587.69	1478.61
588.04	1472.57
588.39	1466.77
588.74	1460.77
589.09	1455.01
589.44	1448.16
589.79	1442.03
590.14	1436.02
590.49	1429.64
590.84	1423.38
591.19	1417.35
591.54	1410.69
591.89	1403.87
592.25	1399.62
592.60	1393.38
592.95	1387.79
593.30	1381.67
593.65	1375.34
594.00	1368.85
594.35	1365.73
594.70	1359.14
595.05	1353.04
595.40	1346.27
595.75	1339.25
596.10	1333.11
596.45	1326.50
596.80	1320.66
597.15	1314.31
597.50	1307.72
597.85	1301.66
598.19	1295.02
598.54	1287.90
598.89	1281.17
599.24	1275.35
599.59	1267.86
599.94	1261.58
600.29	1255.36
600.64	1249.15
600.99	1242.86
601.34	1237.35
601.69	1228.81
602.04	1223.01
602.39	1217.06
602.74	1211.93
603.08	1206.46
603.43	1200.63
603.78	1194.74
604.13	1188.71
604.48	1182.36
604.83	1176.31
605.18	1169.86
605.53	1163.60
605.87	1158.06
606.22	1153.11
606.57	1146.62
606.92	1140.53
607.27	1134.81
607.62	1128.86
607.96	1123.54
608.31	1118.20
608.66	1112.66
609.01	1106.85
609.36	1101.20
609.70	1095.41
610.05	1088.98
610.40	1083.43
610.75	1077.51
611.10	1071.87
611.44	1065.81
611.79	1060.49
612.14	1055.25
612.49	1049.40
612.83	1044.36
613.18	1038.59
613.53	1032.85
613.88	1027.50
614.22	1021.91
614.57	1016.06
614.92	1010.41
615.27	1004.73
615.61	998.89
615.96	992.90
616.31	987.40
616.65	982.31
617.00	976.79
617.35	971.53
617.70	965.68
618.04	960.23
618.39	954.68
618.74	949.85
619.08	944.52
619.43	938.85
619.78	933.76
620.12	927.83
620.47	922.70
620.82	916.91
621.16	911.26
621.51	906.44
621.85	901.48
622.20	896.02
622.55	890.50
622.89	885.49
623.24	880.70
623.59	875.25
623.93	869.79
624.28	864.70
624.62	860.57
624.97	856.27
625.32	851.29
625.66	846.36
626.01	841.28
626.35	836.59
626.70	831.69
627.04	826.88
627.39	822.33
627.73	817.80
628.08	813.57
628.43	808.96
628.77	803.86
629.12	799.21
629.46	795.01
629.81	791.14
630.15	786.83
630.50	782.28
630.84	778.01
631.19	773.77
631.53	769.76
631.88	764.60
632.22	759.90
632.57	756.22
632.91	751.92
633.26	748.02
633.60	743.53
633.95	739.15
634.29	734.65
634.64	730.49
634.98	725.64
635.32	721.56
635.67	718.20
636.01	714.32
636.36	710.05
636.70	706.44
637.05	702.25
637.39	698.52
637.73	694.80
638.08	691.30
638.42	686.94
638.77	682.71
639.11	678.35
639.45	674.03
639.80	669.40
640.14	665.52
640.49	661.31
640.83	657.70
641.17	654.31
641.52	650.69
641.86	647.06
642.20	644.37
642.55	640.43
642.89	636.46
643.23	632.77
643.58	629.75
643.92	625.74
644.26	621.94
644.61	618.32
644.95	614.54
645.29	610.56
645.64	607.58
645.98	604.17
646.32	601.26
646.66	597.72
647.01	594.46
647.35	591.36
647.69	588.24
648.04	585.04
648.38	582.05
648.72	578.95
649.06	575.45
649.41	571.79
649.75	568.54
650.09	565.20
650.43	562.09
650.78	558.68
651.12	555.53
651.46	552.50
651.80	549.16
652.14	546.27
652.49	543.74
652.83	540.65
653.17	537.65
653.51	534.53
653.85	531.91
654.20	529.20
654.54	526.30
654.88	523.43
655.22	520.90
655.56	517.97
655.90	515.34
656.25	512.77
656.59	510.19
656.93	507.75
657.27	505.60
657.61	502.81
657.95	500.22
658.29	497.75
658.64	495.21
658.98	492.69
659.32	489.97
659.66	487.22
660.00	484.65
660.34	482.26
660.68	479.72
661.02	477.34
661.36	474.78
661.70	472.40
662.05	469.87
662.39	467.44
662.73	465.30
663.07	463.37
663.41	461.14
663.75	458.50
664.09	456.13
664.43	453.35
664.77	451.27
665.11	449.08
665.45	446.97
665.79	444.97
666.13	442.85
666.47	440.55
666.81	438.41
667.15	436.14
667.49	434.18
667.83	432.83
668.17	430.96
668.51	429.06
668.85	427.09
669.19	425.73
669.53	423.68
669.87	421.56
670.21	419.23
670.55	417.31
670.89	416.09
671.23	414.34
671.57	412.58
671.91	410.78
672.25	409.00
672.58	407.49
672.92	405.37
673.26	403.65
673.60	402.05
673.94	400.42
674.28	398.98
674.62	397.44
674.96	395.41
675.30	393.53
675.64	391.86
675.97	390.18
676.31	388.21
676.65	386.39
676.99	385.04
677.33	383.41
677.67	381.95
678.01	379.70
678.34	378.16
678.68	377.07
679.02	375.39
679.36	373.70
679.70	371.86
680.04	370.68
680.37	369.40
680.71	368.02
681.05	366.63
681.39	365.34
681.73	363.81
682.06	362.36
682.40	361.09
682.74	359.93
683.08	359.07
683.42	357.70
683.75	356.65
684.09	355.10
684.43	353.98
684.77	352.64
685.10	351.78
685.44	350.48
685.78	349.11
686.12	347.97
686.45	347.00
686.79	345.88
687.13	344.80
687.46	343.41
687.80	342.39
688.14	341.09
688.48	339.80
688.81	338.65
689.15	337.76
689.49	336.67
689.82	335.58
690.16	333.97
690.50	332.89
690.83	331.57
691.17	330.34
691.51	329.18
691.84	328.16
692.18	326.86
692.52	325.65
692.85	324.55
693.19	323.87
693.52	322.74
693.86	321.73
694.20	320.58
694.53	319.65
694.87	318.47
695.21	317.58
695.54	316.51
695.88	315.32
696.21	313.99
696.55	312.98
696.88	311.95
697.22	310.96
697.56	310.19
697.89	309.35
698.23	308.60
698.56	307.64
698.90	306.85
699.23	306.03
699.57	305.31
699.90	304.38
700.24	303.27
700.58	302.50
700.91	301.79
701.25	301.71
701.58	301.63
701.92	301.27
702.25	300.46
702.59	299.81
702.92	299.27
703.26	298.68
703.59	297.98
703.93	298.02
704.26	297.51
704.60	296.77
704.93	295.96
705.26	295.14
705.60	294.61
705.93	293.73
706.27	293.28
706.60	292.94
706.94	292.62
707.27	291.98
707.61	291.43
707.94	290.81
708.27	289.42
708.61	288.04
708.94	287.19
709.28	286.63
709.61	285.93
709.94	285.34
710.28	284.77
710.61	284.23
710.95	282.82
711.28	282.95
711.61	282.28
711.95	282.01
712.28	281.46
712.61	280.79
712.95	280.73
713.28	280.56
713.61	279.74
713.95	278.88
714.28	278.33
714.61	277.59
714.95	276.81
715.28	276.20
715.61	275.72
715.95	275.17
716.28	274.55
716.61	274.17
716.95	273.55
717.28	273.02
717.61	272.41
717.94	271.89
718.28	270.63
718.61	270.20
718.94	269.56
719.27	269.14
719.61	268.73
719.94	268.05
720.27	267.15
720.60	266.74
720.94	266.36
721.27	265.97
721.60	265.82
721.93	265.46
722.27	265.34
722.60	264.99
722.93	264.49
723.26	264.17
723.59	263.72
723.93	263.48
724.26	263.13
724.59	262.81
724.92	262.57
725.25	262.48
725.59	262.00
725.92	261.73
726.25	261.43
726.58	261.14
726.91	260.70
727.24	260.58
727.57	260.30
727.91	259.77
728.24	259.58
728.57	259.07
728.90	258.95
729.23	258.35
729.56	258.60
729.89	258.37
730.22	257.95
730.55	257.63
730.89	257.30
731.22	256.84
731.55	256.52
731.88	256.17
732.21	255.71
732.54	255.33
732.87	254.99
733.20	254.70
733.53	254.56
733.86	254.47
734.19	253.99
734.52	253.74
734.85	254.29
735.18	253.92
735.51	254.13
735.84	253.89
736.17	253.96
736.50	253.15
736.83	254.09
737.16	253.93
737.49	253.73
737.82	253.43
738.15	253.44
738.48	253.25
738.81	252.92
739.14	252.57
739.47	252.41
739.80	252.12
740.13	251.99
740.46	251.47
740.79	251.10
741.12	250.84
741.45	250.51
741.78	249.70
742.11	249.70
742.44	249.24
742.77	249.19
743.10	248.79
743.43	248.59
743.75	247.21
744.08	248.24
744.41	247.94
744.74	247.66
745.07	247.31
745.40	247.27
745.73	247.61
746.06	247.53
746.39	247.45
746.71	247.32
747.04	246.99
747.37	246.86
747.70	246.85
748.03	246.72
748.36	246.74
748.68	246.48
749.01	246.02
749.34	245.80
749.67	245.55
750.00	245.56
750.33	246.02
750.65	246.04
750.98	244.75
751.31	244.65
751.64	244.57
751.97	244.98
752.29	244.72
752.62	244.00
752.95	243.65
753.28	243.40
753.60	243.24
753.93	243.39
754.26	243.40
754.59	242.90
754.91	242.70
755.24	242.36
755.57	242.36
755.90	242.22
756.22	241.90
756.55	241.69
756.88	241.32
757.20	240.69
757.53	240.32
757.86	240.19
758.19	240.04
758.51	239.95
758.84	239.30
759.17	239.12
759.49	239.12
759.82	239.54
760.15	239.56
760.47	239.46
760.80	239.05
761.13	239.06
761.45	238.97
761.78	238.78
762.11	238.74
762.43	238.47
762.76	238.30
763.08	238.30
763.41	238.24
763.74	238.20
764.06	238.01
764.39	237.97
764.71	237.78
765.04	237.66
765.37	237.33
765.69	237.28
766.02	237.15
766.34	237.07
766.67	236.58
767.00	236.60
767.32	236.93
767.65	237.45
767.97	237.25
768.30	237.28
768.62	237.32
768.95	237.09
769.27	237.02
769.60	237.08
769.92	236.93
770.25	236.73
770.57	236.38
770.90	236.23
771.22	235.91
771.55	235.87
771.87	235.79
772.20	235.83
772.52	236.46
772.85	237.57
773.17	237.45
773.50	237.38
773.82	237.14
774.15	236.60
774.47	235.89
774.80	235.70
775.12	235.61
775.45	235.47
775.77	235.52
776.09	235.50
776.42	235.46
776.74	235.62
777.07	235.39
777.39	235.50
777.72	235.41
778.04	235.55
778.36	235.50
778.69	235.43
779.01	235.51
779.33	234.74
779.66	233.56
779.98	233.58
780.31	233.58
780.63	233.93
780.95	234.04
781.28	233.97
781.60	233.77
781.92	233.68
782.25	233.71
782.57	233.70
782.89	233.65
783.22	233.47
783.54	233.22
783.86	233.39
784.19	233.33
784.51	233.67
784.83	233.47
785.16	233.38
785.48	233.42
785.80	233.31
786.12	233.27
786.45	233.15
786.77	233.06
787.09	233.00
787.42	232.54
787.74	232.60
788.06	232.61
788.38	232.66
788.71	232.56
789.03	232.45
789.35	232.49
789.67	232.33
789.99	232.40
790.32	232.31
790.64	232.27
790.96	232.92
791.28	232.46
791.61	232.49
791.93	232.54
792.25	232.44
792.57	232.99
792.89	232.80
793.21	232.91
793.54	232.79
793.86	232.66
794.18	232.62
794.50	232.26
794.82	232.21
795.14	232.29
795.47	232.45
795.79	232.50
796.11	232.28
796.43	232.18
796.75	232.15
797.07	232.21
797.39	232.09
797.71	231.45
798.04	231.44
798.36	231.50
798.68	231.38
799.00	231.43
799.32	231.01
799.64	231.16
799.96	231.13
800.28	231.22
800.60	231.08
800.92	231.16
801.24	231.17
801.56	231.25
801.89	231.20
802.21	231.33
802.53	231.24
802.85	231.49
803.17	231.90
803.49	231.70
803.81	231.60
804.13	231.56
804.45	231.49
804.77	231.56
805.09	231.51
805.41	231.47
805.73	231.23
806.05	230.93
806.37	230.83
806.69	230.73
807.01	230.74
807.33	230.77
807.65	230.43
807.97	230.82
808.28	230.75
808.60	230.60
808.92	230.32
809.24	230.80
809.56	230.60
809.88	230.22
810.20	230.27
810.52	230.42
810.84	230.31
811.16	230.24
811.48	230.11
811.80	230.40
812.12	230.36
812.43	230.63
812.75	230.73
813.07	230.67
813.39	230.64
813.71	230.53
814.03	230.51
814.35	230.64
814.67	230.22
814.98	230.12
815.30	230.13
815.62	230.07
815.94	229.41
816.26	229.84
816.58	229.79
816.89	229.96
817.21	229.74
817.53	229.85
817.85	229.83
818.17	229.94
818.48	229.50
818.80	229.70
819.12	229.41
819.44	229.32
819.76	229.20
820.07	229.20
820.39	229.19
820.71	229.20
821.03	229.22
821.34	229.15
821.66	229.27
821.98	229.37
822.30	229.31
822.61	229.90
822.93	229.34
823.25	229.30
823.57	229.16
823.88	229.35
824.20	229.36
824.52	229.62
824.83	229.48
825.15	229.45
825.47	229.46
825.79	229.61
826.10	229.51
826.42	229.49
826.74	229.56
827.05	229.48
827.37	229.54
827.69	229.43
828.00	229.56
828.32	229.55
828.64	229.35
828.95	229.82
829.27	229.60
829.58	229.69
829.90	229.86
830.22	229.89
830.53	229.67
830.85	229.53
831.17	229.23
831.48	229.28
831.80	229.32
832.11	229.15
832.43	229.06
832.75	229.07
833.06	229.70
833.38	229.50
833.69	229.51
834.01	229.58
834.32	229.64
834.64	229.55
834.96	229.49
835.27	229.61
835.59	229.30
835.90	229.16
836.22	229.12
836.53	228.88
836.85	228.76
837.16	229.74
837.48	229.80
837.79	230.14
838.11	230.22
838.42	230.19
838.74	230.22
839.05	230.16
839.37	230.08
839.68	229.47
840.00	229.41
840.31	229.50
840.63	229.43
840.94	229.31
841.26	229.19
841.57	229.26
841.88	229.37
842.20	229.26
842.51	229.11
842.83	229.08
843.14	230.00
843.46	230.00
843.77	229.44
844.08	229.32
844.40	228.96
844.71	228.88
845.03	228.78
845.34	228.76
845.65	228.73
845.97	228.79
846.28	228.88
846.60	229.02
846.91	228.82
847.22	228.66
847.54	228.86
847.85	229.07
848.16	229.04
848.48	228.83
848.79	229.20
849.10	229.32
849.42	229.40
849.73	228.43
850.04	228.39
850.36	228.06
850.67	228.28
850.98	228.43
851.30	228.43
851.61	228.45
851.92	228.47
852.23	228.80
852.55	228.90
852.86	228.96
853.17	229.01
853.49	229.38
853.80	229.65
854.11	229.69
854.42	229.67
854.74	229.42
855.05	229.50
855.36	229.00
855.67	229.01
855.99	228.95
856.30	230.20
856.61	230.21
856.92	230.26
857.23	230.17
857.55	229.98
857.86	229.91
858.17	230.10
858.48	229.92
858.79	229.73
859.11	229.81
859.42	229.61
859.73	229.45
860.04	229.38
860.35	229.17
860.66	228.98
860.98	228.88
861.29	229.09
861.60	229.03
861.91	229.30
862.22	229.18
862.53	229.13
862.84	227.98
863.16	228.19
863.47	227.96
863.78	227.90
864.09	227.97
864.40	228.01
864.71	227.97
865.02	228.08
865.33	227.82
865.64	227.59
865.95	227.65
866.27	228.27
866.58	228.08
866.89	228.17
867.20	228.12
867.51	228.04
867.82	228.02
868.13	228.17
868.44	227.99
868.75	228.23
869.06	228.21
869.37	228.24
869.68	227.94
869.99	228.18
870.30	228.25
870.61	228.39
870.92	228.34
871.23	228.26
871.54	228.47
871.85	228.81
872.16	228.95
872.47	228.85
872.78	228.34
873.09	228.48
873.40	228.31
873.71	228.34
874.02	228.37
874.33	228.35
874.64	228.17
874.95	228.36
875.26	228.05
875.56	228.08
875.87	228.12
876.18	228.22
876.49	229.06
876.80	228.97
877.11	228.65
877.42	228.77
877.73	228.79
878.04	228.54
878.35	228.49
878.66	228.47
878.96	228.58
879.27	228.50
879.58	228.47
879.89	228.47
880.20	228.73
880.51	228.75
880.82	228.67
881.12	228.70
881.43	228.34
881.74	228.28
882.05	228.22
882.36	228.19
882.67	228.20
882.97	227.23
883.28	227.23
883.59	227.32
883.90	227.30
884.21	227.50
884.51	227.43
884.82	227.27
885.13	227.26
885.44	227.25
885.74	227.18
886.05	227.08
886.36	227.12
886.67	226.83
886.98	227.38
887.28	227.48
887.59	227.58
887.90	227.70
888.20	227.66
888.51	227.83
888.82	227.76
889.13	227.76
889.43	228.52
889.74	228.49
890.05	228.50
890.35	228.41
890.66	228.13
890.97	228.12
891.28	228.04
891.58	228.04
891.89	227.98
892.20	228.03
892.50	228.02
892.81	227.97
893.12	227.92
893.42	227.36
893.73	227.37
894.04	227.35
894.34	227.40
894.65	227.42
894.95	227.27
895.26	227.31
895.57	227.80
895.87	226.92
896.18	227.06
896.48	227.11
896.79	227.08
897.10	227.29
897.40	227.39
897.71	227.61
898.01	227.60
898.32	227.79
898.63	227.64
898.93	227.70
899.24	227.74
899.54	227.77
899.85	227.78
900.15	227.70
900.46	227.72
900.76	227.78
901.07	227.73
901.38	227.70
901.68	227.80
901.99	227.39
902.29	227.58
902.60	227.41
902.90	227.40
903.21	227.42
903.51	227.42
903.82	227.51
904.12	227.49
904.43	227.55
904.73	227.39
905.03	227.57
905.34	228.45
905.64	228.36
905.95	228.32
906.25	228.26
906.56	228.24
906.86	228.29
907.17	228.25
907.47	228.41
907.77	228.43
908.08	228.24
908.38	228.20
908.69	228.20
908.99	228.46
909.30	228.41
909.60	228.40
909.90	228.30
910.21	228.12
910.51	227.87
910.81	227.86
911.12	228.00
911.42	228.07
911.73	227.11
912.03	227.11
912.33	227.31
912.64	227.32
912.94	227.22
913.24	226.99
913.55	227.01
913.85	226.90
914.15	227.14
914.46	227.29
914.76	227.22
915.06	227.09
915.37	226.86
915.67	226.84
915.97	226.91
916.27	226.81
916.58	226.79
916.88	226.81
917.18	226.74
917.49	227.25
917.79	227.12
918.09	227.19
918.39	227.53
918.70	227.49
919.00	227.46
919.30	227.94
919.60	227.89
919.91	227.74
920.21	227.88
920.51	227.52
920.81	227.46
921.12	227.60
921.42	227.58
921.72	227.68
922.02	227.70
922.32	227.83
922.63	227.93
922.93	228.41
923.23	228.57
923.53	228.50
923.83	227.92
924.13	227.99
924.44	228.09
924.74	228.20
925.04	228.41
925.34	228.43
925.64	228.04
925.94	228.06
926.24	228.63
926.55	228.46
926.85	228.64
927.15	228.68
927.45	228.62
927.75	228.68
928.05	228.78
928.35	228.74
928.65	228.80
928.95	228.85
929.26	228.51
929.56	228.68
929.86	228.78
930.16	228.77
930.46	228.67
930.76	228.59
931.06	228.17
931.36	227.92
931.66	228.19
931.96	228.34
932.26	228.47
932.56	228.01
932.86	228.10
933.16	228.11
933.46	228.05
933.76	228.04
934.06	228.32
934.36	228.64
934.66	228.58
934.96	228.51
935.26	228.47
935.56	228.54
935.86	228.28
936.16	228.20
936.46	228.08
936.76	228.13
937.06	228.01
937.36	228.13
937.66	228.07
937.96	227.93
938.26	227.76
938.56	227.66
938.86	227.72
939.16	227.91
939.46	228.01
939.76	228.13
940.06	228.01
940.35	227.67
940.65	227.16
940.95	227.30
941.25	227.02
941.55	227.00
941.85	226.86
942.15	227.07
942.45	227.31
942.75	227.33
943.04	227.38
943.34	227.55
943.64	227.34
943.94	227.26
944.24	227.26
944.54	227.30
944.84	227.28
945.13	227.21
945.43	227.04
945.73	226.94
946.03	226.80
946.33	226.80
946.62	226.77
946.92	226.75
947.22	226.79
947.52	226.87
947.82	226.96
948.11	226.98
948.41	226.76
948.71	226.55
949.01	226.55
949.31	226.47
949.60	226.48
949.90	226.61
950.20	226.55
950.50	226.54
950.79	226.40
951.09	226.56
951.39	226.49
951.69	226.55
951.98	226.75
952.28	226.73
952.58	226.68
952.87	226.70
953.17	226.83
953.47	226.64
953.76	226.69
954.06	226.43
954.36	226.36
954.66	226.29
954.95	226.48
955.25	226.68
955.55	226.79
955.84	226.61
956.14	226.76
956.44	226.90
956.73	226.77
957.03	226.92
957.32	226.91
957.62	226.93
957.92	226.97
958.21	226.89
958.51	228.04
958.81	228.19
959.10	228.37
959.40	228.50
959.69	228.60
959.99	228.77
960.29	228.78
960.58	228.73
960.88	229.12
961.17	229.03
961.47	228.98
961.76	228.86
962.06	229.00
962.36	228.91
962.65	229.02
962.95	229.12
963.24	229.01
963.54	229.02
963.83	229.07
964.13	228.97
964.42	228.75
964.72	227.90
965.01	227.93
965.31	227.72
965.60	227.55
965.90	228.10
966.19	227.89
966.49	228.09
966.78	228.20
967.08	228.25
967.37	228.24
967.67	228.13
967.96	228.23
968.26	228.24
968.55	228.29
968.85	228.15
969.14	228.17
969.43	228.15
969.73	228.12
970.02	228.00
970.32	228.05
970.61	227.96
970.91	227.69
971.20	227.49
971.49	227.50
971.79	227.58
972.08	226.98
972.38	227.03
972.67	226.95
972.96	226.94
973.26	226.74
973.55	227.10
973.85	226.99
974.14	226.89
974.43	226.85
974.73	226.85
975.02	226.80
975.31	226.72
975.61	226.60
975.90	226.39
976.19	226.39
976.49	226.42
976.78	226.50
977.07	226.46
977.37	226.50
977.66	226.55
977.95	226.50
978.24	226.60
978.54	226.80
978.83	226.69
979.12	226.71
979.42	226.55
979.71	226.25
980.00	226.31
980.29	226.44
980.59	226.35
980.88	226.53
981.17	226.53
981.46	226.50
981.76	226.58
982.05	226.95
982.34	227.09
982.63	227.05
982.93	227.05
983.22	227.36
983.51	227.40
983.80	227.53
984.09	227.59
984.39	227.45
984.68	227.13
984.97	227.21
985.26	227.05
985.55	227.20
985.85	226.97
986.14	227.07
986.43	227.10
986.72	227.04
987.01	226.75
987.30	226.74
987.59	226.74
987.89	226.80
988.18	226.49
988.47	226.37
988.76	226.29
989.05	226.19
989.34	226.05
989.63	226.37
989.92	226.27
990.22	226.10
990.51	226.13
990.80	226.21
991.09	226.25
991.38	226.37
991.67	226.24
991.96	226.34
992.25	226.28
992.54	226.11
992.83	226.06
993.12	226.00
993.41	226.17
993.70	226.50
993.99	226.66
994.28	226.90
994.58	226.98
994.87	226.81
995.16	226.86
995.45	226.79
995.74	226.40
996.03	226.51
996.32	226.64
996.61	226.83
996.90	226.80
997.19	226.69
997.48	226.79
997.77	226.73
998.06	226.73
998.34	226.75
998.63	226.75
998.92	226.87
999.21	227.08
999.50	227.07
999.79	226.82
1000.08	226.86
1000.37	226.77
1000.66	226.71
1000.95	227.01
1001.24	227.05
1001.53	227.22
1001.82	227.20
1002.11	227.00
1002.40	227.17
1002.68	227.40
1002.97	228.12
1003.26	228.13
1003.55	227.94
1003.84	228.06
1004.13	228.36
1004.42	228.32
1004.71	228.41
1004.99	228.37
1005.28	228.54
1005.57	228.50
1005.86	228.40
1006.15	228.26
1006.44	228.06
1006.72	228.20
1007.01	228.05
1007.30	228.11
1007.59	227.99
1007.88	227.95
1008.17	228.10
1008.45	227.96
1008.74	227.52
1009.03	227.12
1009.32	227.10
1009.60	227.16
1009.89	227.02
1010.18	226.60
1010.47	226.55
1010.76	226.49
1011.04	226.49
1011.33	226.48
1011.62	226.49
1011.91	226.63
1012.19	226.69
1012.48	226.75
1012.77	226.70
1013.05	227.10
1013.34	227.07
1013.63	227.03
1013.92	227.17
1014.20	227.03
1014.49	227.10
1014.78	227.21
1015.06	226.90
1015.35	226.98
1015.64	227.02
1015.92	227.20
1016.21	227.29
1016.50	227.39
1016.78	227.43
1017.07	227.50
1017.36	227.27
1017.64	227.16
1017.93	227.28
1018.22	227.20
1018.50	227.20
1018.79	227.11
1019.08	226.72
1019.36	226.90
1019.65	226.81
1019.93	226.96
1020.22	227.08
1020.51	227.40
1020.79	227.27
1021.08	226.10
1021.36	224.30
1021.65	225.80
1021.94	226.40
1022.22	229.90
1022.51	225.40
1022.79	229.90
1023.08	227.80
1023.36	236.60
1023.65	224.10
>>>>>End Processed Spectral Data<<<<<
