SpectraSuite Data File
++++++++++++++++++++++++++++++++++++
Date: Wed Sep 04 17:28:31 EDT 2013
User: lab3
Dark Spectrum Present: Yes
Reference Spectrum Present: No
Number of Sampled Component Spectra: 1
Spectrometers: USB2E7196
Integration Time (usec): 337000 (USB2E7196)
Spectra Averaged: 10 (USB2E7196)
Boxcar Smoothing: 10 (USB2E7196)
Correct for Electrical Dark: No (USB2E7196)
Strobe/Lamp Enabled: No (USB2E7196)
Correct for Detector Non-linearity: No (USB2E7196)
Correct for Stray Light: No (USB2E7196)
Number of Pixels in Processed Spectrum: 2048
>>>>>Begin Processed Spectral Data<<<<<
339.09	0.00
339.48	212.60
339.86	215.20
340.24	216.60
340.63	217.50
341.01	233.60
341.39	219.20
341.78	222.00
342.16	225.80
342.54	224.60
342.93	213.35
343.31	224.09
343.69	224.70
344.07	225.19
344.46	225.80
344.84	226.22
345.22	225.80
345.60	226.12
345.99	226.38
346.37	226.51
346.75	226.59
347.13	226.67
347.52	226.69
347.90	227.03
348.28	226.98
348.66	227.39
349.05	227.26
349.43	227.40
349.81	227.42
350.19	227.41
350.57	227.58
350.96	227.74
351.34	227.86
351.72	227.94
352.10	228.00
352.48	227.82
352.87	227.89
353.25	228.03
353.63	228.07
354.01	228.12
354.39	228.20
354.77	228.30
355.15	228.64
355.54	228.68
355.92	228.38
356.30	228.51
356.68	229.05
357.06	229.04
357.44	228.99
357.82	229.01
358.20	229.86
358.58	229.93
358.97	230.00
359.35	230.17
359.73	230.30
360.11	230.31
360.49	230.40
360.87	230.35
361.25	230.56
361.63	230.88
362.01	230.94
362.39	230.87
362.77	230.95
363.15	230.92
363.53	231.02
363.91	231.15
364.29	231.14
364.67	230.31
365.05	230.38
365.43	230.60
365.81	230.73
366.19	230.37
366.57	230.75
366.95	230.69
367.33	230.59
367.71	230.67
368.09	230.98
368.47	231.10
368.85	231.17
369.23	231.22
369.61	230.96
369.99	231.20
370.37	231.30
370.75	231.73
371.13	231.38
371.51	231.23
371.89	231.30
372.27	231.40
372.65	231.43
373.03	231.46
373.41	231.34
373.78	231.20
374.16	230.72
374.54	230.39
374.92	230.31
375.30	230.22
375.68	229.97
376.06	229.90
376.44	229.70
376.82	229.73
377.19	229.65
377.57	229.52
377.95	229.14
378.33	228.96
378.71	228.32
379.09	228.42
379.47	228.54
379.84	228.38
380.22	228.17
380.60	227.96
380.98	227.94
381.36	227.75
381.73	227.65
382.11	227.81
382.49	227.76
382.87	227.53
383.25	227.46
383.62	228.49
384.00	228.13
384.38	228.18
384.76	228.31
385.13	228.66
385.51	228.60
385.89	228.54
386.27	228.56
386.64	228.70
387.02	228.59
387.40	228.40
387.78	228.35
388.15	228.46
388.53	228.35
388.91	228.37
389.29	228.35
389.66	228.54
390.04	228.44
390.42	228.66
390.79	228.80
391.17	228.87
391.55	227.89
391.92	227.99
392.30	228.12
392.68	227.91
393.05	227.85
393.43	228.00
393.81	228.14
394.18	228.14
394.56	228.24
394.94	228.60
395.31	228.57
395.69	229.00
396.06	229.15
396.44	229.41
396.82	229.32
397.19	229.97
397.57	229.94
397.95	230.20
398.32	229.96
398.70	230.06
399.07	230.34
399.45	230.35
399.82	230.58
400.20	230.63
400.58	230.82
400.95	230.59
401.33	230.96
401.70	231.75
402.08	231.93
402.45	232.11
402.83	232.52
403.20	232.85
403.58	233.00
403.95	233.35
404.33	233.72
404.71	234.09
405.08	234.86
405.46	235.27
405.83	235.59
406.21	236.00
406.58	236.61
406.96	237.04
407.33	237.80
407.70	238.41
408.08	239.74
408.45	240.53
408.83	241.57
409.20	242.26
409.58	242.54
409.95	243.63
410.33	244.79
410.70	245.45
411.08	246.63
411.45	247.86
411.82	249.02
412.20	250.58
412.57	252.63
412.95	253.35
413.32	255.19
413.69	256.99
414.07	258.96
414.44	261.13
414.82	263.38
415.19	265.93
415.56	268.46
415.94	270.60
416.31	273.66
416.68	276.54
417.06	280.03
417.43	283.60
417.81	287.36
418.18	291.04
418.55	295.34
418.93	299.67
419.30	304.22
419.67	309.05
420.04	314.06
420.42	319.12
420.79	325.85
421.16	331.81
421.54	338.43
421.91	345.09
422.28	351.83
422.66	359.06
423.03	366.39
423.40	373.83
423.77	381.73
424.15	389.69
424.52	398.19
424.89	407.45
425.26	416.17
425.64	424.70
426.01	434.23
426.38	444.14
426.75	454.45
427.13	464.68
427.50	475.51
427.87	486.66
428.24	497.70
428.61	508.11
428.99	520.48
429.36	532.94
429.73	545.72
430.10	558.50
430.47	571.68
430.85	584.97
431.22	599.42
431.59	615.17
431.96	629.84
432.33	646.09
432.70	661.78
433.08	680.36
433.45	697.89
433.82	715.52
434.19	734.89
434.56	754.38
434.93	772.90
435.30	791.53
435.68	812.27
436.05	832.86
436.42	853.19
436.79	871.66
437.16	892.37
437.53	913.65
437.90	934.80
438.27	956.06
438.64	978.04
439.01	998.81
439.38	1016.69
439.75	1034.86
440.13	1055.34
440.50	1074.41
440.87	1090.38
441.24	1106.90
441.61	1124.94
441.98	1138.57
442.35	1154.29
442.72	1170.10
443.09	1185.79
443.46	1195.58
443.83	1202.54
444.20	1208.67
444.57	1217.17
444.94	1221.45
445.31	1226.08
445.68	1231.08
446.05	1233.10
446.42	1232.06
446.79	1230.14
447.16	1228.40
447.53	1227.38
447.90	1220.02
448.27	1213.03
448.64	1202.88
449.01	1195.59
449.37	1182.02
449.74	1168.86
450.11	1152.85
450.48	1135.48
450.85	1117.43
451.22	1101.92
451.59	1087.05
451.96	1073.03
452.33	1054.06
452.70	1037.27
453.07	1017.10
453.43	996.08
453.80	976.41
454.17	957.20
454.54	939.34
454.91	920.19
455.28	900.92
455.65	883.59
456.02	866.99
456.38	851.88
456.75	833.26
457.12	817.93
457.49	803.06
457.86	788.29
458.23	776.09
458.59	762.20
458.96	748.49
459.33	736.30
459.70	723.93
460.07	714.30
460.43	702.93
460.80	692.48
461.17	683.43
461.54	673.94
461.91	664.85
462.27	655.24
462.64	647.37
463.01	638.65
463.38	630.31
463.74	620.68
464.11	613.46
464.48	607.21
464.85	600.17
465.21	594.97
465.58	589.29
465.95	582.42
466.32	577.07
466.68	571.61
467.05	566.24
467.42	560.96
467.78	555.14
468.15	549.87
468.52	545.99
468.88	540.63
469.25	535.78
469.62	532.43
469.98	528.75
470.35	524.87
470.72	521.40
471.08	517.22
471.45	514.36
471.82	511.13
472.18	507.53
472.55	505.14
472.92	502.01
473.28	499.35
473.65	496.70
474.02	493.97
474.38	491.70
474.75	489.86
475.11	487.75
475.48	486.36
475.85	484.94
476.21	483.37
476.58	482.03
476.94	481.35
477.31	480.02
477.67	478.72
478.04	478.06
478.41	477.62
478.77	478.25
479.14	477.56
479.50	477.21
479.87	477.21
480.23	477.13
480.60	476.82
480.96	476.66
481.33	477.20
481.69	477.70
482.06	478.17
482.42	478.77
482.79	479.32
483.15	480.00
483.52	481.19
483.88	482.22
484.25	483.45
484.61	484.45
484.98	485.81
485.34	487.93
485.71	489.70
486.07	491.58
486.44	492.81
486.80	494.98
487.17	497.30
487.53	500.05
487.90	502.70
488.26	505.94
488.62	509.35
488.99	512.33
489.35	515.77
489.72	519.38
490.08	522.92
490.44	526.73
490.81	531.19
491.17	535.25
491.54	539.83
491.90	544.40
492.26	549.31
492.63	554.27
492.99	559.11
493.36	564.48
493.72	570.24
494.08	575.79
494.45	582.00
494.81	588.42
495.17	594.71
495.54	601.48
495.90	608.16
496.26	614.89
496.63	622.16
496.99	629.35
497.35	636.82
497.72	644.65
498.08	652.58
498.44	660.56
498.80	669.03
499.17	677.16
499.53	685.75
499.89	694.65
500.26	703.35
500.62	712.28
500.98	721.31
501.34	730.21
501.71	739.56
502.07	748.68
502.43	757.90
502.79	767.23
503.16	777.15
503.52	786.74
503.88	796.58
504.24	806.85
504.60	817.26
504.97	827.75
505.33	837.93
505.69	848.72
506.05	859.04
506.41	869.13
506.78	879.43
507.14	889.85
507.50	900.12
507.86	910.87
508.22	921.59
508.59	932.18
508.95	943.12
509.31	954.43
509.67	965.14
510.03	975.60
510.39	986.27
510.75	996.28
511.12	1006.49
511.48	1017.09
511.84	1026.97
512.20	1036.67
512.56	1046.78
512.92	1056.99
513.28	1066.60
513.64	1076.52
514.00	1086.49
514.37	1096.17
514.73	1105.83
515.09	1115.86
515.45	1125.30
515.81	1134.00
516.17	1142.90
516.53	1151.35
516.89	1159.40
517.25	1168.12
517.61	1177.37
517.97	1185.97
518.33	1194.67
518.69	1203.39
519.05	1211.51
519.41	1219.75
519.77	1228.57
520.13	1236.07
520.49	1243.35
520.85	1250.80
521.21	1258.40
521.57	1265.69
521.93	1272.39
522.29	1279.26
522.65	1284.69
523.01	1290.81
523.37	1296.81
523.73	1302.66
524.09	1308.29
524.45	1313.58
524.81	1318.89
525.17	1323.51
525.53	1328.31
525.89	1332.88
526.25	1337.77
526.61	1341.98
526.97	1346.58
527.33	1350.80
527.68	1356.09
528.04	1361.02
528.40	1365.39
528.76	1369.85
529.12	1373.94
529.48	1378.91
529.84	1382.55
530.20	1387.75
530.56	1391.83
530.91	1396.44
531.27	1400.69
531.63	1404.64
531.99	1408.96
532.35	1412.80
532.71	1416.73
533.07	1421.38
533.42	1426.29
533.78	1429.93
534.14	1433.93
534.50	1437.55
534.86	1441.35
535.21	1444.08
535.57	1447.30
535.93	1450.17
536.29	1453.11
536.65	1456.19
537.00	1458.71
537.36	1461.65
537.72	1463.83
538.08	1466.96
538.44	1469.49
538.79	1472.26
539.15	1475.30
539.51	1478.00
539.87	1480.25
540.22	1482.29
540.58	1483.84
540.94	1484.68
541.29	1486.25
541.65	1487.87
542.01	1489.40
542.37	1489.89
542.72	1490.72
543.08	1491.20
543.44	1492.31
543.79	1492.32
544.15	1492.92
544.51	1493.70
544.87	1494.13
545.22	1494.41
545.58	1494.03
545.94	1493.66
546.29	1493.11
546.65	1492.37
547.01	1491.39
547.36	1490.60
547.72	1489.77
548.07	1489.06
548.43	1488.22
548.79	1487.08
549.14	1485.94
549.50	1485.15
549.86	1484.07
550.21	1483.18
550.57	1482.77
550.92	1481.36
551.28	1480.61
551.64	1479.84
551.99	1478.74
552.35	1477.73
552.70	1476.86
553.06	1476.27
553.41	1475.65
553.77	1475.60
554.13	1475.31
554.48	1474.94
554.84	1474.52
555.19	1474.40
555.55	1474.76
555.90	1474.21
556.26	1473.41
556.61	1472.03
556.97	1470.07
557.32	1469.52
557.68	1468.46
558.03	1467.58
558.39	1466.64
558.74	1465.83
559.10	1463.99
559.45	1462.83
559.81	1461.51
560.16	1459.46
560.52	1457.75
560.87	1456.41
561.23	1454.19
561.58	1452.67
561.94	1450.43
562.29	1448.42
562.64	1446.46
563.00	1442.80
563.35	1440.73
563.71	1439.34
564.06	1438.16
564.42	1437.29
564.77	1435.50
565.12	1433.96
565.48	1432.70
565.83	1431.88
566.19	1430.49
566.54	1429.40
566.89	1427.64
567.25	1426.41
567.60	1425.80
567.96	1425.41
568.31	1424.42
568.66	1423.10
569.02	1420.70
569.37	1419.20
569.72	1417.89
570.08	1415.65
570.43	1413.50
570.78	1411.45
571.14	1409.19
571.49	1406.60
571.84	1404.26
572.20	1402.12
572.55	1399.70
572.90	1395.91
573.26	1392.80
573.61	1389.30
573.96	1386.31
574.31	1382.65
574.67	1379.30
575.02	1375.43
575.37	1370.79
575.72	1366.35
576.08	1362.64
576.43	1358.67
576.78	1354.84
577.13	1350.53
577.49	1347.14
577.84	1344.08
578.19	1340.73
578.54	1337.11
578.90	1334.13
579.25	1330.33
579.60	1326.52
579.95	1322.47
580.30	1318.55
580.66	1314.50
581.01	1310.12
581.36	1305.46
581.71	1301.82
582.06	1298.06
582.42	1294.20
582.77	1290.21
583.12	1286.91
583.47	1283.09
583.82	1280.02
584.17	1276.31
584.53	1273.27
584.88	1269.02
585.23	1264.72
585.58	1259.94
585.93	1255.20
586.28	1250.40
586.63	1245.69
586.98	1240.50
587.34	1236.27
587.69	1232.01
588.04	1228.18
588.39	1224.60
588.74	1220.50
589.09	1216.92
589.44	1212.03
589.79	1207.77
590.14	1203.90
590.49	1199.23
590.84	1194.76
591.19	1190.45
591.54	1186.17
591.89	1181.35
592.25	1178.43
592.60	1174.77
592.95	1170.77
593.30	1166.52
593.65	1162.00
594.00	1157.40
594.35	1155.99
594.70	1151.20
595.05	1146.86
595.40	1141.66
595.75	1136.57
596.10	1132.24
596.45	1127.33
596.80	1123.05
597.15	1118.41
597.50	1113.49
597.85	1109.25
598.19	1104.68
598.54	1099.70
598.89	1094.84
599.24	1090.49
599.59	1084.90
599.94	1079.80
600.29	1075.20
600.64	1070.97
600.99	1066.51
601.34	1062.51
601.69	1055.55
602.04	1051.43
602.39	1047.28
602.74	1043.49
603.08	1039.56
603.43	1035.80
603.78	1031.53
604.13	1027.36
604.48	1023.20
604.83	1018.77
605.18	1013.79
605.53	1009.18
605.87	1004.78
606.22	1000.74
606.57	996.54
606.92	991.95
607.27	987.53
607.62	983.34
607.96	979.10
608.31	975.40
608.66	971.63
609.01	967.49
609.36	963.04
609.70	958.87
610.05	954.29
610.40	950.09
610.75	945.12
611.10	940.70
611.44	935.98
611.79	931.56
612.14	927.49
612.49	923.10
612.83	919.14
613.18	915.02
613.53	910.81
613.88	906.03
614.22	901.55
614.57	897.16
614.92	892.66
615.27	888.30
615.61	883.59
615.96	878.62
616.31	873.97
616.65	870.06
617.00	865.32
617.35	860.93
617.70	856.30
618.04	851.86
618.39	847.53
618.74	843.72
619.08	839.30
619.43	834.59
619.78	830.40
620.12	825.91
620.47	821.46
620.82	816.57
621.16	812.11
621.51	808.43
621.85	804.44
622.20	800.30
622.55	795.80
622.89	791.53
623.24	787.51
623.59	783.55
623.93	779.46
624.28	775.70
624.62	772.64
624.97	769.24
625.32	765.64
625.66	761.57
626.01	757.29
626.35	753.47
626.70	749.89
627.04	746.70
627.39	742.54
627.73	738.92
628.08	735.95
628.43	732.15
628.77	728.06
629.12	724.14
629.46	720.77
629.81	717.72
630.15	714.29
630.50	710.64
630.84	706.88
631.19	703.15
631.53	699.50
631.88	694.98
632.22	690.90
632.57	687.48
632.91	683.85
633.26	680.61
633.60	677.02
633.95	673.22
634.29	668.83
634.64	665.73
634.98	661.82
635.32	658.09
635.67	655.13
636.01	651.90
636.36	648.54
636.70	645.35
637.05	641.61
637.39	638.29
637.73	635.04
638.08	632.08
638.42	628.67
638.77	625.33
639.11	621.72
639.45	618.14
639.80	614.52
640.14	611.13
640.49	607.63
640.83	604.42
641.17	601.45
641.52	598.50
641.86	595.38
642.20	592.87
642.55	589.87
642.89	586.71
643.23	583.51
643.58	581.06
643.92	577.49
644.26	574.55
644.61	571.68
644.95	568.79
645.29	565.60
645.64	562.77
645.98	559.79
646.32	557.26
646.66	554.43
647.01	551.53
647.35	549.13
647.69	546.41
648.04	543.75
648.38	541.05
648.72	538.38
649.06	535.30
649.41	532.19
649.75	529.20
650.09	526.54
650.43	523.93
650.78	520.89
651.12	518.19
651.46	515.43
651.80	512.54
652.14	509.78
652.49	507.44
652.83	504.77
653.17	502.20
653.51	499.45
653.85	497.28
654.20	494.82
654.54	492.05
654.88	489.39
655.22	487.44
655.56	485.11
655.90	482.65
656.25	480.50
656.59	478.45
656.93	476.25
657.27	474.19
657.61	471.65
657.95	469.38
658.29	467.18
658.64	465.09
658.98	462.89
659.32	460.29
659.66	457.82
660.00	455.83
660.34	453.67
660.68	451.53
661.02	449.25
661.36	447.18
661.70	445.05
662.05	442.96
662.39	440.62
662.73	438.63
663.07	437.27
663.41	435.38
663.75	432.95
664.09	431.04
664.43	428.58
664.77	426.79
665.11	424.80
665.45	423.05
665.79	421.17
666.13	419.18
666.47	417.57
666.81	415.69
667.15	413.41
667.49	411.79
667.83	410.28
668.17	408.53
668.51	406.84
668.85	405.37
669.19	404.34
669.53	402.35
669.87	400.54
670.21	398.41
670.55	396.63
670.89	395.65
671.23	393.91
671.57	392.37
671.91	390.81
672.25	389.33
672.58	387.97
672.92	386.13
673.26	384.58
673.60	383.17
673.94	381.90
674.28	380.75
674.62	379.30
674.96	377.69
675.30	376.23
675.64	374.80
675.97	373.21
676.31	371.48
676.65	369.97
676.99	368.77
677.33	367.30
677.67	366.00
678.01	364.14
678.34	362.83
678.68	361.75
679.02	360.34
679.36	358.95
679.70	357.45
680.04	356.41
680.37	355.24
680.71	353.87
681.05	352.63
681.39	351.48
681.73	350.07
682.06	348.75
682.40	347.71
682.74	346.75
683.08	346.11
683.42	345.00
683.75	344.08
684.09	342.70
684.43	341.73
684.77	340.52
685.10	339.56
685.44	338.40
685.78	337.28
686.12	336.24
686.45	335.30
686.79	334.17
687.13	333.27
687.46	332.32
687.80	331.62
688.14	330.62
688.48	329.61
688.81	328.79
689.15	328.20
689.49	327.08
689.82	325.95
690.16	324.40
690.50	323.36
690.83	322.37
691.17	321.31
691.51	320.30
691.84	319.61
692.18	318.62
692.52	317.73
692.85	316.91
693.19	316.36
693.52	315.40
693.86	314.55
694.20	313.60
694.53	312.84
694.87	311.82
695.21	310.79
695.54	309.97
695.88	308.91
696.21	307.59
696.55	306.65
696.88	305.74
697.22	304.94
697.56	304.16
697.89	303.20
698.23	302.69
698.56	302.01
698.90	301.28
699.23	300.43
699.57	299.77
699.90	298.91
700.24	297.95
700.58	297.24
700.91	296.71
701.25	296.78
701.58	296.70
701.92	296.29
702.25	295.76
702.59	294.95
702.92	294.45
703.26	294.15
703.59	293.83
703.93	294.04
704.26	293.63
704.60	293.04
704.93	292.60
705.26	291.93
705.60	291.33
705.93	290.50
706.27	290.21
706.60	289.88
706.94	289.70
707.27	288.90
707.61	288.40
707.94	287.66
708.27	286.35
708.61	284.90
708.94	284.19
709.28	283.60
709.61	282.88
709.94	282.30
710.28	281.70
710.61	280.98
710.95	279.53
711.28	279.52
711.61	278.95
711.95	278.52
712.28	277.81
712.61	277.21
712.95	277.19
713.28	277.09
713.61	276.29
713.95	275.29
714.28	274.94
714.61	274.31
714.95	273.77
715.28	273.24
715.61	272.89
715.95	272.46
716.28	271.90
716.61	271.64
716.95	271.10
717.28	270.48
717.61	269.93
717.94	269.40
718.28	268.21
718.61	267.76
718.94	267.21
719.27	266.77
719.61	266.42
719.94	265.70
720.27	264.73
720.60	264.22
720.94	263.99
721.27	263.68
721.60	263.47
721.93	263.11
722.27	262.92
722.60	262.62
722.93	262.15
723.26	261.90
723.59	261.47
723.93	261.25
724.26	260.96
724.59	260.66
724.92	260.50
725.25	260.47
725.59	260.18
725.92	259.95
726.25	259.58
726.58	259.22
726.91	258.86
727.24	258.66
727.57	258.39
727.91	257.83
728.24	257.57
728.57	257.11
728.90	256.96
729.23	256.37
729.56	256.52
729.89	256.08
730.22	255.73
730.55	255.32
730.89	255.00
731.22	254.74
731.55	254.39
731.88	254.26
732.21	253.86
732.54	253.33
732.87	253.10
733.20	252.98
733.53	252.75
733.86	252.61
734.19	252.24
734.52	252.21
734.85	252.72
735.18	252.39
735.51	252.47
735.84	252.28
736.17	252.36
736.50	251.67
736.83	252.63
737.16	252.48
737.49	252.56
737.82	252.29
738.15	252.22
738.48	252.20
738.81	251.82
739.14	251.53
739.47	251.41
739.80	251.10
740.13	250.92
740.46	250.61
740.79	250.27
741.12	250.07
741.45	249.68
741.78	249.01
742.11	249.08
742.44	248.71
742.77	248.61
743.10	248.26
743.43	248.09
743.75	246.97
744.08	248.00
744.41	247.71
744.74	247.48
745.07	247.13
745.40	247.03
745.73	247.35
746.06	247.20
746.39	247.30
746.71	247.06
747.04	246.83
747.37	246.62
747.70	246.68
748.03	246.59
748.36	246.62
748.68	246.30
749.01	245.84
749.34	245.64
749.67	245.46
750.00	245.50
750.33	245.99
750.65	245.88
750.98	244.51
751.31	244.32
751.64	244.34
751.97	244.63
752.29	244.46
752.62	243.80
752.95	243.56
753.28	243.24
753.60	243.10
753.93	243.31
754.26	243.32
754.59	242.87
754.91	242.62
755.24	242.40
755.57	242.45
755.90	242.34
756.22	242.10
756.55	241.87
756.88	241.53
757.20	240.87
757.53	240.50
757.86	240.37
758.19	240.24
758.51	240.03
758.84	239.42
759.17	239.15
759.49	239.04
759.82	239.45
760.15	239.36
760.47	239.28
760.80	238.78
761.13	238.72
761.45	238.65
761.78	238.64
762.11	238.41
762.43	238.11
762.76	237.88
763.08	237.96
763.41	237.92
763.74	237.88
764.06	237.73
764.39	237.64
764.71	237.47
765.04	237.31
765.37	237.07
765.69	236.95
766.02	236.83
766.34	236.70
766.67	236.18
767.00	236.22
767.32	236.70
767.65	237.28
767.97	237.06
768.30	236.93
768.62	236.74
768.95	236.71
769.27	236.57
769.60	236.69
769.92	236.46
770.25	236.05
770.57	235.83
770.90	235.67
771.22	235.50
771.55	235.46
771.87	235.44
772.20	235.42
772.52	236.21
772.85	237.30
773.17	237.32
773.50	237.19
773.82	237.05
774.15	236.51
774.47	235.88
774.80	235.80
775.12	235.78
775.45	235.63
775.77	235.56
776.09	235.64
776.42	235.56
776.74	235.81
777.07	235.90
777.39	235.87
777.72	235.75
778.04	235.83
778.36	235.77
778.69	235.78
779.01	235.83
779.33	234.96
779.66	233.93
779.98	233.85
780.31	233.88
780.63	234.18
780.95	234.26
781.28	234.16
781.60	234.04
781.92	234.04
782.25	234.08
782.57	234.07
782.89	233.99
783.22	233.93
783.54	233.63
783.86	233.62
784.19	233.50
784.51	233.90
784.83	233.72
785.16	233.64
785.48	233.54
785.80	233.42
786.12	233.40
786.45	233.25
786.77	233.23
787.09	233.19
787.42	232.76
787.74	232.72
788.06	232.72
788.38	232.70
788.71	232.50
789.03	232.55
789.35	232.64
789.67	232.48
789.99	232.50
790.32	232.35
790.64	232.48
790.96	233.30
791.28	232.84
791.61	232.81
791.93	232.81
792.25	232.74
792.57	233.48
792.89	233.29
793.21	233.37
793.54	233.31
793.86	233.21
794.18	233.37
794.50	233.10
794.82	233.01
795.14	233.11
795.47	233.27
795.79	233.16
796.11	232.88
796.43	232.85
796.75	232.80
797.07	232.73
797.39	232.56
797.71	231.70
798.04	231.76
798.36	231.71
798.68	231.76
799.00	231.81
799.32	231.22
799.64	231.43
799.96	231.32
800.28	231.43
800.60	231.31
800.92	231.20
801.24	231.26
801.56	231.26
801.89	231.11
802.21	231.10
802.53	231.01
802.85	231.23
803.17	231.60
803.49	231.47
803.81	231.52
804.13	231.50
804.45	231.53
804.77	231.54
805.09	231.60
805.41	231.48
805.73	231.29
806.05	231.10
806.37	230.99
806.69	230.95
807.01	230.85
807.33	230.95
807.65	230.69
807.97	231.07
808.28	231.00
808.60	230.84
808.92	230.68
809.24	231.22
809.56	231.14
809.88	230.80
810.20	230.74
810.52	230.90
810.84	230.78
811.16	230.59
811.48	230.57
811.80	230.82
812.12	230.74
812.43	230.94
812.75	231.08
813.07	231.00
813.39	230.97
813.71	230.83
814.03	230.78
814.35	230.77
814.67	230.39
814.98	230.30
815.30	230.48
815.62	230.34
815.94	229.60
816.26	230.02
816.58	229.89
816.89	230.00
817.21	229.70
817.53	229.73
817.85	229.75
818.17	229.63
818.48	229.26
818.80	229.46
819.12	229.26
819.44	229.00
819.76	228.83
820.07	228.81
820.39	228.81
820.71	228.82
821.03	228.73
821.34	228.69
821.66	228.92
821.98	228.86
822.30	228.86
822.61	229.60
822.93	229.07
823.25	229.05
823.57	228.94
823.88	229.12
824.20	229.05
824.52	229.30
824.83	229.28
825.15	229.19
825.47	229.14
825.79	229.20
826.10	229.18
826.42	229.19
826.74	229.16
827.05	229.16
827.37	229.10
827.69	229.24
828.00	229.17
828.32	229.16
828.64	229.07
828.95	229.61
829.27	229.24
829.58	229.23
829.90	229.31
830.22	229.39
830.53	229.10
830.85	229.13
831.17	228.81
831.48	228.80
831.80	228.94
832.11	228.89
832.43	228.72
832.75	228.69
833.06	229.36
833.38	229.09
833.69	228.93
834.01	229.07
834.32	228.96
834.64	228.88
834.96	228.78
835.27	228.76
835.59	228.45
835.90	228.31
836.22	228.20
836.53	228.07
836.85	228.04
837.16	229.00
837.48	228.96
837.79	229.37
838.11	229.42
838.42	229.34
838.74	229.39
839.05	229.44
839.37	229.43
839.68	228.80
840.00	228.89
840.31	229.12
840.63	229.05
840.94	228.98
841.26	228.93
841.57	228.95
841.88	229.05
842.20	228.92
842.51	228.73
842.83	228.79
843.14	229.55
843.46	229.54
843.77	229.10
844.08	229.14
844.40	228.77
844.71	228.65
845.03	228.57
845.34	228.49
845.65	228.48
845.97	228.51
846.28	228.56
846.60	228.65
846.91	228.40
847.22	228.32
847.54	228.47
847.85	228.57
848.16	228.42
848.48	228.27
848.79	228.60
849.10	228.77
849.42	228.86
849.73	228.01
850.04	227.91
850.36	227.62
850.67	227.76
850.98	227.82
851.30	228.03
851.61	228.10
851.92	228.03
852.23	228.30
852.55	228.26
852.86	228.29
853.17	228.34
853.49	228.72
853.80	228.91
854.11	229.02
854.42	229.13
854.74	229.11
855.05	229.21
855.36	228.72
855.67	228.88
855.99	228.90
856.30	230.10
856.61	230.06
856.92	230.07
857.23	229.94
857.55	229.79
857.86	229.68
858.17	229.73
858.48	229.63
858.79	229.48
859.11	229.64
859.42	229.60
859.73	229.43
860.04	229.25
860.35	228.99
860.66	228.75
860.98	228.71
861.29	228.81
861.60	228.84
861.91	229.15
862.22	228.85
862.53	228.65
862.84	227.47
863.16	227.79
863.47	227.55
863.78	227.50
864.09	227.59
864.40	227.68
864.71	227.77
865.02	227.95
865.33	227.79
865.64	227.55
865.95	227.58
866.27	228.32
866.58	228.35
866.89	228.49
867.20	228.47
867.51	228.24
867.82	228.25
868.13	228.40
868.44	228.26
868.75	228.53
869.06	228.63
869.37	228.71
869.68	228.42
869.99	228.65
870.30	228.78
870.61	228.90
870.92	228.67
871.23	228.62
871.54	228.70
871.85	228.97
872.16	229.13
872.47	229.08
872.78	228.55
873.09	228.57
873.40	228.43
873.71	228.48
874.02	228.59
874.33	228.50
874.64	228.34
874.95	228.41
875.26	228.26
875.56	228.26
875.87	228.31
876.18	228.14
876.49	229.13
876.80	229.12
877.11	228.92
877.42	229.10
877.73	228.99
878.04	228.93
878.35	228.89
878.66	228.95
878.96	228.93
879.27	228.80
879.58	228.79
879.89	228.75
880.20	229.03
880.51	228.96
880.82	228.93
881.12	228.94
881.43	228.71
881.74	228.60
882.05	228.52
882.36	228.59
882.67	228.81
882.97	227.66
883.28	227.53
883.59	227.48
883.90	227.50
884.21	227.75
884.51	227.60
884.82	227.50
885.13	227.48
885.44	227.52
885.74	227.55
886.05	227.52
886.36	227.59
886.67	227.28
886.98	227.83
887.28	227.91
887.59	227.85
887.90	227.98
888.20	228.00
888.51	228.16
888.82	228.00
889.13	228.00
889.43	228.79
889.74	228.70
890.05	228.78
890.35	228.55
890.66	228.33
890.97	228.26
891.28	228.18
891.58	228.22
891.89	228.17
892.20	228.00
892.50	227.86
892.81	227.82
893.12	227.79
893.42	227.32
893.73	227.39
894.04	227.53
894.34	227.65
894.65	227.59
894.95	227.41
895.26	227.44
895.57	227.97
895.87	227.16
896.18	227.30
896.48	227.34
896.79	227.42
897.10	227.48
897.40	227.45
897.71	227.52
898.01	227.44
898.32	227.54
898.63	227.63
898.93	227.67
899.24	227.66
899.54	227.70
899.85	227.60
900.15	227.54
900.46	227.49
900.76	227.40
901.07	227.40
901.38	227.33
901.68	227.46
901.99	226.89
902.29	226.93
902.60	226.94
902.90	226.91
903.21	226.94
903.51	226.94
903.82	227.27
904.12	227.31
904.43	227.32
904.73	227.32
905.03	227.32
905.34	228.30
905.64	228.32
905.95	228.32
906.25	228.41
906.56	228.52
906.86	228.50
907.17	228.49
907.47	228.47
907.77	228.59
908.08	228.37
908.38	228.50
908.69	228.56
908.99	228.74
909.30	228.74
909.60	228.63
909.90	228.66
910.21	228.36
910.51	228.18
910.81	228.23
911.12	228.32
911.42	228.37
911.73	227.34
912.03	227.44
912.33	227.63
912.64	227.60
912.94	227.46
913.24	227.30
913.55	227.21
913.85	227.24
914.15	227.43
914.46	227.61
914.76	227.45
915.06	227.48
915.37	227.28
915.67	227.24
915.97	227.45
916.27	227.32
916.58	227.44
916.88	227.40
917.18	227.25
917.49	227.80
917.79	227.69
918.09	227.86
918.39	228.04
918.70	227.92
919.00	227.89
919.30	228.35
919.60	228.42
919.91	228.35
920.21	228.41
920.51	228.19
920.81	228.17
921.12	228.31
921.42	228.19
921.72	228.22
922.02	228.34
922.32	228.41
922.63	228.52
922.93	228.88
923.23	229.06
923.53	229.04
923.83	228.50
924.13	228.68
924.44	228.64
924.74	228.76
925.04	229.00
925.34	229.03
925.64	228.65
925.94	228.52
926.24	229.11
926.55	229.07
926.85	229.25
927.15	229.13
927.45	229.15
927.75	229.22
928.05	229.24
928.35	229.15
928.65	229.28
928.95	229.32
929.26	228.98
929.56	229.12
929.86	229.20
930.16	229.06
930.46	228.98
930.76	229.03
931.06	228.58
931.36	228.30
931.66	228.45
931.96	228.51
932.26	228.68
932.56	228.25
932.86	228.28
933.16	228.08
933.46	228.10
933.76	228.01
934.06	228.24
934.36	228.63
934.66	228.54
934.96	228.41
935.26	228.42
935.56	228.64
935.86	228.37
936.16	228.26
936.46	228.19
936.76	228.17
937.06	227.95
937.36	228.12
937.66	228.29
937.96	228.14
938.26	227.90
938.56	227.83
938.86	227.89
939.16	228.06
939.46	228.16
939.76	228.24
940.06	228.21
940.35	228.05
940.65	227.59
940.95	227.70
941.25	227.49
941.55	227.34
941.85	227.17
942.15	227.42
942.45	227.77
942.75	227.81
943.04	227.81
943.34	228.10
943.64	227.96
943.94	227.71
944.24	227.78
944.54	227.79
944.84	227.76
945.13	227.59
945.43	227.46
945.73	227.50
946.03	227.34
946.33	227.25
946.62	227.13
946.92	227.06
947.22	227.15
947.52	227.28
947.82	227.42
948.11	227.38
948.41	227.11
948.71	226.78
949.01	226.69
949.31	226.62
949.60	226.47
949.90	226.71
950.20	226.72
950.50	226.76
950.79	226.78
951.09	226.93
951.39	226.97
951.69	226.86
951.98	227.05
952.28	227.05
952.58	227.10
952.87	227.01
953.17	227.13
953.47	226.99
953.76	226.93
954.06	226.75
954.36	226.65
954.66	226.69
954.95	226.94
955.25	227.12
955.55	227.26
955.84	227.20
956.14	227.17
956.44	227.29
956.73	227.09
957.03	227.12
957.32	227.07
957.62	227.07
957.92	227.24
958.21	227.03
958.51	228.17
958.81	228.21
959.10	228.38
959.40	228.49
959.69	228.49
959.99	228.60
960.29	228.62
960.58	228.60
960.88	228.89
961.17	228.87
961.47	229.00
961.76	228.93
962.06	229.12
962.36	229.03
962.65	228.96
962.95	229.02
963.24	228.99
963.54	229.03
963.83	229.10
964.13	229.03
964.42	228.85
964.72	228.06
965.01	228.10
965.31	228.06
965.60	227.88
965.90	228.62
966.19	228.37
966.49	228.45
966.78	228.38
967.08	228.37
967.37	228.26
967.67	227.93
967.96	228.02
968.26	227.86
968.55	227.92
968.85	227.89
969.14	227.80
969.43	227.80
969.73	227.77
970.02	227.69
970.32	227.70
970.61	227.76
970.91	227.51
971.20	227.40
971.49	227.23
971.79	227.36
972.08	226.59
972.38	226.70
972.67	226.57
972.96	226.70
973.26	226.38
973.55	226.65
973.85	226.66
974.14	226.52
974.43	226.70
974.73	226.58
975.02	226.53
975.31	226.62
975.61	226.48
975.90	226.35
976.19	226.24
976.49	226.16
976.78	226.17
977.07	226.11
977.37	226.13
977.66	226.22
977.95	226.12
978.24	226.26
978.54	226.45
978.83	226.42
979.12	226.41
979.42	226.54
979.71	226.33
980.00	226.35
980.29	226.42
980.59	226.17
980.88	226.45
981.17	226.52
981.46	226.57
981.76	226.68
982.05	227.02
982.34	227.08
982.63	227.22
982.93	227.26
983.22	227.67
983.51	227.70
983.80	227.95
984.09	227.96
984.39	227.93
984.68	227.85
984.97	227.99
985.26	227.84
985.55	227.82
985.85	227.71
986.14	227.88
986.43	227.97
986.72	227.98
987.01	227.67
987.30	227.63
987.59	227.53
987.89	227.54
988.18	227.21
988.47	227.20
988.76	227.04
989.05	226.96
989.34	226.74
989.63	227.00
989.92	226.78
990.22	226.77
990.51	226.64
990.80	226.51
991.09	226.48
991.38	226.63
991.67	226.65
991.96	226.54
992.25	226.49
992.54	226.29
992.83	226.30
993.12	226.19
993.41	226.28
993.70	226.69
993.99	226.99
994.28	227.14
994.58	227.19
994.87	227.15
995.16	227.11
995.45	227.07
995.74	226.69
996.03	226.88
996.32	227.06
996.61	227.27
996.90	227.27
997.19	227.32
997.48	227.29
997.77	227.12
998.06	227.29
998.34	227.26
998.63	227.39
998.92	227.47
999.21	227.77
999.50	227.80
999.79	227.41
1000.08	227.20
1000.37	227.25
1000.66	227.20
1000.95	227.51
1001.24	227.60
1001.53	227.73
1001.82	227.75
1002.11	227.54
1002.40	227.53
1002.68	227.85
1002.97	228.59
1003.26	228.44
1003.55	228.38
1003.84	228.50
1004.13	228.83
1004.42	228.79
1004.71	228.70
1004.99	228.62
1005.28	228.83
1005.57	228.82
1005.86	228.79
1006.15	228.71
1006.44	228.54
1006.72	228.74
1007.01	228.60
1007.30	228.62
1007.59	228.41
1007.88	228.50
1008.17	228.47
1008.45	228.21
1008.74	227.65
1009.03	227.10
1009.32	227.16
1009.60	227.14
1009.89	227.03
1010.18	226.50
1010.47	226.46
1010.76	226.45
1011.04	226.40
1011.33	226.34
1011.62	226.38
1011.91	226.48
1012.19	226.60
1012.48	226.66
1012.77	226.56
1013.05	226.95
1013.34	226.94
1013.63	226.90
1013.92	226.90
1014.20	226.87
1014.49	226.97
1014.78	227.17
1015.06	226.96
1015.35	226.87
1015.64	226.99
1015.92	227.18
1016.21	227.32
1016.50	227.28
1016.78	227.40
1017.07	227.52
1017.36	227.33
1017.64	227.17
1017.93	227.24
1018.22	227.13
1018.50	227.05
1018.79	226.97
1019.08	226.49
1019.36	226.44
1019.65	226.41
1019.93	226.70
1020.22	226.85
1020.51	227.34
1020.79	227.22
1021.08	225.70
1021.36	225.60
1021.65	225.80
1021.94	226.60
1022.22	225.40
1022.51	225.60
1022.79	232.40
1023.08	227.40
1023.36	237.50
1023.65	225.40
>>>>>End Processed Spectral Data<<<<<
