SpectraSuite Data File
++++++++++++++++++++++++++++++++++++
Date: Wed Sep 04 17:32:29 EDT 2013
User: lab3
Dark Spectrum Present: Yes
Reference Spectrum Present: No
Number of Sampled Component Spectra: 1
Spectrometers: USB2E7196
Integration Time (usec): 337000 (USB2E7196)
Spectra Averaged: 10 (USB2E7196)
Boxcar Smoothing: 10 (USB2E7196)
Correct for Electrical Dark: No (USB2E7196)
Strobe/Lamp Enabled: No (USB2E7196)
Correct for Detector Non-linearity: No (USB2E7196)
Correct for Stray Light: No (USB2E7196)
Number of Pixels in Processed Spectrum: 2048
>>>>>Begin Processed Spectral Data<<<<<
339.09	0.00
339.48	212.90
339.86	212.00
340.24	217.90
340.63	217.10
341.01	233.40
341.39	220.70
341.78	223.10
342.16	226.60
342.54	224.50
342.93	213.59
343.31	224.30
343.69	224.89
344.07	225.46
344.46	226.00
344.84	226.39
345.22	226.03
345.60	226.42
345.99	226.63
346.37	226.59
346.75	226.66
347.13	226.74
347.52	226.61
347.90	226.89
348.28	226.92
348.66	227.07
349.05	226.88
349.43	227.05
349.81	227.11
350.19	227.16
350.57	227.25
350.96	227.45
351.34	227.56
351.72	227.58
352.10	227.79
352.48	227.67
352.87	227.70
353.25	227.69
353.63	227.59
354.01	227.61
354.39	227.72
354.77	227.81
355.15	228.27
355.54	228.20
355.92	227.99
356.30	228.07
356.68	228.64
357.06	228.68
357.44	228.51
357.82	228.57
358.20	229.42
358.58	229.48
358.97	229.44
359.35	229.72
359.73	230.03
360.11	230.01
360.49	230.07
360.87	230.18
361.25	230.34
361.63	230.75
362.01	230.72
362.39	230.76
362.77	230.86
363.15	230.74
363.53	230.94
363.91	230.94
364.29	231.02
364.67	230.11
365.05	230.20
365.43	230.44
365.81	230.62
366.19	230.20
366.57	230.64
366.95	230.61
367.33	230.42
367.71	230.35
368.09	230.55
368.47	230.64
368.85	230.53
369.23	230.83
369.61	230.46
369.99	230.78
370.37	230.87
370.75	231.30
371.13	231.04
371.51	230.82
371.89	230.91
372.27	230.87
372.65	230.97
373.03	231.02
373.41	230.87
373.78	230.63
374.16	230.26
374.54	229.80
374.92	229.75
375.30	229.65
375.68	229.42
376.06	229.31
376.44	229.11
376.82	229.23
377.19	228.97
377.57	228.86
377.95	228.55
378.33	228.40
378.71	227.84
379.09	227.95
379.47	227.96
379.84	227.78
380.22	227.74
380.60	227.48
380.98	227.28
381.36	227.22
381.73	227.16
382.11	227.19
382.49	227.17
382.87	226.92
383.25	226.88
383.62	228.04
384.00	227.78
384.38	227.78
384.76	227.91
385.13	228.22
385.51	228.18
385.89	227.98
386.27	227.99
386.64	227.93
387.02	227.73
387.40	227.69
387.78	227.70
388.15	227.64
388.53	227.51
388.91	227.51
389.29	227.40
389.66	227.53
390.04	227.38
390.42	227.52
390.79	227.57
391.17	227.49
391.55	226.33
391.92	226.38
392.30	226.55
392.68	226.31
393.05	226.23
393.43	226.31
393.81	226.40
394.18	226.32
394.56	226.53
394.94	226.77
395.31	226.71
395.69	227.01
396.06	227.12
396.44	227.30
396.82	227.24
397.19	227.77
397.57	227.70
397.95	228.00
398.32	227.81
398.70	227.99
399.07	228.31
399.45	228.35
399.82	228.45
400.20	228.39
400.58	228.44
400.95	228.22
401.33	228.44
401.70	229.25
402.08	229.35
402.45	229.43
402.83	229.80
403.20	230.01
403.58	230.09
403.95	230.39
404.33	230.80
404.71	231.10
405.08	231.75
405.46	232.07
405.83	232.35
406.21	232.63
406.58	233.06
406.96	233.33
407.33	233.78
407.70	234.25
408.08	235.44
408.45	236.02
408.83	236.67
409.20	237.06
409.58	237.00
409.95	237.70
410.33	238.36
410.70	238.65
411.08	239.47
411.45	240.14
411.82	240.73
412.20	241.70
412.57	243.25
412.95	243.40
413.32	244.50
413.69	245.29
414.07	246.52
414.44	247.67
414.82	248.97
415.19	250.50
415.56	251.99
415.94	253.01
416.31	254.88
416.68	256.68
417.06	258.79
417.43	261.06
417.81	263.21
418.18	265.39
418.55	267.86
418.93	270.47
419.30	273.12
419.67	275.96
420.04	278.68
420.42	281.37
420.79	285.59
421.16	289.12
421.54	293.43
421.91	297.21
422.28	301.03
422.66	305.16
423.03	309.79
423.40	314.02
423.77	318.61
424.15	323.05
424.52	327.80
424.89	333.30
425.26	338.19
425.64	343.03
426.01	348.34
426.38	353.90
426.75	359.78
427.13	365.63
427.50	371.80
427.87	378.15
428.24	384.44
428.61	390.02
428.99	397.06
429.36	403.71
429.73	410.71
430.10	417.90
430.47	425.19
430.85	432.14
431.22	439.92
431.59	448.84
431.96	456.90
432.33	465.86
432.70	474.29
433.08	484.31
433.45	493.90
433.82	503.43
434.19	514.24
434.56	524.67
434.93	534.55
435.30	544.65
435.68	555.87
436.05	566.74
436.42	577.55
436.79	587.50
437.16	598.42
437.53	609.82
437.90	621.23
438.27	632.50
438.64	644.16
439.01	655.42
439.38	664.75
439.75	674.15
440.13	684.75
440.50	694.74
440.87	703.05
441.24	711.73
441.61	721.23
441.98	728.15
442.35	735.75
442.72	744.00
443.09	752.06
443.46	756.90
443.83	760.21
444.20	763.08
444.57	766.57
444.94	768.39
445.31	770.42
445.68	773.08
446.05	773.71
446.42	772.28
446.79	770.92
447.16	769.12
447.53	767.88
447.90	763.50
448.27	758.85
448.64	752.81
449.01	748.23
449.37	740.49
449.74	732.87
450.11	724.95
450.48	715.09
450.85	704.77
451.22	695.92
451.59	687.64
451.96	679.85
452.33	669.73
452.70	660.39
453.07	649.03
453.43	636.84
453.80	625.96
454.17	615.66
454.54	605.62
454.91	594.99
455.28	584.70
455.65	575.20
456.02	567.16
456.38	559.03
456.75	549.15
457.12	540.64
457.49	532.28
457.86	523.50
458.23	516.94
458.59	509.50
458.96	502.05
459.33	495.53
459.70	488.70
460.07	483.37
460.43	477.39
460.80	471.96
461.17	467.08
461.54	461.96
461.91	457.23
462.27	451.86
462.64	447.51
463.01	442.81
463.38	438.41
463.74	432.58
464.11	428.30
464.48	424.76
464.85	421.10
465.21	418.45
465.58	415.55
465.95	411.69
466.32	408.69
466.68	405.73
467.05	402.78
467.42	399.94
467.78	396.89
468.15	393.86
468.52	391.90
468.88	389.00
469.25	386.41
469.62	384.39
469.98	382.54
470.35	380.73
470.72	378.93
471.08	376.58
471.45	374.91
471.82	373.68
472.18	371.72
472.55	370.43
472.92	368.54
473.28	366.84
473.65	365.49
474.02	364.19
474.38	362.96
474.75	361.98
475.11	360.78
475.48	359.87
475.85	358.99
476.21	357.90
476.58	357.22
476.94	356.63
477.31	355.84
477.67	354.99
478.04	354.25
478.41	353.73
478.77	354.27
479.14	353.74
479.50	353.24
479.87	353.08
480.23	352.79
480.60	352.61
480.96	352.40
481.33	352.58
481.69	352.44
482.06	352.47
482.42	352.38
482.79	352.60
483.15	352.67
483.52	353.14
483.88	353.33
484.25	353.48
484.61	353.80
484.98	354.00
485.34	354.96
485.71	355.72
486.07	356.36
486.44	356.10
486.80	356.90
487.17	357.61
487.53	358.55
487.90	359.47
488.26	360.82
488.62	362.16
488.99	362.98
489.35	364.30
489.72	365.53
490.08	366.79
490.44	367.93
490.81	369.58
491.17	371.08
491.54	372.89
491.90	374.81
492.26	376.69
492.63	378.73
492.99	380.43
493.36	382.50
493.72	384.77
494.08	387.17
494.45	389.49
494.81	392.15
495.17	394.59
495.54	397.28
495.90	399.66
496.26	402.41
496.63	405.43
496.99	408.35
497.35	411.42
497.72	414.76
498.08	418.05
498.44	421.33
498.80	424.88
499.17	428.34
499.53	431.79
499.89	435.45
500.26	439.17
500.62	442.93
500.98	447.13
501.34	451.15
501.71	455.30
502.07	459.52
502.43	463.56
502.79	467.81
503.16	472.33
503.52	476.96
503.88	481.18
504.24	486.00
504.60	490.66
504.97	495.69
505.33	500.39
505.69	505.77
506.05	511.01
506.41	516.03
506.78	521.27
507.14	526.69
507.50	532.11
507.86	537.82
508.22	543.50
508.59	548.84
508.95	554.72
509.31	560.86
509.67	566.71
510.03	572.46
510.39	578.62
510.75	584.61
511.12	590.53
511.48	596.98
511.84	602.94
512.20	609.27
512.56	615.55
512.92	621.97
513.28	628.33
513.64	634.54
514.00	641.30
514.37	648.12
514.73	654.97
515.09	661.95
515.45	668.76
515.81	675.57
516.17	682.50
516.53	689.11
516.89	695.75
517.25	702.92
517.61	710.75
517.97	717.91
518.33	725.38
518.69	733.29
519.05	741.26
519.41	749.52
519.77	758.13
520.13	766.19
520.49	774.05
520.85	782.08
521.21	790.61
521.57	798.84
521.93	806.67
522.29	815.06
522.65	822.97
523.01	831.18
523.37	839.06
523.73	847.40
524.09	855.56
524.45	863.75
524.81	872.16
525.17	880.44
525.53	889.10
525.89	897.52
526.25	905.91
526.61	913.77
526.97	921.95
527.33	930.22
527.68	939.68
528.04	948.78
528.40	957.80
528.76	966.71
529.12	975.62
529.48	984.78
529.84	993.45
530.20	1002.93
530.56	1012.32
530.91	1022.20
531.27	1031.36
531.63	1041.20
531.99	1051.03
532.35	1060.20
532.71	1069.42
533.07	1079.04
533.42	1089.41
533.78	1098.94
534.14	1108.75
534.50	1118.40
534.86	1127.96
535.21	1136.65
535.57	1146.25
535.93	1155.01
536.29	1164.51
536.65	1174.07
537.00	1183.29
537.36	1192.47
537.72	1201.02
538.08	1210.14
538.44	1218.81
538.79	1227.68
539.15	1236.56
539.51	1245.38
539.87	1254.29
540.22	1262.70
540.58	1271.32
540.94	1278.37
541.29	1285.99
541.65	1293.61
542.01	1301.48
542.37	1308.66
542.72	1315.35
543.08	1322.06
543.44	1329.66
543.79	1335.93
544.15	1342.56
544.51	1349.90
544.87	1356.62
545.22	1363.13
545.58	1369.22
545.94	1374.81
546.29	1380.43
546.65	1385.85
547.01	1390.81
547.36	1395.98
547.72	1401.22
548.07	1405.85
548.43	1410.65
548.79	1415.86
549.14	1420.74
549.50	1425.72
549.86	1430.17
550.21	1434.78
550.57	1439.53
550.92	1443.10
551.28	1447.05
551.64	1450.95
551.99	1454.59
552.35	1458.11
552.70	1462.11
553.06	1466.07
553.41	1470.30
553.77	1474.87
554.13	1478.70
554.48	1482.73
554.84	1486.51
555.19	1490.19
555.55	1494.51
555.90	1497.77
556.26	1500.52
556.61	1502.86
556.97	1504.27
557.32	1507.02
557.68	1509.78
558.03	1512.20
558.39	1514.55
558.74	1517.00
559.10	1518.61
559.45	1519.96
559.81	1521.38
560.16	1522.29
560.52	1523.11
560.87	1524.43
561.23	1524.62
561.58	1525.99
561.94	1525.71
562.29	1525.16
562.64	1525.34
563.00	1524.24
563.35	1524.44
563.71	1524.63
564.06	1525.18
564.42	1525.43
564.77	1525.67
565.12	1525.93
565.48	1526.44
565.83	1526.65
566.19	1526.62
566.54	1526.35
566.89	1525.82
567.25	1525.65
567.60	1526.12
567.96	1526.46
568.31	1526.10
568.66	1525.99
569.02	1524.49
569.37	1524.01
569.72	1524.14
570.08	1522.75
570.43	1521.75
570.78	1520.81
571.14	1519.31
571.49	1517.19
571.84	1515.60
572.20	1513.31
572.55	1510.74
572.90	1507.58
573.26	1505.39
573.61	1502.69
573.96	1500.31
574.31	1496.98
574.67	1493.66
575.02	1489.66
575.37	1485.50
575.72	1481.21
576.08	1477.46
576.43	1473.44
576.78	1469.28
577.13	1464.76
577.49	1460.80
577.84	1456.98
578.19	1452.90
578.54	1449.25
578.90	1446.12
579.25	1442.26
579.60	1438.43
579.95	1434.46
580.30	1430.09
580.66	1425.46
581.01	1420.76
581.36	1415.30
581.71	1411.11
582.06	1407.47
582.42	1403.16
582.77	1398.71
583.12	1394.67
583.47	1390.27
583.82	1386.21
584.17	1381.93
584.53	1378.07
584.88	1373.22
585.23	1368.30
585.58	1362.54
585.93	1357.01
586.28	1351.74
586.63	1346.41
586.98	1340.73
587.34	1335.51
587.69	1330.33
588.04	1325.23
588.39	1320.37
588.74	1315.80
589.09	1311.17
589.44	1305.02
589.79	1299.91
590.14	1294.90
590.49	1289.84
590.84	1284.53
591.19	1279.71
591.54	1274.66
591.89	1268.96
592.25	1265.68
592.60	1260.48
592.95	1256.48
593.30	1251.56
593.65	1245.91
594.00	1240.42
594.35	1238.03
594.70	1232.45
595.05	1227.29
595.40	1221.80
595.75	1216.32
596.10	1211.06
596.45	1205.93
596.80	1201.36
597.15	1195.95
597.50	1190.40
597.85	1185.23
598.19	1179.76
598.54	1173.60
598.89	1167.83
599.24	1162.68
599.59	1156.26
599.94	1151.26
600.29	1145.91
600.64	1140.60
600.99	1135.54
601.34	1131.20
601.69	1123.61
602.04	1118.90
602.39	1113.75
602.74	1109.27
603.08	1104.35
603.43	1099.80
603.78	1094.42
604.13	1089.16
604.48	1084.30
604.83	1079.31
605.18	1073.93
605.53	1068.80
605.87	1064.05
606.22	1059.96
606.57	1055.13
606.92	1049.67
607.27	1044.64
607.62	1039.54
607.96	1034.96
608.31	1030.45
608.66	1025.56
609.01	1020.92
609.36	1015.76
609.70	1010.93
610.05	1005.91
610.40	1001.20
610.75	996.12
611.10	991.34
611.44	986.05
611.79	981.15
612.14	976.19
612.49	971.32
612.83	966.98
613.18	962.06
613.53	957.17
613.88	951.98
614.22	947.27
614.57	942.05
614.92	937.06
615.27	932.08
615.61	926.81
615.96	921.72
616.31	916.32
616.65	912.03
617.00	907.19
617.35	902.06
617.70	897.26
618.04	892.44
618.39	887.73
618.74	883.99
619.08	879.39
619.43	874.78
619.78	869.87
620.12	864.70
620.47	860.09
620.82	854.88
621.16	850.46
621.51	846.39
621.85	842.14
622.20	837.54
622.55	832.75
622.89	828.43
623.24	824.03
623.59	819.68
623.93	814.93
624.28	810.46
624.62	807.27
624.97	803.24
625.32	798.80
625.66	794.33
626.01	789.49
626.35	785.26
626.70	780.97
627.04	776.89
627.39	772.68
627.73	768.97
628.08	765.25
628.43	760.73
628.77	756.11
629.12	751.87
629.46	747.95
629.81	744.44
630.15	740.51
630.50	736.35
630.84	732.49
631.19	728.98
631.53	725.56
631.88	720.34
632.22	715.94
632.57	712.51
632.91	708.83
633.26	705.28
633.60	701.26
633.95	697.45
634.29	693.34
634.64	689.61
634.98	685.28
635.32	681.57
635.67	678.23
636.01	674.71
636.36	670.94
636.70	667.60
637.05	663.94
637.39	660.34
637.73	656.93
638.08	653.74
638.42	649.81
638.77	645.92
639.11	642.31
639.45	638.67
639.80	634.45
640.14	630.85
640.49	627.26
640.83	623.82
641.17	620.59
641.52	617.55
641.86	614.18
642.20	611.34
642.55	607.77
642.89	604.46
643.23	601.17
643.58	598.54
643.92	595.08
644.26	591.56
644.61	588.60
644.95	585.28
645.29	581.58
645.64	578.62
645.98	575.50
646.32	572.64
646.66	569.67
647.01	566.91
647.35	564.06
647.69	561.10
648.04	558.51
648.38	555.59
648.72	552.50
649.06	549.49
649.41	546.11
649.75	543.12
650.09	540.19
650.43	537.34
650.78	534.15
651.12	531.17
651.46	528.45
651.80	525.55
652.14	523.02
652.49	520.77
652.83	518.00
653.17	515.47
653.51	512.83
653.85	510.31
654.20	507.96
654.54	505.38
654.88	502.66
655.22	500.43
655.56	497.87
655.90	495.54
656.25	493.18
656.59	491.06
656.93	488.85
657.27	486.90
657.61	484.37
657.95	482.16
658.29	479.82
658.64	477.70
658.98	475.26
659.32	472.72
659.66	470.18
660.00	467.90
660.34	465.52
660.68	463.22
661.02	461.02
661.36	458.54
661.70	456.24
662.05	454.04
662.39	451.77
662.73	449.82
663.07	448.17
663.41	446.23
663.75	443.94
664.09	441.85
664.43	439.40
664.77	437.34
665.11	435.04
665.45	433.11
665.79	431.05
666.13	429.03
666.47	426.92
666.81	424.95
667.15	422.79
667.49	420.99
667.83	419.47
668.17	417.44
668.51	415.64
668.85	413.97
669.19	412.79
669.53	410.60
669.87	408.69
670.21	406.62
670.55	404.80
670.89	403.60
671.23	401.81
671.57	400.17
671.91	398.63
672.25	397.10
672.58	395.76
672.92	393.86
673.26	392.39
673.60	391.05
673.94	389.59
674.28	388.31
674.62	386.85
674.96	385.14
675.30	383.84
675.64	382.30
675.97	380.63
676.31	378.51
676.65	376.94
676.99	375.78
677.33	374.08
677.67	372.65
678.01	370.67
678.34	369.37
678.68	368.14
679.02	366.52
679.36	364.96
679.70	363.31
680.04	362.10
680.37	360.74
680.71	359.39
681.05	357.99
681.39	356.70
681.73	355.31
682.06	353.86
682.40	352.42
682.74	351.46
683.08	350.58
683.42	349.43
683.75	348.50
684.09	346.86
684.43	345.83
684.77	344.65
685.10	343.77
685.44	342.50
685.78	341.25
686.12	340.18
686.45	338.96
686.79	337.75
687.13	336.76
687.46	335.74
687.80	334.74
688.14	333.57
688.48	332.35
688.81	331.23
689.15	330.39
689.49	329.37
689.82	328.35
690.16	326.92
690.50	325.93
690.83	324.84
691.17	323.81
691.51	322.70
691.84	321.68
692.18	320.45
692.52	319.43
692.85	318.61
693.19	318.02
693.52	317.30
693.86	316.38
694.20	315.37
694.53	314.43
694.87	313.41
695.21	312.35
695.54	311.49
695.88	310.54
696.21	309.40
696.55	308.53
696.88	307.58
697.22	306.71
697.56	305.88
697.89	304.84
698.23	304.05
698.56	303.26
698.90	302.59
699.23	301.69
699.57	301.01
699.90	300.06
700.24	298.88
700.58	298.06
700.91	297.42
701.25	297.40
701.58	297.37
701.92	296.83
702.25	296.34
702.59	295.62
702.92	295.08
703.26	294.60
703.59	293.98
703.93	293.99
704.26	293.42
704.60	292.81
704.93	292.15
705.26	291.53
705.60	291.12
705.93	290.30
706.27	290.02
706.60	289.60
706.94	289.43
707.27	288.84
707.61	288.42
707.94	287.87
708.27	286.59
708.61	285.23
708.94	284.62
709.28	284.14
709.61	283.48
709.94	282.85
710.28	282.22
710.61	281.68
710.95	280.37
711.28	280.45
711.61	279.89
711.95	279.61
712.28	278.95
712.61	278.33
712.95	278.40
713.28	278.22
713.61	277.49
713.95	276.65
714.28	276.25
714.61	275.51
714.95	274.91
715.28	274.36
715.61	273.82
715.95	273.25
716.28	272.70
716.61	272.39
716.95	271.80
717.28	271.16
717.61	270.58
717.94	270.23
718.28	269.09
718.61	268.64
718.94	268.02
719.27	267.62
719.61	267.21
719.94	266.48
720.27	265.54
720.60	265.04
720.94	264.59
721.27	264.29
721.60	264.07
721.93	263.71
722.27	263.66
722.60	263.43
722.93	263.02
723.26	262.68
723.59	262.14
723.93	262.02
724.26	261.87
724.59	261.50
724.92	261.12
725.25	261.09
725.59	260.69
725.92	260.54
726.25	260.27
726.58	259.84
726.91	259.43
727.24	259.26
727.57	259.05
727.91	258.54
728.24	258.28
728.57	257.81
728.90	257.67
729.23	257.06
729.56	257.14
729.89	257.02
730.22	256.50
730.55	256.26
730.89	255.86
731.22	255.60
731.55	255.31
731.88	255.09
732.21	254.66
732.54	254.26
732.87	253.94
733.20	253.67
733.53	253.48
733.86	253.36
734.19	252.97
734.52	252.84
734.85	253.36
735.18	253.06
735.51	253.15
735.84	252.95
736.17	253.07
736.50	252.40
736.83	253.18
737.16	253.18
737.49	253.01
737.82	252.80
738.15	252.73
738.48	252.50
738.81	252.13
739.14	251.74
739.47	251.55
739.80	251.35
740.13	251.23
740.46	250.89
740.79	250.48
741.12	250.40
741.45	250.06
741.78	249.21
742.11	249.27
742.44	248.89
742.77	248.72
743.10	248.33
743.43	248.01
743.75	246.69
744.08	247.69
744.41	247.38
744.74	247.16
745.07	246.65
745.40	246.75
745.73	246.96
746.06	246.93
746.39	246.94
746.71	246.61
747.04	246.35
747.37	246.12
747.70	246.11
748.03	245.80
748.36	245.77
748.68	245.64
749.01	245.21
749.34	245.05
749.67	244.91
750.00	244.92
750.33	245.66
750.65	245.60
750.98	244.20
751.31	244.08
751.64	243.95
751.97	244.32
752.29	244.05
752.62	243.49
752.95	243.20
753.28	242.93
753.60	242.74
753.93	242.85
754.26	242.83
754.59	242.41
754.91	242.27
755.24	242.16
755.57	242.19
755.90	241.95
756.22	241.73
756.55	241.38
756.88	240.99
757.20	240.05
757.53	239.68
757.86	239.63
758.19	239.60
758.51	239.52
758.84	239.08
759.17	238.89
759.49	238.87
759.82	239.32
760.15	239.32
760.47	239.25
760.80	238.82
761.13	238.89
761.45	238.80
761.78	238.70
762.11	238.46
762.43	238.07
762.76	237.95
763.08	238.05
763.41	238.10
763.74	238.11
764.06	238.16
764.39	238.09
764.71	237.94
765.04	237.70
765.37	237.50
765.69	237.28
766.02	237.09
766.34	236.94
766.67	236.40
767.00	236.37
767.32	236.76
767.65	237.43
767.97	237.25
768.30	237.29
768.62	237.18
768.95	237.10
769.27	237.05
769.60	237.20
769.92	236.86
770.25	236.59
770.57	236.36
770.90	236.17
771.22	236.04
771.55	235.95
771.87	235.99
772.20	235.92
772.52	236.73
772.85	237.95
773.17	237.89
773.50	237.92
773.82	237.83
774.15	237.38
774.47	236.58
774.80	236.41
775.12	236.26
775.45	236.27
775.77	236.33
776.09	236.37
776.42	236.24
776.74	236.48
777.07	236.33
777.39	236.24
777.72	236.11
778.04	236.20
778.36	236.11
778.69	236.12
779.01	236.18
779.33	235.27
779.66	234.06
779.98	233.92
780.31	233.80
780.63	234.08
780.95	234.11
781.28	234.04
781.60	233.92
781.92	234.00
782.25	233.98
782.57	233.80
782.89	233.65
783.22	233.50
783.54	233.32
783.86	233.37
784.19	233.38
784.51	233.66
784.83	233.44
785.16	233.41
785.48	233.28
785.80	233.17
786.12	233.19
786.45	233.27
786.77	233.39
787.09	233.23
787.42	232.84
787.74	232.87
788.06	232.93
788.38	232.94
788.71	232.77
789.03	232.70
789.35	232.79
789.67	232.65
789.99	232.64
790.32	232.45
790.64	232.56
790.96	233.21
791.28	232.80
791.61	232.86
791.93	232.93
792.25	232.90
792.57	233.53
792.89	233.34
793.21	233.31
793.54	233.11
793.86	233.09
794.18	233.07
794.50	232.90
794.82	232.86
795.14	232.88
795.47	232.97
795.79	232.96
796.11	232.72
796.43	232.64
796.75	232.66
797.07	232.66
797.39	232.58
797.71	231.89
798.04	231.95
798.36	231.90
798.68	231.78
799.00	231.74
799.32	231.11
799.64	231.34
799.96	231.24
800.28	231.40
800.60	231.30
800.92	231.37
801.24	231.34
801.56	231.40
801.89	231.38
802.21	231.50
802.53	231.28
802.85	231.41
803.17	231.92
803.49	231.61
803.81	231.53
804.13	231.46
804.45	231.37
804.77	231.41
805.09	231.44
805.41	231.30
805.73	231.25
806.05	231.06
806.37	230.89
806.69	230.77
807.01	230.82
807.33	230.86
807.65	230.51
807.97	230.92
808.28	230.79
808.60	230.76
808.92	230.46
809.24	231.13
809.56	231.00
809.88	230.67
810.20	230.73
810.52	230.87
810.84	230.75
811.16	230.63
811.48	230.60
811.80	230.97
812.12	230.96
812.43	231.13
812.75	231.20
813.07	231.20
813.39	231.27
813.71	231.01
814.03	230.99
814.35	231.01
814.67	230.62
814.98	230.50
815.30	230.45
815.62	230.32
815.94	229.67
816.26	230.09
816.58	229.84
816.89	230.01
817.21	229.81
817.53	229.91
817.85	229.95
818.17	229.88
818.48	229.43
818.80	229.57
819.12	229.41
819.44	229.22
819.76	229.10
820.07	229.14
820.39	229.11
820.71	229.18
821.03	229.23
821.34	229.04
821.66	229.23
821.98	229.30
822.30	229.45
822.61	229.94
822.93	229.49
823.25	229.56
823.57	229.38
823.88	229.55
824.20	229.46
824.52	229.66
824.83	229.59
825.15	229.47
825.47	229.40
825.79	229.41
826.10	229.39
826.42	229.36
826.74	229.31
827.05	229.30
827.37	229.32
827.69	229.20
828.00	229.24
828.32	229.20
828.64	229.08
828.95	229.39
829.27	229.10
829.58	229.12
829.90	229.24
830.22	229.43
830.53	229.17
830.85	229.14
831.17	228.77
831.48	228.84
831.80	228.91
832.11	228.92
832.43	228.94
832.75	228.96
833.06	229.58
833.38	229.28
833.69	229.14
834.01	229.18
834.32	229.17
834.64	229.19
834.96	229.15
835.27	229.14
835.59	228.85
835.90	228.73
836.22	228.63
836.53	228.42
836.85	228.22
837.16	229.17
837.48	229.21
837.79	229.57
838.11	229.63
838.42	229.67
838.74	229.73
839.05	229.57
839.37	229.51
839.68	228.82
840.00	228.91
840.31	229.13
840.63	228.98
840.94	228.99
841.26	228.80
841.57	228.82
841.88	228.91
842.20	228.80
842.51	228.68
842.83	228.75
843.14	229.57
843.46	229.60
843.77	229.14
844.08	229.01
844.40	228.69
844.71	228.54
845.03	228.41
845.34	228.27
845.65	228.18
845.97	228.20
846.28	228.37
846.60	228.40
846.91	228.30
847.22	228.21
847.54	228.36
847.85	228.46
848.16	228.41
848.48	228.20
848.79	228.55
849.10	228.67
849.42	228.76
849.73	227.90
850.04	227.91
850.36	227.60
850.67	227.78
850.98	227.79
851.30	227.87
851.61	227.77
851.92	227.80
852.23	228.12
852.55	228.18
852.86	228.06
853.17	228.18
853.49	228.39
853.80	228.60
854.11	228.73
854.42	228.77
854.74	228.72
855.05	228.76
855.36	228.35
855.67	228.40
855.99	228.37
856.30	229.49
856.61	229.49
856.92	229.47
857.23	229.46
857.55	229.43
857.86	229.37
858.17	229.51
858.48	229.37
858.79	229.16
859.11	229.31
859.42	229.33
859.73	229.18
860.04	229.02
860.35	228.81
860.66	228.43
860.98	228.52
861.29	228.58
861.60	228.55
861.91	228.73
862.22	228.59
862.53	228.44
862.84	227.42
863.16	227.63
863.47	227.47
863.78	227.35
864.09	227.51
864.40	227.64
864.71	227.71
865.02	227.80
865.33	227.71
865.64	227.58
865.95	227.57
866.27	228.22
866.58	228.13
866.89	228.15
867.20	228.18
867.51	227.99
867.82	227.91
868.13	228.26
868.44	227.97
868.75	228.20
869.06	228.26
869.37	228.32
869.68	227.98
869.99	228.17
870.30	228.25
870.61	228.35
870.92	228.14
871.23	228.10
871.54	228.23
871.85	228.46
872.16	228.49
872.47	228.53
872.78	227.90
873.09	228.09
873.40	228.06
873.71	228.15
874.02	228.28
874.33	228.22
874.64	227.94
874.95	228.35
875.26	228.11
875.56	228.01
875.87	227.96
876.18	227.93
876.49	228.91
876.80	228.89
877.11	228.58
877.42	228.64
877.73	228.60
878.04	228.53
878.35	228.49
878.66	228.53
878.96	228.41
879.27	228.45
879.58	228.33
879.89	228.30
880.20	228.51
880.51	228.38
880.82	228.39
881.12	228.40
881.43	228.09
881.74	227.99
882.05	227.97
882.36	228.08
882.67	228.18
882.97	227.10
883.28	227.03
883.59	227.05
883.90	227.15
884.21	227.37
884.51	227.28
884.82	227.14
885.13	227.03
885.44	227.09
885.74	227.07
886.05	227.01
886.36	227.05
886.67	226.71
886.98	227.24
887.28	227.28
887.59	227.34
887.90	227.30
888.20	227.29
888.51	227.56
888.82	227.38
889.13	227.53
889.43	228.44
889.74	228.40
890.05	228.41
890.35	228.30
890.66	228.05
890.97	227.99
891.28	228.02
891.58	228.05
891.89	227.95
892.20	227.84
892.50	227.70
892.81	227.61
893.12	227.55
893.42	227.05
893.73	227.15
894.04	227.07
894.34	227.16
894.65	227.04
894.95	226.88
895.26	226.82
895.57	227.14
895.87	226.08
896.18	226.17
896.48	226.22
896.79	226.24
897.10	226.40
897.40	226.51
897.71	226.54
898.01	226.49
898.32	226.63
898.63	226.68
898.93	226.73
899.24	226.75
899.54	226.85
899.85	226.83
900.15	226.69
900.46	226.63
900.76	226.72
901.07	226.73
901.38	226.70
901.68	226.84
901.99	226.33
902.29	226.47
902.60	226.46
902.90	226.50
903.21	226.42
903.51	226.46
903.82	226.59
904.12	226.62
904.43	226.67
904.73	226.72
905.03	226.69
905.34	227.71
905.64	227.63
905.95	227.59
906.25	227.63
906.56	227.64
906.86	227.70
907.17	227.54
907.47	227.77
907.77	227.71
908.08	227.54
908.38	227.61
908.69	227.64
908.99	227.67
909.30	227.65
909.60	227.70
909.90	227.60
910.21	227.35
910.51	227.24
910.81	227.22
911.12	227.21
911.42	227.21
911.73	226.30
912.03	226.43
912.33	226.60
912.64	226.58
912.94	226.50
913.24	226.38
913.55	226.43
913.85	226.39
914.15	226.59
914.46	226.69
914.76	226.67
915.06	226.61
915.37	226.65
915.67	226.59
915.97	226.64
916.27	226.54
916.58	226.63
916.88	226.62
917.18	226.67
917.49	227.23
917.79	227.29
918.09	227.39
918.39	227.65
918.70	227.73
919.00	227.79
919.30	228.25
919.60	228.32
919.91	228.20
920.21	228.23
920.51	228.02
920.81	228.01
921.12	228.08
921.42	228.20
921.72	228.17
922.02	228.31
922.32	228.37
922.63	228.46
922.93	228.89
923.23	228.91
923.53	228.82
923.83	228.23
924.13	228.35
924.44	228.44
924.74	228.57
925.04	228.73
925.34	228.65
925.64	228.27
925.94	228.17
926.24	228.80
926.55	228.67
926.85	228.87
927.15	228.87
927.45	228.95
927.75	228.79
928.05	228.82
928.35	228.70
928.65	228.81
928.95	228.80
929.26	228.46
929.56	228.67
929.86	228.86
930.16	228.85
930.46	228.72
930.76	228.67
931.06	228.25
931.36	227.94
931.66	228.18
931.96	228.26
932.26	228.36
932.56	227.90
932.86	228.06
933.16	227.98
933.46	227.89
933.76	227.69
934.06	227.98
934.36	228.24
934.66	228.35
934.96	228.33
935.26	228.41
935.56	228.56
935.86	228.19
936.16	227.95
936.46	227.91
936.76	227.86
937.06	227.67
937.36	227.76
937.66	227.81
937.96	227.72
938.26	227.54
938.56	227.52
938.86	227.58
939.16	227.67
939.46	227.69
939.76	227.82
940.06	227.91
940.35	227.76
940.65	227.27
940.95	227.21
941.25	226.98
941.55	226.86
941.85	226.82
942.15	227.21
942.45	227.44
942.75	227.42
943.04	227.50
943.34	227.72
943.64	227.60
943.94	227.43
944.24	227.32
944.54	227.38
944.84	227.33
945.13	227.15
945.43	226.96
945.73	226.91
946.03	226.84
946.33	226.69
946.62	226.59
946.92	226.60
947.22	226.70
947.52	226.70
947.82	226.81
948.11	226.72
948.41	226.47
948.71	226.23
949.01	226.26
949.31	226.10
949.60	226.03
949.90	226.13
950.20	226.10
950.50	226.18
950.79	226.16
951.09	226.29
951.39	226.19
951.69	226.09
951.98	226.30
952.28	226.35
952.58	226.39
952.87	226.32
953.17	226.52
953.47	226.33
953.76	226.40
954.06	226.28
954.36	226.13
954.66	226.10
954.95	226.35
955.25	226.48
955.55	226.59
955.84	226.42
956.14	226.60
956.44	226.80
956.73	226.64
957.03	226.75
957.32	226.81
957.62	227.00
957.92	227.26
958.21	227.15
958.51	228.25
958.81	228.31
959.10	228.49
959.40	228.69
959.69	228.74
959.99	228.83
960.29	228.81
960.58	228.79
960.88	229.19
961.17	229.07
961.47	229.01
961.76	229.05
962.06	229.29
962.36	229.07
962.65	229.07
962.95	229.10
963.24	228.92
963.54	228.89
963.83	228.88
964.13	228.86
964.42	228.78
964.72	228.03
965.01	228.11
965.31	228.08
965.60	227.84
965.90	228.52
966.19	228.33
966.49	228.39
966.78	228.39
967.08	228.29
967.37	228.34
967.67	228.22
967.96	228.27
968.26	228.30
968.55	228.49
968.85	228.46
969.14	228.49
969.43	228.48
969.73	228.40
970.02	228.34
970.32	228.21
970.61	228.18
970.91	227.90
971.20	227.65
971.49	227.55
971.79	227.63
972.08	227.00
972.38	227.13
972.67	227.07
972.96	227.24
973.26	226.98
973.55	227.17
973.85	227.15
974.14	227.13
974.43	227.01
974.73	226.88
975.02	226.77
975.31	226.81
975.61	226.86
975.90	226.78
976.19	226.78
976.49	226.87
976.78	226.88
977.07	226.76
977.37	226.93
977.66	227.03
977.95	226.89
978.24	226.85
978.54	227.03
978.83	226.92
979.12	226.77
979.42	226.83
979.71	226.65
980.00	226.70
980.29	226.70
980.59	226.59
980.88	226.76
981.17	226.68
981.46	226.64
981.76	226.71
982.05	227.11
982.34	227.15
982.63	227.23
982.93	227.17
983.22	227.55
983.51	227.54
983.80	227.71
984.09	227.88
984.39	227.78
984.68	227.54
984.97	227.62
985.26	227.55
985.55	227.63
985.85	227.51
986.14	227.50
986.43	227.59
986.72	227.56
987.01	227.31
987.30	227.39
987.59	227.30
987.89	227.25
988.18	226.88
988.47	226.82
988.76	226.64
989.05	226.65
989.34	226.42
989.63	226.69
989.92	226.40
990.22	226.19
990.51	226.28
990.80	226.25
991.09	226.34
991.38	226.60
991.67	226.55
991.96	226.48
992.25	226.53
992.54	226.32
992.83	226.32
993.12	226.35
993.41	226.48
993.70	226.96
993.99	227.14
994.28	227.32
994.58	227.37
994.87	227.35
995.16	227.26
995.45	227.08
995.74	226.81
996.03	227.01
996.32	227.28
996.61	227.42
996.90	227.44
997.19	227.39
997.48	227.27
997.77	227.19
998.06	227.24
998.34	227.17
998.63	227.25
998.92	227.31
999.21	227.37
999.50	227.40
999.79	227.02
1000.08	227.03
1000.37	227.11
1000.66	227.10
1000.95	227.29
1001.24	227.33
1001.53	227.60
1001.82	227.52
1002.11	227.30
1002.40	227.30
1002.68	227.61
1002.97	228.34
1003.26	228.34
1003.55	228.16
1003.84	228.32
1004.13	228.70
1004.42	228.70
1004.71	228.79
1004.99	228.77
1005.28	229.01
1005.57	228.97
1005.86	228.85
1006.15	228.77
1006.44	228.57
1006.72	228.68
1007.01	228.53
1007.30	228.62
1007.59	228.54
1007.88	228.50
1008.17	228.58
1008.45	228.37
1008.74	227.90
1009.03	227.40
1009.32	227.38
1009.60	227.45
1009.89	227.27
1010.18	226.86
1010.47	226.76
1010.76	226.63
1011.04	226.62
1011.33	226.61
1011.62	226.54
1011.91	226.60
1012.19	226.65
1012.48	226.65
1012.77	226.64
1013.05	227.12
1013.34	227.08
1013.63	226.93
1013.92	227.03
1014.20	226.89
1014.49	226.98
1014.78	227.02
1015.06	226.69
1015.35	226.60
1015.64	226.73
1015.92	226.85
1016.21	226.80
1016.50	226.82
1016.78	226.87
1017.07	226.91
1017.36	226.57
1017.64	226.54
1017.93	226.65
1018.22	226.47
1018.50	226.45
1018.79	226.32
1019.08	225.83
1019.36	225.98
1019.65	225.96
1019.93	226.12
1020.22	226.30
1020.51	226.69
1020.79	226.66
1021.08	224.60
1021.36	225.80
1021.65	225.70
1021.94	226.50
1022.22	228.80
1022.51	224.80
1022.79	229.90
1023.08	227.20
1023.36	236.60
1023.65	225.60
>>>>>End Processed Spectral Data<<<<<
