SpectraSuite Data File
++++++++++++++++++++++++++++++++++++
Date: Wed Sep 04 17:34:06 EDT 2013
User: lab3
Dark Spectrum Present: Yes
Reference Spectrum Present: No
Number of Sampled Component Spectra: 1
Spectrometers: USB2E7196
Integration Time (usec): 337000 (USB2E7196)
Spectra Averaged: 10 (USB2E7196)
Boxcar Smoothing: 10 (USB2E7196)
Correct for Electrical Dark: No (USB2E7196)
Strobe/Lamp Enabled: No (USB2E7196)
Correct for Detector Non-linearity: No (USB2E7196)
Correct for Stray Light: No (USB2E7196)
Number of Pixels in Processed Spectrum: 2048
>>>>>Begin Processed Spectral Data<<<<<
339.09	0.00
339.48	212.90
339.86	214.10
340.24	216.50
340.63	217.80
341.01	232.80
341.39	220.00
341.78	223.20
342.16	225.60
342.54	222.60
342.93	213.38
343.31	224.09
343.69	224.71
344.07	225.20
344.46	225.69
344.84	226.11
345.22	225.75
345.60	226.17
345.99	226.36
346.37	226.51
346.75	226.61
347.13	226.75
347.52	226.82
347.90	227.24
348.28	227.24
348.66	227.45
349.05	227.26
349.43	227.49
349.81	227.60
350.19	227.75
350.57	227.78
350.96	228.00
351.34	228.12
351.72	228.11
352.10	228.25
352.48	228.19
352.87	228.28
353.25	228.35
353.63	228.33
354.01	228.33
354.39	228.27
354.77	228.38
355.15	228.62
355.54	228.51
355.92	228.14
356.30	228.38
356.68	229.02
357.06	229.08
357.44	228.94
357.82	229.00
358.20	229.77
358.58	229.76
358.97	229.89
359.35	230.15
359.73	230.43
360.11	230.47
360.49	230.71
360.87	230.67
361.25	230.87
361.63	231.21
362.01	231.30
362.39	231.30
362.77	231.53
363.15	231.53
363.53	231.74
363.91	231.96
364.29	231.92
364.67	231.11
365.05	231.20
365.43	231.28
365.81	231.39
366.19	231.05
366.57	231.56
366.95	231.40
367.33	231.16
367.71	231.17
368.09	231.36
368.47	231.33
368.85	231.30
369.23	231.51
369.61	231.15
369.99	231.55
370.37	231.70
370.75	232.02
371.13	231.88
371.51	231.72
371.89	231.70
372.27	231.66
372.65	231.64
373.03	231.61
373.41	231.60
373.78	231.47
374.16	231.02
374.54	230.65
374.92	230.58
375.30	230.53
375.68	230.32
376.06	230.34
376.44	230.13
376.82	230.23
377.19	230.08
377.57	230.00
377.95	229.60
378.33	229.53
378.71	229.01
379.09	229.06
379.47	229.17
379.84	229.05
380.22	228.97
380.60	228.79
380.98	228.77
381.36	228.70
381.73	228.62
382.11	228.88
382.49	228.88
382.87	228.66
383.25	228.78
383.62	229.77
384.00	229.58
384.38	229.68
384.76	229.93
385.13	230.26
385.51	230.28
385.89	230.08
386.27	230.03
386.64	230.16
387.02	230.05
387.40	229.95
387.78	229.99
388.15	229.93
388.53	229.97
388.91	229.85
389.29	229.77
389.66	229.93
390.04	229.63
390.42	229.79
390.79	230.04
391.17	230.01
391.55	229.04
391.92	228.99
392.30	229.15
392.68	228.82
393.05	228.75
393.43	228.75
393.81	228.83
394.18	228.73
394.56	228.70
394.94	228.86
395.31	228.78
395.69	229.17
396.06	229.31
396.44	229.34
396.82	229.32
397.19	229.85
397.57	229.80
397.95	230.07
398.32	229.71
398.70	229.79
399.07	229.98
399.45	230.03
399.82	230.18
400.20	230.18
400.58	230.26
400.95	229.90
401.33	230.31
401.70	231.20
402.08	231.41
402.45	231.56
402.83	231.96
403.20	232.17
403.58	232.09
403.95	232.48
404.33	232.86
404.71	233.15
405.08	233.85
405.46	234.18
405.83	234.53
406.21	235.04
406.58	235.41
406.96	235.75
407.33	236.14
407.70	236.59
408.08	237.80
408.45	238.53
408.83	239.35
409.20	239.74
409.58	239.74
409.95	240.52
410.33	241.32
410.70	241.78
411.08	242.65
411.45	243.46
411.82	244.28
412.20	245.46
412.57	246.97
412.95	247.15
413.32	248.38
413.69	249.41
414.07	250.63
414.44	252.04
414.82	253.43
415.19	255.33
415.56	257.07
415.94	258.31
416.31	260.30
416.68	262.46
417.06	264.77
417.43	267.25
417.81	269.84
418.18	272.45
418.55	275.31
418.93	278.24
419.30	281.42
419.67	284.65
420.04	287.88
420.42	291.15
420.79	296.01
421.16	300.00
421.54	304.81
421.91	309.36
422.28	313.88
422.66	318.81
423.03	324.09
423.40	329.00
423.77	334.28
424.15	339.61
424.52	345.00
424.89	351.10
425.26	356.89
425.64	362.29
426.01	368.47
426.38	374.90
426.75	381.65
427.13	388.49
427.50	395.52
427.87	402.58
428.24	409.89
428.61	416.30
428.99	424.26
429.36	432.06
429.73	439.96
430.10	448.14
430.47	456.43
430.85	464.36
431.22	473.28
431.59	483.31
431.96	492.30
432.33	502.51
432.70	512.25
433.08	523.83
433.45	534.84
433.82	545.54
434.19	557.82
434.56	569.79
434.93	580.81
435.30	591.86
435.68	604.77
436.05	617.30
436.42	629.70
436.79	641.00
437.16	653.35
437.53	666.49
437.90	679.35
438.27	692.01
438.64	705.35
439.01	717.90
439.38	728.51
439.75	739.30
440.13	751.40
440.50	762.77
440.87	771.82
441.24	781.36
441.61	791.74
441.98	799.09
442.35	807.85
442.72	816.89
443.09	826.22
443.46	831.19
443.83	834.52
444.20	837.48
444.57	841.55
444.94	843.23
445.31	845.03
445.68	847.37
446.05	847.88
446.42	846.05
446.79	844.23
447.16	841.82
447.53	840.05
447.90	834.45
448.27	828.99
448.64	821.81
449.01	816.61
449.37	807.80
449.74	798.99
450.11	789.02
450.48	777.86
450.85	765.83
451.22	755.83
451.59	746.31
451.96	737.00
452.33	725.11
452.70	714.15
453.07	701.24
453.43	687.57
453.80	675.22
454.17	663.32
454.54	651.71
454.91	639.70
455.28	627.86
455.65	616.88
456.02	607.44
456.38	598.06
456.75	586.52
457.12	576.90
457.49	567.69
457.86	558.25
458.23	550.83
458.59	542.50
458.96	534.14
459.33	526.60
459.70	519.16
460.07	513.22
460.43	506.52
460.80	500.35
461.17	495.05
461.54	489.20
461.91	483.59
462.27	478.03
462.64	473.26
463.01	468.09
463.38	463.57
463.74	457.11
464.11	452.88
464.48	449.15
464.85	445.08
465.21	442.08
465.58	438.64
465.95	434.34
466.32	431.20
466.68	427.87
467.05	424.51
467.42	421.44
467.78	418.02
468.15	414.99
468.52	412.83
468.88	409.51
469.25	406.64
469.62	404.76
469.98	402.43
470.35	400.35
470.72	398.37
471.08	395.69
471.45	394.03
471.82	392.38
472.18	390.31
472.55	388.76
472.92	386.73
473.28	385.19
473.65	383.65
474.02	382.12
474.38	381.01
474.75	380.02
475.11	378.69
475.48	377.73
475.85	376.78
476.21	375.83
476.58	375.26
476.94	374.90
477.31	374.19
477.67	373.65
478.04	373.20
478.41	372.94
478.77	373.77
479.14	373.43
479.50	373.23
479.87	373.36
480.23	373.35
480.60	373.33
480.96	373.40
481.33	373.84
481.69	374.16
482.06	374.35
482.42	374.97
482.79	375.46
483.15	376.18
483.52	377.21
483.88	377.80
484.25	378.44
484.61	379.36
484.98	380.18
485.34	381.61
485.71	382.87
486.07	384.39
486.44	385.12
486.80	386.68
487.17	388.25
487.53	390.31
487.90	392.58
488.26	395.22
488.62	397.76
488.99	400.02
489.35	402.57
489.72	405.29
490.08	407.92
490.44	410.95
490.81	414.38
491.17	417.43
491.54	421.27
491.90	425.27
492.26	429.03
492.63	433.16
492.99	437.32
493.36	441.89
493.72	446.72
494.08	451.66
494.45	457.17
494.81	462.89
495.17	468.60
495.54	474.65
495.90	480.64
496.26	487.07
496.63	493.98
496.99	500.92
497.35	508.32
497.72	516.20
498.08	524.33
498.44	532.54
498.80	541.67
499.17	550.47
499.53	559.42
499.89	569.44
500.26	579.68
500.62	589.95
500.98	600.73
501.34	611.64
501.71	623.04
502.07	634.47
502.43	646.45
502.79	658.50
503.16	671.00
503.52	684.18
503.88	697.51
504.24	711.43
504.60	725.99
504.97	741.06
505.33	756.27
505.69	772.40
506.05	788.36
506.41	804.55
506.78	821.45
507.14	838.98
507.50	856.64
507.86	874.94
508.22	893.72
508.59	912.84
508.95	932.70
509.31	953.37
509.67	973.85
510.03	994.30
510.39	1015.61
510.75	1037.29
511.12	1059.42
511.48	1082.39
511.84	1105.10
512.20	1128.27
512.56	1151.41
512.92	1175.48
513.28	1199.49
513.64	1224.09
514.00	1248.87
514.37	1274.01
514.73	1300.10
515.09	1326.26
515.45	1352.54
515.81	1378.56
516.17	1405.06
516.53	1431.55
516.89	1457.36
517.25	1484.89
517.61	1513.61
517.97	1542.03
518.33	1570.46
518.69	1598.79
519.05	1627.58
519.41	1656.55
519.77	1686.16
520.13	1715.31
520.49	1744.30
520.85	1776.28
521.21	1806.16
521.57	1836.53
521.93	1865.85
522.29	1895.38
522.65	1924.00
523.01	1953.19
523.37	1982.38
523.73	2012.07
524.09	2040.22
524.45	2069.16
524.81	2097.92
525.17	2126.09
525.53	2154.58
525.89	2183.31
526.25	2212.00
526.61	2239.55
526.97	2268.47
527.33	2297.17
527.68	2327.03
528.04	2356.01
528.40	2381.93
528.76	2410.76
529.12	2438.38
529.48	2466.89
529.84	2493.80
530.20	2522.69
530.56	2550.65
530.91	2578.94
531.27	2606.35
531.63	2634.90
531.99	2663.09
532.35	2690.40
532.71	2718.24
533.07	2746.15
533.42	2773.52
533.78	2800.62
534.14	2827.54
534.50	2853.62
534.86	2879.18
535.21	2902.55
535.57	2927.34
535.93	2951.67
536.29	2975.77
536.65	3000.81
537.00	3024.14
537.36	3047.70
537.72	3069.58
538.08	3092.24
538.44	3113.95
538.79	3135.98
539.15	3158.12
539.51	3179.49
539.87	3199.73
540.22	3217.97
540.58	3237.44
540.94	3255.05
541.29	3272.27
541.65	3288.69
542.01	3304.75
542.37	3318.70
542.72	3333.65
543.08	3347.67
543.44	3362.58
543.79	3375.02
544.15	3387.33
544.51	3400.60
544.87	3413.79
545.22	3425.80
545.58	3436.16
545.94	3446.18
546.29	3454.88
546.65	3462.51
547.01	3469.79
547.36	3477.74
547.72	3485.59
548.07	3490.85
548.43	3497.17
548.79	3503.22
549.14	3509.48
549.50	3515.45
549.86	3521.51
550.21	3526.88
550.57	3532.32
550.92	3534.40
551.28	3536.88
551.64	3540.32
551.99	3543.26
552.35	3545.27
552.70	3548.36
553.06	3550.68
553.41	3553.08
553.77	3555.65
554.13	3558.36
554.48	3561.67
554.84	3563.62
555.19	3565.95
555.55	3569.10
555.90	3569.60
556.26	3569.44
556.61	3568.01
556.97	3565.65
557.32	3565.65
557.68	3564.68
558.03	3563.47
558.39	3563.14
558.74	3563.43
559.10	3560.50
559.45	3556.59
559.81	3552.50
560.16	3546.78
560.52	3541.67
560.87	3537.50
561.23	3532.01
561.58	3526.61
561.94	3518.51
562.29	3510.14
562.64	3501.97
563.00	3491.87
563.35	3484.68
563.71	3477.07
564.06	3470.66
564.42	3463.40
564.77	3455.89
565.12	3448.57
565.48	3440.94
565.83	3432.78
566.19	3423.56
566.54	3414.78
566.89	3406.57
567.25	3398.45
567.60	3391.32
567.96	3384.54
568.31	3376.14
568.66	3367.32
569.02	3357.50
569.37	3348.67
569.72	3340.97
570.08	3331.75
570.43	3321.90
570.78	3312.31
571.14	3302.53
571.49	3291.19
571.84	3281.48
572.20	3269.95
572.55	3258.50
572.90	3245.30
573.26	3233.02
573.61	3220.62
573.96	3208.15
574.31	3194.86
574.67	3181.18
575.02	3166.18
575.37	3150.60
575.72	3134.58
576.08	3120.28
576.43	3104.97
576.78	3090.03
577.13	3073.98
577.49	3058.27
577.84	3044.37
578.19	3030.08
578.54	3015.31
578.90	3001.89
579.25	2987.38
579.60	2972.44
579.95	2957.09
580.30	2941.70
580.66	2926.07
581.01	2909.80
581.36	2893.61
581.71	2878.41
582.06	2863.49
582.42	2849.10
582.77	2834.74
583.12	2821.00
583.47	2806.39
583.82	2792.05
584.17	2777.55
584.53	2763.80
584.88	2748.40
585.23	2732.93
585.58	2715.75
585.93	2699.65
586.28	2683.30
586.63	2666.48
586.98	2649.20
587.34	2633.22
587.69	2617.16
588.04	2602.22
588.39	2588.31
588.74	2573.17
589.09	2558.83
589.44	2542.73
589.79	2527.61
590.14	2512.73
590.49	2497.80
590.84	2482.37
591.19	2468.20
591.54	2452.79
591.89	2437.43
592.25	2426.00
592.60	2411.78
592.95	2397.90
593.30	2382.54
593.65	2367.16
594.00	2352.08
594.35	2340.83
594.70	2326.12
595.05	2311.88
595.40	2296.09
595.75	2280.48
596.10	2266.41
596.45	2251.46
596.80	2237.87
597.15	2223.29
597.50	2208.50
597.85	2194.23
598.19	2179.57
598.54	2164.03
598.89	2149.31
599.24	2135.73
599.59	2119.95
599.94	2105.92
600.29	2092.30
600.64	2079.26
600.99	2065.34
601.34	2052.67
601.69	2036.99
602.04	2024.02
602.39	2011.39
602.74	1999.80
603.08	1987.12
603.43	1975.05
603.78	1962.16
604.13	1949.61
604.48	1936.96
604.83	1923.47
605.18	1909.60
605.53	1896.68
605.87	1884.70
606.22	1873.78
606.57	1860.96
606.92	1847.81
607.27	1834.95
607.62	1822.72
607.96	1811.20
608.31	1800.46
608.66	1788.72
609.01	1777.19
609.36	1765.13
609.70	1752.95
610.05	1740.70
610.40	1729.30
610.75	1716.70
611.10	1704.95
611.44	1692.14
611.79	1680.25
612.14	1669.08
612.49	1657.99
612.83	1647.62
613.18	1636.47
613.53	1625.42
613.88	1614.20
614.22	1603.19
614.57	1591.79
614.92	1580.39
615.27	1569.08
615.61	1557.70
615.96	1546.57
616.31	1535.51
616.65	1525.21
617.00	1514.55
617.35	1503.59
617.70	1493.05
618.04	1482.54
618.39	1471.84
618.74	1462.67
619.08	1452.03
619.43	1441.75
619.78	1431.33
620.12	1420.14
620.47	1409.28
620.82	1397.96
621.16	1387.40
621.51	1377.67
621.85	1368.26
622.20	1358.21
622.55	1348.06
622.89	1338.27
623.24	1328.21
623.59	1317.98
623.93	1307.79
624.28	1297.96
624.62	1289.28
624.97	1279.98
625.32	1270.60
625.66	1261.17
626.01	1251.06
626.35	1242.57
626.70	1233.60
627.04	1225.00
627.39	1216.05
627.73	1208.04
628.08	1199.74
628.43	1190.85
628.77	1181.87
629.12	1173.35
629.46	1165.60
629.81	1157.75
630.15	1149.62
630.50	1141.64
630.84	1133.82
631.19	1126.13
631.53	1118.52
631.88	1109.91
632.22	1101.74
632.57	1094.45
632.91	1086.94
633.26	1080.00
633.60	1072.02
633.95	1064.24
634.29	1055.91
634.64	1048.48
634.98	1039.73
635.32	1032.02
635.67	1025.58
636.01	1018.87
636.36	1011.12
636.70	1003.60
637.05	996.25
637.39	989.20
637.73	982.08
638.08	974.93
638.42	967.55
638.77	959.85
639.11	952.18
639.45	944.56
639.80	936.60
640.14	929.20
640.49	921.62
640.83	914.86
641.17	908.40
641.52	902.02
641.86	895.50
642.20	890.08
642.55	883.49
642.89	876.83
643.23	870.10
643.58	864.49
643.92	857.77
644.26	851.48
644.61	845.58
644.95	839.41
645.29	833.23
645.64	827.47
645.98	821.80
646.32	816.48
646.66	810.68
647.01	805.37
647.35	800.22
647.69	794.85
648.04	789.63
648.38	784.12
648.72	778.73
649.06	773.18
649.41	767.36
649.75	762.13
650.09	756.34
650.43	750.96
650.78	745.26
651.12	740.25
651.46	735.10
651.80	729.43
652.14	724.27
652.49	719.54
652.83	714.63
653.17	709.74
653.51	704.36
653.85	699.84
654.20	695.07
654.54	689.99
654.88	685.03
655.22	680.47
655.56	675.57
655.90	670.98
656.25	666.73
656.59	662.48
656.93	658.29
657.27	654.53
657.61	649.65
657.95	645.37
658.29	640.95
658.64	636.76
658.98	632.46
659.32	628.04
659.66	623.62
660.00	619.49
660.34	615.48
660.68	611.53
661.02	607.27
661.36	603.13
661.70	599.14
662.05	595.29
662.39	591.25
662.73	587.72
663.07	584.44
663.41	580.59
663.75	576.63
664.09	572.53
664.43	568.17
664.77	564.88
665.11	561.19
665.45	557.75
665.79	554.14
666.13	550.69
666.47	547.17
666.81	543.73
667.15	539.87
667.49	536.62
667.83	533.76
668.17	530.74
668.51	527.61
668.85	524.76
669.19	522.33
669.53	519.08
669.87	515.68
670.21	512.34
670.55	509.10
670.89	506.64
671.23	503.90
671.57	501.13
671.91	498.22
672.25	495.28
672.58	492.69
672.92	489.62
673.26	486.77
673.60	484.25
673.94	481.63
674.28	479.19
674.62	476.62
674.96	473.69
675.30	471.02
675.64	468.42
675.97	465.65
676.31	462.60
676.65	459.93
676.99	457.91
677.33	455.28
677.67	453.13
678.01	450.04
678.34	447.63
678.68	445.51
679.02	443.09
679.36	440.89
679.70	438.41
680.04	436.32
680.37	434.28
680.71	432.01
681.05	429.90
681.39	427.84
681.73	425.66
682.06	423.77
682.40	421.69
682.74	419.72
683.08	418.00
683.42	416.02
683.75	414.29
684.09	412.07
684.43	410.10
684.77	408.00
685.10	406.30
685.44	404.38
685.78	402.46
686.12	400.54
686.45	398.62
686.79	396.79
687.13	395.13
687.46	393.33
687.80	391.78
688.14	389.70
688.48	388.03
688.81	386.16
689.15	384.32
689.49	382.50
689.82	380.75
690.16	378.82
690.50	377.08
690.83	375.15
691.17	373.34
691.51	371.82
691.84	370.23
692.18	368.51
692.52	366.78
692.85	365.13
693.19	364.02
693.52	362.56
693.86	361.00
694.20	359.47
694.53	358.02
694.87	356.32
695.21	354.93
695.54	353.24
695.88	351.81
696.21	350.24
696.55	348.92
696.88	347.51
697.22	345.99
697.56	344.73
697.89	343.33
698.23	342.04
698.56	340.53
698.90	339.40
699.23	337.96
699.57	336.90
699.90	335.44
700.24	333.86
700.58	332.69
700.91	331.62
701.25	331.17
701.58	330.58
701.92	329.82
702.25	328.89
702.59	327.67
702.92	326.54
703.26	325.46
703.59	324.40
703.93	324.01
704.26	323.14
704.60	322.01
704.93	321.00
705.26	319.88
705.60	318.96
705.93	317.70
706.27	317.00
706.60	316.20
706.94	315.72
707.27	314.84
707.61	313.98
707.94	312.92
708.27	311.17
708.61	309.45
708.94	308.41
709.28	307.25
709.61	306.42
709.94	305.66
710.28	304.95
710.61	304.09
710.95	302.46
711.28	302.20
711.61	301.39
711.95	300.75
712.28	299.90
712.61	298.97
712.95	298.66
713.28	298.30
713.61	297.31
713.95	296.18
714.28	295.51
714.61	294.68
714.95	293.85
715.28	293.09
715.61	292.40
715.95	291.62
716.28	290.84
716.61	290.20
716.95	289.28
717.28	288.49
717.61	287.72
717.94	287.01
718.28	285.69
718.61	285.02
718.94	284.33
719.27	283.62
719.61	283.33
719.94	282.46
720.27	281.26
720.60	280.60
720.94	280.09
721.27	279.39
721.60	278.91
721.93	278.47
722.27	278.19
722.60	277.83
722.93	277.01
723.26	276.71
723.59	276.14
723.93	275.85
724.26	275.30
724.59	274.70
724.92	274.41
725.25	274.10
725.59	273.54
725.92	273.11
726.25	272.71
726.58	272.13
726.91	271.65
727.24	271.31
727.57	270.84
727.91	270.26
728.24	270.00
728.57	269.37
728.90	268.94
729.23	268.27
729.56	268.26
729.89	268.05
730.22	267.57
730.55	267.10
730.89	266.61
731.22	266.20
731.55	265.96
731.88	265.47
732.21	264.98
732.54	264.54
732.87	263.99
733.20	263.63
733.53	263.20
733.86	262.95
734.19	262.58
734.52	262.39
734.85	262.75
735.18	262.26
735.51	262.23
735.84	262.04
736.17	261.90
736.50	261.11
736.83	261.76
737.16	261.42
737.49	261.11
737.82	260.77
738.15	260.59
738.48	260.13
738.81	259.65
739.14	259.26
739.47	258.88
739.80	258.66
740.13	258.57
740.46	258.18
740.79	257.72
741.12	257.26
741.45	256.74
741.78	255.95
742.11	255.85
742.44	255.45
742.77	255.20
743.10	254.76
743.43	254.43
743.75	253.29
744.08	254.19
744.41	253.89
744.74	253.60
745.07	253.15
745.40	253.09
745.73	253.35
746.06	253.10
746.39	253.08
746.71	252.69
747.04	252.24
747.37	252.00
747.70	251.91
748.03	251.80
748.36	251.83
748.68	251.46
749.01	250.99
749.34	250.70
749.67	250.47
750.00	250.38
750.33	250.85
750.65	250.70
750.98	249.37
751.31	249.20
751.64	249.12
751.97	249.52
752.29	249.27
752.62	248.66
752.95	248.45
753.28	248.17
753.60	248.05
753.93	248.13
754.26	248.11
754.59	247.69
754.91	247.46
755.24	247.16
755.57	247.02
755.90	246.88
756.22	246.60
756.55	246.27
756.88	245.94
757.20	245.18
757.53	244.65
757.86	244.33
758.19	244.18
758.51	243.90
758.84	243.19
759.17	242.95
759.49	242.87
759.82	243.14
760.15	243.04
760.47	242.80
760.80	242.40
761.13	242.29
761.45	242.08
761.78	241.88
762.11	241.72
762.43	241.52
762.76	241.31
763.08	241.28
763.41	241.27
763.74	241.32
764.06	241.13
764.39	241.17
764.71	241.11
765.04	240.91
765.37	240.69
765.69	240.50
766.02	240.32
766.34	240.02
766.67	239.53
767.00	239.50
767.32	239.97
767.65	240.44
767.97	240.24
768.30	240.16
768.62	240.14
768.95	239.92
769.27	239.88
769.60	239.91
769.92	239.77
770.25	239.41
770.57	239.02
770.90	238.87
771.22	238.64
771.55	238.51
771.87	238.48
772.20	238.48
772.52	239.21
772.85	240.29
773.17	240.28
773.50	240.07
773.82	239.93
774.15	239.28
774.47	238.55
774.80	238.42
775.12	238.38
775.45	238.28
775.77	238.35
776.09	238.36
776.42	238.28
776.74	238.40
777.07	238.30
777.39	238.36
777.72	238.23
778.04	238.24
778.36	238.20
778.69	238.18
779.01	238.10
779.33	237.22
779.66	236.09
779.98	235.94
780.31	235.95
780.63	236.26
780.95	236.30
781.28	236.20
781.60	236.03
781.92	235.91
782.25	235.80
782.57	235.62
782.89	235.37
783.22	235.26
783.54	234.97
783.86	235.00
784.19	234.70
784.51	234.96
784.83	234.76
785.16	234.70
785.48	234.50
785.80	234.44
786.12	234.56
786.45	234.43
786.77	234.46
787.09	234.34
787.42	233.85
787.74	233.95
788.06	233.95
788.38	234.02
788.71	233.96
789.03	234.00
789.35	234.01
789.67	233.88
789.99	233.95
790.32	233.86
790.64	233.89
790.96	234.71
791.28	234.32
791.61	234.31
791.93	234.31
792.25	234.40
792.57	235.03
792.89	234.64
793.21	234.73
793.54	234.63
793.86	234.52
794.18	234.61
794.50	234.37
794.82	234.31
795.14	234.24
795.47	234.31
795.79	234.21
796.11	234.01
796.43	234.03
796.75	233.87
797.07	233.84
797.39	233.76
797.71	233.05
798.04	233.08
798.36	233.05
798.68	233.00
799.00	233.00
799.32	232.35
799.64	232.61
799.96	232.56
800.28	232.63
800.60	232.60
800.92	232.51
801.24	232.36
801.56	232.30
801.89	232.20
802.21	232.22
802.53	232.08
802.85	232.22
803.17	232.61
803.49	232.45
803.81	232.33
804.13	232.23
804.45	232.10
804.77	232.19
805.09	232.23
805.41	232.05
805.73	231.76
806.05	231.62
806.37	231.52
806.69	231.40
807.01	231.36
807.33	231.31
807.65	230.98
807.97	231.51
808.28	231.47
808.60	231.38
808.92	231.22
809.24	231.75
809.56	231.70
809.88	231.30
810.20	231.35
810.52	231.45
810.84	231.36
811.16	231.27
811.48	231.14
811.80	231.38
812.12	231.33
812.43	231.60
812.75	231.59
813.07	231.48
813.39	231.49
813.71	231.33
814.03	231.29
814.35	231.30
814.67	230.92
814.98	230.82
815.30	230.88
815.62	230.67
815.94	230.08
816.26	230.36
816.58	230.18
816.89	230.19
817.21	230.10
817.53	230.22
817.85	230.30
818.17	230.18
818.48	229.81
818.80	230.06
819.12	229.87
819.44	229.76
819.76	229.60
820.07	229.64
820.39	229.66
820.71	229.70
821.03	229.74
821.34	229.60
821.66	229.90
821.98	229.99
822.30	229.93
822.61	230.42
822.93	229.97
823.25	229.96
823.57	229.87
823.88	230.00
824.20	229.90
824.52	230.14
824.83	230.08
825.15	230.05
825.47	229.95
825.79	230.04
826.10	229.94
826.42	229.96
826.74	230.01
827.05	229.97
827.37	230.03
827.69	230.03
828.00	230.03
828.32	229.87
828.64	229.77
828.95	230.40
829.27	230.20
829.58	230.27
829.90	230.48
830.22	230.56
830.53	230.30
830.85	230.22
831.17	229.86
831.48	229.98
831.80	230.01
832.11	229.95
832.43	229.73
832.75	229.90
833.06	230.49
833.38	230.24
833.69	230.21
834.01	230.16
834.32	230.12
834.64	230.10
834.96	230.06
835.27	230.03
835.59	229.66
835.90	229.57
836.22	229.55
836.53	229.34
836.85	229.20
837.16	230.19
837.48	230.27
837.79	230.60
838.11	230.62
838.42	230.58
838.74	230.67
839.05	230.74
839.37	230.69
839.68	230.09
840.00	230.04
840.31	230.29
840.63	230.29
840.94	230.33
841.26	230.29
841.57	230.36
841.88	230.39
842.20	230.35
842.51	230.16
842.83	230.08
843.14	230.82
843.46	230.96
843.77	230.41
844.08	230.28
844.40	229.90
844.71	229.76
845.03	229.67
845.34	229.64
845.65	229.51
845.97	229.45
846.28	229.45
846.60	229.50
846.91	229.19
847.22	229.14
847.54	229.26
847.85	229.29
848.16	229.16
848.48	229.09
848.79	229.47
849.10	229.60
849.42	229.74
849.73	228.89
850.04	228.67
850.36	228.33
850.67	228.62
850.98	228.75
851.30	228.87
851.61	228.91
851.92	228.88
852.23	229.23
852.55	229.27
852.86	229.24
853.17	229.31
853.49	229.49
853.80	229.60
854.11	229.64
854.42	229.74
854.74	229.67
855.05	229.65
855.36	229.04
855.67	229.04
855.99	229.00
856.30	230.22
856.61	230.23
856.92	230.18
857.23	230.06
857.55	229.97
857.86	229.83
858.17	229.81
858.48	229.70
858.79	229.45
859.11	229.52
859.42	229.57
859.73	229.41
860.04	229.33
860.35	229.13
860.66	228.81
860.98	228.68
861.29	228.66
861.60	228.47
861.91	228.71
862.22	228.47
862.53	228.23
862.84	227.05
863.16	227.40
863.47	227.32
863.78	227.21
864.09	227.23
864.40	227.29
864.71	227.42
865.02	227.39
865.33	227.22
865.64	227.05
865.95	227.03
866.27	227.65
866.58	227.54
866.89	227.61
867.20	227.51
867.51	227.37
867.82	227.44
868.13	227.81
868.44	227.61
868.75	227.85
869.06	227.92
869.37	228.03
869.68	227.62
869.99	227.84
870.30	227.93
870.61	227.99
870.92	227.90
871.23	227.81
871.54	228.07
871.85	228.35
872.16	228.49
872.47	228.39
872.78	227.84
873.09	228.00
873.40	227.84
873.71	228.04
874.02	228.15
874.33	228.06
874.64	227.80
874.95	227.96
875.26	227.71
875.56	227.76
875.87	227.71
876.18	227.66
876.49	228.46
876.80	228.41
877.11	228.25
877.42	228.37
877.73	228.40
878.04	228.19
878.35	228.17
878.66	228.15
878.96	228.27
879.27	228.17
879.58	228.10
879.89	228.14
880.20	228.40
880.51	228.40
880.82	228.43
881.12	228.54
881.43	228.33
881.74	228.26
882.05	228.32
882.36	228.33
882.67	228.50
882.97	227.52
883.28	227.46
883.59	227.51
883.90	227.49
884.21	227.52
884.51	227.41
884.82	227.24
885.13	227.15
885.44	227.05
885.74	227.19
886.05	227.12
886.36	227.16
886.67	226.90
886.98	227.37
887.28	227.47
887.59	227.44
887.90	227.55
888.20	227.53
888.51	227.65
888.82	227.57
889.13	227.70
889.43	228.45
889.74	228.30
890.05	228.21
890.35	228.18
890.66	228.04
890.97	228.11
891.28	228.10
891.58	228.21
891.89	228.19
892.20	228.14
892.50	228.08
892.81	228.05
893.12	227.96
893.42	227.42
893.73	227.38
894.04	227.42
894.34	227.55
894.65	227.61
894.95	227.45
895.26	227.50
895.57	227.89
895.87	227.11
896.18	227.35
896.48	227.40
896.79	227.40
897.10	227.57
897.40	227.52
897.71	227.63
898.01	227.62
898.32	227.74
898.63	227.68
898.93	227.77
899.24	227.77
899.54	227.81
899.85	227.92
900.15	227.80
900.46	227.73
900.76	227.73
901.07	227.67
901.38	227.68
901.68	227.76
901.99	227.27
902.29	227.22
902.60	227.16
902.90	227.19
903.21	227.18
903.51	227.08
903.82	227.37
904.12	227.37
904.43	227.34
904.73	227.29
905.03	227.35
905.34	228.32
905.64	228.19
905.95	228.18
906.25	228.07
906.56	228.08
906.86	228.15
907.17	228.15
907.47	228.30
907.77	228.16
908.08	228.07
908.38	228.24
908.69	228.28
908.99	228.45
909.30	228.51
909.60	228.49
909.90	228.56
910.21	228.10
910.51	228.08
910.81	228.07
911.12	228.17
911.42	228.15
911.73	227.17
912.03	227.27
912.33	227.39
912.64	227.46
912.94	227.40
913.24	227.16
913.55	227.03
913.85	226.81
914.15	227.09
914.46	227.15
914.76	226.91
915.06	226.99
915.37	226.79
915.67	226.72
915.97	226.72
916.27	226.58
916.58	226.83
916.88	226.72
917.18	226.77
917.49	227.41
917.79	227.36
918.09	227.53
918.39	227.90
918.70	227.94
919.00	227.96
919.30	228.40
919.60	228.47
919.91	228.37
920.21	228.51
920.51	228.22
920.81	228.17
921.12	228.35
921.42	228.27
921.72	228.34
922.02	228.44
922.32	228.60
922.63	228.64
922.93	229.04
923.23	229.14
923.53	229.04
923.83	228.44
924.13	228.64
924.44	228.56
924.74	228.61
925.04	228.76
925.34	228.70
925.64	228.32
925.94	228.28
926.24	228.81
926.55	228.78
926.85	229.02
927.15	229.12
927.45	229.08
927.75	229.15
928.05	229.10
928.35	228.96
928.65	229.10
928.95	229.12
929.26	228.76
929.56	228.93
929.86	229.05
930.16	228.89
930.46	228.69
930.76	228.64
931.06	228.20
931.36	227.91
931.66	228.02
931.96	228.15
932.26	228.20
932.56	227.83
932.86	227.97
933.16	227.87
933.46	227.65
933.76	227.57
934.06	227.78
934.36	228.07
934.66	227.98
934.96	227.72
935.26	227.92
935.56	228.04
935.86	227.72
936.16	227.53
936.46	227.49
936.76	227.40
937.06	227.43
937.36	227.54
937.66	227.61
937.96	227.61
938.26	227.41
938.56	227.38
938.86	227.37
939.16	227.38
939.46	227.52
939.76	227.56
940.06	227.53
940.35	227.28
940.65	226.82
940.95	227.06
941.25	227.03
941.55	226.81
941.85	226.71
942.15	227.00
942.45	227.24
942.75	227.21
943.04	227.28
943.34	227.45
943.64	227.33
943.94	227.08
944.24	227.04
944.54	227.18
944.84	227.15
945.13	227.08
945.43	227.06
945.73	226.89
946.03	226.82
946.33	226.73
946.62	226.62
946.92	226.67
947.22	226.65
947.52	226.59
947.82	226.78
948.11	226.69
948.41	226.42
948.71	226.22
949.01	226.34
949.31	226.29
949.60	226.09
949.90	226.19
950.20	226.26
950.50	226.26
950.79	226.23
951.09	226.39
951.39	226.42
951.69	226.34
951.98	226.61
952.28	226.72
952.58	226.72
952.87	226.83
953.17	226.92
953.47	226.78
953.76	226.88
954.06	226.70
954.36	226.62
954.66	226.73
954.95	227.08
955.25	227.09
955.55	227.23
955.84	227.07
956.14	227.21
956.44	227.32
956.73	227.21
957.03	227.24
957.32	227.15
957.62	227.06
957.92	227.23
958.21	227.22
958.51	228.27
958.81	228.40
959.10	228.41
959.40	228.69
959.69	228.90
959.99	228.99
960.29	228.96
960.58	228.95
960.88	229.25
961.17	228.93
961.47	229.01
961.76	228.92
962.06	229.15
962.36	229.01
962.65	229.00
962.95	229.03
963.24	228.85
963.54	228.91
963.83	229.02
964.13	228.96
964.42	228.51
964.72	227.67
965.01	227.68
965.31	227.65
965.60	227.35
965.90	227.86
966.19	227.61
966.49	227.76
966.78	227.61
967.08	227.47
967.37	227.51
967.67	227.30
967.96	227.51
968.26	227.42
968.55	227.53
968.85	227.52
969.14	227.52
969.43	227.66
969.73	227.58
970.02	227.49
970.32	227.34
970.61	227.47
970.91	227.26
971.20	227.09
971.49	227.07
971.79	227.15
972.08	226.46
972.38	226.54
972.67	226.37
972.96	226.62
973.26	226.40
973.55	226.74
973.85	226.70
974.14	226.53
974.43	226.59
974.73	226.39
975.02	226.28
975.31	226.15
975.61	226.09
975.90	226.14
976.19	226.12
976.49	226.14
976.78	226.24
977.07	226.27
977.37	226.39
977.66	226.47
977.95	226.35
978.24	226.40
978.54	226.61
978.83	226.59
979.12	226.41
979.42	226.39
979.71	226.12
980.00	226.19
980.29	226.19
980.59	226.03
980.88	226.37
981.17	226.37
981.46	226.60
981.76	226.57
982.05	226.74
982.34	226.81
982.63	226.95
982.93	226.90
983.22	227.09
983.51	227.03
983.80	227.22
984.09	227.29
984.39	227.30
984.68	227.18
984.97	227.25
985.26	227.34
985.55	227.52
985.85	227.35
986.14	227.50
986.43	227.65
986.72	227.72
987.01	227.33
987.30	227.41
987.59	227.35
987.89	227.41
988.18	227.19
988.47	227.17
988.76	227.01
989.05	227.03
989.34	226.97
989.63	227.32
989.92	227.09
990.22	227.08
990.51	227.04
990.80	227.01
991.09	227.18
991.38	227.19
991.67	227.22
991.96	227.20
992.25	227.18
992.54	227.02
992.83	226.94
993.12	226.93
993.41	227.01
993.70	227.30
993.99	227.45
994.28	227.58
994.58	227.61
994.87	227.62
995.16	227.52
995.45	227.45
995.74	227.14
996.03	227.18
996.32	227.35
996.61	227.41
996.90	227.32
997.19	227.17
997.48	227.21
997.77	226.94
998.06	226.95
998.34	226.89
998.63	226.83
998.92	226.93
999.21	227.12
999.50	227.11
999.79	226.72
1000.08	226.71
1000.37	226.63
1000.66	226.50
1000.95	226.74
1001.24	226.82
1001.53	226.92
1001.82	226.76
1002.11	226.63
1002.40	226.57
1002.68	226.89
1002.97	227.54
1003.26	227.39
1003.55	227.22
1003.84	227.35
1004.13	227.69
1004.42	227.62
1004.71	227.72
1004.99	227.60
1005.28	227.72
1005.57	227.62
1005.86	227.58
1006.15	227.46
1006.44	227.38
1006.72	227.49
1007.01	227.16
1007.30	227.12
1007.59	226.91
1007.88	226.88
1008.17	226.88
1008.45	226.66
1008.74	226.26
1009.03	225.89
1009.32	225.96
1009.60	225.97
1009.89	225.93
1010.18	225.58
1010.47	225.50
1010.76	225.46
1011.04	225.45
1011.33	225.59
1011.62	225.66
1011.91	225.77
1012.19	225.83
1012.48	225.84
1012.77	225.81
1013.05	226.38
1013.34	226.42
1013.63	226.48
1013.92	226.64
1014.20	226.56
1014.49	226.67
1014.78	226.77
1015.06	226.39
1015.35	226.39
1015.64	226.44
1015.92	226.55
1016.21	226.60
1016.50	226.67
1016.78	226.80
1017.07	226.91
1017.36	226.64
1017.64	226.54
1017.93	226.61
1018.22	226.54
1018.50	226.54
1018.79	226.53
1019.08	226.18
1019.36	226.22
1019.65	226.09
1019.93	226.27
1020.22	226.37
1020.51	226.86
1020.79	226.76
1021.08	225.60
1021.36	225.30
1021.65	226.00
1021.94	228.50
1022.22	227.10
1022.51	224.30
1022.79	230.10
1023.08	225.30
1023.36	237.40
1023.65	224.80
>>>>>End Processed Spectral Data<<<<<
