SpectraSuite Data File
++++++++++++++++++++++++++++++++++++
Date: Wed Sep 04 17:31:31 EDT 2013
User: lab3
Dark Spectrum Present: Yes
Reference Spectrum Present: No
Number of Sampled Component Spectra: 1
Spectrometers: USB2E7196
Integration Time (usec): 337000 (USB2E7196)
Spectra Averaged: 10 (USB2E7196)
Boxcar Smoothing: 10 (USB2E7196)
Correct for Electrical Dark: No (USB2E7196)
Strobe/Lamp Enabled: No (USB2E7196)
Correct for Detector Non-linearity: No (USB2E7196)
Correct for Stray Light: No (USB2E7196)
Number of Pixels in Processed Spectrum: 2048
>>>>>Begin Processed Spectral Data<<<<<
339.09	0.00
339.48	211.10
339.86	213.50
340.24	213.00
340.63	215.20
341.01	233.60
341.39	220.00
341.78	222.20
342.16	225.40
342.54	222.40
342.93	212.63
343.31	223.35
343.69	223.99
344.07	224.55
344.46	225.29
344.84	225.77
345.22	225.41
345.60	225.68
345.99	225.86
346.37	225.92
346.75	225.95
347.13	225.89
347.52	226.06
347.90	226.46
348.28	226.43
348.66	226.71
349.05	226.39
349.43	226.53
349.81	226.66
350.19	226.68
350.57	226.59
350.96	226.81
351.34	226.90
351.72	226.95
352.10	226.93
352.48	226.82
352.87	226.87
353.25	226.83
353.63	226.84
354.01	226.79
354.39	226.85
354.77	227.08
355.15	227.37
355.54	227.23
355.92	226.96
356.30	226.99
356.68	227.60
357.06	227.73
357.44	227.51
357.82	227.52
358.20	228.38
358.58	228.45
358.97	228.58
359.35	228.80
359.73	228.98
360.11	229.00
360.49	229.09
360.87	229.12
361.25	229.39
361.63	229.77
362.01	229.97
362.39	229.98
362.77	230.05
363.15	230.14
363.53	230.24
363.91	230.41
364.29	230.51
364.67	229.62
365.05	229.70
365.43	229.91
365.81	230.09
366.19	229.76
366.57	230.27
366.95	230.12
367.33	229.93
367.71	229.94
368.09	230.21
368.47	230.28
368.85	230.30
369.23	230.40
369.61	230.18
369.99	230.43
370.37	230.60
370.75	231.04
371.13	230.80
371.51	230.82
371.89	230.85
372.27	230.88
372.65	231.01
373.03	231.00
373.41	230.89
373.78	230.83
374.16	230.42
374.54	230.08
374.92	230.03
375.30	229.98
375.68	229.79
376.06	229.75
376.44	229.62
376.82	229.51
377.19	229.42
377.57	229.33
377.95	229.06
378.33	228.73
378.71	228.09
379.09	228.22
379.47	228.20
379.84	227.98
380.22	227.82
380.60	227.59
380.98	227.50
381.36	227.41
381.73	227.18
382.11	227.19
382.49	227.18
382.87	227.01
383.25	227.08
383.62	228.23
384.00	228.03
384.38	228.07
384.76	228.36
385.13	228.62
385.51	228.52
385.89	228.36
386.27	228.36
386.64	228.59
387.02	228.37
387.40	228.27
387.78	228.34
388.15	228.39
388.53	228.36
388.91	228.29
389.29	228.27
389.66	228.38
390.04	228.24
390.42	228.38
390.79	228.46
391.17	228.36
391.55	227.26
391.92	227.26
392.30	227.25
392.68	227.00
393.05	226.90
393.43	226.98
393.81	226.98
394.18	227.06
394.56	226.97
394.94	227.26
395.31	227.18
395.69	227.44
396.06	227.52
396.44	227.57
396.82	227.60
397.19	228.08
397.57	228.03
397.95	228.26
398.32	228.04
398.70	228.29
399.07	228.50
399.45	228.57
399.82	228.58
400.20	228.61
400.58	228.73
400.95	228.50
401.33	228.75
401.70	229.50
402.08	229.65
402.45	229.77
402.83	230.02
403.20	230.40
403.58	230.48
403.95	230.79
404.33	231.21
404.71	231.45
405.08	232.23
405.46	232.50
405.83	232.77
406.21	233.08
406.58	233.36
406.96	233.70
407.33	234.09
407.70	234.63
408.08	235.82
408.45	236.42
408.83	237.10
409.20	237.45
409.58	237.48
409.95	238.12
410.33	238.85
410.70	239.35
411.08	240.13
411.45	240.94
411.82	241.71
412.20	242.71
412.57	244.18
412.95	244.23
413.32	245.58
413.69	246.77
414.07	248.03
414.44	249.39
414.82	250.86
415.19	252.49
415.56	254.13
415.94	255.34
416.31	257.42
416.68	259.39
417.06	261.68
417.43	264.10
417.81	266.63
418.18	269.19
418.55	271.72
418.93	274.48
419.30	277.44
419.67	280.60
420.04	283.78
420.42	286.94
420.79	291.73
421.16	295.58
421.54	300.07
421.91	304.33
422.28	308.67
422.66	313.30
423.03	318.49
423.40	323.30
423.77	328.29
424.15	333.39
424.52	338.75
424.89	344.67
425.26	350.28
425.64	355.59
426.01	361.42
426.38	367.96
426.75	374.58
427.13	381.21
427.50	387.74
427.87	394.72
428.24	401.71
428.61	407.98
428.99	415.82
429.36	423.49
429.73	431.59
430.10	439.59
430.47	447.83
430.85	455.99
431.22	464.81
431.59	475.15
431.96	484.36
432.33	494.46
432.70	504.53
433.08	516.05
433.45	526.98
433.82	537.95
434.19	550.07
434.56	562.06
434.93	573.34
435.30	585.35
435.68	598.32
436.05	611.09
436.42	623.66
436.79	634.99
437.16	647.53
437.53	660.62
437.90	673.71
438.27	686.89
438.64	700.11
439.01	713.20
439.38	723.97
439.75	734.77
440.13	747.34
440.50	758.67
440.87	768.55
441.24	778.72
441.61	789.89
441.98	797.87
442.35	807.15
442.72	816.53
443.09	825.87
443.46	831.42
443.83	835.43
444.20	838.86
444.57	843.72
444.94	846.08
445.31	848.60
445.68	851.83
446.05	852.61
446.42	851.41
446.79	849.82
447.16	848.00
447.53	846.75
447.90	842.09
448.27	837.55
448.64	830.47
449.01	825.64
449.37	816.81
449.74	808.45
450.11	799.03
450.48	788.18
450.85	776.38
451.22	766.58
451.59	756.98
451.96	748.10
452.33	736.22
452.70	725.63
453.07	712.77
453.43	698.90
453.80	686.47
454.17	674.87
454.54	663.47
454.91	651.38
455.28	639.69
455.65	628.37
456.02	618.53
456.38	609.15
456.75	597.38
457.12	587.80
457.49	578.27
457.86	568.50
458.23	560.85
458.59	552.45
458.96	543.96
459.33	536.55
459.70	528.88
460.07	522.99
460.43	515.95
460.80	509.69
461.17	504.41
461.54	498.72
461.91	492.90
462.27	487.00
462.64	482.21
463.01	476.83
463.38	471.98
463.74	465.51
464.11	461.07
464.48	457.23
464.85	453.00
465.21	449.98
465.58	446.58
465.95	442.27
466.32	439.07
466.68	435.69
467.05	432.38
467.42	429.00
467.78	425.37
468.15	422.12
468.52	419.87
468.88	416.39
469.25	413.26
469.62	410.97
469.98	408.63
470.35	406.35
470.72	404.21
471.08	401.50
471.45	399.81
471.82	397.90
472.18	395.77
472.55	394.23
472.92	392.09
473.28	390.25
473.65	388.51
474.02	386.78
474.38	385.46
474.75	384.20
475.11	382.84
475.48	381.80
475.85	380.70
476.21	379.30
476.58	378.45
476.94	377.93
477.31	377.13
477.67	376.33
478.04	375.62
478.41	375.06
478.77	375.65
479.14	374.80
479.50	374.39
479.87	374.10
480.23	373.70
480.60	373.45
480.96	373.13
481.33	373.53
481.69	373.56
482.06	373.52
482.42	373.63
482.79	373.75
483.15	373.98
483.52	374.47
483.88	374.80
484.25	375.12
484.61	375.55
484.98	376.00
485.34	376.98
485.71	377.77
486.07	378.48
486.44	378.25
486.80	379.11
487.17	379.90
487.53	381.20
487.90	382.33
488.26	383.97
488.62	385.59
488.99	386.54
489.35	387.72
489.72	389.02
490.08	390.47
490.44	391.97
490.81	393.62
491.17	395.29
491.54	397.23
491.90	399.24
492.26	401.07
492.63	403.18
492.99	405.00
493.36	407.14
493.72	409.54
494.08	412.11
494.45	414.89
494.81	417.68
495.17	420.12
495.54	422.93
495.90	425.34
496.26	427.94
496.63	430.94
496.99	433.95
497.35	437.20
497.72	440.40
498.08	443.51
498.44	446.77
498.80	450.20
499.17	453.47
499.53	456.70
499.89	460.18
500.26	463.59
500.62	467.10
500.98	470.78
501.34	474.20
501.71	477.84
502.07	481.10
502.43	484.68
502.79	488.11
503.16	491.76
503.52	495.39
503.88	498.85
504.24	502.75
504.60	506.75
504.97	510.68
505.33	514.28
505.69	518.55
506.05	522.57
506.41	526.41
506.78	530.04
507.14	533.99
507.50	537.96
507.86	542.00
508.22	545.92
508.59	549.54
508.95	553.38
509.31	557.66
509.67	561.44
510.03	565.25
510.39	569.13
510.75	572.72
511.12	576.46
511.48	580.36
511.84	583.67
512.20	587.00
512.56	590.44
512.92	593.94
513.28	597.29
513.64	600.51
514.00	603.86
514.37	607.59
514.73	610.92
515.09	614.42
515.45	617.55
515.81	620.80
516.17	624.21
516.53	627.56
516.89	630.18
517.25	633.74
517.61	637.58
517.97	640.90
518.33	644.51
518.69	648.15
519.05	651.73
519.41	655.45
519.77	659.75
520.13	663.24
520.49	666.83
520.85	673.04
521.21	677.02
521.57	680.74
521.93	683.91
522.29	687.33
522.65	690.28
523.01	693.67
523.37	696.74
523.73	700.22
524.09	703.49
524.45	706.87
524.81	710.34
525.17	713.33
525.53	716.90
525.89	720.37
526.25	723.76
526.61	726.90
526.97	730.17
527.33	733.54
527.68	737.79
528.04	741.61
528.40	742.77
528.76	746.28
529.12	750.22
529.48	754.63
529.84	758.94
530.20	763.88
530.56	768.68
530.91	773.71
531.27	778.15
531.63	783.23
531.99	788.14
532.35	792.70
532.71	797.41
533.07	802.55
533.42	808.12
533.78	812.86
534.14	818.21
534.50	823.35
534.86	828.47
535.21	832.95
535.57	838.44
535.93	843.29
536.29	849.09
536.65	854.32
537.00	859.17
537.36	864.12
537.72	868.77
538.08	873.91
538.44	878.60
538.79	883.98
539.15	888.64
539.51	893.74
539.87	898.93
540.22	903.80
540.58	908.66
540.94	912.79
541.29	917.43
541.65	921.98
542.01	927.16
542.37	931.43
542.72	935.58
543.08	939.44
543.44	944.21
543.79	947.62
544.15	951.90
544.51	956.58
544.87	961.08
545.22	965.37
545.58	969.34
545.94	973.47
546.29	977.41
546.65	981.30
547.01	984.77
547.36	988.80
547.72	992.64
548.07	996.30
548.43	1000.15
548.79	1004.19
549.14	1008.01
549.50	1011.42
549.86	1015.02
550.21	1019.28
550.57	1023.59
550.92	1026.94
551.28	1030.87
551.64	1034.44
551.99	1038.10
552.35	1041.47
552.70	1045.19
553.06	1048.70
553.41	1052.20
553.77	1056.04
554.13	1059.71
554.48	1063.76
554.84	1067.02
555.19	1070.42
555.55	1074.79
555.90	1077.69
556.26	1080.59
556.61	1083.15
556.97	1085.69
557.32	1088.39
557.68	1090.82
558.03	1093.38
558.39	1095.67
558.74	1098.28
559.10	1100.41
559.45	1102.61
559.81	1104.75
560.16	1106.25
560.52	1107.95
560.87	1109.94
561.23	1111.23
561.58	1113.62
561.94	1114.77
562.29	1115.87
562.64	1117.82
563.00	1117.95
563.35	1119.56
563.71	1121.26
564.06	1123.11
564.42	1124.70
564.77	1126.35
565.12	1127.85
565.48	1129.85
565.83	1131.71
566.19	1133.17
566.54	1134.60
566.89	1135.88
567.25	1137.44
567.60	1139.65
567.96	1141.82
568.31	1143.80
568.66	1145.08
569.02	1145.16
569.37	1145.90
569.72	1147.13
570.08	1146.99
570.43	1147.49
570.78	1147.75
571.14	1148.16
571.49	1148.07
571.84	1148.20
572.20	1148.01
572.55	1148.20
572.90	1146.79
573.26	1146.24
573.61	1145.50
573.96	1144.87
574.31	1143.65
574.67	1142.59
575.02	1140.64
575.37	1138.44
575.72	1135.86
576.08	1134.21
576.43	1132.39
576.78	1130.73
577.13	1129.02
577.49	1127.68
577.84	1126.10
578.19	1124.89
578.54	1123.17
578.90	1121.72
579.25	1120.36
579.60	1118.57
579.95	1116.17
580.30	1114.40
580.66	1112.05
581.01	1109.60
581.36	1107.23
581.71	1105.23
582.06	1103.36
582.42	1101.38
582.77	1099.18
583.12	1097.57
583.47	1095.57
583.82	1094.01
584.17	1092.24
584.53	1090.04
584.88	1087.41
585.23	1085.12
585.58	1082.10
585.93	1078.89
586.28	1076.00
586.63	1072.58
586.98	1069.59
587.34	1066.69
587.69	1063.83
588.04	1061.20
588.39	1058.37
588.74	1055.50
589.09	1052.68
589.44	1048.92
589.79	1045.93
590.14	1043.09
590.49	1040.20
590.84	1037.10
591.19	1033.98
591.54	1030.59
591.89	1027.50
592.25	1025.73
592.60	1022.50
592.95	1019.66
593.30	1016.85
593.65	1013.38
594.00	1010.03
594.35	1009.67
594.70	1006.47
595.05	1002.97
595.40	999.38
595.75	995.94
596.10	992.63
596.45	989.25
596.80	986.15
597.15	982.73
597.50	979.08
597.85	975.80
598.19	972.09
598.54	968.52
598.89	964.59
599.24	961.26
599.59	956.98
599.94	953.42
600.29	949.62
600.64	946.24
600.99	943.06
601.34	939.95
601.69	933.84
602.04	930.27
602.39	927.00
602.74	924.32
603.08	921.52
603.43	918.69
603.78	915.35
604.13	911.74
604.48	908.39
604.83	905.00
605.18	901.17
605.53	897.76
605.87	894.36
606.22	891.70
606.57	887.99
606.92	884.37
607.27	881.16
607.62	877.93
607.96	874.76
608.31	871.67
608.66	868.54
609.01	865.19
609.36	861.88
609.70	858.75
610.05	854.89
610.40	851.35
610.75	847.43
611.10	843.97
611.44	840.60
611.79	836.93
612.14	833.75
612.49	830.10
612.83	826.90
613.18	823.42
613.53	820.06
613.88	816.60
614.22	813.02
614.57	809.15
614.92	805.44
615.27	801.80
615.61	797.93
615.96	794.18
616.31	790.44
616.65	787.45
617.00	783.60
617.35	779.94
617.70	776.32
618.04	772.73
618.39	769.11
618.74	766.01
619.08	762.55
619.43	758.63
619.78	755.07
620.12	751.41
620.47	747.82
620.82	743.80
621.16	740.12
621.51	737.18
621.85	733.98
622.20	730.51
622.55	726.69
622.89	723.38
623.24	719.84
623.59	716.26
623.93	712.57
624.28	709.22
624.62	706.97
624.97	703.95
625.32	700.54
625.66	697.04
626.01	693.45
626.35	690.14
626.70	687.02
627.04	684.40
627.39	680.79
627.73	677.91
628.08	674.99
628.43	671.71
628.77	668.02
629.12	664.67
629.46	661.86
629.81	659.39
630.15	656.21
630.50	653.27
630.84	650.44
631.19	647.52
631.53	644.40
631.88	640.44
632.22	636.95
632.57	634.45
632.91	631.76
633.26	628.97
633.60	625.84
633.95	622.77
634.29	619.10
634.64	616.44
634.98	612.98
635.32	610.07
635.67	607.58
636.01	604.71
636.36	601.88
636.70	599.36
637.05	596.07
637.39	593.50
637.73	590.77
638.08	588.20
638.42	585.12
638.77	582.36
639.11	579.07
639.45	576.02
639.80	572.54
640.14	569.61
640.49	566.65
640.83	564.06
641.17	561.75
641.52	558.99
641.86	556.33
642.20	554.20
642.55	551.57
642.89	548.78
643.23	546.27
643.58	544.11
643.92	540.89
644.26	538.28
644.61	535.70
644.95	532.90
645.29	530.19
645.64	527.84
645.98	525.31
646.32	523.30
646.66	520.91
647.01	518.61
647.35	516.27
647.69	513.99
648.04	511.66
648.38	509.11
648.72	506.95
649.06	504.35
649.41	501.70
649.75	499.08
650.09	496.62
650.43	494.16
650.78	491.65
651.12	489.39
651.46	487.17
651.80	484.63
652.14	482.55
652.49	480.67
652.83	478.40
653.17	476.17
653.51	473.78
653.85	471.92
654.20	469.83
654.54	467.45
654.88	465.30
655.22	463.61
655.56	461.47
655.90	459.34
656.25	457.38
656.59	455.36
656.93	453.49
657.27	451.79
657.61	449.56
657.95	447.30
658.29	445.30
658.64	443.52
658.98	441.46
659.32	439.35
659.66	437.05
660.00	435.20
660.34	433.22
660.68	431.41
661.02	429.33
661.36	427.41
661.70	425.61
662.05	423.62
662.39	421.51
662.73	420.07
663.07	418.81
663.41	417.10
663.75	415.21
664.09	413.41
664.43	411.40
664.77	409.93
665.11	408.23
665.45	406.72
665.79	404.95
666.13	403.28
666.47	401.51
666.81	399.80
667.15	397.86
667.49	396.44
667.83	395.10
668.17	393.54
668.51	392.05
668.85	390.84
669.19	389.96
669.53	388.50
669.87	386.71
670.21	384.78
670.55	383.39
670.89	382.42
671.23	381.00
671.57	379.54
671.91	378.07
672.25	376.60
672.58	375.39
672.92	373.76
673.26	372.46
673.60	371.34
673.94	370.21
674.28	369.23
674.62	368.10
674.96	366.55
675.30	365.38
675.64	364.08
675.97	362.56
676.31	360.75
676.65	359.19
676.99	358.10
677.33	356.82
677.67	355.60
678.01	353.91
678.34	352.79
678.68	351.87
679.02	350.56
679.36	349.45
679.70	348.13
680.04	347.07
680.37	346.05
680.71	344.81
681.05	343.65
681.39	342.52
681.73	341.18
682.06	340.15
682.40	339.02
682.74	338.09
683.08	337.40
683.42	336.29
683.75	335.46
684.09	334.27
684.43	333.33
684.77	332.13
685.10	331.24
685.44	330.20
685.78	329.01
686.12	328.00
686.45	326.97
686.79	326.00
687.13	325.20
687.46	324.19
687.80	323.50
688.14	322.46
688.48	321.35
688.81	320.48
689.15	319.74
689.49	318.74
689.82	317.76
690.16	316.50
690.50	315.77
690.83	314.90
691.17	313.89
691.51	312.93
691.84	312.22
692.18	311.30
692.52	310.35
692.85	309.65
693.19	309.35
693.52	308.67
693.86	307.63
694.20	306.83
694.53	306.02
694.87	305.04
695.21	304.14
695.54	303.44
695.88	302.49
696.21	301.29
696.55	300.54
696.88	299.80
697.22	298.94
697.56	298.21
697.89	297.30
698.23	296.73
698.56	296.04
698.90	295.49
699.23	294.75
699.57	294.18
699.90	293.31
700.24	292.21
700.58	291.51
700.91	291.09
701.25	291.06
701.58	291.16
701.92	290.72
702.25	290.23
702.59	289.62
702.92	289.22
703.26	288.80
703.59	288.32
703.93	288.58
704.26	288.25
704.60	287.80
704.93	287.27
705.26	286.48
705.60	286.02
705.93	285.10
706.27	284.82
706.60	284.46
706.94	284.35
707.27	283.82
707.61	283.40
707.94	282.78
708.27	281.56
708.61	280.14
708.94	279.52
709.28	279.01
709.61	278.36
709.94	277.80
710.28	277.37
710.61	276.82
710.95	275.49
711.28	275.50
711.61	274.90
711.95	274.67
712.28	274.22
712.61	273.69
712.95	273.84
713.28	273.72
713.61	273.00
713.95	272.20
714.28	271.87
714.61	271.29
714.95	270.83
715.28	270.37
715.61	270.05
715.95	269.61
716.28	269.00
716.61	268.73
716.95	268.23
717.28	267.79
717.61	267.29
717.94	266.93
718.28	265.87
718.61	265.37
718.94	264.84
719.27	264.48
719.61	264.14
719.94	263.54
720.27	262.66
720.60	262.30
720.94	262.00
721.27	261.57
721.60	261.42
721.93	261.03
722.27	261.02
722.60	260.85
722.93	260.48
723.26	260.23
723.59	259.75
723.93	259.58
724.26	259.47
724.59	259.24
724.92	258.86
725.25	258.77
725.59	258.57
725.92	258.30
726.25	257.91
726.58	257.69
726.91	257.34
727.24	257.20
727.57	256.87
727.91	256.43
728.24	256.29
728.57	255.76
728.90	255.60
729.23	254.85
729.56	254.91
729.89	254.68
730.22	254.40
730.55	254.13
730.89	253.80
731.22	253.35
731.55	252.96
731.88	252.74
732.21	252.29
732.54	251.86
732.87	251.53
733.20	251.45
733.53	251.17
733.86	250.96
734.19	250.62
734.52	250.50
734.85	250.92
735.18	250.51
735.51	250.67
735.84	250.38
736.17	250.51
736.50	249.81
736.83	250.59
737.16	250.37
737.49	250.16
737.82	249.85
738.15	249.85
738.48	249.67
738.81	249.36
739.14	249.16
739.47	248.89
739.80	248.79
740.13	248.76
740.46	248.38
740.79	248.05
741.12	247.85
741.45	247.56
741.78	246.86
742.11	246.93
742.44	246.50
742.77	246.57
743.10	246.32
743.43	246.09
743.75	244.98
744.08	246.14
744.41	245.97
744.74	245.83
745.07	245.45
745.40	245.46
745.73	245.78
746.06	245.64
746.39	245.64
746.71	245.30
747.04	244.92
747.37	244.83
747.70	244.82
748.03	244.74
748.36	244.74
748.68	244.59
749.01	244.12
749.34	244.04
749.67	243.89
750.00	243.92
750.33	244.56
750.65	244.48
750.98	243.10
751.31	243.00
751.64	242.95
751.97	243.37
752.29	243.22
752.62	242.61
752.95	242.43
753.28	242.24
753.60	242.31
753.93	242.56
754.26	242.56
754.59	242.20
754.91	241.91
755.24	241.73
755.57	241.72
755.90	241.65
756.22	241.44
756.55	241.10
756.88	240.61
757.20	239.87
757.53	239.53
757.86	239.40
758.19	239.36
758.51	239.20
758.84	238.52
759.17	238.31
759.49	238.39
759.82	238.83
760.15	238.90
760.47	238.68
760.80	238.28
761.13	238.24
761.45	238.13
761.78	238.12
762.11	238.08
762.43	237.88
762.76	237.79
763.08	237.83
763.41	237.90
763.74	237.99
764.06	237.92
764.39	237.90
764.71	237.89
765.04	237.71
765.37	237.54
765.69	237.46
766.02	237.35
766.34	237.10
766.67	236.60
767.00	236.68
767.32	237.08
767.65	237.45
767.97	237.32
768.30	237.29
768.62	237.24
768.95	236.99
769.27	236.84
769.60	236.92
769.92	236.63
770.25	236.38
770.57	236.07
770.90	235.86
771.22	235.66
771.55	235.51
771.87	235.46
772.20	235.35
772.52	236.12
772.85	237.15
773.17	237.07
773.50	236.95
773.82	236.68
774.15	236.16
774.47	235.38
774.80	235.18
775.12	235.08
775.45	234.89
775.77	234.95
776.09	234.92
776.42	234.83
776.74	235.10
777.07	234.94
777.39	235.04
777.72	234.96
778.04	235.00
778.36	234.89
778.69	234.90
779.01	234.92
779.33	234.00
779.66	232.79
779.98	232.65
780.31	232.54
780.63	232.90
780.95	232.92
781.28	233.01
781.60	233.01
781.92	232.98
782.25	232.92
782.57	232.89
782.89	232.76
783.22	232.66
783.54	232.29
783.86	232.34
784.19	232.13
784.51	232.35
784.83	232.12
785.16	232.02
785.48	231.94
785.80	232.05
786.12	232.03
786.45	232.08
786.77	232.17
787.09	232.21
787.42	231.83
787.74	231.92
788.06	231.96
788.38	231.76
788.71	231.69
789.03	231.78
789.35	231.80
789.67	231.70
789.99	231.67
790.32	231.65
790.64	231.78
790.96	232.53
791.28	232.30
791.61	232.40
791.93	232.53
792.25	232.47
792.57	232.97
792.89	232.88
793.21	232.97
793.54	232.88
793.86	232.73
794.18	232.72
794.50	232.40
794.82	232.39
795.14	232.57
795.47	232.78
795.79	232.72
796.11	232.51
796.43	232.48
796.75	232.50
797.07	232.46
797.39	232.32
797.71	231.73
798.04	231.69
798.36	231.75
798.68	231.60
799.00	231.65
799.32	231.10
799.64	231.30
799.96	231.12
800.28	231.26
800.60	231.14
800.92	231.21
801.24	231.15
801.56	231.28
801.89	231.17
802.21	231.11
802.53	230.93
802.85	231.10
803.17	231.61
803.49	231.30
803.81	231.30
804.13	231.18
804.45	230.94
804.77	230.92
805.09	230.73
805.41	230.64
805.73	230.43
806.05	230.16
806.37	229.97
806.69	229.98
807.01	229.74
807.33	229.89
807.65	229.50
807.97	229.98
808.28	229.70
808.60	229.74
808.92	229.57
809.24	230.20
809.56	230.13
809.88	229.57
810.20	229.68
810.52	229.72
810.84	229.73
811.16	229.65
811.48	229.60
811.80	229.93
812.12	229.92
812.43	230.10
812.75	230.16
813.07	230.08
813.39	230.10
813.71	230.09
814.03	230.01
814.35	230.09
814.67	229.61
814.98	229.58
815.30	229.41
815.62	229.20
815.94	228.49
816.26	228.80
816.58	228.66
816.89	228.70
817.21	228.59
817.53	228.60
817.85	228.74
818.17	228.68
818.48	228.46
818.80	228.69
819.12	228.59
819.44	228.48
819.76	228.32
820.07	228.19
820.39	228.22
820.71	228.13
821.03	228.06
821.34	228.06
821.66	228.16
821.98	228.24
822.30	228.25
822.61	228.99
822.93	228.50
823.25	228.56
823.57	228.53
823.88	228.71
824.20	228.64
824.52	228.66
824.83	228.66
825.15	228.42
825.47	228.31
825.79	228.43
826.10	228.43
826.42	228.44
826.74	228.67
827.05	228.60
827.37	228.72
827.69	228.74
828.00	228.83
828.32	228.83
828.64	228.78
828.95	229.38
829.27	229.00
829.58	229.14
829.90	229.29
830.22	229.31
830.53	229.09
830.85	229.04
831.17	228.93
831.48	228.98
831.80	229.05
832.11	229.05
832.43	228.74
832.75	228.87
833.06	229.47
833.38	229.21
833.69	229.20
834.01	229.22
834.32	229.24
834.64	229.16
834.96	229.23
835.27	229.22
835.59	228.87
835.90	228.73
836.22	228.60
836.53	228.44
836.85	228.44
837.16	229.31
837.48	229.31
837.79	229.68
838.11	229.73
838.42	229.75
838.74	229.84
839.05	229.97
839.37	229.81
839.68	229.27
840.00	229.32
840.31	229.44
840.63	229.30
840.94	229.17
841.26	229.03
841.57	228.95
841.88	229.12
842.20	229.05
842.51	228.94
842.83	228.99
843.14	229.83
843.46	229.79
843.77	229.28
844.08	229.31
844.40	228.82
844.71	228.75
845.03	228.72
845.34	228.64
845.65	228.61
845.97	228.69
846.28	228.79
846.60	228.80
846.91	228.71
847.22	228.74
847.54	228.93
847.85	229.05
848.16	228.96
848.48	228.73
848.79	229.08
849.10	229.14
849.42	229.23
849.73	228.32
850.04	228.25
850.36	227.87
850.67	227.92
850.98	228.03
851.30	228.05
851.61	228.00
851.92	227.90
852.23	228.17
852.55	228.14
852.86	228.19
853.17	228.20
853.49	228.28
853.80	228.36
854.11	228.40
854.42	228.58
854.74	228.46
855.05	228.53
855.36	228.00
855.67	228.11
855.99	228.04
856.30	229.18
856.61	229.09
856.92	229.16
857.23	229.09
857.55	228.99
857.86	228.85
858.17	228.94
858.48	228.87
858.79	228.63
859.11	228.72
859.42	228.62
859.73	228.45
860.04	228.46
860.35	228.23
860.66	228.01
860.98	227.95
861.29	228.13
861.60	228.00
861.91	228.20
862.22	227.94
862.53	227.79
862.84	226.79
863.16	227.14
863.47	227.08
863.78	227.08
864.09	227.20
864.40	227.28
864.71	227.38
865.02	227.47
865.33	227.43
865.64	227.35
865.95	227.39
866.27	228.03
866.58	227.91
866.89	228.07
867.20	227.98
867.51	227.85
867.82	227.75
868.13	228.05
868.44	227.88
868.75	228.21
869.06	228.30
869.37	228.38
869.68	227.99
869.99	228.10
870.30	228.25
870.61	228.28
870.92	228.20
871.23	228.12
871.54	228.30
871.85	228.48
872.16	228.64
872.47	228.50
872.78	228.06
873.09	228.17
873.40	228.07
873.71	228.25
874.02	228.27
874.33	228.23
874.64	227.97
874.95	228.16
875.26	228.00
875.56	228.00
875.87	227.98
876.18	228.09
876.49	229.04
876.80	228.88
877.11	228.70
877.42	228.75
877.73	228.69
878.04	228.46
878.35	228.44
878.66	228.41
878.96	228.47
879.27	228.37
879.58	228.37
879.89	228.37
880.20	228.57
880.51	228.56
880.82	228.60
881.12	228.76
881.43	228.51
881.74	228.28
882.05	228.24
882.36	228.20
882.67	228.29
882.97	227.21
883.28	227.14
883.59	227.27
883.90	227.36
884.21	227.42
884.51	227.40
884.82	227.28
885.13	227.27
885.44	227.26
885.74	227.19
886.05	227.20
886.36	227.20
886.67	226.90
886.98	227.36
887.28	227.37
887.59	227.35
887.90	227.45
888.20	227.54
888.51	227.70
888.82	227.54
889.13	227.58
889.43	228.29
889.74	228.19
890.05	228.10
890.35	227.96
890.66	227.83
890.97	227.71
891.28	227.54
891.58	227.39
891.89	227.34
892.20	227.30
892.50	227.06
892.81	226.96
893.12	226.86
893.42	226.39
893.73	226.46
894.04	226.42
894.34	226.41
894.65	226.36
894.95	226.09
895.26	226.18
895.57	226.60
895.87	225.86
896.18	226.08
896.48	226.10
896.79	226.13
897.10	226.31
897.40	226.33
897.71	226.48
898.01	226.47
898.32	226.48
898.63	226.42
898.93	226.55
899.24	226.60
899.54	226.62
899.85	226.59
900.15	226.55
900.46	226.59
900.76	226.65
901.07	226.62
901.38	226.72
901.68	226.79
901.99	226.26
902.29	226.28
902.60	226.29
902.90	226.28
903.21	226.28
903.51	226.20
903.82	226.47
904.12	226.52
904.43	226.65
904.73	226.72
905.03	226.93
905.34	227.85
905.64	227.77
905.95	227.86
906.25	227.82
906.56	227.90
906.86	227.86
907.17	227.81
907.47	227.93
907.77	227.89
908.08	227.81
908.38	227.90
908.69	227.97
908.99	228.10
909.30	228.17
909.60	228.22
909.90	228.31
910.21	227.99
910.51	227.78
910.81	227.77
911.12	227.80
911.42	227.71
911.73	226.80
912.03	226.93
912.33	227.12
912.64	227.19
912.94	226.98
913.24	226.88
913.55	226.87
913.85	226.77
914.15	227.00
914.46	227.10
914.76	227.07
915.06	227.05
915.37	226.88
915.67	226.81
915.97	226.87
916.27	226.66
916.58	226.90
916.88	227.02
917.18	226.94
917.49	227.68
917.79	227.65
918.09	227.80
918.39	228.15
918.70	228.05
919.00	228.07
919.30	228.58
919.60	228.58
919.91	228.46
920.21	228.54
920.51	228.33
920.81	228.31
921.12	228.50
921.42	228.48
921.72	228.51
922.02	228.58
922.32	228.71
922.63	228.77
922.93	229.22
923.23	229.37
923.53	229.40
923.83	228.78
924.13	228.96
924.44	228.96
924.74	228.97
925.04	229.28
925.34	229.23
925.64	228.89
925.94	228.88
926.24	229.51
926.55	229.32
926.85	229.39
927.15	229.30
927.45	229.27
927.75	229.21
928.05	229.20
928.35	229.08
928.65	229.12
928.95	229.29
929.26	228.88
929.56	228.88
929.86	228.95
930.16	228.80
930.46	228.79
930.76	228.77
931.06	228.31
931.36	227.97
931.66	228.17
931.96	228.32
932.26	228.26
932.56	227.81
932.86	228.06
933.16	228.08
933.46	228.05
933.76	227.88
934.06	228.16
934.36	228.45
934.66	228.52
934.96	228.42
935.26	228.32
935.56	228.42
935.86	228.21
936.16	228.05
936.46	228.01
936.76	227.78
937.06	227.70
937.36	227.90
937.66	227.87
937.96	227.79
938.26	227.40
938.56	227.35
938.86	227.36
939.16	227.42
939.46	227.50
939.76	227.52
940.06	227.50
940.35	227.18
940.65	226.68
940.95	226.66
941.25	226.40
941.55	226.28
941.85	226.19
942.15	226.46
942.45	226.73
942.75	226.68
943.04	226.80
943.34	226.96
943.64	226.69
943.94	226.69
944.24	226.65
944.54	226.79
944.84	226.83
945.13	226.80
945.43	226.71
945.73	226.69
946.03	226.55
946.33	226.52
946.62	226.60
946.92	226.66
947.22	226.76
947.52	226.87
947.82	227.04
948.11	226.92
948.41	226.70
948.71	226.50
949.01	226.55
949.31	226.44
949.60	226.37
949.90	226.69
950.20	226.60
950.50	226.64
950.79	226.60
951.09	226.84
951.39	226.73
951.69	226.66
951.98	226.82
952.28	226.97
952.58	226.83
952.87	226.83
953.17	226.96
953.47	226.77
953.76	226.80
954.06	226.61
954.36	226.53
954.66	226.53
954.95	226.75
955.25	226.83
955.55	226.89
955.84	226.63
956.14	226.67
956.44	226.73
956.73	226.55
957.03	226.59
957.32	226.49
957.62	226.46
957.92	226.67
958.21	226.56
958.51	227.60
958.81	227.86
959.10	227.97
959.40	228.22
959.69	228.43
959.99	228.50
960.29	228.59
960.58	228.59
960.88	228.87
961.17	228.70
961.47	228.79
961.76	228.81
962.06	229.14
962.36	228.98
962.65	229.10
962.95	229.13
963.24	229.01
963.54	229.17
963.83	229.23
964.13	229.19
964.42	228.95
964.72	228.14
965.01	228.07
965.31	227.95
965.60	227.66
965.90	228.23
966.19	228.07
966.49	228.12
966.78	228.16
967.08	228.03
967.37	228.05
967.67	227.93
967.96	228.05
968.26	228.02
968.55	228.11
968.85	228.09
969.14	228.11
969.43	228.21
969.73	228.01
970.02	227.92
970.32	227.87
970.61	227.85
970.91	227.64
971.20	227.59
971.49	227.58
971.79	227.75
972.08	227.06
972.38	227.20
972.67	227.19
972.96	227.26
973.26	227.16
973.55	227.46
973.85	227.35
974.14	227.32
974.43	227.25
974.73	227.20
975.02	227.06
975.31	227.12
975.61	227.05
975.90	227.01
976.19	227.02
976.49	227.14
976.78	227.24
977.07	227.21
977.37	227.25
977.66	227.22
977.95	226.98
978.24	226.98
978.54	227.11
978.83	226.96
979.12	227.00
979.42	227.06
979.71	226.85
980.00	226.85
980.29	226.83
980.59	226.74
980.88	226.83
981.17	226.87
981.46	226.79
981.76	226.76
982.05	227.00
982.34	227.08
982.63	227.03
982.93	227.07
983.22	227.29
983.51	227.30
983.80	227.43
984.09	227.67
984.39	227.63
984.68	227.41
984.97	227.53
985.26	227.31
985.55	227.35
985.85	227.17
986.14	227.39
986.43	227.40
986.72	227.32
987.01	227.09
987.30	226.99
987.59	226.88
987.89	226.95
988.18	226.74
988.47	226.62
988.76	226.43
989.05	226.27
989.34	226.15
989.63	226.36
989.92	226.18
990.22	225.91
990.51	225.92
990.80	225.90
991.09	225.87
991.38	225.95
991.67	225.76
991.96	225.66
992.25	225.54
992.54	225.39
992.83	225.50
993.12	225.49
993.41	225.66
993.70	226.24
993.99	226.43
994.28	226.55
994.58	226.70
994.87	226.73
995.16	226.74
995.45	226.68
995.74	226.41
996.03	226.60
996.32	226.82
996.61	227.03
996.90	227.00
997.19	226.97
997.48	227.12
997.77	227.11
998.06	227.21
998.34	227.24
998.63	227.33
998.92	227.33
999.21	227.46
999.50	227.44
999.79	227.03
1000.08	227.06
1000.37	227.04
1000.66	226.99
1000.95	227.20
1001.24	227.20
1001.53	227.24
1001.82	227.15
1002.11	227.04
1002.40	227.12
1002.68	227.37
1002.97	228.05
1003.26	228.03
1003.55	227.81
1003.84	227.92
1004.13	228.30
1004.42	228.28
1004.71	228.28
1004.99	228.26
1005.28	228.47
1005.57	228.43
1005.86	228.40
1006.15	228.25
1006.44	228.11
1006.72	228.19
1007.01	228.11
1007.30	228.22
1007.59	228.23
1007.88	228.35
1008.17	228.46
1008.45	228.37
1008.74	227.93
1009.03	227.47
1009.32	227.42
1009.60	227.58
1009.89	227.51
1010.18	227.05
1010.47	226.99
1010.76	226.97
1011.04	226.91
1011.33	227.00
1011.62	227.09
1011.91	227.14
1012.19	227.24
1012.48	227.40
1012.77	227.37
1013.05	227.77
1013.34	227.83
1013.63	227.69
1013.92	227.73
1014.20	227.59
1014.49	227.54
1014.78	227.64
1015.06	227.32
1015.35	227.38
1015.64	227.40
1015.92	227.48
1016.21	227.60
1016.50	227.58
1016.78	227.70
1017.07	227.84
1017.36	227.54
1017.64	227.47
1017.93	227.46
1018.22	227.27
1018.50	227.07
1018.79	227.06
1019.08	226.57
1019.36	226.57
1019.65	226.58
1019.93	226.80
1020.22	226.97
1020.51	227.48
1020.79	227.26
1021.08	224.90
1021.36	224.30
1021.65	227.30
1021.94	227.00
1022.22	227.50
1022.51	225.30
1022.79	231.60
1023.08	229.40
1023.36	238.20
1023.65	222.60
>>>>>End Processed Spectral Data<<<<<
