SpectraSuite Data File
++++++++++++++++++++++++++++++++++++
Date: Wed Sep 04 17:30:18 EDT 2013
User: lab3
Dark Spectrum Present: Yes
Reference Spectrum Present: No
Number of Sampled Component Spectra: 1
Spectrometers: USB2E7196
Integration Time (usec): 337000 (USB2E7196)
Spectra Averaged: 10 (USB2E7196)
Boxcar Smoothing: 10 (USB2E7196)
Correct for Electrical Dark: No (USB2E7196)
Strobe/Lamp Enabled: No (USB2E7196)
Correct for Detector Non-linearity: No (USB2E7196)
Correct for Stray Light: No (USB2E7196)
Number of Pixels in Processed Spectrum: 2048
>>>>>Begin Processed Spectral Data<<<<<
339.09	0.00
339.48	214.90
339.86	214.20
340.24	217.30
340.63	217.50
341.01	232.90
341.39	219.70
341.78	223.10
342.16	226.10
342.54	223.10
342.93	213.30
343.31	223.97
343.69	224.40
344.07	224.96
344.46	225.44
344.84	225.95
345.22	225.56
345.60	225.91
345.99	226.09
346.37	226.20
346.75	226.28
347.13	226.25
347.52	226.36
347.90	226.64
348.28	226.60
348.66	226.93
349.05	226.76
349.43	226.95
349.81	227.05
350.19	227.10
350.57	227.19
350.96	227.25
351.34	227.38
351.72	227.58
352.10	227.64
352.48	227.62
352.87	227.46
353.25	227.50
353.63	227.46
354.01	227.56
354.39	227.58
354.77	227.62
355.15	228.00
355.54	227.90
355.92	227.69
356.30	227.85
356.68	228.49
357.06	228.50
357.44	228.47
357.82	228.51
358.20	229.40
358.58	229.42
358.97	229.49
359.35	229.78
359.73	229.92
360.11	229.95
360.49	229.97
360.87	230.15
361.25	230.37
361.63	230.70
362.01	230.75
362.39	230.71
362.77	230.96
363.15	230.89
363.53	230.93
363.91	231.03
364.29	231.07
364.67	230.20
365.05	230.36
365.43	230.43
365.81	230.56
366.19	230.20
366.57	230.66
366.95	230.66
367.33	230.34
367.71	230.39
368.09	230.53
368.47	230.56
368.85	230.50
369.23	230.66
369.61	230.41
369.99	230.69
370.37	230.77
370.75	231.17
371.13	230.96
371.51	230.86
371.89	230.95
372.27	231.00
372.65	231.02
373.03	230.97
373.41	230.96
373.78	230.81
374.16	230.30
374.54	229.82
374.92	229.70
375.30	229.71
375.68	229.47
376.06	229.50
376.44	229.43
376.82	229.39
377.19	229.25
377.57	229.11
377.95	228.77
378.33	228.58
378.71	227.94
379.09	228.16
379.47	228.24
379.84	228.02
380.22	227.79
380.60	227.62
380.98	227.39
381.36	227.21
381.73	227.11
382.11	227.20
382.49	227.25
382.87	227.08
383.25	227.10
383.62	228.09
384.00	227.82
384.38	227.80
384.76	227.98
385.13	228.30
385.51	228.20
385.89	228.01
386.27	228.05
386.64	228.16
387.02	227.90
387.40	227.78
387.78	227.84
388.15	227.95
388.53	227.86
388.91	227.88
389.29	227.76
389.66	227.89
390.04	227.82
390.42	228.04
390.79	228.14
391.17	228.10
391.55	227.13
391.92	227.22
392.30	227.27
392.68	227.10
393.05	227.08
393.43	227.17
393.81	227.31
394.18	227.36
394.56	227.49
394.94	227.81
395.31	227.86
395.69	228.20
396.06	228.36
396.44	228.53
396.82	228.53
397.19	229.16
397.57	229.16
397.95	229.33
398.32	228.96
398.70	229.15
399.07	229.41
399.45	229.40
399.82	229.35
400.20	229.41
400.58	229.58
400.95	229.30
401.33	229.65
401.70	230.42
402.08	230.55
402.45	230.69
402.83	231.14
403.20	231.40
403.58	231.37
403.95	231.75
404.33	232.05
404.71	232.41
405.08	233.26
405.46	233.46
405.83	233.82
406.21	234.33
406.58	234.77
406.96	235.22
407.33	235.85
407.70	236.61
408.08	237.91
408.45	238.74
408.83	239.63
409.20	240.31
409.58	240.50
409.95	241.48
410.33	242.33
410.70	242.83
411.08	243.94
411.45	245.03
411.82	245.92
412.20	247.28
412.57	249.05
412.95	249.46
413.32	251.14
413.69	252.62
414.07	254.13
414.44	255.80
414.82	257.56
415.19	259.75
415.56	261.77
415.94	263.47
416.31	265.97
416.68	268.35
417.06	271.17
417.43	274.19
417.81	277.27
418.18	280.57
418.55	284.16
418.93	287.78
419.30	291.62
419.67	295.75
420.04	299.83
420.42	304.06
420.79	309.79
421.16	314.77
421.54	320.44
421.91	326.14
422.28	331.93
422.66	337.95
423.03	344.19
423.40	350.43
423.77	357.11
424.15	363.80
424.52	370.99
424.89	378.75
425.26	386.06
425.64	393.24
426.01	401.02
426.38	409.26
426.75	417.76
427.13	426.54
427.50	435.55
427.87	445.00
428.24	454.12
428.61	462.66
428.99	472.91
429.36	483.51
429.73	494.15
430.10	504.67
430.47	515.71
430.85	526.55
431.22	538.73
431.59	551.84
431.96	564.02
432.33	577.42
432.70	590.59
433.08	605.96
433.45	620.38
433.82	635.15
434.19	651.49
434.56	667.70
434.93	682.55
435.30	698.10
435.68	715.12
436.05	732.30
436.42	749.29
436.79	764.81
437.16	781.70
437.53	799.59
437.90	817.39
438.27	834.95
438.64	853.43
439.01	870.38
439.38	885.56
439.75	900.40
440.13	917.56
440.50	933.83
440.87	947.03
441.24	960.92
441.61	975.89
441.98	986.91
442.35	999.49
442.72	1013.11
443.09	1025.73
443.46	1033.87
443.83	1039.75
444.20	1044.61
444.57	1051.53
444.94	1054.79
445.31	1058.22
445.68	1062.27
446.05	1064.06
446.42	1062.63
446.79	1061.58
447.16	1059.82
447.53	1058.80
447.90	1052.51
448.27	1046.20
448.64	1037.58
449.01	1031.59
449.37	1020.41
449.74	1009.24
450.11	996.59
450.48	981.78
450.85	966.82
451.22	954.07
451.59	941.80
451.96	930.24
452.33	914.46
452.70	900.37
453.07	883.37
453.43	865.80
453.80	849.12
454.17	833.36
454.54	817.94
454.91	801.69
455.28	785.89
455.65	771.05
456.02	757.20
456.38	744.65
456.75	728.95
457.12	715.90
457.49	703.42
457.86	690.71
458.23	680.56
458.59	669.11
458.96	657.60
459.33	647.29
459.70	636.92
460.07	628.87
460.43	619.70
460.80	611.20
461.17	603.75
461.54	596.13
461.91	588.70
462.27	580.94
462.64	574.30
463.01	566.94
463.38	560.43
463.74	552.59
464.11	546.57
464.48	541.30
464.85	535.47
465.21	531.41
465.58	526.83
465.95	521.14
466.32	516.78
466.68	512.13
467.05	507.65
467.42	503.20
467.78	498.37
468.15	493.80
468.52	490.83
468.88	486.11
469.25	481.99
469.62	479.05
469.98	475.69
470.35	472.56
470.72	469.68
471.08	466.18
471.45	463.52
471.82	460.96
472.18	457.84
472.55	455.79
472.92	452.94
473.28	450.69
473.65	448.32
474.02	445.98
474.38	444.33
474.75	442.70
475.11	440.78
475.48	439.55
475.85	438.55
476.21	437.05
476.58	436.05
476.94	435.29
477.31	434.14
477.67	433.25
478.04	432.50
478.41	432.09
478.77	432.44
479.14	431.62
479.50	431.20
479.87	431.30
480.23	431.01
480.60	430.77
480.96	430.52
481.33	431.26
481.69	431.59
482.06	431.68
482.42	431.90
482.79	432.33
483.15	432.80
483.52	433.56
483.88	433.98
484.25	434.67
484.61	435.60
484.98	436.50
485.34	437.80
485.71	439.18
486.07	440.38
486.44	441.02
486.80	442.64
487.17	444.09
487.53	446.25
487.90	448.25
488.26	450.73
488.62	453.23
488.99	455.10
489.35	457.47
489.72	460.09
490.08	462.69
490.44	465.44
490.81	468.45
491.17	471.16
491.54	474.64
491.90	477.99
492.26	481.35
492.63	485.04
492.99	488.65
493.36	492.39
493.72	496.44
494.08	500.68
494.45	505.13
494.81	509.83
495.17	513.82
495.54	518.79
495.90	523.34
496.26	528.23
496.63	533.23
496.99	538.25
497.35	543.44
497.72	549.00
498.08	554.44
498.44	560.00
498.80	566.10
499.17	571.57
499.53	577.26
499.89	583.35
500.26	589.22
500.62	595.20
500.98	601.46
501.34	607.59
501.71	613.81
502.07	620.08
502.43	626.09
502.79	632.56
503.16	638.61
503.52	644.90
503.88	650.91
504.24	657.59
504.60	664.26
504.97	671.20
505.33	677.80
505.69	685.04
506.05	691.65
506.41	698.09
506.78	705.01
507.14	712.05
507.50	718.68
507.86	725.57
508.22	732.35
508.59	738.81
508.95	745.59
509.31	752.80
509.67	759.30
510.03	766.11
510.39	772.61
510.75	779.05
511.12	785.33
511.48	791.68
511.84	797.81
512.20	803.67
512.56	809.16
512.92	815.10
513.28	820.52
513.64	826.11
514.00	831.70
514.37	837.10
514.73	842.10
515.09	847.72
515.45	852.88
515.81	857.81
516.17	862.87
516.53	867.50
516.89	871.41
517.25	876.25
517.61	881.26
517.97	886.07
518.33	890.70
518.69	895.58
519.05	900.50
519.41	904.73
519.77	909.87
520.13	914.32
520.49	918.27
520.85	924.83
521.21	929.13
521.57	933.32
521.93	937.10
522.29	941.07
522.65	944.28
523.01	947.78
523.37	950.75
523.73	953.93
524.09	957.05
524.45	960.03
524.81	962.70
525.17	965.38
525.53	968.20
525.89	970.86
526.25	973.34
526.61	975.40
526.97	978.11
527.33	980.55
527.68	984.12
528.04	987.01
528.40	987.31
528.76	990.14
529.12	992.44
529.48	995.22
529.84	997.69
530.20	1000.48
530.56	1003.39
530.91	1006.85
531.27	1009.70
531.63	1013.18
531.99	1016.44
532.35	1019.52
532.71	1022.61
533.07	1025.86
533.42	1030.27
533.78	1033.58
534.14	1037.00
534.50	1040.04
534.86	1043.14
535.21	1045.31
535.57	1048.65
535.93	1051.23
536.29	1054.60
536.65	1057.88
537.00	1060.64
537.36	1063.87
537.72	1066.72
538.08	1069.58
538.44	1072.37
538.79	1075.81
539.15	1078.26
539.51	1081.42
539.87	1084.52
540.22	1086.84
540.58	1089.30
540.94	1090.49
541.29	1092.69
541.65	1094.84
542.01	1097.55
542.37	1099.53
542.72	1101.40
543.08	1102.90
543.44	1105.44
543.79	1106.57
544.15	1108.73
544.51	1111.38
544.87	1113.20
545.22	1114.80
545.58	1116.54
545.94	1117.89
546.29	1119.22
546.65	1120.57
547.01	1121.61
547.36	1123.18
547.72	1124.53
548.07	1125.87
548.43	1127.61
548.79	1129.22
549.14	1130.58
549.50	1131.96
549.86	1133.08
550.21	1134.79
550.57	1136.67
550.92	1137.27
551.28	1138.86
551.64	1140.33
551.99	1141.65
552.35	1143.08
552.70	1144.69
553.06	1146.19
553.41	1147.66
553.77	1149.67
554.13	1151.50
554.48	1153.16
554.84	1154.40
555.19	1156.18
555.55	1158.59
555.90	1159.61
556.26	1160.65
556.61	1161.90
556.97	1162.37
557.32	1163.50
557.68	1164.42
558.03	1165.32
558.39	1166.61
558.74	1167.70
559.10	1167.89
559.45	1168.18
559.81	1168.66
560.16	1169.01
560.52	1169.43
560.87	1170.04
561.23	1169.93
561.58	1170.72
561.94	1170.77
562.29	1171.11
562.64	1171.56
563.00	1170.84
563.35	1171.15
563.71	1171.53
564.06	1171.74
564.42	1172.54
564.77	1173.09
565.12	1173.50
565.48	1174.80
565.83	1175.60
566.19	1175.98
566.54	1176.62
566.89	1176.70
567.25	1177.22
567.60	1178.00
567.96	1178.91
568.31	1179.85
568.66	1180.02
569.02	1179.63
569.37	1179.81
569.72	1179.89
570.08	1179.58
570.43	1179.31
570.78	1179.06
571.14	1178.49
571.49	1177.75
571.84	1177.00
572.20	1176.20
572.55	1175.55
572.90	1173.31
573.26	1171.95
573.61	1170.50
573.96	1168.96
574.31	1167.51
574.67	1165.73
575.02	1163.72
575.37	1161.06
575.72	1158.46
576.08	1156.58
576.43	1154.58
576.78	1152.19
577.13	1149.55
577.49	1147.27
577.84	1144.96
578.19	1143.06
578.54	1141.36
578.90	1139.99
579.25	1138.49
579.60	1136.41
579.95	1133.83
580.30	1131.48
580.66	1129.08
581.01	1126.39
581.36	1123.43
581.71	1121.27
582.06	1118.92
582.42	1116.27
582.77	1113.86
583.12	1111.82
583.47	1109.43
583.82	1107.08
584.17	1105.25
584.53	1103.39
584.88	1100.80
585.23	1098.29
585.58	1095.06
585.93	1091.50
586.28	1088.18
586.63	1084.28
586.98	1080.93
587.34	1078.00
587.69	1075.04
588.04	1072.30
588.39	1069.78
588.74	1067.14
589.09	1064.76
589.44	1061.46
589.79	1058.54
590.14	1055.83
590.49	1052.54
590.84	1049.43
591.19	1046.60
591.54	1043.21
591.89	1039.69
592.25	1037.77
592.60	1034.44
592.95	1031.50
593.30	1028.70
593.65	1025.30
594.00	1022.00
594.35	1021.67
594.70	1018.27
595.05	1014.90
595.40	1011.26
595.75	1007.55
596.10	1004.02
596.45	1000.15
596.80	997.22
597.15	993.98
597.50	990.18
597.85	986.77
598.19	983.15
598.54	979.21
598.89	975.45
599.24	972.34
599.59	967.74
599.94	964.24
600.29	960.84
600.64	957.42
600.99	953.92
601.34	951.02
601.69	945.02
602.04	941.48
602.39	938.41
602.74	935.69
603.08	932.57
603.43	929.73
603.78	926.16
604.13	922.38
604.48	919.06
604.83	915.51
605.18	911.88
605.53	908.18
605.87	904.74
606.22	901.71
606.57	897.91
606.92	894.33
607.27	891.21
607.62	887.64
607.96	884.35
608.31	881.46
608.66	878.07
609.01	874.71
609.36	871.57
609.70	868.00
610.05	863.96
610.40	860.69
610.75	857.04
611.10	853.71
611.44	850.08
611.79	846.41
612.14	843.39
612.49	839.99
612.83	836.67
613.18	833.06
613.53	829.60
613.88	825.97
614.22	822.56
614.57	818.55
614.92	814.65
615.27	810.95
615.61	807.01
615.96	803.37
616.31	799.35
616.65	796.10
617.00	792.27
617.35	788.82
617.70	784.92
618.04	781.29
618.39	777.67
618.74	774.52
619.08	770.76
619.43	767.10
619.78	763.03
620.12	759.36
620.47	755.90
620.82	751.76
621.16	748.31
621.51	745.22
621.85	742.00
622.20	738.59
622.55	734.89
622.89	731.58
623.24	727.95
623.59	724.64
623.93	720.73
624.28	717.30
624.62	714.87
624.97	711.92
625.32	708.56
625.66	704.96
626.01	701.41
626.35	698.60
626.70	695.23
627.04	692.53
627.39	689.05
627.73	686.05
628.08	683.00
628.43	679.61
628.77	675.79
629.12	672.57
629.46	669.79
629.81	667.31
630.15	663.99
630.50	660.98
630.84	657.80
631.19	654.81
631.53	652.16
631.88	648.02
632.22	644.47
632.57	641.83
632.91	638.92
633.26	636.00
633.60	632.47
633.95	629.20
634.29	625.86
634.64	623.10
634.98	619.64
635.32	617.13
635.67	614.46
636.01	611.62
636.36	608.46
636.70	605.62
637.05	602.22
637.39	599.41
637.73	596.52
638.08	593.85
638.42	590.83
638.77	587.49
639.11	584.08
639.45	580.97
639.80	577.57
640.14	574.75
640.49	571.70
640.83	569.10
641.17	566.60
641.52	563.88
641.86	561.26
642.20	559.23
642.55	556.23
642.89	553.32
643.23	550.61
643.58	548.23
643.92	545.14
644.26	542.51
644.61	540.00
644.95	537.32
645.29	534.48
645.64	532.05
645.98	529.59
646.32	527.63
646.66	525.04
647.01	522.51
647.35	520.15
647.69	517.91
648.04	515.52
648.38	512.91
648.72	510.64
649.06	507.98
649.41	505.04
649.75	502.08
650.09	499.69
650.43	497.17
650.78	494.60
651.12	492.29
651.46	489.79
651.80	487.39
652.14	485.07
652.49	483.08
652.83	480.85
653.17	478.43
653.51	475.81
653.85	473.87
654.20	471.73
654.54	469.23
654.88	466.84
655.22	465.04
655.56	462.67
655.90	460.47
656.25	458.39
656.59	456.49
656.93	454.93
657.27	453.21
657.61	451.04
657.95	448.99
658.29	447.12
658.64	445.40
658.98	443.28
659.32	441.10
659.66	439.08
660.00	437.08
660.34	435.30
660.68	433.56
661.02	431.51
661.36	429.55
661.70	427.81
662.05	426.00
662.39	423.90
662.73	422.65
663.07	421.35
663.41	419.65
663.75	417.64
664.09	415.88
664.43	413.62
664.77	412.01
665.11	410.31
665.45	408.56
665.79	406.91
666.13	405.18
666.47	403.45
666.81	401.59
667.15	399.69
667.49	398.24
667.83	396.98
668.17	395.46
668.51	393.96
668.85	392.47
669.19	391.57
669.53	389.97
669.87	388.03
670.21	386.29
670.55	384.91
670.89	383.90
671.23	382.37
671.57	381.08
671.91	379.79
672.25	378.46
672.58	377.25
672.92	375.46
673.26	374.27
673.60	373.10
673.94	371.83
674.28	370.68
674.62	369.30
674.96	367.86
675.30	366.56
675.64	365.32
675.97	363.90
676.31	362.08
676.65	360.63
676.99	359.67
677.33	358.13
677.67	356.78
678.01	355.12
678.34	353.93
678.68	352.89
679.02	351.61
679.36	350.30
679.70	348.99
680.04	348.18
680.37	346.92
680.71	345.62
681.05	344.47
681.39	343.36
681.73	342.18
682.06	340.97
682.40	339.97
682.74	338.99
683.08	338.31
683.42	337.20
683.75	336.43
684.09	335.30
684.43	334.33
684.77	333.15
685.10	332.10
685.44	331.01
685.78	329.85
686.12	328.72
686.45	327.73
686.79	326.67
687.13	325.80
687.46	324.73
687.80	323.97
688.14	322.97
688.48	322.15
688.81	321.19
689.15	320.33
689.49	319.28
689.82	318.29
690.16	317.02
690.50	316.11
690.83	315.03
691.17	313.95
691.51	312.94
691.84	312.27
692.18	311.48
692.52	310.57
692.85	309.80
693.19	309.53
693.52	308.69
693.86	307.93
694.20	306.94
694.53	306.30
694.87	305.42
695.21	304.46
695.54	303.56
695.88	302.66
696.21	301.65
696.55	300.90
696.88	299.91
697.22	299.09
697.56	298.48
697.89	297.65
698.23	297.09
698.56	296.35
698.90	295.71
699.23	294.87
699.57	294.36
699.90	293.64
700.24	292.60
700.58	291.99
700.91	291.45
701.25	291.42
701.58	291.38
701.92	290.95
702.25	290.50
702.59	289.88
702.92	289.40
703.26	288.90
703.59	288.52
703.93	288.87
704.26	288.53
704.60	288.14
704.93	287.53
705.26	286.79
705.60	286.41
705.93	285.60
706.27	285.44
706.60	285.05
706.94	284.88
707.27	284.17
707.61	283.83
707.94	283.25
708.27	282.08
708.61	280.81
708.94	280.24
709.28	279.74
709.61	279.22
709.94	278.82
710.28	278.38
710.61	277.63
710.95	276.32
711.28	276.28
711.61	275.53
711.95	275.30
712.28	274.78
712.61	274.23
712.95	274.37
713.28	274.13
713.61	273.51
713.95	272.78
714.28	272.53
714.61	271.82
714.95	271.38
715.28	270.90
715.61	270.47
715.95	270.18
716.28	269.63
716.61	269.21
716.95	268.56
717.28	268.00
717.61	267.65
717.94	267.17
718.28	266.10
718.61	265.72
718.94	265.24
719.27	264.79
719.61	264.54
719.94	263.77
720.27	263.00
720.60	262.46
720.94	262.12
721.27	261.70
721.60	261.53
721.93	261.07
722.27	261.00
722.60	260.92
722.93	260.26
723.26	260.13
723.59	259.77
723.93	259.71
724.26	259.67
724.59	259.35
724.92	259.09
725.25	259.17
725.59	258.84
725.92	258.58
726.25	258.34
726.58	258.01
726.91	257.71
727.24	257.45
727.57	257.23
727.91	256.83
728.24	256.63
728.57	256.28
728.90	256.14
729.23	255.60
729.56	255.68
729.89	255.50
730.22	255.05
730.55	254.82
730.89	254.50
731.22	254.05
731.55	253.75
731.88	253.52
732.21	253.08
732.54	252.78
732.87	252.56
733.20	252.34
733.53	252.19
733.86	252.09
734.19	251.83
734.52	251.76
734.85	252.12
735.18	251.77
735.51	251.83
735.84	251.61
736.17	251.63
736.50	250.92
736.83	251.78
737.16	251.61
737.49	251.37
737.82	251.15
738.15	251.16
738.48	250.99
738.81	250.83
739.14	250.56
739.47	250.29
739.80	249.94
740.13	249.90
740.46	249.59
740.79	249.19
741.12	249.00
741.45	248.60
741.78	247.97
742.11	248.03
742.44	247.62
742.77	247.60
743.10	247.30
743.43	247.00
743.75	245.78
744.08	246.92
744.41	246.63
744.74	246.40
745.07	246.02
745.40	246.09
745.73	246.28
746.06	246.06
746.39	246.05
746.71	245.85
747.04	245.56
747.37	245.28
747.70	245.37
748.03	245.33
748.36	245.35
748.68	245.15
749.01	244.75
749.34	244.58
749.67	244.42
750.00	244.36
750.33	245.00
750.65	244.99
750.98	243.63
751.31	243.60
751.64	243.44
751.97	243.84
752.29	243.50
752.62	243.02
752.95	242.86
753.28	242.74
753.60	242.63
753.93	242.71
754.26	242.80
754.59	242.40
754.91	242.05
755.24	241.86
755.57	241.61
755.90	241.41
756.22	241.28
756.55	240.92
756.88	240.58
757.20	239.79
757.53	239.42
757.86	239.33
758.19	239.28
758.51	239.16
758.84	238.53
759.17	238.29
759.49	238.10
759.82	238.55
760.15	238.51
760.47	238.38
760.80	237.98
761.13	237.99
761.45	237.84
761.78	237.77
762.11	237.76
762.43	237.71
762.76	237.62
763.08	237.65
763.41	237.61
763.74	237.60
764.06	237.47
764.39	237.41
764.71	237.27
765.04	237.06
765.37	236.95
765.69	236.81
766.02	236.70
766.34	236.54
766.67	236.05
767.00	236.03
767.32	236.54
767.65	237.15
767.97	236.90
768.30	236.89
768.62	236.79
768.95	236.57
769.27	236.41
769.60	236.50
769.92	236.19
770.25	236.04
770.57	235.85
770.90	235.72
771.22	235.62
771.55	235.50
771.87	235.46
772.20	235.41
772.52	236.08
772.85	237.35
773.17	237.35
773.50	237.26
773.82	237.00
774.15	236.38
774.47	235.65
774.80	235.50
775.12	235.43
775.45	235.40
775.77	235.36
776.09	235.34
776.42	235.16
776.74	235.47
777.07	235.39
777.39	235.34
777.72	235.18
778.04	235.21
778.36	235.03
778.69	235.06
779.01	235.00
779.33	234.19
779.66	232.97
779.98	232.90
780.31	232.80
780.63	233.18
780.95	233.30
781.28	233.29
781.60	233.12
781.92	233.05
782.25	232.92
782.57	232.84
782.89	232.75
783.22	232.69
783.54	232.37
783.86	232.28
784.19	232.20
784.51	232.51
784.83	232.32
785.16	232.24
785.48	232.19
785.80	232.11
786.12	232.19
786.45	232.10
786.77	232.03
787.09	232.04
787.42	231.58
787.74	231.51
788.06	231.43
788.38	231.39
788.71	231.32
789.03	231.45
789.35	231.60
789.67	231.54
789.99	231.53
790.32	231.42
790.64	231.55
790.96	232.25
791.28	231.97
791.61	231.96
791.93	232.12
792.25	232.01
792.57	232.62
792.89	232.35
793.21	232.35
793.54	232.31
793.86	232.20
794.18	232.31
794.50	232.14
794.82	232.18
795.14	232.27
795.47	232.39
795.79	232.30
796.11	232.14
796.43	232.10
796.75	232.12
797.07	232.04
797.39	232.00
797.71	231.44
798.04	231.48
798.36	231.50
798.68	231.50
799.00	231.61
799.32	231.13
799.64	231.44
799.96	231.47
800.28	231.64
800.60	231.57
800.92	231.62
801.24	231.60
801.56	231.64
801.89	231.66
802.21	231.71
802.53	231.60
802.85	231.80
803.17	232.27
803.49	232.17
803.81	232.21
804.13	231.99
804.45	231.84
804.77	231.83
805.09	231.82
805.41	231.70
805.73	231.46
806.05	231.26
806.37	231.10
806.69	230.92
807.01	230.88
807.33	231.06
807.65	230.60
807.97	231.09
808.28	231.03
808.60	230.90
808.92	230.75
809.24	231.28
809.56	231.09
809.88	230.69
810.20	230.75
810.52	230.95
810.84	230.97
811.16	230.84
811.48	230.90
811.80	231.18
812.12	231.18
812.43	231.30
812.75	231.32
813.07	231.24
813.39	231.37
813.71	231.14
814.03	230.88
814.35	231.05
814.67	230.65
814.98	230.55
815.30	230.62
815.62	230.55
815.94	229.92
816.26	230.29
816.58	230.16
816.89	230.27
817.21	230.00
817.53	230.00
817.85	230.09
818.17	229.90
818.48	229.57
818.80	229.78
819.12	229.64
819.44	229.50
819.76	229.38
820.07	229.27
820.39	229.34
820.71	229.43
821.03	229.42
821.34	229.28
821.66	229.36
821.98	229.37
822.30	229.27
822.61	229.85
822.93	229.18
823.25	229.13
823.57	228.93
823.88	229.20
824.20	229.17
824.52	229.32
824.83	229.32
825.15	229.35
825.47	229.20
825.79	229.35
826.10	229.30
826.42	229.30
826.74	229.52
827.05	229.38
827.37	229.43
827.69	229.34
828.00	229.38
828.32	229.47
828.64	229.27
828.95	229.71
829.27	229.44
829.58	229.58
829.90	229.66
830.22	229.64
830.53	229.32
830.85	229.26
831.17	229.00
831.48	229.01
831.80	228.93
832.11	228.84
832.43	228.65
832.75	228.73
833.06	229.21
833.38	228.81
833.69	228.78
834.01	228.74
834.32	228.66
834.64	228.50
834.96	228.31
835.27	228.35
835.59	228.06
835.90	227.85
836.22	227.76
836.53	227.64
836.85	227.61
837.16	228.60
837.48	228.61
837.79	228.87
838.11	228.89
838.42	228.82
838.74	228.99
839.05	229.00
839.37	228.88
839.68	228.29
840.00	228.32
840.31	228.55
840.63	228.51
840.94	228.45
841.26	228.54
841.57	228.57
841.88	228.64
842.20	228.55
842.51	228.51
842.83	228.60
843.14	229.46
843.46	229.42
843.77	228.84
844.08	228.88
844.40	228.60
844.71	228.47
845.03	228.52
845.34	228.47
845.65	228.41
845.97	228.50
846.28	228.60
846.60	228.79
846.91	228.61
847.22	228.56
847.54	228.88
847.85	228.84
848.16	228.72
848.48	228.62
848.79	228.99
849.10	229.11
849.42	229.27
849.73	228.43
850.04	228.43
850.36	228.13
850.67	228.34
850.98	228.34
851.30	228.57
851.61	228.54
851.92	228.44
852.23	228.73
852.55	228.75
852.86	228.84
853.17	228.81
853.49	229.05
853.80	229.21
854.11	229.20
854.42	229.28
854.74	229.27
855.05	229.25
855.36	228.69
855.67	228.76
855.99	228.60
856.30	229.69
856.61	229.75
856.92	229.80
857.23	229.66
857.55	229.67
857.86	229.50
858.17	229.69
858.48	229.57
858.79	229.44
859.11	229.54
859.42	229.44
859.73	229.33
860.04	229.21
860.35	228.95
860.66	228.62
860.98	228.58
861.29	228.71
861.60	228.74
861.91	229.06
862.22	228.82
862.53	228.84
862.84	227.58
863.16	227.78
863.47	227.52
863.78	227.46
864.09	227.52
864.40	227.59
864.71	227.50
865.02	227.62
865.33	227.49
865.64	227.27
865.95	227.25
866.27	227.84
866.58	227.81
866.89	227.94
867.20	228.01
867.51	227.89
867.82	227.80
868.13	228.02
868.44	227.79
868.75	227.90
869.06	227.77
869.37	228.05
869.68	227.65
869.99	227.82
870.30	227.85
870.61	227.88
870.92	227.77
871.23	227.52
871.54	227.64
871.85	227.84
872.16	228.02
872.47	227.96
872.78	227.43
873.09	227.55
873.40	227.51
873.71	227.63
874.02	227.67
874.33	227.64
874.64	227.37
874.95	227.65
875.26	227.43
875.56	227.46
875.87	227.30
876.18	227.35
876.49	228.27
876.80	228.19
877.11	228.00
877.42	228.04
877.73	228.19
878.04	227.98
878.35	227.93
878.66	227.81
878.96	227.79
879.27	227.72
879.58	227.61
879.89	227.56
880.20	227.83
880.51	227.86
880.82	227.91
881.12	227.98
881.43	227.72
881.74	227.69
882.05	227.67
882.36	227.80
882.67	227.80
882.97	226.84
883.28	226.77
883.59	226.74
883.90	226.88
884.21	227.07
884.51	227.11
884.82	227.07
885.13	227.12
885.44	227.17
885.74	227.26
886.05	227.23
886.36	227.18
886.67	226.80
886.98	227.36
887.28	227.51
887.59	227.58
887.90	227.68
888.20	227.64
888.51	227.89
888.82	227.73
889.13	227.88
889.43	228.61
889.74	228.64
890.05	228.67
890.35	228.46
890.66	228.27
890.97	228.20
891.28	228.04
891.58	228.07
891.89	228.08
892.20	227.91
892.50	227.85
892.81	227.87
893.12	227.81
893.42	227.25
893.73	227.21
894.04	227.25
894.34	227.24
894.65	227.38
894.95	227.16
895.26	227.24
895.57	227.64
895.87	226.82
896.18	226.86
896.48	227.00
896.79	227.16
897.10	227.27
897.40	227.19
897.71	227.34
898.01	227.33
898.32	227.47
898.63	227.47
898.93	227.51
899.24	227.52
899.54	227.52
899.85	227.56
900.15	227.45
900.46	227.37
900.76	227.42
901.07	227.33
901.38	227.31
901.68	227.36
901.99	226.84
902.29	226.88
902.60	226.76
902.90	226.61
903.21	226.46
903.51	226.40
903.82	226.66
904.12	226.62
904.43	226.66
904.73	226.50
905.03	226.63
905.34	227.46
905.64	227.43
905.95	227.48
906.25	227.55
906.56	227.55
906.86	227.57
907.17	227.46
907.47	227.47
907.77	227.48
908.08	227.31
908.38	227.36
908.69	227.48
908.99	227.83
909.30	227.99
909.60	227.98
909.90	228.05
910.21	227.71
910.51	227.59
910.81	227.51
911.12	227.62
911.42	227.59
911.73	226.72
912.03	226.82
912.33	227.00
912.64	226.85
912.94	226.77
913.24	226.56
913.55	226.60
913.85	226.59
914.15	226.82
914.46	226.95
914.76	226.98
915.06	226.90
915.37	226.62
915.67	226.50
915.97	226.57
916.27	226.34
916.58	226.51
916.88	226.52
917.18	226.46
917.49	227.03
917.79	227.05
918.09	227.16
918.39	227.31
918.70	227.23
919.00	227.25
919.30	227.72
919.60	227.76
919.91	227.63
920.21	227.68
920.51	227.42
920.81	227.34
921.12	227.44
921.42	227.47
921.72	227.56
922.02	227.57
922.32	227.70
922.63	227.76
922.93	228.22
923.23	228.30
923.53	228.27
923.83	227.80
924.13	227.86
924.44	227.92
924.74	228.05
925.04	228.31
925.34	228.34
925.64	227.92
925.94	228.01
926.24	228.60
926.55	228.50
926.85	228.67
927.15	228.70
927.45	228.76
927.75	228.83
928.05	228.96
928.35	228.86
928.65	228.98
928.95	229.13
929.26	228.71
929.56	228.89
929.86	229.08
930.16	228.93
930.46	228.88
930.76	228.88
931.06	228.44
931.36	228.23
931.66	228.45
931.96	228.55
932.26	228.56
932.56	228.20
932.86	228.28
933.16	228.35
933.46	228.34
933.76	228.23
934.06	228.40
934.36	228.73
934.66	228.77
934.96	228.66
935.26	228.71
935.56	228.87
935.86	228.64
936.16	228.42
936.46	228.42
936.76	228.33
937.06	228.20
937.36	228.34
937.66	228.30
937.96	228.23
938.26	228.06
938.56	227.98
938.86	227.89
939.16	228.02
939.46	227.95
939.76	227.91
940.06	227.90
940.35	227.65
940.65	227.05
940.95	227.17
941.25	226.91
941.55	226.72
941.85	226.64
942.15	226.83
942.45	227.02
942.75	226.95
943.04	226.98
943.34	227.12
943.64	226.94
943.94	226.80
944.24	226.69
944.54	226.81
944.84	226.80
945.13	226.63
945.43	226.49
945.73	226.45
946.03	226.43
946.33	226.23
946.62	226.12
946.92	226.06
947.22	226.08
947.52	226.21
947.82	226.37
948.11	226.28
948.41	226.01
948.71	225.74
949.01	225.82
949.31	225.72
949.60	225.69
949.90	225.84
950.20	225.82
950.50	225.82
950.79	225.63
951.09	225.82
951.39	225.83
951.69	225.84
951.98	226.00
952.28	226.08
952.58	226.06
952.87	226.12
953.17	226.34
953.47	226.20
953.76	226.18
954.06	226.04
954.36	225.97
954.66	225.99
954.95	226.28
955.25	226.24
955.55	226.38
955.84	226.26
956.14	226.39
956.44	226.49
956.73	226.30
957.03	226.51
957.32	226.40
957.62	226.43
957.92	226.57
958.21	226.57
958.51	227.67
958.81	227.79
959.10	228.05
959.40	228.19
959.69	228.29
959.99	228.36
960.29	228.36
960.58	228.39
960.88	228.81
961.17	228.82
961.47	228.96
961.76	228.79
962.06	228.99
962.36	228.86
962.65	228.88
962.95	229.10
963.24	228.98
963.54	229.06
963.83	229.09
964.13	229.10
964.42	228.80
964.72	228.00
965.01	228.07
965.31	227.87
965.60	227.74
965.90	228.29
966.19	228.06
966.49	228.21
966.78	228.22
967.08	228.23
967.37	228.13
967.67	228.00
967.96	228.27
968.26	228.24
968.55	228.44
968.85	228.48
969.14	228.40
969.43	228.32
969.73	228.27
970.02	228.35
970.32	228.26
970.61	228.33
970.91	228.15
971.20	228.02
971.49	228.00
971.79	228.08
972.08	227.48
972.38	227.68
972.67	227.47
972.96	227.61
973.26	227.23
973.55	227.65
973.85	227.66
974.14	227.67
974.43	227.63
974.73	227.45
975.02	227.30
975.31	227.39
975.61	227.56
975.90	227.51
976.19	227.38
976.49	227.42
976.78	227.50
977.07	227.44
977.37	227.52
977.66	227.56
977.95	227.39
978.24	227.45
978.54	227.58
978.83	227.64
979.12	227.50
979.42	227.68
979.71	227.49
980.00	227.43
980.29	227.40
980.59	227.32
980.88	227.53
981.17	227.51
981.46	227.50
981.76	227.33
982.05	227.63
982.34	227.68
982.63	227.73
982.93	227.67
983.22	227.95
983.51	227.97
983.80	228.16
984.09	228.41
984.39	228.35
984.68	228.27
984.97	228.26
985.26	228.16
985.55	228.13
985.85	227.90
986.14	228.08
986.43	228.09
986.72	228.02
987.01	227.79
987.30	227.76
987.59	227.69
987.89	227.86
988.18	227.57
988.47	227.54
988.76	227.39
989.05	227.33
989.34	227.07
989.63	227.30
989.92	227.12
990.22	226.77
990.51	226.79
990.80	226.74
991.09	226.85
991.38	227.00
991.67	226.90
991.96	226.80
992.25	226.70
992.54	226.59
992.83	226.54
993.12	226.45
993.41	226.73
993.70	227.20
993.99	227.31
994.28	227.42
994.58	227.58
994.87	227.55
995.16	227.45
995.45	227.41
995.74	227.11
996.03	227.22
996.32	227.48
996.61	227.64
996.90	227.53
997.19	227.44
997.48	227.45
997.77	227.42
998.06	227.50
998.34	227.50
998.63	227.50
998.92	227.55
999.21	227.76
999.50	227.70
999.79	227.26
1000.08	227.10
1000.37	227.08
1000.66	226.90
1000.95	227.14
1001.24	227.26
1001.53	227.38
1001.82	227.33
1002.11	227.09
1002.40	227.17
1002.68	227.36
1002.97	228.09
1003.26	228.07
1003.55	227.89
1003.84	228.02
1004.13	228.26
1004.42	228.21
1004.71	228.31
1004.99	228.36
1005.28	228.67
1005.57	228.63
1005.86	228.64
1006.15	228.72
1006.44	228.65
1006.72	228.88
1007.01	228.70
1007.30	228.74
1007.59	228.67
1007.88	228.70
1008.17	228.76
1008.45	228.52
1008.74	228.19
1009.03	227.74
1009.32	227.73
1009.60	227.82
1009.89	227.63
1010.18	227.34
1010.47	227.28
1010.76	227.20
1011.04	227.11
1011.33	227.06
1011.62	227.11
1011.91	227.11
1012.19	227.02
1012.48	227.05
1012.77	226.90
1013.05	227.41
1013.34	227.45
1013.63	227.33
1013.92	227.36
1014.20	227.32
1014.49	227.42
1014.78	227.48
1015.06	227.17
1015.35	227.19
1015.64	227.32
1015.92	227.57
1016.21	227.61
1016.50	227.72
1016.78	227.84
1017.07	227.82
1017.36	227.58
1017.64	227.33
1017.93	227.43
1018.22	227.36
1018.50	227.35
1018.79	227.42
1019.08	226.88
1019.36	226.88
1019.65	226.85
1019.93	227.07
1020.22	227.22
1020.51	227.62
1020.79	227.43
1021.08	225.30
1021.36	226.60
1021.65	227.90
1021.94	226.00
1022.22	227.90
1022.51	224.90
1022.79	230.50
1023.08	228.20
1023.36	237.00
1023.65	223.70
>>>>>End Processed Spectral Data<<<<<
