SpectraSuite Data File
++++++++++++++++++++++++++++++++++++
Date: Wed Sep 04 17:33:59 EDT 2013
User: lab3
Dark Spectrum Present: Yes
Reference Spectrum Present: No
Number of Sampled Component Spectra: 1
Spectrometers: USB2E7196
Integration Time (usec): 337000 (USB2E7196)
Spectra Averaged: 10 (USB2E7196)
Boxcar Smoothing: 10 (USB2E7196)
Correct for Electrical Dark: No (USB2E7196)
Strobe/Lamp Enabled: No (USB2E7196)
Correct for Detector Non-linearity: No (USB2E7196)
Correct for Stray Light: No (USB2E7196)
Number of Pixels in Processed Spectrum: 2048
>>>>>Begin Processed Spectral Data<<<<<
339.09	0.00
339.48	213.00
339.86	212.40
340.24	214.90
340.63	216.40
341.01	232.70
341.39	219.60
341.78	222.70
342.16	225.90
342.54	223.30
342.93	212.87
343.31	223.54
343.69	224.15
344.07	224.74
344.46	225.32
344.84	225.76
345.22	225.48
345.60	225.90
345.99	226.15
346.37	226.21
346.75	226.30
347.13	226.48
347.52	226.56
347.90	226.80
348.28	226.90
348.66	227.22
349.05	226.99
349.43	227.18
349.81	227.37
350.19	227.54
350.57	227.71
350.96	227.87
351.34	227.99
351.72	228.03
352.10	228.16
352.48	228.18
352.87	228.26
353.25	228.31
353.63	228.17
354.01	228.09
354.39	228.25
354.77	228.39
355.15	228.54
355.54	228.50
355.92	228.39
356.30	228.39
356.68	229.05
357.06	229.19
357.44	229.13
357.82	229.17
358.20	230.04
358.58	229.95
358.97	229.94
359.35	230.18
359.73	230.46
360.11	230.43
360.49	230.51
360.87	230.58
361.25	230.76
361.63	231.25
362.01	231.36
362.39	231.32
362.77	231.42
363.15	231.43
363.53	231.49
363.91	231.61
364.29	231.64
364.67	230.66
365.05	230.69
365.43	230.79
365.81	230.98
366.19	230.62
366.57	231.17
366.95	231.19
367.33	231.04
367.71	230.99
368.09	231.23
368.47	231.24
368.85	231.27
369.23	231.43
369.61	230.99
369.99	231.42
370.37	231.44
370.75	231.93
371.13	231.85
371.51	231.71
371.89	231.72
372.27	231.69
372.65	231.76
373.03	231.75
373.41	231.71
373.78	231.51
374.16	230.97
374.54	230.56
374.92	230.57
375.30	230.51
375.68	230.20
376.06	230.21
376.44	230.14
376.82	230.06
377.19	229.98
377.57	230.00
377.95	229.62
378.33	229.55
378.71	228.85
379.09	228.92
379.47	228.98
379.84	228.77
380.22	228.76
380.60	228.59
380.98	228.45
381.36	228.27
381.73	228.12
382.11	228.24
382.49	228.23
382.87	227.98
383.25	227.94
383.62	229.01
384.00	228.73
384.38	228.69
384.76	228.81
385.13	229.18
385.51	229.16
385.89	228.95
386.27	228.94
386.64	229.09
387.02	228.91
387.40	228.78
387.78	228.87
388.15	228.80
388.53	228.69
388.91	228.68
389.29	228.86
389.66	229.09
390.04	228.98
390.42	229.16
390.79	229.34
391.17	229.38
391.55	228.40
391.92	228.46
392.30	228.64
392.68	228.41
393.05	228.25
393.43	228.23
393.81	228.30
394.18	228.22
394.56	228.24
394.94	228.53
395.31	228.51
395.69	228.80
396.06	228.94
396.44	229.12
396.82	229.17
397.19	229.50
397.57	229.44
397.95	229.62
398.32	229.38
398.70	229.42
399.07	229.72
399.45	229.86
399.82	229.91
400.20	229.89
400.58	230.03
400.95	229.65
401.33	230.05
401.70	230.87
402.08	230.99
402.45	231.19
402.83	231.51
403.20	231.86
403.58	231.87
403.95	232.19
404.33	232.57
404.71	232.92
405.08	233.71
405.46	233.91
405.83	234.20
406.21	234.51
406.58	234.91
406.96	235.15
407.33	235.57
407.70	236.13
408.08	237.49
408.45	238.18
408.83	239.05
409.20	239.39
409.58	239.41
409.95	240.25
410.33	240.96
410.70	241.40
411.08	242.30
411.45	243.19
411.82	243.95
412.20	245.05
412.57	246.46
412.95	246.61
413.32	247.95
413.69	249.16
414.07	250.49
414.44	251.96
414.82	253.50
415.19	255.35
415.56	256.99
415.94	258.05
416.31	260.10
416.68	262.02
417.06	264.41
417.43	266.91
417.81	269.47
418.18	272.01
418.55	274.65
418.93	277.41
419.30	280.47
419.67	283.71
420.04	286.92
420.42	290.13
420.79	294.82
421.16	298.61
421.54	303.20
421.91	307.57
422.28	311.83
422.66	316.53
423.03	321.42
423.40	326.26
423.77	331.42
424.15	336.45
424.52	341.97
424.89	348.10
425.26	353.53
425.64	358.90
426.01	364.82
426.38	371.16
426.75	377.83
427.13	384.31
427.50	391.12
427.87	398.00
428.24	404.93
428.61	411.12
428.99	418.91
429.36	426.60
429.73	434.45
430.10	442.57
430.47	450.78
430.85	458.49
431.22	467.34
431.59	477.30
431.96	486.32
432.33	496.21
432.70	505.67
433.08	517.11
433.45	527.76
433.82	538.50
434.19	550.51
434.56	562.24
434.93	573.26
435.30	584.38
435.68	596.78
436.05	609.19
436.42	621.20
436.79	632.48
437.16	644.51
437.53	657.23
437.90	669.66
438.27	682.09
438.64	695.25
439.01	707.36
439.38	717.63
439.75	728.12
440.13	739.50
440.50	750.46
440.87	759.60
441.24	768.97
441.61	779.25
441.98	786.51
442.35	794.73
442.72	803.76
443.09	812.58
443.46	817.74
443.83	821.08
444.20	823.92
444.57	827.85
444.94	829.65
445.31	831.51
445.68	834.02
446.05	834.32
446.42	832.74
446.79	830.83
447.16	828.48
447.53	826.66
447.90	821.82
448.27	816.52
448.64	809.31
449.01	804.12
449.37	795.24
449.74	786.66
450.11	777.16
450.48	765.96
450.85	754.15
451.22	744.36
451.59	735.03
451.96	726.20
452.33	714.69
452.70	704.03
453.07	691.44
453.43	678.06
453.80	666.12
454.17	654.37
454.54	643.34
454.91	631.75
455.28	620.28
455.65	609.37
456.02	600.10
456.38	591.05
456.75	580.01
457.12	570.47
457.49	561.43
457.86	552.11
458.23	544.81
458.59	536.73
458.96	528.53
459.33	521.18
459.70	513.73
460.07	507.80
460.43	501.11
460.80	495.10
461.17	489.76
461.54	483.87
461.91	478.45
462.27	472.90
462.64	468.17
463.01	463.19
463.38	458.73
463.74	452.43
464.11	448.00
464.48	444.02
464.85	440.13
465.21	437.20
465.58	433.95
465.95	429.86
466.32	426.60
466.68	423.22
467.05	419.96
467.42	416.97
467.78	413.49
468.15	410.42
468.52	408.24
468.88	404.92
469.25	402.31
469.62	400.30
469.98	397.90
470.35	395.64
470.72	393.60
471.08	391.15
471.45	389.65
471.82	388.03
472.18	386.07
472.55	384.71
472.92	382.70
473.28	381.04
473.65	379.43
474.02	378.04
474.38	376.93
474.75	376.03
475.11	374.84
475.48	374.16
475.85	373.34
476.21	372.40
476.58	371.84
476.94	371.33
477.31	370.71
477.67	370.10
478.04	369.77
478.41	369.56
478.77	370.03
479.14	369.54
479.50	369.31
479.87	369.41
480.23	369.38
480.60	369.41
480.96	369.42
481.33	370.12
481.69	370.42
482.06	370.74
482.42	371.02
482.79	371.44
483.15	372.01
483.52	372.82
483.88	373.37
484.25	374.04
484.61	374.67
484.98	375.45
485.34	376.81
485.71	378.05
486.07	379.21
486.44	379.95
486.80	381.50
487.17	382.98
487.53	385.01
487.90	386.91
488.26	389.38
488.62	392.05
488.99	393.94
489.35	396.49
489.72	399.17
490.08	401.83
490.44	404.59
490.81	407.68
491.17	410.74
491.54	414.27
491.90	418.04
492.26	421.98
492.63	425.96
492.99	429.93
493.36	434.35
493.72	438.86
494.08	443.56
494.45	448.56
494.81	454.03
495.17	459.09
495.54	464.87
495.90	470.51
496.26	476.49
496.63	482.90
496.99	489.40
497.35	496.21
497.72	503.44
498.08	510.76
498.44	518.40
498.80	526.65
499.17	534.63
499.53	543.09
499.89	552.07
500.26	561.15
500.62	570.59
500.98	580.89
501.34	590.97
501.71	601.55
502.07	612.05
502.43	623.06
502.79	634.73
503.16	646.59
503.52	658.56
503.88	670.94
504.24	684.00
504.60	697.63
504.97	711.70
505.33	725.92
505.69	741.49
506.05	756.81
506.41	772.03
506.78	787.71
507.14	803.94
507.50	820.50
507.86	838.04
508.22	855.77
508.59	872.71
508.95	891.24
509.31	910.65
509.67	930.15
510.03	949.13
510.39	968.47
510.75	988.52
511.12	1009.09
511.48	1030.26
511.84	1051.19
512.20	1072.32
512.56	1093.92
512.92	1116.00
513.28	1137.98
513.64	1160.27
514.00	1183.49
514.37	1207.33
514.73	1231.22
515.09	1255.59
515.45	1279.81
515.81	1304.20
516.17	1329.17
516.53	1353.84
516.89	1378.01
517.25	1403.23
517.61	1430.24
517.97	1456.86
518.33	1483.35
518.69	1510.05
519.05	1536.92
519.41	1563.90
519.77	1591.80
520.13	1618.88
520.49	1645.99
520.85	1675.77
521.21	1703.74
521.57	1731.57
521.93	1758.55
522.29	1786.20
522.65	1812.75
523.01	1839.80
523.37	1866.48
523.73	1893.83
524.09	1920.38
524.45	1946.86
524.81	1973.99
525.17	2000.22
525.53	2027.35
525.89	2053.67
526.25	2080.56
526.61	2106.64
526.97	2134.08
527.33	2161.36
527.68	2189.40
528.04	2216.83
528.40	2241.38
528.76	2268.53
529.12	2295.00
529.48	2322.04
529.84	2348.10
530.20	2375.06
530.56	2402.02
530.91	2429.00
531.27	2455.08
531.63	2481.52
531.99	2507.88
532.35	2533.46
532.71	2559.57
533.07	2585.71
533.42	2611.86
533.78	2637.62
534.14	2662.84
534.50	2687.09
534.86	2711.36
535.21	2733.65
535.57	2757.67
535.93	2780.21
536.29	2802.56
536.65	2825.74
537.00	2848.02
537.36	2870.02
537.72	2891.51
538.08	2913.02
538.44	2933.60
538.79	2954.33
539.15	2975.28
539.51	2996.19
539.87	3015.52
540.22	3033.13
540.58	3051.30
540.94	3067.75
541.29	3083.25
541.65	3099.10
542.01	3114.79
542.37	3128.71
542.72	3143.26
543.08	3155.90
543.44	3170.80
543.79	3183.49
544.15	3195.61
544.51	3208.35
544.87	3220.16
545.22	3231.07
545.58	3240.93
545.94	3250.56
546.29	3259.30
546.65	3267.74
547.01	3275.14
547.36	3282.45
547.72	3289.86
548.07	3295.18
548.43	3302.16
548.79	3308.63
549.14	3314.43
549.50	3320.15
549.86	3324.65
550.21	3329.66
550.57	3334.98
550.92	3336.81
551.28	3339.53
551.64	3343.45
551.99	3346.33
552.35	3349.26
552.70	3352.35
553.06	3354.98
553.41	3357.42
553.77	3360.75
554.13	3362.82
554.48	3365.70
554.84	3368.74
555.19	3371.07
555.55	3374.88
555.90	3375.12
556.26	3375.27
556.61	3374.49
556.97	3372.35
557.32	3373.05
557.68	3372.92
558.03	3372.42
558.39	3372.35
558.74	3372.45
559.10	3369.50
559.45	3367.00
559.81	3362.86
560.16	3357.85
560.52	3352.93
560.87	3349.31
561.23	3343.17
561.58	3337.90
561.94	3330.61
562.29	3322.66
562.64	3315.68
563.00	3306.32
563.35	3300.10
563.71	3293.17
564.06	3287.05
564.42	3281.11
564.77	3273.96
565.12	3266.44
565.48	3259.13
565.83	3251.95
566.19	3243.83
566.54	3235.92
566.89	3227.25
567.25	3220.10
567.60	3214.27
567.96	3207.98
568.31	3200.06
568.66	3192.48
569.02	3183.57
569.37	3175.40
569.72	3168.53
570.08	3159.26
570.43	3149.67
570.78	3140.91
571.14	3131.90
571.49	3121.62
571.84	3112.20
572.20	3101.10
572.55	3090.43
572.90	3078.08
573.26	3066.98
573.61	3055.23
573.96	3043.56
574.31	3030.90
574.67	3018.46
575.02	3004.13
575.37	2989.97
575.72	2975.41
576.08	2962.04
576.43	2948.45
576.78	2934.13
577.13	2919.07
577.49	2905.23
577.84	2892.36
578.19	2878.57
578.54	2864.33
578.90	2851.71
579.25	2838.18
579.60	2824.97
579.95	2810.72
580.30	2797.11
580.66	2781.55
581.01	2766.72
581.36	2751.52
581.71	2738.18
582.06	2723.87
582.42	2710.19
582.77	2696.08
583.12	2682.92
583.47	2669.15
583.82	2655.96
584.17	2642.59
584.53	2629.75
584.88	2615.57
585.23	2601.10
585.58	2585.42
585.93	2570.23
586.28	2554.43
586.63	2538.03
586.98	2521.18
587.34	2506.20
587.69	2490.62
588.04	2477.18
588.39	2463.51
588.74	2449.10
589.09	2434.84
589.44	2420.30
589.79	2406.61
590.14	2392.98
590.49	2378.88
590.84	2365.28
591.19	2351.58
591.54	2337.40
591.89	2322.79
592.25	2311.44
592.60	2298.10
592.95	2285.09
593.30	2271.68
593.65	2257.80
594.00	2244.09
594.35	2234.08
594.70	2220.11
595.05	2207.13
595.40	2192.76
595.75	2178.40
596.10	2165.41
596.45	2152.02
596.80	2138.74
597.15	2124.96
597.50	2111.03
597.85	2097.59
598.19	2083.45
598.54	2069.09
598.89	2055.59
599.24	2043.02
599.59	2028.66
599.94	2015.52
600.29	2002.52
600.64	1989.88
600.99	1976.97
601.34	1964.93
601.69	1950.16
602.04	1937.90
602.39	1925.43
602.74	1914.14
603.08	1902.60
603.43	1891.13
603.78	1878.89
604.13	1867.20
604.48	1854.71
604.83	1842.22
605.18	1829.67
605.53	1817.57
605.87	1806.08
606.22	1795.28
606.57	1782.84
606.92	1770.38
607.27	1758.50
607.62	1747.26
607.96	1736.37
608.31	1726.01
608.66	1714.87
609.01	1703.61
609.36	1692.71
609.70	1681.66
610.05	1670.08
610.40	1658.97
610.75	1647.21
611.10	1636.13
611.44	1624.40
611.79	1613.31
612.14	1603.00
612.49	1592.73
612.83	1582.46
613.18	1571.84
613.53	1561.67
613.88	1551.30
614.22	1540.43
614.57	1529.58
614.92	1518.33
615.27	1507.65
615.61	1496.89
615.96	1486.65
616.31	1476.40
616.65	1466.40
617.00	1456.13
617.35	1445.89
617.70	1435.67
618.04	1425.19
618.39	1415.11
618.74	1406.17
619.08	1396.52
619.43	1386.27
619.78	1375.90
620.12	1365.67
620.47	1355.50
620.82	1344.90
621.16	1334.58
621.51	1325.63
621.85	1316.25
622.20	1306.67
622.55	1297.06
622.89	1287.39
623.24	1278.37
623.59	1268.72
623.93	1259.39
624.28	1250.16
624.62	1242.16
624.97	1233.71
625.32	1225.48
625.66	1216.31
626.01	1206.96
626.35	1198.80
626.70	1190.31
627.04	1182.25
627.39	1173.64
627.73	1165.75
628.08	1157.53
628.43	1149.54
628.77	1141.10
629.12	1133.08
629.46	1125.94
629.81	1118.60
630.15	1111.38
630.50	1103.48
630.84	1096.35
631.19	1088.51
631.53	1081.50
631.88	1073.00
632.22	1065.23
632.57	1058.22
632.91	1050.95
633.26	1043.95
633.60	1035.83
633.95	1028.20
634.29	1020.50
634.64	1013.56
634.98	1005.59
635.32	998.43
635.67	991.94
636.01	985.06
636.36	978.01
636.70	971.02
637.05	964.16
637.39	957.49
637.73	950.97
638.08	944.12
638.42	937.19
638.77	929.80
639.11	922.21
639.45	914.46
639.80	906.73
640.14	899.86
640.49	892.89
640.83	886.70
641.17	880.83
641.52	874.35
641.86	868.04
642.20	862.74
642.55	856.65
642.89	850.43
643.23	844.54
643.58	839.03
643.92	832.71
644.26	826.80
644.61	820.90
644.95	814.69
645.29	808.67
645.64	803.33
645.98	797.98
646.32	793.07
646.66	787.96
647.01	782.63
647.35	777.90
647.69	772.86
648.04	767.90
648.38	762.78
648.72	758.02
649.06	752.44
649.41	746.97
649.75	741.73
650.09	736.29
650.43	731.00
650.78	725.69
651.12	720.87
651.46	715.63
651.80	710.59
652.14	705.85
652.49	701.26
652.83	696.38
653.17	691.61
653.51	686.69
653.85	682.07
654.20	677.59
654.54	672.63
654.88	667.89
655.22	663.69
655.56	659.19
655.90	654.69
656.25	650.51
656.59	646.20
656.93	641.88
657.27	637.99
657.61	633.66
657.95	629.33
658.29	625.06
658.64	621.20
658.98	616.70
659.32	612.38
659.66	608.12
660.00	603.94
660.34	599.70
660.68	595.83
661.02	591.80
661.36	588.07
661.70	584.10
662.05	580.28
662.39	576.29
662.73	572.71
663.07	569.52
663.41	565.86
663.75	562.00
664.09	558.28
664.43	554.35
664.77	550.87
665.11	547.36
665.45	544.01
665.79	540.41
666.13	537.09
666.47	533.73
666.81	530.29
667.15	526.92
667.49	523.99
667.83	521.30
668.17	518.41
668.51	515.36
668.85	512.75
669.19	510.23
669.53	507.07
669.87	503.83
670.21	500.48
670.55	497.76
670.89	495.62
671.23	492.83
671.57	490.12
671.91	487.24
672.25	484.81
672.58	482.17
672.92	479.39
673.26	476.93
673.60	474.15
673.94	471.94
674.28	469.62
674.62	467.15
674.96	464.23
675.30	461.84
675.64	459.46
675.97	456.69
676.31	453.87
676.65	451.48
676.99	449.44
677.33	446.81
677.67	444.54
678.01	441.61
678.34	439.52
678.68	437.42
679.02	435.13
679.36	432.68
679.70	430.31
680.04	428.15
680.37	425.97
680.71	424.09
681.05	422.07
681.39	420.14
681.73	418.08
682.06	416.05
682.40	413.97
682.74	412.09
683.08	410.52
683.42	408.50
683.75	406.68
684.09	404.45
684.43	402.70
684.77	400.75
685.10	399.04
685.44	397.02
685.78	395.07
686.12	393.35
686.45	391.59
686.79	389.72
687.13	388.23
687.46	386.67
687.80	385.01
688.14	383.03
688.48	381.38
688.81	379.59
689.15	378.17
689.49	376.54
689.82	374.78
690.16	372.84
690.50	371.41
690.83	369.65
691.17	367.93
691.51	366.37
691.84	364.93
692.18	363.18
692.52	361.72
692.85	360.39
693.19	359.35
693.52	357.97
693.86	356.57
694.20	355.03
694.53	353.54
694.87	352.09
695.21	350.66
695.54	349.20
695.88	347.76
696.21	346.09
696.55	344.65
696.88	343.31
697.22	341.85
697.56	340.47
697.89	339.03
698.23	337.90
698.56	336.60
698.90	335.33
699.23	334.09
699.57	332.86
699.90	331.46
700.24	329.85
700.58	328.69
700.91	327.80
701.25	327.21
701.58	326.80
701.92	325.79
702.25	324.70
702.59	323.50
702.92	322.59
703.26	321.67
703.59	320.78
703.93	320.55
704.26	319.84
704.60	318.87
704.93	317.96
705.26	316.85
705.60	316.10
705.93	314.89
706.27	314.36
706.60	313.65
706.94	313.19
707.27	312.28
707.61	311.39
707.94	310.37
708.27	308.72
708.61	307.00
708.94	305.98
709.28	305.17
709.61	304.24
709.94	303.30
710.28	302.35
710.61	301.43
710.95	299.73
711.28	299.35
711.61	298.55
711.95	298.01
712.28	297.21
712.61	296.40
712.95	296.19
713.28	295.70
713.61	294.73
713.95	293.63
714.28	292.98
714.61	292.10
714.95	291.32
715.28	290.49
715.61	289.77
715.95	289.18
716.28	288.31
716.61	287.75
716.95	286.90
717.28	286.28
717.61	285.60
717.94	285.00
718.28	283.68
718.61	282.87
718.94	282.14
719.27	281.60
719.61	280.96
719.94	280.02
720.27	278.90
720.60	278.31
720.94	277.78
721.27	277.20
721.60	276.87
721.93	276.24
722.27	276.11
722.60	275.80
722.93	275.21
723.26	274.86
723.59	274.23
723.93	273.97
724.26	273.55
724.59	272.96
724.92	272.48
725.25	272.27
725.59	271.73
725.92	271.36
726.25	270.97
726.58	270.58
726.91	270.23
727.24	269.96
727.57	269.54
727.91	268.92
728.24	268.72
728.57	268.19
728.90	268.06
729.23	267.35
729.56	267.32
729.89	266.80
730.22	266.40
730.55	266.14
730.89	265.77
731.22	265.34
731.55	265.08
731.88	264.81
732.21	264.20
732.54	263.90
732.87	263.53
733.20	263.15
733.53	262.76
733.86	262.50
734.19	262.00
734.52	261.81
734.85	262.19
735.18	261.58
735.51	261.61
735.84	261.18
736.17	261.23
736.50	260.35
736.83	261.24
737.16	260.79
737.49	260.51
737.82	260.08
738.15	259.89
738.48	259.46
738.81	259.07
739.14	258.71
739.47	258.50
739.80	258.12
740.13	257.89
740.46	257.53
740.79	257.01
741.12	256.76
741.45	256.28
741.78	255.54
742.11	255.59
742.44	255.09
742.77	254.99
743.10	254.55
743.43	254.31
743.75	252.98
744.08	254.05
744.41	253.65
744.74	253.34
745.07	252.87
745.40	252.83
745.73	252.93
746.06	252.70
746.39	252.50
746.71	252.20
747.04	251.79
747.37	251.54
747.70	251.48
748.03	251.32
748.36	251.30
748.68	250.91
749.01	250.47
749.34	250.18
749.67	249.80
750.00	249.66
750.33	250.05
750.65	249.97
750.98	248.53
751.31	248.34
751.64	248.28
751.97	248.60
752.29	248.37
752.62	247.80
752.95	247.60
753.28	247.21
753.60	246.99
753.93	247.07
754.26	246.94
754.59	246.49
754.91	246.15
755.24	245.90
755.57	245.79
755.90	245.46
756.22	245.10
756.55	244.85
756.88	244.48
757.20	243.78
757.53	243.21
757.86	243.02
758.19	242.96
758.51	242.77
758.84	242.19
759.17	241.97
759.49	241.86
759.82	242.31
760.15	242.20
760.47	242.04
760.80	241.65
761.13	241.75
761.45	241.55
761.78	241.52
762.11	241.35
762.43	241.15
762.76	241.09
763.08	241.11
763.41	241.06
763.74	240.99
764.06	240.79
764.39	240.96
764.71	240.85
765.04	240.68
765.37	240.43
765.69	240.22
766.02	239.99
766.34	239.77
766.67	239.10
767.00	239.38
767.32	239.78
767.65	240.27
767.97	239.99
768.30	240.00
768.62	239.94
768.95	239.74
769.27	239.60
769.60	239.59
769.92	239.35
770.25	239.11
770.57	238.84
770.90	238.70
771.22	238.48
771.55	238.50
771.87	238.39
772.20	238.37
772.52	239.17
772.85	240.27
773.17	240.25
773.50	240.18
773.82	239.79
774.15	239.35
774.47	238.61
774.80	238.43
775.12	238.32
775.45	238.19
775.77	238.24
776.09	238.19
776.42	238.09
776.74	238.33
777.07	238.22
777.39	238.29
777.72	238.33
778.04	238.37
778.36	238.06
778.69	238.03
779.01	237.95
779.33	237.04
779.66	235.95
779.98	235.89
780.31	235.91
780.63	236.35
780.95	236.43
781.28	236.38
781.60	236.15
781.92	236.14
782.25	236.07
782.57	236.01
782.89	235.93
783.22	235.79
783.54	235.45
783.86	235.43
784.19	235.31
784.51	235.49
784.83	235.26
785.16	235.27
785.48	235.23
785.80	235.20
786.12	235.14
786.45	235.05
786.77	235.00
787.09	234.91
787.42	234.46
787.74	234.24
788.06	234.24
788.38	234.28
788.71	234.14
789.03	234.11
789.35	234.10
789.67	233.94
789.99	233.95
790.32	233.88
790.64	233.99
790.96	234.77
791.28	234.40
791.61	234.34
791.93	234.31
792.25	234.15
792.57	234.78
792.89	234.59
793.21	234.52
793.54	234.36
793.86	234.15
794.18	234.13
794.50	234.00
794.82	233.96
795.14	233.98
795.47	234.09
795.79	234.02
796.11	233.72
796.43	233.63
796.75	233.55
797.07	233.62
797.39	233.48
797.71	232.59
798.04	232.58
798.36	232.49
798.68	232.48
799.00	232.55
799.32	231.86
799.64	232.01
799.96	232.11
800.28	232.14
800.60	232.15
800.92	232.21
801.24	232.13
801.56	232.18
801.89	232.09
802.21	232.02
802.53	231.81
802.85	232.11
803.17	232.61
803.49	232.39
803.81	232.23
804.13	232.12
804.45	232.02
804.77	232.13
805.09	232.17
805.41	231.93
805.73	231.76
806.05	231.73
806.37	231.65
806.69	231.48
807.01	231.36
807.33	231.50
807.65	231.05
807.97	231.60
808.28	231.49
808.60	231.50
808.92	231.39
809.24	232.00
809.56	231.75
809.88	231.29
810.20	231.40
810.52	231.65
810.84	231.58
811.16	231.55
811.48	231.46
811.80	231.84
812.12	231.95
812.43	232.10
812.75	232.13
813.07	232.05
813.39	232.01
813.71	232.09
814.03	231.86
814.35	231.97
814.67	231.39
814.98	231.30
815.30	231.21
815.62	231.12
815.94	230.50
816.26	230.90
816.58	230.66
816.89	230.74
817.21	230.44
817.53	230.52
817.85	230.60
818.17	230.48
818.48	230.08
818.80	230.24
819.12	230.19
819.44	229.97
819.76	229.82
820.07	229.83
820.39	229.74
820.71	229.93
821.03	229.96
821.34	229.99
821.66	230.13
821.98	230.15
822.30	230.11
822.61	230.58
822.93	230.15
823.25	230.24
823.57	230.17
823.88	230.28
824.20	230.18
824.52	230.27
824.83	230.20
825.15	230.13
825.47	229.98
825.79	229.88
826.10	229.94
826.42	229.99
826.74	230.11
827.05	230.08
827.37	230.05
827.69	230.03
828.00	230.07
828.32	229.99
828.64	230.07
828.95	230.55
829.27	230.31
829.58	230.33
829.90	230.56
830.22	230.55
830.53	230.38
830.85	230.36
831.17	230.10
831.48	230.10
831.80	230.11
832.11	230.17
832.43	230.10
832.75	229.95
833.06	230.43
833.38	230.13
833.69	230.10
834.01	230.01
834.32	229.94
834.64	229.89
834.96	229.90
835.27	229.77
835.59	229.50
835.90	229.44
836.22	229.37
836.53	229.20
836.85	229.10
837.16	230.08
837.48	230.10
837.79	230.47
838.11	230.56
838.42	230.61
838.74	230.70
839.05	230.70
839.37	230.70
839.68	230.11
840.00	230.02
840.31	230.16
840.63	230.09
840.94	229.99
841.26	229.82
841.57	229.73
841.88	229.88
842.20	229.69
842.51	229.60
842.83	229.56
843.14	230.31
843.46	230.30
843.77	229.80
844.08	229.68
844.40	229.33
844.71	229.15
845.03	229.00
845.34	228.80
845.65	228.80
845.97	228.78
846.28	228.85
846.60	229.07
846.91	228.84
847.22	228.79
847.54	228.93
847.85	229.04
848.16	228.97
848.48	228.70
848.79	229.06
849.10	229.11
849.42	229.10
849.73	228.20
850.04	228.14
850.36	227.70
850.67	227.88
850.98	227.82
851.30	227.92
851.61	227.89
851.92	227.87
852.23	228.11
852.55	228.17
852.86	228.19
853.17	228.27
853.49	228.38
853.80	228.68
854.11	228.77
854.42	228.95
854.74	228.87
855.05	228.92
855.36	228.32
855.67	228.25
855.99	228.30
856.30	229.46
856.61	229.49
856.92	229.59
857.23	229.61
857.55	229.57
857.86	229.60
858.17	229.72
858.48	229.59
858.79	229.32
859.11	229.46
859.42	229.36
859.73	229.07
860.04	229.18
860.35	228.76
860.66	228.46
860.98	228.36
861.29	228.47
861.60	228.45
861.91	228.90
862.22	228.83
862.53	228.66
862.84	227.60
863.16	227.81
863.47	227.62
863.78	227.60
864.09	227.68
864.40	227.74
864.71	227.84
865.02	228.04
865.33	227.94
865.64	227.71
865.95	227.76
866.27	228.49
866.58	228.42
866.89	228.70
867.20	228.77
867.51	228.70
867.82	228.65
868.13	229.00
868.44	228.62
868.75	228.83
869.06	228.89
869.37	228.93
869.68	228.69
869.99	228.86
870.30	228.91
870.61	229.02
870.92	228.88
871.23	228.77
871.54	228.82
871.85	229.08
872.16	229.25
872.47	229.20
872.78	228.65
873.09	228.72
873.40	228.58
873.71	228.52
874.02	228.47
874.33	228.54
874.64	228.31
874.95	228.56
875.26	228.39
875.56	228.39
875.87	228.40
876.18	228.39
876.49	229.40
876.80	229.23
877.11	229.02
877.42	229.01
877.73	228.99
878.04	228.92
878.35	229.03
878.66	229.06
878.96	229.07
879.27	229.03
879.58	228.91
879.89	228.98
880.20	229.44
880.51	229.39
880.82	229.34
881.12	229.38
881.43	229.21
881.74	229.08
882.05	229.10
882.36	229.14
882.67	229.09
882.97	228.00
883.28	227.98
883.59	227.99
883.90	228.17
884.21	228.32
884.51	228.14
884.82	227.89
885.13	227.89
885.44	227.90
885.74	227.93
886.05	227.91
886.36	227.81
886.67	227.36
886.98	227.92
887.28	228.00
887.59	228.01
887.90	228.00
888.20	227.98
888.51	228.14
888.82	227.98
889.13	228.05
889.43	228.77
889.74	228.68
890.05	228.72
890.35	228.59
890.66	228.44
890.97	228.44
891.28	228.34
891.58	228.27
891.89	228.17
892.20	228.03
892.50	227.90
892.81	227.79
893.12	227.77
893.42	227.20
893.73	227.17
894.04	227.04
894.34	227.12
894.65	227.20
894.95	227.00
895.26	226.97
895.57	227.37
895.87	226.56
896.18	226.72
896.48	226.75
896.79	226.70
897.10	226.71
897.40	226.72
897.71	226.82
898.01	226.71
898.32	226.80
898.63	226.76
898.93	226.82
899.24	226.92
899.54	226.90
899.85	226.94
900.15	226.80
900.46	226.88
900.76	226.95
901.07	226.78
901.38	226.83
901.68	226.96
901.99	226.47
902.29	226.49
902.60	226.38
902.90	226.34
903.21	226.34
903.51	226.37
903.82	226.54
904.12	226.59
904.43	226.67
904.73	226.66
905.03	226.78
905.34	227.71
905.64	227.61
905.95	227.60
906.25	227.61
906.56	227.72
906.86	227.70
907.17	227.61
907.47	227.79
907.77	227.66
908.08	227.59
908.38	227.72
908.69	227.84
908.99	228.06
909.30	228.07
909.60	228.06
909.90	228.05
910.21	227.92
910.51	227.72
910.81	227.70
911.12	227.78
911.42	227.73
911.73	226.77
912.03	226.91
912.33	227.09
912.64	227.06
912.94	226.98
913.24	226.88
913.55	226.89
913.85	226.78
914.15	227.02
914.46	227.11
914.76	227.17
915.06	227.10
915.37	226.93
915.67	226.93
915.97	227.00
916.27	226.85
916.58	226.86
916.88	226.92
917.18	226.92
917.49	227.59
917.79	227.55
918.09	227.63
918.39	227.95
918.70	227.91
919.00	227.90
919.30	228.40
919.60	228.34
919.91	228.24
920.21	228.29
920.51	228.06
920.81	228.00
921.12	228.08
921.42	228.01
921.72	228.09
922.02	228.14
922.32	228.22
922.63	228.29
922.93	228.87
923.23	228.89
923.53	228.74
923.83	228.10
924.13	228.19
924.44	228.21
924.74	228.24
925.04	228.50
925.34	228.47
925.64	227.98
925.94	227.98
926.24	228.58
926.55	228.51
926.85	228.72
927.15	228.61
927.45	228.61
927.75	228.61
928.05	228.58
928.35	228.48
928.65	228.70
928.95	228.80
929.26	228.31
929.56	228.41
929.86	228.66
930.16	228.59
930.46	228.60
930.76	228.66
931.06	228.19
931.36	227.94
931.66	228.06
931.96	228.26
932.26	228.29
932.56	227.85
932.86	227.92
933.16	227.90
933.46	227.88
933.76	227.62
934.06	227.86
934.36	228.13
934.66	228.10
934.96	227.97
935.26	228.00
935.56	228.15
935.86	228.05
936.16	227.96
936.46	227.88
936.76	227.76
937.06	227.73
937.36	227.85
937.66	227.85
937.96	227.85
938.26	227.62
938.56	227.56
938.86	227.57
939.16	227.67
939.46	227.74
939.76	227.78
940.06	227.91
940.35	227.66
940.65	227.20
940.95	227.30
941.25	226.97
941.55	226.73
941.85	226.64
942.15	226.82
942.45	227.02
942.75	226.97
943.04	227.00
943.34	227.10
943.64	227.06
943.94	226.98
944.24	226.96
944.54	227.11
944.84	227.12
945.13	227.04
945.43	226.96
945.73	226.90
946.03	226.80
946.33	226.67
946.62	226.60
946.92	226.62
947.22	226.68
947.52	226.90
947.82	227.18
948.11	227.07
948.41	226.83
948.71	226.63
949.01	226.76
949.31	226.65
949.60	226.57
949.90	226.63
950.20	226.60
950.50	226.58
950.79	226.50
951.09	226.70
951.39	226.68
951.69	226.66
951.98	226.82
952.28	226.88
952.58	226.91
952.87	227.00
953.17	227.21
953.47	227.19
953.76	227.06
954.06	226.80
954.36	226.68
954.66	226.65
954.95	226.94
955.25	227.03
955.55	227.25
955.84	227.17
956.14	227.31
956.44	227.36
956.73	227.31
957.03	227.30
957.32	227.18
957.62	227.11
957.92	227.30
958.21	227.21
958.51	228.34
958.81	228.35
959.10	228.50
959.40	228.70
959.69	228.67
959.99	228.85
960.29	229.00
960.58	229.09
960.88	229.54
961.17	229.34
961.47	229.39
961.76	229.22
962.06	229.40
962.36	229.29
962.65	229.29
962.95	229.30
963.24	229.24
963.54	229.33
963.83	229.36
964.13	229.34
964.42	229.18
964.72	228.50
965.01	228.60
965.31	228.46
965.60	228.19
965.90	228.86
966.19	228.62
966.49	228.60
966.78	228.43
967.08	228.35
967.37	228.33
967.67	228.12
967.96	228.28
968.26	228.21
968.55	228.26
968.85	228.22
969.14	228.20
969.43	228.17
969.73	228.19
970.02	228.16
970.32	227.93
970.61	227.86
970.91	227.47
971.20	227.27
971.49	227.30
971.79	227.41
972.08	226.78
972.38	226.93
972.67	226.83
972.96	227.03
973.26	226.86
973.55	227.11
973.85	227.17
974.14	227.04
974.43	227.07
974.73	226.99
975.02	226.88
975.31	226.91
975.61	226.97
975.90	226.72
976.19	226.67
976.49	226.88
976.78	226.90
977.07	226.90
977.37	226.97
977.66	226.97
977.95	226.87
978.24	226.82
978.54	226.94
978.83	226.93
979.12	226.88
979.42	226.90
979.71	226.78
980.00	226.69
980.29	226.82
980.59	226.60
980.88	226.79
981.17	226.88
981.46	226.86
981.76	226.87
982.05	227.30
982.34	227.42
982.63	227.37
982.93	227.32
983.22	227.54
983.51	227.58
983.80	227.79
984.09	227.89
984.39	227.91
984.68	227.75
984.97	227.76
985.26	227.63
985.55	227.64
985.85	227.46
986.14	227.60
986.43	227.55
986.72	227.60
987.01	227.28
987.30	227.31
987.59	227.29
987.89	227.27
988.18	226.90
988.47	226.85
988.76	226.82
989.05	226.85
989.34	226.87
989.63	227.18
989.92	226.96
990.22	226.86
990.51	226.81
990.80	226.73
991.09	226.86
991.38	227.09
991.67	226.97
991.96	226.87
992.25	226.90
992.54	226.76
992.83	226.79
993.12	226.84
993.41	226.97
993.70	227.30
993.99	227.48
994.28	227.60
994.58	227.70
994.87	227.55
995.16	227.50
995.45	227.28
995.74	226.90
996.03	227.10
996.32	227.20
996.61	227.40
996.90	227.35
997.19	227.21
997.48	227.20
997.77	227.10
998.06	227.24
998.34	227.12
998.63	227.20
998.92	227.15
999.21	227.27
999.50	227.23
999.79	226.93
1000.08	226.79
1000.37	226.86
1000.66	226.68
1000.95	226.87
1001.24	226.94
1001.53	227.05
1001.82	227.03
1002.11	226.71
1002.40	226.86
1002.68	227.15
1002.97	227.91
1003.26	227.89
1003.55	227.68
1003.84	227.79
1004.13	227.98
1004.42	228.06
1004.71	228.00
1004.99	227.96
1005.28	228.08
1005.57	228.05
1005.86	227.88
1006.15	227.89
1006.44	227.69
1006.72	227.88
1007.01	227.84
1007.30	227.80
1007.59	227.64
1007.88	227.67
1008.17	227.74
1008.45	227.36
1008.74	226.86
1009.03	226.30
1009.32	226.24
1009.60	226.28
1009.89	226.21
1010.18	225.84
1010.47	225.77
1010.76	225.88
1011.04	225.90
1011.33	225.98
1011.62	225.96
1011.91	226.13
1012.19	226.16
1012.48	226.20
1012.77	226.15
1013.05	226.53
1013.34	226.54
1013.63	226.59
1013.92	226.64
1014.20	226.62
1014.49	226.73
1014.78	226.75
1015.06	226.64
1015.35	226.68
1015.64	226.76
1015.92	226.94
1016.21	227.08
1016.50	227.03
1016.78	227.02
1017.07	227.07
1017.36	226.87
1017.64	226.75
1017.93	226.84
1018.22	226.74
1018.50	226.73
1018.79	226.56
1019.08	226.06
1019.36	226.06
1019.65	226.00
1019.93	226.21
1020.22	226.44
1020.51	226.96
1020.79	226.89
1021.08	225.10
1021.36	225.10
1021.65	223.60
1021.94	225.30
1022.22	225.50
1022.51	225.20
1022.79	231.20
1023.08	230.10
1023.36	237.80
1023.65	224.00
>>>>>End Processed Spectral Data<<<<<
