SpectraSuite Data File
++++++++++++++++++++++++++++++++++++
Date: Wed Sep 04 17:33:11 EDT 2013
User: lab3
Dark Spectrum Present: Yes
Reference Spectrum Present: No
Number of Sampled Component Spectra: 1
Spectrometers: USB2E7196
Integration Time (usec): 337000 (USB2E7196)
Spectra Averaged: 10 (USB2E7196)
Boxcar Smoothing: 10 (USB2E7196)
Correct for Electrical Dark: No (USB2E7196)
Strobe/Lamp Enabled: No (USB2E7196)
Correct for Detector Non-linearity: No (USB2E7196)
Correct for Stray Light: No (USB2E7196)
Number of Pixels in Processed Spectrum: 2048
>>>>>Begin Processed Spectral Data<<<<<
339.09	0.00
339.48	212.10
339.86	214.20
340.24	216.20
340.63	216.60
341.01	231.90
341.39	218.40
341.78	223.10
342.16	225.50
342.54	221.90
342.93	212.76
343.31	223.52
343.69	224.19
344.07	224.70
344.46	225.27
344.84	225.82
345.22	225.55
345.60	225.95
345.99	226.12
346.37	226.18
346.75	226.31
347.13	226.36
347.52	226.49
347.90	226.80
348.28	226.85
348.66	227.00
349.05	226.73
349.43	226.97
349.81	227.06
350.19	227.14
350.57	227.25
350.96	227.39
351.34	227.47
351.72	227.51
352.10	227.65
352.48	227.66
352.87	227.57
353.25	227.59
353.63	227.56
354.01	227.51
354.39	227.68
354.77	227.77
355.15	228.03
355.54	227.94
355.92	227.70
356.30	227.82
356.68	228.57
357.06	228.66
357.44	228.47
357.82	228.57
358.20	229.34
358.58	229.30
358.97	229.33
359.35	229.56
359.73	229.73
360.11	229.65
360.49	229.62
360.87	229.64
361.25	229.81
361.63	230.25
362.01	230.47
362.39	230.36
362.77	230.49
363.15	230.46
363.53	230.50
363.91	230.73
364.29	230.75
364.67	229.84
365.05	229.97
365.43	230.08
365.81	230.19
366.19	229.93
366.57	230.42
366.95	230.37
367.33	230.01
367.71	230.00
368.09	230.23
368.47	230.21
368.85	230.25
369.23	230.39
369.61	229.94
369.99	230.18
370.37	230.36
370.75	230.82
371.13	230.70
371.51	230.58
371.89	230.48
372.27	230.54
372.65	230.68
373.03	230.62
373.41	230.59
373.78	230.49
374.16	229.99
374.54	229.59
374.92	229.65
375.30	229.76
375.68	229.60
376.06	229.62
376.44	229.58
376.82	229.55
377.19	229.49
377.57	229.53
377.95	229.20
378.33	229.07
378.71	228.38
379.09	228.46
379.47	228.62
379.84	228.42
380.22	228.25
380.60	227.99
380.98	227.86
381.36	227.83
381.73	227.74
382.11	228.00
382.49	228.04
382.87	227.75
383.25	227.63
383.62	228.72
384.00	228.42
384.38	228.49
384.76	228.76
385.13	229.10
385.51	229.12
385.89	228.96
386.27	228.94
386.64	229.05
387.02	228.97
387.40	228.85
387.78	229.13
388.15	229.19
388.53	229.19
388.91	229.20
389.29	229.15
389.66	229.34
390.04	229.10
390.42	229.30
390.79	229.55
391.17	229.59
391.55	228.57
391.92	228.54
392.30	228.67
392.68	228.37
393.05	228.33
393.43	228.34
393.81	228.45
394.18	228.28
394.56	228.43
394.94	228.65
395.31	228.57
395.69	228.79
396.06	228.91
396.44	228.98
396.82	228.96
397.19	229.45
397.57	229.34
397.95	229.50
398.32	229.22
398.70	229.31
399.07	229.62
399.45	229.55
399.82	229.80
400.20	229.69
400.58	229.71
400.95	229.34
401.33	229.63
401.70	230.39
402.08	230.64
402.45	230.81
402.83	231.03
403.20	231.23
403.58	231.23
403.95	231.47
404.33	231.90
404.71	232.20
405.08	232.99
405.46	233.13
405.83	233.50
406.21	233.81
406.58	234.11
406.96	234.41
407.33	234.89
407.70	235.33
408.08	236.53
408.45	237.24
408.83	237.80
409.20	238.11
409.58	238.08
409.95	238.83
410.33	239.37
410.70	239.71
411.08	240.55
411.45	241.20
411.82	241.91
412.20	242.72
412.57	244.03
412.95	243.99
413.32	245.13
413.69	246.03
414.07	247.17
414.44	248.36
414.82	249.60
415.19	251.09
415.56	252.50
415.94	253.58
416.31	255.38
416.68	257.23
417.06	259.31
417.43	261.36
417.81	263.49
418.18	265.75
418.55	268.18
418.93	270.85
419.30	273.45
419.67	276.28
420.04	279.20
420.42	281.90
420.79	286.12
421.16	289.63
421.54	293.72
421.91	297.53
422.28	301.41
422.66	305.60
423.03	310.31
423.40	314.60
423.77	319.04
424.15	323.51
424.52	328.41
424.89	333.93
425.26	339.02
425.64	343.90
426.01	349.40
426.38	355.00
426.75	360.78
427.13	366.92
427.50	372.94
427.87	379.36
428.24	385.82
428.61	391.47
428.99	398.53
429.36	405.40
429.73	412.63
430.10	419.70
430.47	426.97
430.85	433.89
431.22	441.73
431.59	450.74
431.96	458.68
432.33	467.59
432.70	476.07
433.08	486.01
433.45	495.33
433.82	504.53
434.19	515.32
434.56	525.53
434.93	535.17
435.30	545.13
435.68	556.05
436.05	566.76
436.42	577.22
436.79	587.10
437.16	597.91
437.53	609.18
437.90	620.36
438.27	631.60
438.64	642.87
439.01	653.73
439.38	662.66
439.75	672.01
440.13	682.30
440.50	692.02
440.87	700.24
441.24	708.80
441.61	717.90
441.98	724.32
442.35	732.07
442.72	740.05
443.09	748.00
443.46	752.60
443.83	755.94
444.20	758.83
444.57	762.32
444.94	764.12
445.31	765.78
445.68	768.46
446.05	768.51
446.42	767.35
446.79	765.83
447.16	763.81
447.53	762.62
447.90	758.01
448.27	753.52
448.64	747.40
449.01	742.73
449.37	735.16
449.74	727.64
450.11	719.51
450.48	709.60
450.85	699.31
451.22	690.43
451.59	681.94
451.96	673.98
452.33	663.82
452.70	654.33
453.07	642.99
453.43	630.84
453.80	620.38
454.17	610.25
454.54	600.44
454.91	590.27
455.28	579.90
455.65	570.64
456.02	562.60
456.38	554.36
456.75	544.52
457.12	536.07
457.49	528.04
457.86	519.28
458.23	512.85
458.59	505.42
458.96	498.11
459.33	491.58
459.70	485.13
460.07	479.87
460.43	473.59
460.80	468.28
461.17	463.56
461.54	458.38
461.91	453.15
462.27	448.11
462.64	443.91
463.01	439.22
463.38	434.97
463.74	428.94
464.11	424.88
464.48	421.48
464.85	417.96
465.21	415.40
465.58	412.60
465.95	408.90
466.32	405.98
466.68	403.08
467.05	400.20
467.42	397.25
467.78	394.22
468.15	391.49
468.52	389.58
468.88	386.44
469.25	383.99
469.62	382.29
469.98	380.17
470.35	378.18
470.72	376.33
471.08	373.83
471.45	372.41
471.82	371.10
472.18	369.18
472.55	367.76
472.92	365.75
473.28	364.15
473.65	362.50
474.02	361.19
474.38	360.13
474.75	359.08
475.11	357.86
475.48	356.87
475.85	355.93
476.21	354.77
476.58	354.15
476.94	353.55
477.31	352.70
477.67	351.98
478.04	351.46
478.41	351.11
478.77	351.63
479.14	350.90
479.50	350.44
479.87	350.17
480.23	349.97
480.60	349.63
480.96	349.51
481.33	350.07
481.69	350.16
482.06	350.21
482.42	350.43
482.79	350.81
483.15	351.01
483.52	351.73
483.88	352.11
484.25	352.55
484.61	353.03
484.98	353.49
485.34	354.36
485.71	355.04
486.07	355.82
486.44	356.00
486.80	356.85
487.17	357.79
487.53	359.24
487.90	360.47
488.26	362.21
488.62	363.79
488.99	364.81
489.35	366.29
489.72	367.92
490.08	369.55
490.44	371.12
490.81	373.36
491.17	375.25
491.54	377.50
491.90	379.74
492.26	382.04
492.63	384.62
492.99	386.99
493.36	389.78
493.72	392.62
494.08	395.65
494.45	398.96
494.81	402.30
495.17	405.39
495.54	409.04
495.90	412.45
496.26	416.27
496.63	420.17
496.99	424.07
497.35	428.23
497.72	432.53
498.08	437.00
498.44	441.28
498.80	446.09
499.17	450.89
499.53	455.95
499.89	461.34
500.26	466.66
500.62	472.28
500.98	478.27
501.34	483.98
501.71	490.07
502.07	496.11
502.43	502.16
502.79	508.65
503.16	515.20
503.52	522.12
503.88	528.85
504.24	536.42
504.60	543.96
504.97	551.80
505.33	559.65
505.69	568.17
506.05	576.55
506.41	585.06
506.78	593.61
507.14	602.16
507.50	611.03
507.86	620.30
508.22	629.72
508.59	638.86
508.95	648.88
509.31	658.95
509.67	669.00
510.03	679.42
510.39	689.80
510.75	700.46
511.12	711.00
511.48	722.00
511.84	732.90
512.20	744.10
512.56	755.28
512.92	766.86
513.28	778.44
513.64	790.58
514.00	802.40
514.37	814.60
514.73	827.29
515.09	840.02
515.45	852.46
515.81	865.06
516.17	878.00
516.53	890.84
516.89	903.62
517.25	917.20
517.61	931.11
517.97	945.23
518.33	959.22
518.69	973.38
519.05	987.96
519.41	1002.44
519.77	1017.61
520.13	1032.10
520.49	1046.54
520.85	1061.24
521.21	1076.03
521.57	1091.35
521.93	1105.77
522.29	1120.69
522.65	1135.30
523.01	1150.33
523.37	1164.98
523.73	1179.87
524.09	1194.70
524.45	1209.69
524.81	1224.48
525.17	1239.30
525.53	1254.05
525.89	1269.25
526.25	1284.53
526.61	1299.08
526.97	1313.80
527.33	1329.18
527.68	1345.62
528.04	1361.31
528.40	1376.66
528.76	1392.39
529.12	1407.49
529.48	1423.26
529.84	1438.43
530.20	1454.49
530.56	1470.23
530.91	1486.50
531.27	1501.82
531.63	1517.05
531.99	1532.50
532.35	1548.20
532.71	1563.65
533.07	1579.55
533.42	1595.10
533.78	1610.50
534.14	1625.87
534.50	1640.92
534.86	1655.34
535.21	1668.86
535.57	1683.79
535.93	1697.61
536.29	1711.80
536.65	1726.28
537.00	1740.79
537.36	1754.93
537.72	1768.18
538.08	1781.87
538.44	1794.82
538.79	1808.22
539.15	1821.74
539.51	1834.80
539.87	1846.98
540.22	1858.48
540.58	1870.13
540.94	1881.12
541.29	1891.76
541.65	1902.42
542.01	1913.49
542.37	1923.14
542.72	1932.60
543.08	1941.82
543.44	1952.13
543.79	1960.51
544.15	1969.52
544.51	1978.52
544.87	1987.17
545.22	1994.91
545.58	2002.36
545.94	2009.80
546.29	2016.39
546.65	2023.03
547.01	2028.77
547.36	2034.88
547.72	2041.33
548.07	2046.97
548.43	2052.48
548.79	2057.72
549.14	2062.97
549.50	2067.61
549.86	2072.26
550.21	2077.06
550.57	2081.64
550.92	2084.46
551.28	2088.15
551.64	2092.13
551.99	2095.81
552.35	2099.29
552.70	2103.07
553.06	2107.13
553.41	2110.53
553.77	2115.09
554.13	2118.65
554.48	2122.87
554.84	2126.86
555.19	2130.23
555.55	2133.97
555.90	2136.29
556.26	2138.42
556.61	2140.03
556.97	2141.02
557.32	2143.50
557.68	2145.80
558.03	2147.09
558.39	2149.06
558.74	2150.57
559.10	2150.08
559.45	2149.97
559.81	2149.54
560.16	2148.50
560.52	2147.15
560.87	2146.37
561.23	2144.65
561.58	2143.44
561.94	2140.81
562.29	2137.94
562.64	2135.31
563.00	2131.20
563.35	2129.12
563.71	2126.77
564.06	2124.64
564.42	2122.73
564.77	2120.55
565.12	2117.53
565.48	2115.77
565.83	2113.54
566.19	2110.85
566.54	2108.64
566.89	2105.41
567.25	2102.63
567.60	2100.85
567.96	2098.93
568.31	2096.13
568.66	2093.07
569.02	2089.00
569.37	2085.47
569.72	2083.00
570.08	2079.32
570.43	2075.52
570.78	2071.42
571.14	2067.40
571.49	2062.56
571.84	2058.37
572.20	2052.84
572.55	2047.84
572.90	2041.09
573.26	2035.00
573.61	2029.06
573.96	2023.13
574.31	2016.86
574.67	2010.77
575.02	2003.30
575.37	1995.54
575.72	1987.96
576.08	1980.86
576.43	1973.44
576.78	1966.24
577.13	1957.72
577.49	1949.86
577.84	1943.13
578.19	1936.27
578.54	1929.30
578.90	1922.69
579.25	1915.15
579.60	1907.79
579.95	1900.32
580.30	1893.02
580.66	1885.19
581.01	1877.01
581.36	1868.60
581.71	1860.73
582.06	1852.50
582.42	1844.99
582.77	1836.90
583.12	1829.73
583.47	1822.26
583.82	1815.49
584.17	1808.09
584.53	1801.09
584.88	1793.25
585.23	1785.10
585.58	1775.73
585.93	1767.17
586.28	1758.24
586.63	1749.28
586.98	1739.90
587.34	1731.29
587.69	1722.68
588.04	1714.93
588.39	1707.48
588.74	1699.27
589.09	1691.52
589.44	1682.95
589.79	1675.07
590.14	1667.55
590.49	1659.45
590.84	1651.12
591.19	1643.09
591.54	1635.00
591.89	1626.65
592.25	1620.65
592.60	1613.27
592.95	1606.16
593.30	1598.10
593.65	1590.30
594.00	1581.89
594.35	1577.02
594.70	1568.93
595.05	1561.20
595.40	1552.45
595.75	1543.75
596.10	1535.65
596.45	1527.70
596.80	1520.10
597.15	1511.74
597.50	1503.57
597.85	1495.74
598.19	1487.30
598.54	1478.14
598.89	1469.66
599.24	1461.92
599.59	1452.75
599.94	1444.19
600.29	1436.17
600.64	1428.18
600.99	1419.61
601.34	1412.90
601.69	1402.96
602.04	1395.06
602.39	1387.51
602.74	1380.86
603.08	1373.84
603.43	1367.46
603.78	1359.75
604.13	1352.60
604.48	1344.96
604.83	1337.04
605.18	1328.90
605.53	1321.29
605.87	1314.40
606.22	1308.00
606.57	1300.53
606.92	1292.87
607.27	1285.71
607.62	1278.65
607.96	1271.86
608.31	1265.86
608.66	1258.93
609.01	1251.89
609.36	1244.94
609.70	1237.99
610.05	1230.27
610.40	1223.06
610.75	1215.21
611.10	1208.33
611.44	1200.58
611.79	1193.56
612.14	1186.80
612.49	1179.81
612.83	1173.45
613.18	1166.63
613.53	1159.68
613.88	1152.52
614.22	1145.76
614.57	1138.66
614.92	1131.96
615.27	1125.40
615.61	1118.24
615.96	1111.14
616.31	1104.19
616.65	1097.95
617.00	1090.83
617.35	1084.24
617.70	1077.67
618.04	1071.31
618.39	1064.84
618.74	1059.32
619.08	1052.86
619.43	1046.52
619.78	1040.01
620.12	1033.00
620.47	1026.63
620.82	1019.61
621.16	1013.06
621.51	1007.19
621.85	1001.22
622.20	994.38
622.55	987.49
622.89	981.27
623.24	975.29
623.59	969.24
623.93	962.90
624.28	956.92
624.62	952.13
624.97	946.47
625.32	940.32
625.66	934.06
626.01	927.58
626.35	921.92
626.70	916.00
627.04	910.69
627.39	905.30
627.73	899.99
628.08	894.86
628.43	889.53
628.77	883.41
629.12	877.61
629.46	872.55
629.81	867.93
630.15	863.01
630.50	857.64
630.84	852.54
631.19	847.73
631.53	843.16
631.88	837.00
632.22	831.64
632.57	827.12
632.91	822.52
633.26	817.91
633.60	813.00
633.95	808.12
634.29	802.81
634.64	797.84
634.98	792.45
635.32	787.56
635.67	783.13
636.01	778.52
636.36	773.94
636.70	769.63
637.05	764.81
637.39	760.09
637.73	755.71
638.08	751.36
638.42	746.38
638.77	741.28
639.11	736.30
639.45	731.28
639.80	726.07
640.14	721.21
640.49	716.37
640.83	711.97
641.17	707.65
641.52	703.35
641.86	699.24
642.20	695.57
642.55	691.13
642.89	687.07
643.23	683.00
643.58	679.20
643.92	674.70
644.26	670.63
644.61	666.75
644.95	662.47
645.29	657.95
645.64	654.18
645.98	650.30
646.32	646.82
646.66	643.30
647.01	639.62
647.35	636.21
647.69	632.67
648.04	629.23
648.38	625.57
648.72	622.03
649.06	618.26
649.41	614.15
649.75	610.48
650.09	606.32
650.43	602.65
650.78	598.91
651.12	595.32
651.46	591.52
651.80	587.84
652.14	584.46
652.49	581.46
652.83	578.07
653.17	574.60
653.51	570.99
653.85	567.80
654.20	564.54
654.54	561.06
654.88	557.66
655.22	554.79
655.56	551.60
655.90	548.39
656.25	545.30
656.59	542.40
656.93	539.42
657.27	537.03
657.61	533.65
657.95	530.52
658.29	527.39
658.64	524.71
658.98	521.65
659.32	518.50
659.66	515.24
660.00	512.24
660.34	509.62
660.68	506.83
661.02	503.91
661.36	501.28
661.70	498.37
662.05	495.59
662.39	492.50
662.73	490.00
663.07	487.91
663.41	485.18
663.75	482.45
664.09	479.87
664.43	476.75
664.77	474.63
665.11	472.22
665.45	469.96
665.79	467.51
666.13	465.20
666.47	462.70
666.81	460.18
667.15	457.63
667.49	455.20
667.83	453.25
668.17	450.81
668.51	448.57
668.85	446.61
669.19	445.03
669.53	442.70
669.87	440.34
670.21	437.77
670.55	435.81
670.89	434.26
671.23	432.30
671.57	430.40
671.91	428.40
672.25	426.37
672.58	424.53
672.92	422.28
673.26	420.14
673.60	418.38
673.94	416.73
674.28	415.03
674.62	413.37
674.96	411.15
675.30	409.64
675.64	407.83
675.97	405.88
676.31	403.58
676.65	401.80
676.99	400.32
677.33	398.39
677.67	396.76
678.01	394.52
678.34	392.69
678.68	391.11
679.02	389.14
679.36	387.53
679.70	385.84
680.04	384.28
680.37	382.90
680.71	381.36
681.05	379.95
681.39	378.56
681.73	376.96
682.06	375.62
682.40	373.92
682.74	372.47
683.08	371.37
683.42	369.93
683.75	368.51
684.09	366.95
684.43	365.66
684.77	364.10
685.10	362.70
685.44	361.43
685.78	359.85
686.12	358.71
686.45	357.34
686.79	355.86
687.13	354.90
687.46	353.53
687.80	352.40
688.14	350.99
688.48	349.72
688.81	348.36
689.15	347.30
689.49	346.02
689.82	344.76
690.16	343.04
690.50	341.89
690.83	340.80
691.17	339.47
691.51	338.35
691.84	337.29
692.18	336.22
692.52	334.95
692.85	334.04
693.19	333.21
693.52	332.16
693.86	331.04
694.20	329.70
694.53	328.72
694.87	327.51
695.21	326.27
695.54	325.12
695.88	323.98
696.21	322.55
696.55	321.54
696.88	320.34
697.22	319.34
697.56	318.42
697.89	317.27
698.23	316.41
698.56	315.34
698.90	314.40
699.23	313.30
699.57	312.46
699.90	311.40
700.24	310.22
700.58	309.26
700.91	308.46
701.25	308.39
701.58	308.15
701.92	307.54
702.25	306.85
702.59	306.03
702.92	305.42
703.26	304.73
703.59	303.93
703.93	304.05
704.26	303.38
704.60	302.72
704.93	301.92
705.26	301.01
705.60	300.43
705.93	299.49
706.27	298.97
706.60	298.44
706.94	298.16
707.27	297.33
707.61	296.79
707.94	296.00
708.27	294.61
708.61	293.18
708.94	292.30
709.28	291.49
709.61	290.67
709.94	289.90
710.28	289.30
710.61	288.66
710.95	287.13
711.28	287.09
711.61	286.24
711.95	285.77
712.28	285.05
712.61	284.29
712.95	284.17
713.28	283.94
713.61	283.02
713.95	282.09
714.28	281.63
714.61	280.89
714.95	280.26
715.28	279.36
715.61	278.70
715.95	278.17
716.28	277.56
716.61	277.17
716.95	276.37
717.28	275.83
717.61	275.40
717.94	274.78
718.28	273.56
718.61	272.98
718.94	272.32
719.27	271.87
719.61	271.44
719.94	270.70
720.27	269.74
720.60	269.29
720.94	268.79
721.27	268.33
721.60	268.04
721.93	267.64
722.27	267.57
722.60	267.35
722.93	266.94
723.26	266.62
723.59	265.95
723.93	265.76
724.26	265.39
724.59	264.87
724.92	264.69
725.25	264.57
725.59	264.21
725.92	264.04
726.25	263.68
726.58	263.48
726.91	263.08
727.24	262.89
727.57	262.60
727.91	262.18
728.24	262.01
728.57	261.51
728.90	261.28
729.23	260.71
729.56	260.79
729.89	260.48
730.22	260.13
730.55	259.98
730.89	259.73
731.22	259.36
731.55	259.09
731.88	258.74
732.21	258.22
732.54	257.80
732.87	257.38
733.20	257.11
733.53	256.71
733.86	256.49
734.19	256.07
734.52	255.92
734.85	256.31
735.18	255.72
735.51	255.85
735.84	255.69
736.17	255.71
736.50	254.96
736.83	255.76
737.16	255.51
737.49	255.32
737.82	255.10
738.15	254.98
738.48	254.70
738.81	254.38
739.14	254.08
739.47	253.99
739.80	253.68
740.13	253.52
740.46	253.14
740.79	252.77
741.12	252.56
741.45	252.07
741.78	251.29
742.11	251.49
742.44	250.94
742.77	250.63
743.10	250.27
743.43	249.96
743.75	248.71
744.08	249.74
744.41	249.40
744.74	249.08
745.07	248.66
745.40	248.57
745.73	248.84
746.06	248.63
746.39	248.64
746.71	248.50
747.04	248.20
747.37	248.05
747.70	248.15
748.03	248.00
748.36	248.09
748.68	247.89
749.01	247.29
749.34	247.09
749.67	246.94
750.00	246.88
750.33	247.48
750.65	247.44
750.98	246.10
751.31	245.94
751.64	245.92
751.97	246.29
752.29	246.11
752.62	245.48
752.95	245.32
753.28	244.86
753.60	244.69
753.93	244.81
754.26	244.80
754.59	244.23
754.91	243.97
755.24	243.73
755.57	243.57
755.90	243.44
756.22	243.26
756.55	243.11
756.88	242.72
757.20	241.88
757.53	241.35
757.86	241.27
758.19	241.17
758.51	240.80
758.84	240.12
759.17	239.91
759.49	239.88
759.82	240.29
760.15	240.26
760.47	240.14
760.80	239.67
761.13	239.61
761.45	239.40
761.78	239.32
762.11	239.16
762.43	238.93
762.76	238.77
763.08	238.67
763.41	238.58
763.74	238.55
764.06	238.43
764.39	238.48
764.71	238.20
765.04	238.07
765.37	238.04
765.69	237.99
766.02	237.79
766.34	237.61
766.67	237.00
767.00	237.10
767.32	237.40
767.65	237.94
767.97	237.75
768.30	237.87
768.62	237.81
768.95	237.69
769.27	237.58
769.60	237.68
769.92	237.55
770.25	237.29
770.57	237.02
770.90	236.93
771.22	236.72
771.55	236.71
771.87	236.70
772.20	236.59
772.52	237.36
772.85	238.48
773.17	238.37
773.50	238.28
773.82	238.02
774.15	237.52
774.47	236.76
774.80	236.60
775.12	236.50
775.45	236.35
775.77	236.33
776.09	236.37
776.42	236.27
776.74	236.48
777.07	236.41
777.39	236.40
777.72	236.29
778.04	236.38
778.36	236.22
778.69	236.34
779.01	236.38
779.33	235.48
779.66	234.30
779.98	234.27
780.31	234.33
780.63	234.64
780.95	234.76
781.28	234.83
781.60	234.67
781.92	234.62
782.25	234.54
782.57	234.48
782.89	234.37
783.22	234.23
783.54	233.98
783.86	233.99
784.19	233.97
784.51	234.26
784.83	234.07
785.16	233.96
785.48	233.73
785.80	233.68
786.12	233.68
786.45	233.60
786.77	233.53
787.09	233.45
787.42	233.06
787.74	233.04
788.06	232.93
788.38	232.88
788.71	232.73
789.03	232.75
789.35	232.80
789.67	232.58
789.99	232.68
790.32	232.50
790.64	232.49
790.96	233.29
791.28	232.90
791.61	232.81
791.93	232.98
792.25	232.90
792.57	233.46
792.89	233.30
793.21	233.41
793.54	233.37
793.86	233.21
794.18	233.21
794.50	232.96
794.82	232.91
795.14	233.08
795.47	233.20
795.79	233.10
796.11	232.85
796.43	232.88
796.75	232.80
797.07	232.88
797.39	232.89
797.71	232.05
798.04	232.05
798.36	232.14
798.68	231.98
799.00	232.06
799.32	231.55
799.64	231.60
799.96	231.52
800.28	231.59
800.60	231.51
800.92	231.49
801.24	231.44
801.56	231.52
801.89	231.27
802.21	231.38
802.53	231.23
802.85	231.45
803.17	231.87
803.49	231.67
803.81	231.54
804.13	231.47
804.45	231.43
804.77	231.49
805.09	231.38
805.41	231.20
805.73	231.04
806.05	230.81
806.37	230.80
806.69	230.70
807.01	230.58
807.33	230.71
807.65	230.44
807.97	230.86
808.28	230.84
808.60	230.88
808.92	230.68
809.24	231.35
809.56	231.16
809.88	230.79
810.20	230.87
810.52	230.95
810.84	230.78
811.16	230.69
811.48	230.64
811.80	231.02
812.12	231.12
812.43	231.16
812.75	231.32
813.07	231.22
813.39	231.31
813.71	231.22
814.03	231.13
814.35	231.25
814.67	230.90
814.98	230.77
815.30	230.83
815.62	230.74
815.94	230.07
816.26	230.40
816.58	230.26
816.89	230.29
817.21	230.23
817.53	230.36
817.85	230.38
818.17	230.38
818.48	229.93
818.80	230.19
819.12	230.16
819.44	230.01
819.76	229.87
820.07	229.81
820.39	229.90
820.71	229.92
821.03	229.83
821.34	229.80
821.66	229.92
821.98	229.94
822.30	229.92
822.61	230.53
822.93	230.20
823.25	230.20
823.57	230.17
823.88	230.35
824.20	230.26
824.52	230.48
824.83	230.36
825.15	230.33
825.47	230.20
825.79	230.25
826.10	230.22
826.42	230.25
826.74	230.30
827.05	230.20
827.37	230.35
827.69	230.40
828.00	230.44
828.32	230.48
828.64	230.45
828.95	230.95
829.27	230.60
829.58	230.49
829.90	230.64
830.22	230.73
830.53	230.49
830.85	230.39
831.17	230.12
831.48	230.18
831.80	230.26
832.11	230.20
832.43	230.08
832.75	230.00
833.06	230.56
833.38	230.36
833.69	230.35
834.01	230.29
834.32	230.22
834.64	230.10
834.96	229.97
835.27	229.85
835.59	229.39
835.90	229.24
836.22	229.26
836.53	229.04
836.85	228.88
837.16	229.84
837.48	229.84
837.79	230.04
838.11	230.05
838.42	230.05
838.74	230.15
839.05	230.09
839.37	230.06
839.68	229.48
840.00	229.38
840.31	229.40
840.63	229.26
840.94	229.11
841.26	228.94
841.57	228.84
841.88	229.03
842.20	228.98
842.51	228.87
842.83	228.86
843.14	229.83
843.46	229.80
843.77	229.15
844.08	229.21
844.40	229.04
844.71	228.91
845.03	228.64
845.34	228.57
845.65	228.46
845.97	228.45
846.28	228.49
846.60	228.56
846.91	228.50
847.22	228.59
847.54	228.86
847.85	229.00
848.16	229.05
848.48	228.69
848.79	229.09
849.10	229.10
849.42	229.19
849.73	228.19
850.04	228.18
850.36	227.90
850.67	228.02
850.98	227.98
851.30	228.12
851.61	228.21
851.92	228.16
852.23	228.50
852.55	228.56
852.86	228.55
853.17	228.63
853.49	228.90
853.80	228.98
854.11	228.94
854.42	229.09
854.74	229.03
855.05	229.23
855.36	228.76
855.67	228.91
855.99	228.88
856.30	229.97
856.61	229.91
856.92	230.00
857.23	229.98
857.55	229.97
857.86	229.85
858.17	230.09
858.48	229.88
858.79	229.70
859.11	229.80
859.42	229.82
859.73	229.79
860.04	229.71
860.35	229.50
860.66	229.29
860.98	229.12
861.29	229.31
861.60	229.24
861.91	229.43
862.22	229.27
862.53	229.06
862.84	228.00
863.16	228.36
863.47	228.25
863.78	228.23
864.09	228.22
864.40	228.25
864.71	228.19
865.02	228.40
865.33	228.30
865.64	228.14
865.95	228.12
866.27	228.62
866.58	228.56
866.89	228.64
867.20	228.68
867.51	228.66
867.82	228.50
868.13	228.83
868.44	228.70
868.75	228.85
869.06	228.99
869.37	229.06
869.68	228.69
869.99	228.70
870.30	228.68
870.61	228.80
870.92	228.72
871.23	228.57
871.54	228.72
871.85	228.92
872.16	229.06
872.47	229.04
872.78	228.54
873.09	228.59
873.40	228.45
873.71	228.62
874.02	228.68
874.33	228.62
874.64	228.40
874.95	228.56
875.26	228.37
875.56	228.45
875.87	228.41
876.18	228.30
876.49	229.30
876.80	229.18
877.11	229.02
877.42	229.06
877.73	229.14
878.04	228.97
878.35	229.01
878.66	228.97
878.96	228.94
879.27	228.85
879.58	228.74
879.89	228.72
880.20	228.90
880.51	228.82
880.82	228.87
881.12	228.85
881.43	228.58
881.74	228.57
882.05	228.47
882.36	228.53
882.67	228.66
882.97	227.58
883.28	227.44
883.59	227.29
883.90	227.45
884.21	227.47
884.51	227.41
884.82	227.31
885.13	227.27
885.44	227.25
885.74	227.37
886.05	227.43
886.36	227.44
886.67	227.04
886.98	227.47
887.28	227.59
887.59	227.62
887.90	227.71
888.20	227.65
888.51	227.82
888.82	227.75
889.13	227.81
889.43	228.59
889.74	228.64
890.05	228.80
890.35	228.57
890.66	228.55
890.97	228.49
891.28	228.31
891.58	228.39
891.89	228.40
892.20	228.25
892.50	228.19
892.81	228.20
893.12	228.19
893.42	227.74
893.73	227.60
894.04	227.53
894.34	227.59
894.65	227.56
894.95	227.37
895.26	227.33
895.57	227.74
895.87	227.01
896.18	227.24
896.48	227.27
896.79	227.25
897.10	227.36
897.40	227.43
897.71	227.63
898.01	227.53
898.32	227.65
898.63	227.59
898.93	227.64
899.24	227.62
899.54	227.59
899.85	227.66
900.15	227.77
900.46	227.80
900.76	227.86
901.07	227.81
901.38	227.84
901.68	228.05
901.99	227.58
902.29	227.50
902.60	227.33
902.90	227.32
903.21	227.34
903.51	227.30
903.82	227.47
904.12	227.44
904.43	227.48
904.73	227.41
905.03	227.50
905.34	228.26
905.64	228.19
905.95	228.26
906.25	228.29
906.56	228.15
906.86	228.11
907.17	228.00
907.47	228.16
907.77	228.14
908.08	227.89
908.38	227.98
908.69	228.18
908.99	228.45
909.30	228.48
909.60	228.57
909.90	228.70
910.21	228.37
910.51	228.27
910.81	228.30
911.12	228.32
911.42	228.32
911.73	227.47
912.03	227.57
912.33	227.78
912.64	227.71
912.94	227.64
913.24	227.57
913.55	227.51
913.85	227.42
914.15	227.66
914.46	227.80
914.76	227.61
915.06	227.55
915.37	227.24
915.67	227.16
915.97	227.18
916.27	226.85
916.58	226.98
916.88	226.88
917.18	226.84
917.49	227.49
917.79	227.48
918.09	227.57
918.39	227.79
918.70	227.67
919.00	227.67
919.30	228.14
919.60	228.05
919.91	227.98
920.21	228.01
920.51	227.68
920.81	227.58
921.12	227.73
921.42	227.76
921.72	227.91
922.02	228.00
922.32	228.17
922.63	228.28
922.93	228.82
923.23	228.94
923.53	228.88
923.83	228.29
924.13	228.40
924.44	228.43
924.74	228.66
925.04	228.92
925.34	228.90
925.64	228.54
925.94	228.59
926.24	229.30
926.55	229.15
926.85	229.34
927.15	229.31
927.45	229.34
927.75	229.27
928.05	229.30
928.35	229.07
928.65	229.08
928.95	229.11
929.26	228.61
929.56	228.77
929.86	228.91
930.16	228.94
930.46	228.77
930.76	228.80
931.06	228.27
931.36	227.96
931.66	228.09
931.96	228.17
932.26	228.30
932.56	227.76
932.86	227.92
933.16	227.97
933.46	227.91
933.76	227.76
934.06	227.99
934.36	228.20
934.66	228.22
934.96	228.13
935.26	228.14
935.56	228.31
935.86	227.94
936.16	227.77
936.46	227.50
936.76	227.51
937.06	227.38
937.36	227.50
937.66	227.56
937.96	227.58
938.26	227.48
938.56	227.34
938.86	227.33
939.16	227.51
939.46	227.58
939.76	227.70
940.06	227.72
940.35	227.48
940.65	227.09
940.95	227.27
941.25	227.05
941.55	226.92
941.85	226.90
942.15	227.17
942.45	227.35
942.75	227.40
943.04	227.44
943.34	227.66
943.64	227.62
943.94	227.45
944.24	227.33
944.54	227.30
944.84	227.28
945.13	227.22
945.43	227.01
945.73	226.99
946.03	226.97
946.33	226.90
946.62	226.70
946.92	226.64
947.22	226.67
947.52	226.69
947.82	226.84
948.11	226.68
948.41	226.40
948.71	226.14
949.01	226.20
949.31	226.18
949.60	226.10
949.90	226.10
950.20	226.16
950.50	226.20
950.79	226.17
951.09	226.37
951.39	226.31
951.69	226.18
951.98	226.23
952.28	226.33
952.58	226.36
952.87	226.52
953.17	226.74
953.47	226.63
953.76	226.77
954.06	226.57
954.36	226.48
954.66	226.62
954.95	226.94
955.25	227.04
955.55	227.03
955.84	226.87
956.14	226.93
956.44	227.00
956.73	226.86
957.03	226.84
957.32	226.80
957.62	226.83
957.92	227.10
958.21	227.06
958.51	227.94
958.81	228.06
959.10	228.20
959.40	228.33
959.69	228.47
959.99	228.60
960.29	228.63
960.58	228.60
960.88	228.93
961.17	228.86
961.47	228.93
961.76	228.83
962.06	228.97
962.36	228.99
962.65	228.97
962.95	229.16
963.24	229.17
963.54	229.23
963.83	229.28
964.13	229.17
964.42	228.96
964.72	228.21
965.01	228.24
965.31	228.16
965.60	227.98
965.90	228.48
966.19	228.27
966.49	228.34
966.78	228.44
967.08	228.45
967.37	228.40
967.67	228.19
967.96	228.40
968.26	228.32
968.55	228.38
968.85	228.35
969.14	228.18
969.43	228.12
969.73	227.96
970.02	227.93
970.32	227.81
970.61	227.79
970.91	227.64
971.20	227.44
971.49	227.38
971.79	227.41
972.08	226.78
972.38	226.66
972.67	226.60
972.96	226.63
973.26	226.32
973.55	226.62
973.85	226.56
974.14	226.44
974.43	226.46
974.73	226.20
975.02	226.13
975.31	226.28
975.61	226.23
975.90	226.21
976.19	226.02
976.49	226.17
976.78	226.23
977.07	226.13
977.37	226.21
977.66	226.20
977.95	226.09
978.24	226.09
978.54	226.28
978.83	226.22
979.12	226.22
979.42	226.18
979.71	226.04
980.00	226.01
980.29	226.12
980.59	226.01
980.88	226.29
981.17	226.28
981.46	226.15
981.76	226.19
982.05	226.38
982.34	226.51
982.63	226.50
982.93	226.51
983.22	226.78
983.51	226.80
983.80	226.91
984.09	226.98
984.39	227.03
984.68	226.90
984.97	226.96
985.26	226.85
985.55	226.96
985.85	226.64
986.14	226.87
986.43	226.96
986.72	226.83
987.01	226.56
987.30	226.53
987.59	226.41
987.89	226.46
988.18	226.28
988.47	226.23
988.76	226.16
989.05	226.05
989.34	225.88
989.63	226.10
989.92	226.10
990.22	225.99
990.51	225.94
990.80	225.95
991.09	226.09
991.38	226.37
991.67	226.29
991.96	226.27
992.25	226.28
992.54	226.11
992.83	226.20
993.12	226.28
993.41	226.51
993.70	227.07
993.99	227.23
994.28	227.30
994.58	227.38
994.87	227.37
995.16	227.43
995.45	227.37
995.74	227.02
996.03	227.06
996.32	227.22
996.61	227.50
996.90	227.57
997.19	227.56
997.48	227.46
997.77	227.41
998.06	227.60
998.34	227.52
998.63	227.53
998.92	227.57
999.21	227.66
999.50	227.61
999.79	227.25
1000.08	227.20
1000.37	227.25
1000.66	227.30
1000.95	227.53
1001.24	227.55
1001.53	227.70
1001.82	227.79
1002.11	227.57
1002.40	227.80
1002.68	227.92
1002.97	228.59
1003.26	228.43
1003.55	228.26
1003.84	228.34
1004.13	228.62
1004.42	228.66
1004.71	228.60
1004.99	228.58
1005.28	228.83
1005.57	228.76
1005.86	228.62
1006.15	228.67
1006.44	228.55
1006.72	228.66
1007.01	228.56
1007.30	228.52
1007.59	228.38
1007.88	228.28
1008.17	228.27
1008.45	227.88
1008.74	227.46
1009.03	226.95
1009.32	226.81
1009.60	226.77
1009.89	226.66
1010.18	226.27
1010.47	226.09
1010.76	226.16
1011.04	226.26
1011.33	226.25
1011.62	226.25
1011.91	226.34
1012.19	226.24
1012.48	226.26
1012.77	226.15
1013.05	226.46
1013.34	226.43
1013.63	226.40
1013.92	226.56
1014.20	226.55
1014.49	226.67
1014.78	226.71
1015.06	226.35
1015.35	226.45
1015.64	226.69
1015.92	226.87
1016.21	226.88
1016.50	226.98
1016.78	227.02
1017.07	227.00
1017.36	226.73
1017.64	226.70
1017.93	226.78
1018.22	226.72
1018.50	226.70
1018.79	226.71
1019.08	226.31
1019.36	226.40
1019.65	226.31
1019.93	226.58
1020.22	226.69
1020.51	227.20
1020.79	227.11
1021.08	225.80
1021.36	225.60
1021.65	227.40
1021.94	226.10
1022.22	226.50
1022.51	224.70
1022.79	232.50
1023.08	226.40
1023.36	238.10
1023.65	224.20
>>>>>End Processed Spectral Data<<<<<
