SpectraSuite Data File
++++++++++++++++++++++++++++++++++++
Date: Tue Apr 02 18:46:14 EDT 2013
User: group
Dark Spectrum Present: No
Reference Spectrum Present: No
Number of Sampled Component Spectra: 1
Spectrometers: USB2E7196
Integration Time (usec): 580000 (USB2E7196)
Spectra Averaged: 2 (USB2E7196)
Boxcar Smoothing: 10 (USB2E7196)
Correct for Electrical Dark: No (USB2E7196)
Strobe/Lamp Enabled: No (USB2E7196)
Correct for Detector Non-linearity: No (USB2E7196)
Correct for Stray Light: No (USB2E7196)
Number of Pixels in Processed Spectrum: 2048
>>>>>Begin Processed Spectral Data<<<<<
339.09	0.00
339.48	194.50
339.86	196.50
340.24	198.50
340.63	196.50
341.01	231.50
341.39	200.50
341.78	206.00
342.16	211.50
342.54	203.50
342.93	197.21
343.31	207.00
343.69	207.62
344.07	208.02
344.46	208.74
344.84	209.33
345.22	208.12
345.60	208.64
345.99	208.74
346.37	208.64
346.75	208.86
347.13	209.05
347.52	209.07
347.90	209.86
348.28	209.95
348.66	210.67
349.05	210.12
349.43	210.60
349.81	210.88
350.19	210.95
350.57	211.31
350.96	211.60
351.34	211.93
351.72	212.05
352.10	212.33
352.48	212.14
352.87	212.24
353.25	212.45
353.63	212.26
354.01	212.29
354.39	212.62
354.77	212.81
355.15	213.55
355.54	213.57
355.92	212.98
356.30	213.14
356.68	214.19
357.06	214.50
357.44	214.00
357.82	214.00
358.20	214.86
358.58	214.76
358.97	215.00
359.35	215.38
359.73	215.74
360.11	215.74
360.49	215.93
360.87	216.02
361.25	216.43
361.63	217.36
362.01	217.79
362.39	217.50
362.77	217.43
363.15	217.36
363.53	217.36
363.91	217.81
364.29	217.76
364.67	215.95
365.05	216.14
365.43	216.64
365.81	216.88
366.19	216.93
366.57	217.69
366.95	217.55
367.33	217.17
367.71	216.98
368.09	217.36
368.47	217.43
368.85	217.26
369.23	217.43
369.61	216.62
369.99	217.19
370.37	217.43
370.75	218.55
371.13	217.83
371.51	217.50
371.89	217.43
372.27	217.62
372.65	217.83
373.03	217.71
373.41	217.48
373.78	217.52
374.16	216.69
374.54	216.02
374.92	215.86
375.30	216.10
375.68	215.98
376.06	216.02
376.44	215.76
376.82	216.07
377.19	215.86
377.57	215.81
377.95	214.81
378.33	214.55
378.71	213.26
379.09	213.71
379.47	214.00
379.84	213.88
380.22	213.50
380.60	213.24
380.98	213.14
381.36	213.05
381.73	212.79
382.11	213.00
382.49	213.10
382.87	212.90
383.25	212.60
383.62	214.93
384.00	214.52
384.38	214.64
384.76	215.02
385.13	215.88
385.51	216.00
385.89	215.90
386.27	216.36
386.64	216.74
387.02	216.45
387.40	216.31
387.78	216.36
388.15	216.55
388.53	216.29
388.91	216.24
389.29	216.10
389.66	216.26
390.04	216.05
390.42	216.33
390.79	216.38
391.17	216.52
391.55	214.40
391.92	214.40
392.30	214.64
392.68	214.00
393.05	213.55
393.43	213.50
393.81	213.90
394.18	213.38
394.56	213.71
394.94	214.26
395.31	214.17
395.69	214.64
396.06	214.93
396.44	215.43
396.82	215.24
397.19	216.48
397.57	216.02
397.95	216.33
398.32	215.60
398.70	215.88
399.07	216.14
399.45	215.98
399.82	216.00
400.20	215.48
400.58	215.43
400.95	214.83
401.33	215.48
401.70	216.90
402.08	217.10
402.45	216.90
402.83	217.36
403.20	217.55
403.58	217.26
403.95	217.55
404.33	217.83
404.71	218.24
405.08	219.29
405.46	219.71
405.83	220.19
406.21	220.57
406.58	221.07
406.96	221.33
407.33	221.93
407.70	222.71
408.08	225.38
408.45	226.48
408.83	227.57
409.20	227.62
409.58	227.17
409.95	228.33
410.33	229.31
410.70	229.55
411.08	230.79
411.45	231.86
411.82	232.88
412.20	234.64
412.57	237.12
412.95	236.52
413.32	238.60
413.69	239.74
414.07	241.48
414.44	243.36
414.82	245.14
415.19	247.33
415.56	249.31
415.94	250.10
416.31	252.83
416.68	255.64
417.06	259.02
417.43	262.40
417.81	265.62
418.18	269.57
418.55	273.33
418.93	277.38
419.30	281.79
419.67	286.14
420.04	290.33
420.42	294.29
420.79	301.55
421.16	306.86
421.54	313.98
421.91	320.24
422.28	326.52
422.66	333.21
423.03	341.10
423.40	347.88
423.77	355.45
424.15	362.33
424.52	369.69
424.89	378.36
425.26	386.24
425.64	393.74
426.01	401.31
426.38	410.05
426.75	419.07
427.13	428.17
427.50	437.57
427.87	447.00
428.24	457.19
428.61	465.69
428.99	476.79
429.36	486.81
429.73	497.98
430.10	509.10
430.47	520.62
430.85	531.02
431.22	544.05
431.59	558.74
431.96	571.76
432.33	586.10
432.70	599.83
433.08	615.67
433.45	630.83
433.82	646.02
434.19	662.81
434.56	679.74
434.93	695.36
435.30	711.38
435.68	728.50
436.05	745.60
436.42	762.64
436.79	778.17
437.16	795.81
437.53	813.74
437.90	831.38
438.27	849.26
438.64	867.38
439.01	884.07
439.38	897.21
439.75	911.62
440.13	928.14
440.50	943.50
440.87	956.17
441.24	969.45
441.61	984.31
441.98	995.12
442.35	1007.21
442.72	1020.19
443.09	1033.24
443.46	1041.10
443.83	1046.52
444.20	1050.67
444.57	1056.76
444.94	1060.07
445.31	1063.98
445.68	1068.81
446.05	1069.90
446.42	1068.95
446.79	1067.69
447.16	1065.74
447.53	1065.38
447.90	1059.17
448.27	1052.50
448.64	1043.86
449.01	1037.52
449.37	1026.21
449.74	1015.64
450.11	1004.31
450.48	989.36
450.85	973.86
451.22	961.43
451.59	949.24
451.96	937.95
452.33	922.67
452.70	907.76
453.07	889.95
453.43	871.07
453.80	855.05
454.17	838.83
454.54	823.31
454.91	807.29
455.28	790.57
455.65	775.38
456.02	764.21
456.38	751.95
456.75	737.33
457.12	724.38
457.49	711.38
457.86	697.05
458.23	687.31
458.59	675.74
458.96	664.19
459.33	653.40
459.70	643.12
460.07	635.05
460.43	625.81
460.80	617.57
461.17	610.31
461.54	602.17
461.91	595.07
462.27	587.00
462.64	580.43
463.01	573.74
463.38	567.43
463.74	556.48
464.11	549.50
464.48	543.76
464.85	537.64
465.21	533.31
465.58	528.64
465.95	522.02
466.32	517.00
466.68	511.62
467.05	506.95
467.42	501.93
467.78	496.36
468.15	491.67
468.52	488.10
468.88	482.67
469.25	477.64
469.62	473.88
469.98	470.07
470.35	466.43
470.72	462.21
471.08	457.74
471.45	455.29
471.82	452.69
472.18	448.90
472.55	446.31
472.92	442.36
473.28	439.29
473.65	436.43
474.02	433.93
474.38	432.31
474.75	430.36
475.11	427.98
475.48	426.29
475.85	424.62
476.21	422.36
476.58	421.40
476.94	420.55
477.31	419.14
477.67	418.00
478.04	416.79
478.41	416.33
478.77	417.76
479.14	416.43
479.50	415.95
479.87	416.02
480.23	415.45
480.60	415.12
480.96	414.76
481.33	415.93
481.69	415.76
482.06	415.57
482.42	416.00
482.79	416.48
483.15	416.86
483.52	417.55
483.88	418.33
484.25	418.76
484.61	419.45
484.98	420.14
485.34	422.02
485.71	423.55
486.07	424.69
486.44	424.14
486.80	425.95
487.17	427.07
487.53	429.19
487.90	431.36
488.26	434.69
488.62	437.55
488.99	439.40
489.35	442.14
489.72	444.81
490.08	447.26
490.44	449.98
490.81	453.48
491.17	456.69
491.54	460.26
491.90	464.05
492.26	467.71
492.63	471.48
492.99	474.74
493.36	479.24
493.72	483.83
494.08	488.05
494.45	492.90
494.81	498.10
495.17	502.24
495.54	507.62
495.90	511.98
496.26	517.00
496.63	522.02
496.99	527.17
497.35	532.62
497.72	538.69
498.08	544.86
498.44	550.71
498.80	556.71
499.17	562.31
499.53	568.31
499.89	575.38
500.26	581.79
500.62	589.07
500.98	596.05
501.34	602.86
501.71	610.60
502.07	617.52
502.43	623.95
502.79	631.14
503.16	638.40
503.52	645.12
503.88	651.83
504.24	659.64
504.60	667.64
504.97	675.79
505.33	683.24
505.69	691.57
506.05	699.52
506.41	707.29
506.78	715.45
507.14	723.21
507.50	730.36
507.86	738.71
508.22	745.74
508.59	752.45
508.95	760.29
509.31	769.14
509.67	777.14
510.03	785.45
510.39	793.12
510.75	800.67
511.12	809.02
511.48	817.14
511.84	824.43
512.20	832.02
512.56	839.81
512.92	846.90
513.28	854.05
513.64	860.88
514.00	868.07
514.37	875.71
514.73	882.86
515.09	890.48
515.45	897.07
515.81	904.07
516.17	911.24
516.53	917.48
516.89	923.02
517.25	929.86
517.61	936.48
517.97	942.81
518.33	949.14
518.69	955.98
519.05	962.21
519.41	969.40
519.77	976.48
520.13	981.76
520.49	988.10
520.85	993.36
521.21	1000.48
521.57	1006.31
521.93	1010.57
522.29	1017.05
522.65	1021.48
523.01	1027.67
523.37	1032.43
523.73	1037.74
524.09	1042.83
524.45	1047.60
524.81	1051.29
525.17	1056.12
525.53	1060.60
525.89	1064.79
526.25	1069.26
526.61	1073.55
526.97	1076.90
527.33	1080.67
527.68	1087.29
528.04	1091.24
528.40	1095.17
528.76	1097.98
529.12	1102.81
529.48	1108.38
529.84	1111.31
530.20	1116.26
530.56	1119.90
530.91	1124.69
531.27	1128.74
531.63	1133.74
531.99	1137.55
532.35	1141.95
532.71	1146.05
533.07	1150.81
533.42	1157.38
533.78	1160.98
534.14	1165.43
534.50	1169.55
534.86	1173.67
535.21	1176.12
535.57	1180.90
535.93	1184.79
536.29	1190.26
536.65	1193.45
537.00	1196.88
537.36	1200.55
537.72	1204.05
538.08	1207.17
538.44	1210.07
538.79	1214.02
539.15	1216.52
539.51	1220.21
539.87	1224.10
540.22	1227.26
540.58	1230.60
540.94	1231.52
541.29	1234.62
541.65	1236.90
542.01	1240.29
542.37	1242.31
542.72	1244.02
543.08	1245.86
543.44	1248.93
543.79	1249.50
544.15	1253.19
544.51	1256.43
544.87	1259.64
545.22	1262.60
545.58	1266.26
545.94	1269.29
546.29	1271.83
546.65	1274.76
547.01	1276.95
547.36	1279.17
547.72	1280.98
548.07	1283.50
548.43	1285.81
548.79	1287.60
549.14	1290.36
549.50	1292.57
549.86	1294.95
550.21	1297.90
550.57	1300.38
550.92	1303.52
551.28	1306.98
551.64	1308.64
551.99	1310.60
552.35	1313.21
552.70	1315.00
553.06	1317.36
553.41	1320.26
553.77	1324.43
554.13	1327.76
554.48	1332.19
554.84	1336.45
555.19	1341.40
555.55	1346.07
555.90	1349.74
556.26	1354.50
556.61	1357.90
556.97	1360.90
557.32	1364.60
557.68	1368.38
558.03	1373.07
558.39	1377.00
558.74	1380.98
559.10	1385.43
559.45	1390.52
559.81	1394.86
560.16	1400.17
560.52	1404.14
560.87	1408.31
561.23	1410.90
561.58	1416.10
561.94	1419.52
562.29	1422.83
562.64	1427.50
563.00	1430.48
563.35	1434.93
563.71	1439.60
564.06	1445.05
564.42	1450.50
564.77	1457.12
565.12	1463.36
565.48	1469.98
565.83	1474.90
566.19	1481.10
566.54	1486.21
566.89	1491.10
567.25	1497.45
567.60	1503.74
567.96	1511.52
568.31	1519.17
568.66	1525.74
569.02	1529.45
569.37	1534.71
569.72	1540.24
570.08	1544.12
570.43	1548.98
570.78	1554.81
571.14	1560.07
571.49	1565.19
571.84	1570.71
572.20	1575.05
572.55	1579.38
572.90	1583.02
573.26	1588.26
573.61	1592.31
573.96	1597.31
574.31	1601.50
574.67	1605.50
575.02	1609.52
575.37	1611.19
575.72	1613.52
576.08	1617.26
576.43	1622.33
576.78	1626.19
577.13	1630.48
577.49	1634.62
577.84	1639.45
578.19	1642.83
578.54	1646.76
578.90	1651.48
579.25	1654.83
579.60	1657.71
579.95	1660.67
580.30	1664.14
580.66	1668.43
581.01	1672.33
581.36	1674.98
581.71	1678.55
582.06	1682.93
582.42	1686.36
582.77	1689.64
583.12	1692.76
583.47	1696.48
583.82	1698.98
584.17	1702.36
584.53	1707.05
584.88	1710.00
585.23	1713.81
585.58	1717.17
585.93	1719.79
586.28	1722.52
586.63	1726.26
586.98	1729.26
587.34	1733.36
587.69	1735.29
588.04	1736.83
588.39	1738.98
588.74	1741.00
589.09	1743.79
589.44	1744.69
589.79	1747.02
590.14	1748.83
590.49	1750.93
590.84	1752.88
591.19	1756.02
591.54	1758.40
591.89	1758.48
592.25	1762.21
592.60	1763.40
592.95	1764.83
593.30	1766.98
593.65	1767.93
594.00	1768.21
594.35	1776.05
594.70	1777.19
595.05	1778.93
595.40	1779.67
595.75	1780.86
596.10	1782.81
596.45	1783.76
596.80	1784.76
597.15	1785.12
597.50	1786.36
597.85	1788.17
598.19	1788.29
598.54	1787.98
598.89	1788.71
599.24	1789.64
599.59	1789.05
599.94	1789.07
600.29	1789.98
600.64	1790.29
600.99	1789.95
601.34	1790.79
601.69	1784.19
602.04	1783.21
602.39	1783.31
602.74	1783.64
603.08	1783.12
603.43	1782.81
603.78	1782.21
604.13	1781.90
604.48	1781.02
604.83	1781.79
605.18	1781.50
605.53	1781.40
605.87	1780.55
606.22	1779.74
606.57	1779.38
606.92	1778.71
607.27	1777.71
607.62	1776.57
607.96	1775.95
608.31	1775.86
608.66	1774.24
609.01	1772.81
609.36	1771.76
609.70	1769.98
610.05	1767.26
610.40	1766.24
610.75	1764.71
611.10	1763.45
611.44	1761.00
611.79	1758.69
612.14	1755.76
612.49	1751.00
612.83	1748.24
613.18	1745.98
613.53	1742.93
613.88	1738.64
614.22	1734.93
614.57	1730.98
614.92	1727.90
615.27	1723.95
615.61	1719.55
615.96	1716.38
616.31	1713.55
616.65	1711.17
617.00	1709.12
617.35	1707.81
617.70	1703.95
618.04	1699.67
618.39	1695.71
618.74	1692.93
619.08	1689.74
619.43	1686.81
619.78	1685.45
620.12	1681.52
620.47	1678.76
620.82	1674.38
621.16	1670.67
621.51	1667.67
621.85	1664.10
622.20	1659.17
622.55	1654.93
622.89	1652.48
623.24	1650.24
623.59	1646.55
623.93	1642.33
624.28	1637.26
624.62	1634.62
624.97	1631.40
625.32	1628.33
625.66	1624.67
626.01	1620.43
626.35	1617.69
626.70	1613.60
627.04	1609.81
627.39	1606.24
627.73	1602.90
628.08	1600.10
628.43	1596.57
628.77	1592.33
629.12	1589.57
629.46	1586.38
629.81	1582.60
630.15	1577.81
630.50	1572.21
630.84	1567.74
631.19	1563.86
631.53	1559.05
631.88	1551.90
632.22	1546.60
632.57	1543.38
632.91	1538.21
633.26	1533.64
633.60	1527.74
633.95	1522.21
634.29	1516.64
634.64	1512.38
634.98	1506.90
635.32	1502.88
635.67	1499.83
636.01	1495.69
636.36	1490.29
636.70	1486.69
637.05	1482.19
637.39	1477.43
637.73	1472.93
638.08	1468.26
638.42	1462.17
638.77	1458.36
639.11	1453.93
639.45	1449.43
639.80	1442.67
640.14	1437.57
640.49	1432.74
640.83	1428.36
641.17	1424.19
641.52	1419.36
641.86	1414.29
642.20	1410.38
642.55	1403.95
642.89	1398.21
643.23	1392.36
643.58	1388.38
643.92	1381.74
644.26	1376.07
644.61	1371.57
644.95	1366.24
645.29	1361.19
645.64	1356.52
645.98	1350.86
646.32	1346.55
646.66	1340.67
647.01	1335.26
647.35	1330.81
647.69	1325.12
648.04	1319.69
648.38	1313.29
648.72	1307.29
649.06	1301.45
649.41	1294.14
649.75	1288.12
650.09	1282.10
650.43	1275.83
650.78	1268.88
651.12	1263.17
651.46	1257.69
651.80	1250.88
652.14	1244.90
652.49	1239.17
652.83	1233.19
653.17	1226.52
653.51	1219.00
653.85	1213.55
654.20	1207.76
654.54	1200.26
654.88	1193.93
655.22	1188.21
655.56	1182.07
655.90	1175.50
656.25	1168.95
656.59	1162.67
656.93	1156.67
657.27	1151.24
657.61	1145.14
657.95	1140.33
658.29	1134.50
658.64	1128.14
658.98	1122.07
659.32	1115.29
659.66	1107.83
660.00	1100.79
660.34	1094.98
660.68	1089.36
661.02	1082.50
661.36	1076.02
661.70	1070.50
662.05	1064.88
662.39	1058.31
662.73	1052.64
663.07	1048.40
663.41	1042.31
663.75	1036.67
664.09	1031.52
664.43	1025.24
664.77	1019.29
665.11	1011.79
665.45	1005.67
665.79	1000.07
666.13	993.79
666.47	988.29
666.81	983.76
667.15	978.81
667.49	973.79
667.83	968.79
668.17	963.67
668.51	958.52
668.85	953.19
669.19	948.79
669.53	943.14
669.87	937.60
670.21	931.67
670.55	926.55
670.89	922.07
671.23	916.79
671.57	910.95
671.91	906.07
672.25	901.38
672.58	897.07
672.92	891.14
673.26	886.40
673.60	881.29
673.94	875.88
674.28	870.62
674.62	865.31
674.96	860.26
675.30	855.31
675.64	850.50
675.97	846.12
676.31	839.74
676.65	834.31
676.99	830.74
677.33	825.19
677.67	820.17
678.01	814.17
678.34	809.19
678.68	804.14
679.02	798.86
679.36	793.33
679.70	787.55
680.04	783.31
680.37	778.14
680.71	773.24
681.05	768.67
681.39	763.62
681.73	758.67
682.06	753.45
682.40	748.52
682.74	743.76
683.08	739.33
683.42	734.07
683.75	729.45
684.09	723.45
684.43	718.86
684.77	714.19
685.10	709.81
685.44	705.12
685.78	700.21
686.12	695.83
686.45	691.24
686.79	686.76
687.13	682.24
687.46	677.62
687.80	673.55
688.14	668.81
688.48	665.10
688.81	660.60
689.15	656.12
689.49	651.43
689.82	646.45
690.16	640.69
690.50	636.71
690.83	632.40
691.17	627.62
691.51	623.07
691.84	618.79
692.18	614.40
692.52	609.71
692.85	606.07
693.19	602.57
693.52	598.76
693.86	594.60
694.20	590.67
694.53	586.76
694.87	582.29
695.21	577.95
695.54	573.05
695.88	568.76
696.21	564.45
696.55	560.69
696.88	556.60
697.22	552.81
697.56	549.26
697.89	545.38
698.23	542.31
698.56	538.57
698.90	535.12
699.23	530.93
699.57	527.64
699.90	523.40
700.24	518.76
700.58	515.00
700.91	511.76
701.25	509.55
701.58	506.95
701.92	503.95
702.25	500.60
702.59	497.83
702.92	494.79
703.26	491.86
703.59	488.79
703.93	487.90
704.26	484.76
704.60	481.64
704.93	478.45
705.26	475.07
705.60	472.24
705.93	468.60
706.27	466.60
706.60	463.57
706.94	461.62
707.27	459.02
707.61	456.36
707.94	453.40
708.27	448.95
708.61	445.19
708.94	442.38
709.28	440.07
709.61	437.17
709.94	434.33
710.28	431.57
710.61	428.45
710.95	423.90
711.28	423.07
711.61	420.64
711.95	418.64
712.28	416.26
712.61	413.86
712.95	412.31
713.28	410.62
713.61	408.55
713.95	406.10
714.28	404.12
714.61	401.71
714.95	399.55
715.28	397.14
715.61	395.12
715.95	392.81
716.28	390.19
716.61	388.10
716.95	385.81
717.28	383.48
717.61	381.48
717.94	379.40
718.28	375.76
718.61	373.26
718.94	370.69
719.27	368.45
719.61	366.45
719.94	364.24
720.27	361.10
720.60	358.67
720.94	356.62
721.27	354.93
721.60	353.57
721.93	351.74
722.27	350.71
722.60	349.05
722.93	347.26
723.26	346.05
723.59	344.31
723.93	343.26
724.26	342.02
724.59	340.52
724.92	339.00
725.25	338.02
725.59	336.64
725.92	335.52
726.25	334.02
726.58	332.62
726.91	331.21
727.24	330.14
727.57	328.76
727.91	327.17
728.24	325.86
728.57	324.17
728.90	322.93
729.23	321.24
729.56	320.95
729.89	319.55
730.22	317.98
730.55	316.52
730.89	315.02
731.22	313.88
731.55	312.69
731.88	311.62
732.21	310.45
732.54	309.43
732.87	308.38
733.20	307.62
733.53	306.88
733.86	305.95
734.19	304.86
734.52	304.24
734.85	304.62
735.18	303.10
735.51	302.98
735.84	302.38
736.17	301.64
736.50	299.76
736.83	301.12
737.16	299.98
737.49	299.31
737.82	298.21
738.15	297.38
738.48	296.50
738.81	295.69
739.14	294.38
739.47	293.36
739.80	292.43
740.13	291.60
740.46	290.21
740.79	289.14
741.12	288.07
741.45	286.86
741.78	285.10
742.11	284.98
742.44	283.45
742.77	282.67
743.10	281.69
743.43	280.74
743.75	277.90
744.08	279.90
744.41	278.95
744.74	278.24
745.07	276.95
745.40	276.55
745.73	276.50
746.06	275.90
746.39	275.67
746.71	274.76
747.04	273.60
747.37	272.67
747.70	271.95
748.03	271.24
748.36	270.98
748.68	270.36
749.01	269.05
749.34	268.29
749.67	267.69
750.00	267.43
750.33	268.36
750.65	267.88
750.98	264.83
751.31	264.29
751.64	263.93
751.97	264.64
752.29	263.88
752.62	262.29
752.95	261.71
753.28	260.83
753.60	259.98
753.93	260.21
754.26	259.88
754.59	258.95
754.91	258.05
755.24	257.29
755.57	256.45
755.90	255.71
756.22	255.26
756.55	254.36
756.88	253.07
757.20	251.07
757.53	250.19
757.86	249.48
758.19	249.05
758.51	248.38
758.84	246.86
759.17	246.24
759.49	246.10
759.82	246.29
760.15	245.88
760.47	245.48
760.80	244.55
761.13	244.50
761.45	244.12
761.78	243.93
762.11	243.38
762.43	243.02
762.76	242.79
763.08	242.74
763.41	242.31
763.74	242.10
764.06	241.79
764.39	241.48
764.71	241.40
765.04	240.93
765.37	240.33
765.69	240.00
766.02	239.71
766.34	239.29
766.67	238.24
767.00	238.33
767.32	239.07
767.65	239.86
767.97	239.55
768.30	239.48
768.62	239.19
768.95	238.64
769.27	238.14
769.60	238.29
769.92	237.43
770.25	236.88
770.57	236.45
770.90	235.90
771.22	235.29
771.55	235.14
771.87	235.02
772.20	234.83
772.52	236.26
772.85	238.43
773.17	238.29
773.50	238.36
773.82	237.74
774.15	236.71
774.47	235.43
774.80	234.83
775.12	234.36
775.45	234.24
775.77	234.14
776.09	234.12
776.42	233.76
776.74	234.26
777.07	234.19
777.39	234.05
777.72	234.02
778.04	234.36
778.36	233.76
778.69	233.57
779.01	233.64
779.33	231.60
779.66	229.05
779.98	228.64
780.31	228.05
780.63	228.50
780.95	228.76
781.28	228.67
781.60	228.43
781.92	228.31
782.25	228.07
782.57	227.95
782.89	227.71
783.22	227.48
783.54	227.00
783.86	226.93
784.19	226.69
784.51	227.02
784.83	226.40
785.16	226.33
785.48	226.26
785.80	226.00
786.12	226.12
786.45	225.86
786.77	225.88
787.09	225.98
787.42	225.14
787.74	224.95
788.06	224.71
788.38	224.52
788.71	224.10
789.03	224.10
789.35	224.19
789.67	223.62
789.99	223.48
790.32	222.95
790.64	223.21
790.96	224.88
791.28	224.00
791.61	223.67
791.93	223.79
792.25	223.64
792.57	225.00
792.89	224.19
793.21	224.31
793.54	224.10
793.86	223.95
794.18	224.12
794.50	223.52
794.82	223.60
795.14	223.86
795.47	224.52
795.79	224.40
796.11	224.05
796.43	224.05
796.75	224.14
797.07	224.36
797.39	223.90
797.71	222.45
798.04	222.71
798.36	222.93
798.68	222.71
799.00	222.67
799.32	221.33
799.64	222.14
799.96	221.95
800.28	222.10
800.60	221.74
800.92	221.64
801.24	221.71
801.56	221.55
801.89	221.43
802.21	221.19
802.53	221.00
802.85	221.45
803.17	222.24
803.49	221.74
803.81	221.43
804.13	221.29
804.45	220.86
804.77	220.79
805.09	220.71
805.41	220.29
805.73	219.67
806.05	219.19
806.37	218.74
806.69	218.74
807.01	218.67
807.33	218.71
807.65	218.17
807.97	218.88
808.28	218.74
808.60	218.52
808.92	218.40
809.24	219.52
809.56	219.02
809.88	218.26
810.20	218.48
810.52	218.83
810.84	218.55
811.16	218.40
811.48	218.10
811.80	218.74
812.12	218.64
812.43	219.14
812.75	219.57
813.07	219.33
813.39	219.17
813.71	218.62
814.03	218.52
814.35	218.67
814.67	217.86
814.98	217.69
815.30	217.60
815.62	217.10
815.94	215.67
816.26	215.83
816.58	215.52
816.89	215.40
817.21	214.95
817.53	215.21
817.85	215.26
818.17	215.52
818.48	214.64
818.80	215.19
819.12	214.79
819.44	214.43
819.76	214.29
820.07	214.31
820.39	214.50
820.71	214.69
821.03	214.71
821.34	214.57
821.66	214.95
821.98	215.21
822.30	215.29
822.61	216.60
822.93	216.31
823.25	216.31
823.57	216.33
823.88	216.74
824.20	216.74
824.52	217.00
824.83	216.71
825.15	216.71
825.47	216.83
825.79	217.07
826.10	216.90
826.42	216.95
826.74	217.40
827.05	217.17
827.37	217.02
827.69	216.55
828.00	216.62
828.32	216.17
828.64	215.81
828.95	216.71
829.27	215.98
829.58	215.71
829.90	216.14
830.22	216.12
830.53	215.71
830.85	215.50
831.17	215.12
831.48	215.10
831.80	215.17
832.11	214.83
832.43	214.64
832.75	214.48
833.06	215.71
833.38	214.86
833.69	214.93
834.01	215.14
834.32	215.24
834.64	214.90
834.96	215.14
835.27	215.00
835.59	214.45
835.90	214.17
836.22	214.38
836.53	213.90
836.85	213.74
837.16	215.71
837.48	215.74
837.79	216.43
838.11	216.45
838.42	216.36
838.74	216.60
839.05	216.36
839.37	216.40
839.68	215.24
840.00	215.14
840.31	215.48
840.63	215.31
840.94	215.29
841.26	215.21
841.57	215.33
841.88	215.88
842.20	215.50
842.51	215.36
842.83	215.45
843.14	217.40
843.46	217.43
843.77	216.17
844.08	216.02
844.40	215.17
844.71	215.26
845.03	215.24
845.34	215.02
845.65	215.12
845.97	215.17
846.28	215.21
846.60	215.50
846.91	215.05
847.22	214.90
847.54	215.43
847.85	215.64
848.16	215.40
848.48	214.81
848.79	215.95
849.10	216.10
849.42	216.07
849.73	214.07
850.04	214.00
850.36	213.26
850.67	213.67
850.98	213.81
851.30	213.88
851.61	213.64
851.92	213.67
852.23	214.05
852.55	214.10
852.86	214.00
853.17	214.14
853.49	214.86
853.80	215.48
854.11	215.36
854.42	215.55
854.74	215.36
855.05	215.40
855.36	214.02
855.67	214.10
855.99	214.17
856.30	216.79
856.61	216.62
856.92	216.69
857.23	216.43
857.55	216.24
857.86	216.17
858.17	216.74
858.48	216.29
858.79	216.10
859.11	216.31
859.42	216.31
859.73	215.93
860.04	215.74
860.35	214.93
860.66	214.36
860.98	214.36
861.29	214.33
861.60	214.33
861.91	214.88
862.22	214.71
862.53	214.36
862.84	211.71
863.16	212.21
863.47	211.90
863.78	211.76
864.09	211.93
864.40	212.00
864.71	211.93
865.02	212.33
865.33	212.02
865.64	211.74
865.95	211.57
866.27	212.98
866.58	212.62
866.89	212.81
867.20	212.86
867.51	212.36
867.82	212.29
868.13	212.62
868.44	212.24
868.75	212.48
869.06	212.76
869.37	212.88
869.68	212.24
869.99	212.76
870.30	213.00
870.61	213.31
870.92	213.05
871.23	212.79
871.54	213.02
871.85	213.43
872.16	213.64
872.47	213.76
872.78	212.67
873.09	212.93
873.40	212.86
873.71	213.02
874.02	213.14
874.33	213.07
874.64	212.67
874.95	212.76
875.26	212.24
875.56	212.00
875.87	211.95
876.18	211.95
876.49	213.40
876.80	213.02
877.11	212.40
877.42	212.29
877.73	212.48
878.04	212.05
878.35	212.29
878.66	212.19
878.96	211.98
879.27	211.69
879.58	211.64
879.89	211.48
880.20	211.95
880.51	211.98
880.82	212.12
881.12	212.21
881.43	211.86
881.74	211.81
882.05	211.79
882.36	212.05
882.67	212.33
882.97	210.50
883.28	210.62
883.59	210.67
883.90	211.05
884.21	211.19
884.51	211.12
884.82	210.67
885.13	210.64
885.44	210.67
885.74	210.86
886.05	210.64
886.36	210.57
886.67	209.88
886.98	210.88
887.28	210.98
887.59	211.26
887.90	211.74
888.20	211.48
888.51	211.86
888.82	211.33
889.13	211.29
889.43	213.24
889.74	213.02
890.05	213.10
890.35	212.86
890.66	212.45
890.97	212.29
891.28	212.19
891.58	212.36
891.89	212.26
892.20	211.86
892.50	211.50
892.81	211.57
893.12	211.69
893.42	210.90
893.73	211.02
894.04	210.76
894.34	210.76
894.65	210.95
894.95	210.67
895.26	211.07
895.57	212.02
895.87	209.90
896.18	210.33
896.48	210.50
896.79	210.38
897.10	210.81
897.40	211.10
897.71	211.33
898.01	211.02
898.32	211.29
898.63	211.43
898.93	211.88
899.24	212.14
899.54	212.17
899.85	212.10
900.15	212.02
900.46	211.93
900.76	212.05
901.07	212.17
901.38	212.10
901.68	212.31
901.99	211.48
902.29	211.71
902.60	211.45
902.90	211.24
903.21	211.17
903.51	211.29
903.82	211.60
904.12	211.67
904.43	211.93
904.73	212.00
905.03	212.24
905.34	214.17
905.64	213.86
905.95	213.83
906.25	213.52
906.56	213.33
906.86	213.69
907.17	213.55
907.47	213.52
907.77	213.40
908.08	212.95
908.38	212.83
908.69	212.81
908.99	213.36
909.30	213.60
909.60	213.76
909.90	213.60
910.21	213.05
910.51	212.50
910.81	212.52
911.12	212.57
911.42	212.38
911.73	210.19
912.03	210.36
912.33	210.69
912.64	210.90
912.94	210.76
913.24	210.55
913.55	210.12
913.85	209.93
914.15	210.38
914.46	210.62
914.76	210.57
915.06	210.45
915.37	209.98
915.67	209.52
915.97	209.60
916.27	208.90
916.58	209.12
916.88	209.24
917.18	208.81
917.49	210.26
917.79	210.17
918.09	210.52
918.39	211.10
918.70	211.05
919.00	211.10
919.30	212.00
919.60	211.67
919.91	211.88
920.21	212.05
920.51	211.64
920.81	211.50
921.12	211.95
921.42	212.26
921.72	212.48
922.02	213.02
922.32	213.31
922.63	214.00
922.93	214.86
923.23	215.17
923.53	215.21
923.83	213.69
924.13	214.05
924.44	213.83
924.74	214.21
925.04	214.50
925.34	214.43
925.64	213.74
925.94	213.95
926.24	215.26
926.55	215.19
926.85	215.57
927.15	215.50
927.45	215.31
927.75	215.14
928.05	215.14
928.35	214.71
928.65	215.00
928.95	214.86
929.26	214.12
929.56	214.71
929.86	214.95
930.16	214.93
930.46	214.90
930.76	215.14
931.06	213.93
931.36	213.48
931.66	213.98
931.96	214.17
932.26	214.12
932.56	212.81
932.86	213.12
933.16	213.12
933.46	212.86
933.76	212.60
934.06	212.83
934.36	213.50
934.66	213.52
934.96	213.17
935.26	213.52
935.56	213.98
935.86	213.21
936.16	212.98
936.46	212.57
936.76	212.14
937.06	211.74
937.36	212.10
937.66	212.26
937.96	211.95
938.26	211.52
938.56	211.52
938.86	211.79
939.16	212.19
939.46	212.29
939.76	212.55
940.06	212.71
940.35	212.14
940.65	210.90
940.95	211.10
941.25	210.60
941.55	210.21
941.85	210.02
942.15	210.40
942.45	211.12
942.75	211.19
943.04	211.48
943.34	212.00
943.64	211.83
943.94	211.38
944.24	211.40
944.54	211.43
944.84	211.36
945.13	211.14
945.43	210.64
945.73	210.36
946.03	210.29
946.33	210.05
946.62	210.24
946.92	210.29
947.22	210.26
947.52	210.62
947.82	210.74
948.11	210.19
948.41	209.57
948.71	208.95
949.01	209.31
949.31	208.95
949.60	208.79
949.90	208.90
950.20	208.95
950.50	208.95
950.79	209.10
951.09	209.40
951.39	209.14
951.69	208.88
951.98	209.31
952.28	209.36
952.58	209.38
952.87	209.43
953.17	209.88
953.47	209.74
953.76	209.67
954.06	209.24
954.36	209.00
954.66	209.14
954.95	209.76
955.25	209.74
955.55	210.19
955.84	209.98
956.14	210.31
956.44	210.45
956.73	210.31
957.03	210.31
957.32	209.95
957.62	210.19
957.92	210.50
958.21	210.21
958.51	212.79
958.81	213.12
959.10	213.64
959.40	213.93
959.69	214.07
959.99	214.26
960.29	214.52
960.58	214.83
960.88	215.52
961.17	215.40
961.47	215.62
961.76	215.31
962.06	215.81
962.36	215.40
962.65	215.38
962.95	215.33
963.24	215.26
963.54	215.69
963.83	215.83
964.13	215.86
964.42	215.40
964.72	213.40
965.01	213.38
965.31	213.05
965.60	212.83
965.90	214.14
966.19	213.67
966.49	213.79
966.78	213.71
967.08	213.71
967.37	213.50
967.67	213.00
967.96	213.33
968.26	213.07
968.55	213.43
968.85	213.45
969.14	213.40
969.43	213.43
969.73	213.21
970.02	212.98
970.32	212.90
970.61	212.83
970.91	212.33
971.20	211.98
971.49	211.69
971.79	211.93
972.08	210.40
972.38	210.74
972.67	210.60
972.96	210.95
973.26	210.38
973.55	211.05
973.85	211.12
974.14	210.83
974.43	210.86
974.73	210.52
975.02	210.38
975.31	210.40
975.61	210.52
975.90	210.33
976.19	210.24
976.49	210.38
976.78	210.57
977.07	210.64
977.37	210.90
977.66	211.07
977.95	210.62
978.24	210.76
978.54	211.33
978.83	211.17
979.12	210.95
979.42	210.79
979.71	210.24
980.00	210.24
980.29	210.64
980.59	210.38
980.88	211.05
981.17	210.88
981.46	211.10
981.76	210.93
982.05	211.60
982.34	211.86
982.63	211.93
982.93	212.10
983.22	212.67
983.51	212.71
983.80	213.21
984.09	213.79
984.39	213.83
984.68	213.36
984.97	213.50
985.26	213.40
985.55	213.67
985.85	213.26
986.14	213.52
986.43	213.74
986.72	213.55
987.01	212.90
987.30	213.26
987.59	213.00
987.89	213.10
988.18	212.55
988.47	212.21
988.76	211.95
989.05	211.67
989.34	211.33
989.63	211.64
989.92	211.14
990.22	210.64
990.51	210.62
990.80	210.69
991.09	210.90
991.38	211.14
991.67	210.98
991.96	210.98
992.25	211.05
992.54	210.64
992.83	210.71
993.12	210.60
993.41	210.76
993.70	211.64
993.99	212.14
994.28	212.33
994.58	213.00
994.87	212.93
995.16	213.02
995.45	212.79
995.74	212.24
996.03	212.71
996.32	212.93
996.61	213.36
996.90	213.24
997.19	213.05
997.48	213.00
997.77	212.86
998.06	213.07
998.34	212.95
998.63	212.71
998.92	212.76
999.21	213.02
999.50	212.83
999.79	212.00
1000.08	211.86
1000.37	211.83
1000.66	211.10
1000.95	211.50
1001.24	211.52
1001.53	212.00
1001.82	211.69
1002.11	211.14
1002.40	211.38
1002.68	211.81
1002.97	213.14
1003.26	212.83
1003.55	212.52
1003.84	212.88
1004.13	213.40
1004.42	213.38
1004.71	213.50
1004.99	213.52
1005.28	214.05
1005.57	214.17
1005.86	214.12
1006.15	213.74
1006.44	213.57
1006.72	213.98
1007.01	213.48
1007.30	213.38
1007.59	212.98
1007.88	213.12
1008.17	213.10
1008.45	212.62
1008.74	211.45
1009.03	210.36
1009.32	210.36
1009.60	210.29
1009.89	209.95
1010.18	208.83
1010.47	208.60
1010.76	208.52
1011.04	208.40
1011.33	208.29
1011.62	208.43
1011.91	208.64
1012.19	208.83
1012.48	208.83
1012.77	208.76
1013.05	209.86
1013.34	209.86
1013.63	209.64
1013.92	209.81
1014.20	209.60
1014.49	209.62
1014.78	209.93
1015.06	209.17
1015.35	209.10
1015.64	209.43
1015.92	209.74
1016.21	210.31
1016.50	210.36
1016.78	210.67
1017.07	210.88
1017.36	210.52
1017.64	210.17
1017.93	210.24
1018.22	210.05
1018.50	210.10
1018.79	210.17
1019.08	209.10
1019.36	209.26
1019.65	209.10
1019.93	209.71
1020.22	210.19
1020.51	211.26
1020.79	211.21
1021.08	208.00
1021.36	209.50
1021.65	211.50
1021.94	207.50
1022.22	209.50
1022.51	204.50
1022.79	222.00
1023.08	213.50
1023.36	234.00
1023.65	207.00
>>>>>End Processed Spectral Data<<<<<
