SpectraSuite Data File
++++++++++++++++++++++++++++++++++++
Date: Tue Apr 02 18:40:20 EDT 2013
User: group
Dark Spectrum Present: No
Reference Spectrum Present: No
Number of Sampled Component Spectra: 1
Spectrometers: USB2E7196
Integration Time (usec): 580000 (USB2E7196)
Spectra Averaged: 2 (USB2E7196)
Boxcar Smoothing: 10 (USB2E7196)
Correct for Electrical Dark: No (USB2E7196)
Strobe/Lamp Enabled: No (USB2E7196)
Correct for Detector Non-linearity: No (USB2E7196)
Correct for Stray Light: No (USB2E7196)
Number of Pixels in Processed Spectrum: 2048
>>>>>Begin Processed Spectral Data<<<<<
339.09	0.00
339.48	194.50
339.86	196.00
340.24	194.50
340.63	197.50
341.01	232.50
341.39	198.50
341.78	205.50
342.16	211.00
342.54	203.50
342.93	197.36
343.31	207.17
343.69	207.74
344.07	208.26
344.46	209.12
344.84	209.81
345.22	208.64
345.60	209.21
345.99	209.60
346.37	209.43
346.75	209.69
347.13	209.67
347.52	210.00
347.90	210.88
348.28	211.05
348.66	211.48
349.05	210.60
349.43	210.69
349.81	211.17
350.19	211.02
350.57	211.21
350.96	211.55
351.34	211.95
351.72	212.10
352.10	212.10
352.48	211.90
352.87	211.83
353.25	212.05
353.63	211.95
354.01	211.93
354.39	212.40
354.77	212.64
355.15	213.45
355.54	213.31
355.92	212.62
356.30	212.79
356.68	214.17
357.06	214.31
357.44	214.36
357.82	214.26
358.20	215.31
358.58	215.19
358.97	215.26
359.35	215.76
359.73	216.26
360.11	216.40
360.49	216.40
360.87	216.36
361.25	216.67
361.63	217.48
362.01	217.52
362.39	217.36
362.77	217.43
363.15	217.02
363.53	216.79
363.91	216.98
364.29	216.74
364.67	214.81
365.05	214.93
365.43	214.93
365.81	215.26
366.19	215.29
366.57	216.29
366.95	216.07
367.33	215.36
367.71	215.21
368.09	215.79
368.47	215.95
368.85	215.86
369.23	216.14
369.61	215.21
369.99	216.10
370.37	216.10
370.75	217.10
371.13	216.76
371.51	216.71
371.89	216.90
372.27	217.19
372.65	217.26
373.03	217.40
373.41	217.48
373.78	217.31
374.16	216.38
374.54	215.76
374.92	215.81
375.30	216.07
375.68	215.62
376.06	215.43
376.44	215.38
376.82	215.88
377.19	215.57
377.57	215.76
377.95	214.86
378.33	214.83
378.71	213.52
379.09	213.95
379.47	214.26
379.84	214.05
380.22	213.81
380.60	213.40
380.98	213.10
381.36	212.98
381.73	212.67
382.11	213.05
382.49	212.95
382.87	212.57
383.25	212.24
383.62	214.62
384.00	214.36
384.38	214.33
384.76	214.33
385.13	215.21
385.51	215.21
385.89	215.12
386.27	215.38
386.64	215.74
387.02	215.19
387.40	214.79
387.78	215.12
388.15	215.14
388.53	215.26
388.91	215.50
389.29	215.26
389.66	215.69
390.04	215.38
390.42	215.93
390.79	216.29
391.17	216.40
391.55	214.36
391.92	214.38
392.30	214.69
392.68	214.55
393.05	214.14
393.43	214.05
393.81	214.31
394.18	213.98
394.56	213.88
394.94	214.52
395.31	214.62
395.69	215.24
396.06	215.57
396.44	215.71
396.82	215.48
397.19	216.60
397.57	216.14
397.95	216.60
398.32	215.90
398.70	215.88
399.07	216.43
399.45	216.33
399.82	216.26
400.20	215.90
400.58	215.52
400.95	215.07
401.33	215.76
401.70	217.12
402.08	217.17
402.45	217.21
402.83	217.76
403.20	217.88
403.58	217.69
403.95	218.21
404.33	218.83
404.71	219.21
405.08	220.26
405.46	220.60
405.83	220.67
406.21	220.88
406.58	221.60
406.96	221.79
407.33	222.48
407.70	223.43
408.08	225.90
408.45	227.00
408.83	227.76
409.20	228.07
409.58	227.48
409.95	228.88
410.33	230.02
410.70	230.31
411.08	231.83
411.45	232.83
411.82	233.81
412.20	235.24
412.57	237.93
412.95	237.74
413.32	239.81
413.69	241.67
414.07	243.79
414.44	245.50
414.82	247.81
415.19	250.31
415.56	252.57
415.94	253.76
416.31	257.05
416.68	259.83
417.06	263.40
417.43	267.17
417.81	270.90
418.18	274.98
418.55	279.17
418.93	283.24
419.30	287.79
419.67	292.31
420.04	297.05
420.42	301.55
420.79	309.21
421.16	315.05
421.54	321.93
421.91	328.71
422.28	335.52
422.66	342.45
423.03	350.48
423.40	357.69
423.77	365.33
424.15	372.64
424.52	381.10
424.89	390.26
425.26	398.38
425.64	406.26
426.01	414.81
426.38	424.21
426.75	434.60
427.13	444.31
427.50	454.86
427.87	465.52
428.24	476.17
428.61	484.55
428.99	496.95
429.36	508.36
429.73	519.88
430.10	531.81
430.47	544.33
430.85	555.64
431.22	568.98
431.59	584.55
431.96	598.00
432.33	612.40
432.70	626.60
433.08	644.05
433.45	660.29
433.82	677.02
434.19	695.05
434.56	712.86
434.93	729.79
435.30	746.86
435.68	765.71
436.05	784.64
436.42	803.93
436.79	820.48
437.16	839.00
437.53	857.71
437.90	876.43
438.27	895.76
438.64	915.36
439.01	933.55
439.38	948.36
439.75	963.62
440.13	982.07
440.50	999.36
440.87	1012.67
441.24	1026.67
441.61	1042.07
441.98	1053.29
442.35	1066.07
442.72	1080.55
443.09	1094.26
443.46	1102.57
443.83	1107.81
444.20	1112.00
444.57	1118.29
444.94	1121.33
445.31	1125.57
445.68	1131.95
446.05	1132.67
446.42	1131.33
446.79	1130.05
447.16	1127.98
447.53	1127.71
447.90	1120.98
448.27	1113.64
448.64	1104.67
449.01	1098.76
449.37	1086.52
449.74	1075.00
450.11	1062.29
450.48	1046.31
450.85	1029.48
451.22	1015.93
451.59	1002.76
451.96	990.71
452.33	974.26
452.70	959.64
453.07	941.14
453.43	920.05
453.80	902.45
454.17	885.55
454.54	869.26
454.91	852.00
455.28	835.19
455.65	819.40
456.02	807.05
456.38	793.55
456.75	776.40
457.12	762.00
457.49	748.17
457.86	733.36
458.23	722.00
458.59	709.64
458.96	696.48
459.33	684.81
459.70	673.64
460.07	664.76
460.43	654.29
460.80	645.76
461.17	638.29
461.54	630.05
461.91	621.26
462.27	612.52
462.64	605.38
463.01	596.95
463.38	590.02
463.74	578.81
464.11	571.57
464.48	565.38
464.85	559.07
465.21	554.83
465.58	549.43
465.95	542.26
466.32	537.36
466.68	531.79
467.05	526.79
467.42	521.33
467.78	515.52
468.15	510.33
468.52	506.07
468.88	499.88
469.25	494.26
469.62	490.90
469.98	486.90
470.35	482.69
470.72	479.10
471.08	473.88
471.45	471.00
471.82	467.95
472.18	464.07
472.55	461.38
472.92	457.38
473.28	454.31
473.65	451.45
474.02	448.52
474.38	446.43
474.75	444.45
475.11	441.83
475.48	440.05
475.85	438.26
476.21	435.81
476.58	434.79
476.94	434.00
477.31	432.76
477.67	431.21
478.04	430.50
478.41	429.64
478.77	431.29
479.14	430.17
479.50	429.90
479.87	430.00
480.23	429.95
480.60	429.05
480.96	429.17
481.33	430.33
481.69	430.31
482.06	430.71
482.42	430.95
482.79	431.69
483.15	432.31
483.52	433.07
483.88	434.21
484.25	434.45
484.61	435.40
484.98	435.71
485.34	437.50
485.71	438.76
486.07	439.93
486.44	439.71
486.80	441.14
487.17	442.26
487.53	444.48
487.90	446.57
488.26	450.31
488.62	452.95
488.99	454.81
489.35	457.38
489.72	459.83
490.08	462.71
490.44	465.52
490.81	469.19
491.17	472.24
491.54	475.43
491.90	479.76
492.26	483.26
492.63	487.45
492.99	491.17
493.36	495.45
493.72	500.26
494.08	504.69
494.45	509.71
494.81	514.90
495.17	519.69
495.54	525.17
495.90	529.76
496.26	535.19
496.63	540.95
496.99	546.81
497.35	552.95
497.72	559.14
498.08	565.33
498.44	571.40
498.80	578.21
499.17	585.14
499.53	592.12
499.89	599.50
500.26	606.43
500.62	613.90
500.98	621.90
501.34	629.90
501.71	638.67
502.07	646.07
502.43	653.57
502.79	660.93
503.16	668.31
503.52	676.21
503.88	683.24
504.24	691.31
504.60	699.88
504.97	708.69
505.33	716.64
505.69	726.86
506.05	735.05
506.41	742.81
506.78	750.95
507.14	758.71
507.50	767.21
507.86	776.38
508.22	784.52
508.59	792.55
508.95	800.71
509.31	809.26
509.67	817.76
510.03	826.48
510.39	835.48
510.75	843.79
511.12	852.52
511.48	861.38
511.84	869.64
512.20	877.26
512.56	885.10
512.92	894.19
513.28	900.71
513.64	908.81
514.00	917.67
514.37	926.55
514.73	935.38
515.09	943.45
515.45	951.21
515.81	959.12
516.17	966.95
516.53	973.86
516.89	980.31
517.25	988.07
517.61	995.81
517.97	1002.33
518.33	1009.67
518.69	1017.52
519.05	1025.00
519.41	1032.07
519.77	1040.14
520.13	1046.98
520.49	1052.29
520.85	1059.93
521.21	1067.14
521.57	1074.12
521.93	1079.64
522.29	1086.55
522.65	1092.90
523.01	1099.38
523.37	1105.38
523.73	1111.02
524.09	1117.55
524.45	1123.38
524.81	1129.10
525.17	1135.24
525.53	1141.33
525.89	1147.19
526.25	1152.24
526.61	1157.26
526.97	1162.02
527.33	1167.00
527.68	1174.50
528.04	1181.07
528.40	1185.81
528.76	1190.76
529.12	1195.74
529.48	1201.98
529.84	1206.14
530.20	1211.45
530.56	1216.12
530.91	1221.10
531.27	1226.36
531.63	1231.36
531.99	1236.64
532.35	1241.40
532.71	1245.17
533.07	1250.79
533.42	1257.52
533.78	1262.31
534.14	1267.93
534.50	1272.98
534.86	1278.36
535.21	1281.40
535.57	1286.43
535.93	1290.74
536.29	1296.17
536.65	1301.12
537.00	1305.26
537.36	1310.52
537.72	1314.02
538.08	1318.79
538.44	1323.05
538.79	1327.88
539.15	1331.67
539.51	1336.10
539.87	1339.93
540.22	1345.17
540.58	1348.90
540.94	1351.69
541.29	1354.74
541.65	1357.90
542.01	1362.74
542.37	1366.40
542.72	1370.05
543.08	1372.90
543.44	1376.43
543.79	1379.12
544.15	1382.76
544.51	1386.50
544.87	1389.24
545.22	1393.50
545.58	1397.14
545.94	1401.19
546.29	1404.62
546.65	1408.52
547.01	1411.40
547.36	1415.57
547.72	1418.79
548.07	1422.90
548.43	1426.21
548.79	1430.00
549.14	1434.00
549.50	1437.64
549.86	1440.19
550.21	1443.52
550.57	1447.86
550.92	1451.19
551.28	1454.45
551.64	1457.79
551.99	1460.88
552.35	1464.67
552.70	1468.21
553.06	1471.38
553.41	1475.26
553.77	1480.52
554.13	1484.12
554.48	1489.64
554.84	1495.52
555.19	1499.83
555.55	1505.50
555.90	1509.95
556.26	1515.17
556.61	1519.29
556.97	1523.12
557.32	1528.21
557.68	1532.86
558.03	1536.55
558.39	1541.10
558.74	1545.29
559.10	1549.45
559.45	1554.29
559.81	1558.86
560.16	1562.52
560.52	1567.43
560.87	1572.02
561.23	1574.95
561.58	1581.24
561.94	1585.05
562.29	1588.55
562.64	1593.36
563.00	1596.86
563.35	1601.31
563.71	1606.19
564.06	1610.93
564.42	1615.86
564.77	1620.69
565.12	1626.33
565.48	1632.98
565.83	1639.43
566.19	1645.64
566.54	1651.26
566.89	1656.55
567.25	1662.74
567.60	1669.50
567.96	1676.45
568.31	1681.98
568.66	1688.33
569.02	1691.95
569.37	1695.93
569.72	1700.60
570.08	1704.98
570.43	1709.52
570.78	1714.33
571.14	1719.57
571.49	1724.93
571.84	1730.17
572.20	1734.62
572.55	1737.79
572.90	1740.31
573.26	1743.38
573.61	1746.86
573.96	1751.02
574.31	1754.98
574.67	1757.74
575.02	1760.83
575.37	1762.17
575.72	1764.81
576.08	1767.52
576.43	1770.64
576.78	1773.36
577.13	1775.83
577.49	1778.79
577.84	1781.21
578.19	1784.26
578.54	1785.31
578.90	1786.36
579.25	1787.57
579.60	1789.31
579.95	1791.83
580.30	1794.64
580.66	1797.12
581.01	1800.00
581.36	1801.31
581.71	1802.17
582.06	1804.76
582.42	1806.40
582.77	1807.81
583.12	1809.14
583.47	1810.12
583.82	1811.55
584.17	1813.48
584.53	1815.36
584.88	1816.60
585.23	1818.43
585.58	1818.86
585.93	1819.83
586.28	1821.60
586.63	1823.02
586.98	1823.31
587.34	1824.76
587.69	1825.07
588.04	1825.19
588.39	1824.90
588.74	1823.81
589.09	1824.76
589.44	1823.33
589.79	1823.31
590.14	1824.00
590.49	1824.26
590.84	1823.83
591.19	1823.74
591.54	1824.21
591.89	1823.17
592.25	1823.33
592.60	1821.60
592.95	1820.90
593.30	1821.50
593.65	1820.31
594.00	1818.71
594.35	1824.02
594.70	1821.19
595.05	1820.36
595.40	1819.81
595.75	1817.95
596.10	1818.33
596.45	1817.17
596.80	1816.33
597.15	1815.17
597.50	1812.95
597.85	1811.69
598.19	1809.52
598.54	1807.17
598.89	1804.10
599.24	1802.98
599.59	1800.45
599.94	1798.05
600.29	1795.76
600.64	1793.43
600.99	1792.52
601.34	1791.81
601.69	1784.31
602.04	1783.24
602.39	1780.14
602.74	1778.19
603.08	1776.38
603.43	1774.12
603.78	1771.14
604.13	1769.36
604.48	1766.52
604.83	1764.48
605.18	1762.02
605.53	1759.98
605.87	1757.95
606.22	1755.83
606.57	1752.26
606.92	1749.21
607.27	1747.33
607.62	1745.45
607.96	1741.90
608.31	1739.00
608.66	1735.93
609.01	1731.81
609.36	1728.79
609.70	1725.79
610.05	1721.31
610.40	1717.21
610.75	1713.43
611.10	1709.69
611.44	1704.64
611.79	1700.38
612.14	1696.26
612.49	1690.69
612.83	1685.38
613.18	1681.05
613.53	1676.60
613.88	1671.55
614.22	1666.90
614.57	1661.48
614.92	1655.05
615.27	1650.52
615.61	1643.88
615.96	1637.83
616.31	1633.02
616.65	1627.71
617.00	1623.02
617.35	1617.83
617.70	1612.07
618.04	1605.95
618.39	1600.36
618.74	1595.29
619.08	1589.36
619.43	1584.43
619.78	1580.57
620.12	1576.74
620.47	1571.88
620.82	1566.31
621.16	1560.60
621.51	1555.45
621.85	1549.64
622.20	1544.62
622.55	1538.00
622.89	1532.83
623.24	1527.83
623.59	1521.79
623.93	1516.74
624.28	1511.26
624.62	1507.71
624.97	1504.43
625.32	1499.74
625.66	1494.76
626.01	1490.38
626.35	1486.24
626.70	1480.79
627.04	1475.26
627.39	1469.29
627.73	1464.07
628.08	1459.67
628.43	1455.88
628.77	1450.55
629.12	1446.48
629.46	1441.86
629.81	1437.38
630.15	1431.93
630.50	1425.74
630.84	1420.29
631.19	1413.38
631.53	1407.50
631.88	1399.43
632.22	1391.79
632.57	1385.98
632.91	1380.17
633.26	1373.86
633.60	1366.69
633.95	1360.07
634.29	1353.69
634.64	1347.67
634.98	1340.81
635.32	1334.95
635.67	1328.98
636.01	1323.10
636.36	1316.71
636.70	1311.38
637.05	1305.45
637.39	1300.21
637.73	1295.00
638.08	1289.64
638.42	1284.69
638.77	1279.60
639.11	1274.24
639.45	1269.26
639.80	1262.95
640.14	1257.10
640.49	1250.86
640.83	1245.62
641.17	1239.33
641.52	1233.45
641.86	1227.79
642.20	1222.14
642.55	1215.02
642.89	1207.83
643.23	1201.62
643.58	1195.45
643.92	1187.26
644.26	1179.93
644.61	1172.81
644.95	1165.43
645.29	1158.38
645.64	1151.57
645.98	1144.21
646.32	1137.81
646.66	1130.40
647.01	1123.60
647.35	1117.43
647.69	1110.79
648.04	1104.21
648.38	1098.64
648.72	1091.93
649.06	1084.45
649.41	1078.21
649.75	1070.74
650.09	1064.45
650.43	1057.40
650.78	1050.31
651.12	1043.69
651.46	1037.95
651.80	1031.02
652.14	1025.07
652.49	1019.36
652.83	1013.33
653.17	1006.76
653.51	999.81
653.85	993.79
654.20	987.86
654.54	980.40
654.88	973.64
655.22	967.90
655.56	960.95
655.90	954.57
656.25	949.07
656.59	942.60
656.93	937.60
657.27	932.05
657.61	925.50
657.95	919.95
658.29	914.31
658.64	908.19
658.98	902.50
659.32	895.90
659.66	890.33
660.00	884.43
660.34	878.55
660.68	872.69
661.02	867.29
661.36	861.29
661.70	856.45
662.05	850.93
662.39	844.83
662.73	840.10
663.07	835.67
663.41	829.62
663.75	823.00
664.09	816.98
664.43	810.40
664.77	805.21
665.11	799.19
665.45	794.24
665.79	788.83
666.13	783.60
666.47	778.05
666.81	772.38
667.15	766.45
667.49	761.93
667.83	757.71
668.17	752.48
668.51	747.02
668.85	741.76
669.19	737.40
669.53	731.76
669.87	725.81
670.21	719.88
670.55	714.79
670.89	711.62
671.23	706.90
671.57	702.95
671.91	698.29
672.25	693.79
672.58	689.45
672.92	684.45
673.26	679.57
673.60	675.29
673.94	670.79
674.28	666.64
674.62	661.48
674.96	656.64
675.30	651.88
675.64	647.79
675.97	643.19
676.31	638.02
676.65	633.98
676.99	631.05
677.33	626.21
677.67	622.64
678.01	616.83
678.34	612.36
678.68	608.52
679.02	604.07
679.36	599.83
679.70	595.24
680.04	591.00
680.37	587.17
680.71	583.21
681.05	579.33
681.39	575.12
681.73	571.31
682.06	566.86
682.40	562.95
682.74	559.19
683.08	556.10
683.42	552.36
683.75	548.74
684.09	543.83
684.43	539.98
684.77	535.88
685.10	532.40
685.44	528.83
685.78	524.36
686.12	520.57
686.45	516.86
686.79	513.12
687.13	510.29
687.46	506.57
687.80	503.67
688.14	500.14
688.48	496.93
688.81	493.79
689.15	491.14
689.49	487.50
689.82	484.57
690.16	480.40
690.50	477.24
690.83	473.88
691.17	470.07
691.51	467.02
691.84	463.81
692.18	461.19
692.52	458.74
692.85	456.24
693.19	454.40
693.52	451.40
693.86	448.52
694.20	445.19
694.53	442.55
694.87	439.36
695.21	435.81
695.54	432.79
695.88	428.98
696.21	425.19
696.55	422.64
696.88	419.10
697.22	416.12
697.56	413.81
697.89	410.98
698.23	409.07
698.56	406.60
698.90	404.21
699.23	401.31
699.57	398.45
699.90	395.62
700.24	392.38
700.58	389.71
700.91	387.60
701.25	387.02
701.58	385.48
701.92	383.40
702.25	381.38
702.59	379.12
702.92	377.33
703.26	375.95
703.59	373.93
703.93	373.74
704.26	372.17
704.60	370.07
704.93	368.19
705.26	365.86
705.60	364.36
705.93	361.88
706.27	360.05
706.60	358.57
706.94	357.93
707.27	356.05
707.61	354.83
707.94	352.86
708.27	349.43
708.61	346.83
708.94	345.36
709.28	344.24
709.61	342.50
709.94	341.31
710.28	339.48
710.61	338.02
710.95	334.74
711.28	334.69
711.61	333.17
711.95	332.07
712.28	330.74
712.61	329.07
712.95	329.17
713.28	328.93
713.61	326.98
713.95	324.60
714.28	323.38
714.61	321.52
714.95	320.05
715.28	318.55
715.61	317.24
715.95	315.83
716.28	314.26
716.61	313.33
716.95	311.55
717.28	310.52
717.61	308.98
717.94	307.74
718.28	304.86
718.61	303.36
718.94	301.62
719.27	300.43
719.61	299.29
719.94	297.36
720.27	295.05
720.60	293.88
720.94	292.88
721.27	291.95
721.60	291.40
721.93	290.38
722.27	290.36
722.60	289.86
722.93	288.57
723.26	287.64
723.59	286.02
723.93	285.62
724.26	284.64
724.59	283.74
724.92	283.31
725.25	282.93
725.59	282.26
725.92	281.86
726.25	281.12
726.58	280.48
726.91	279.52
727.24	279.43
727.57	278.60
727.91	277.64
728.24	276.93
728.57	275.93
728.90	275.57
729.23	274.07
729.56	274.00
729.89	273.17
730.22	272.24
730.55	271.62
730.89	270.62
731.22	269.86
731.55	269.26
731.88	268.74
732.21	267.90
732.54	267.17
732.87	266.50
733.20	265.69
733.53	265.02
733.86	264.83
734.19	263.52
734.52	263.62
734.85	264.31
735.18	263.31
735.51	263.43
735.84	263.02
736.17	262.86
736.50	261.40
736.83	263.43
737.16	263.00
737.49	262.93
737.82	262.69
738.15	262.50
738.48	261.93
738.81	261.17
739.14	260.33
739.47	259.76
739.80	259.07
740.13	258.71
740.46	257.98
740.79	256.88
741.12	256.64
741.45	255.74
741.78	254.12
742.11	254.45
742.44	253.71
742.77	253.48
743.10	252.76
743.43	252.31
743.75	249.76
744.08	252.07
744.41	251.24
744.74	250.40
745.07	249.57
745.40	249.48
745.73	249.76
746.06	249.79
746.39	249.86
746.71	249.55
747.04	249.07
747.37	248.60
747.70	248.67
748.03	248.31
748.36	248.17
748.68	248.02
749.01	247.21
749.34	246.71
749.67	246.43
750.00	246.71
750.33	247.76
750.65	247.52
750.98	244.64
751.31	244.50
751.64	244.60
751.97	245.07
752.29	244.52
752.62	243.17
752.95	242.52
753.28	241.79
753.60	241.31
753.93	241.55
754.26	241.64
754.59	240.79
754.91	240.10
755.24	239.55
755.57	239.02
755.90	238.43
756.22	237.95
756.55	237.29
756.88	236.31
757.20	234.64
757.53	233.57
757.86	233.24
758.19	233.12
758.51	232.90
758.84	231.86
759.17	231.48
759.49	231.67
759.82	232.57
760.15	232.62
760.47	232.17
760.80	231.43
761.13	231.40
761.45	231.19
761.78	231.19
762.11	231.00
762.43	230.76
762.76	230.71
763.08	230.71
763.41	230.50
763.74	230.40
764.06	230.29
764.39	230.43
764.71	230.29
765.04	229.81
765.37	229.36
765.69	229.07
766.02	228.88
766.34	228.52
766.67	227.38
767.00	227.10
767.32	228.14
767.65	229.24
767.97	228.60
768.30	228.81
768.62	228.57
768.95	228.36
769.27	228.07
769.60	228.02
769.92	227.71
770.25	226.98
770.57	226.62
770.90	226.52
771.22	226.07
771.55	226.00
771.87	225.98
772.20	225.74
772.52	227.26
772.85	229.90
773.17	229.69
773.50	229.36
773.82	229.19
774.15	228.19
774.47	226.67
774.80	226.38
775.12	225.95
775.45	226.05
775.77	225.83
776.09	226.00
776.42	225.98
776.74	226.21
777.07	226.36
777.39	226.19
777.72	225.81
778.04	226.21
778.36	225.88
778.69	226.00
779.01	225.90
779.33	224.14
779.66	221.55
779.98	221.45
780.31	221.52
780.63	222.24
780.95	222.57
781.28	222.43
781.60	222.26
781.92	222.33
782.25	222.17
782.57	222.14
782.89	221.93
783.22	221.57
783.54	221.02
783.86	221.19
784.19	221.10
784.51	221.50
784.83	220.95
785.16	221.14
785.48	221.00
785.80	221.05
786.12	221.02
786.45	220.76
786.77	220.81
787.09	220.64
787.42	219.64
787.74	219.52
788.06	219.69
788.38	219.50
788.71	219.21
789.03	219.07
789.35	219.36
789.67	218.90
789.99	219.10
790.32	218.98
790.64	219.07
790.96	220.74
791.28	220.19
791.61	220.21
791.93	219.93
792.25	219.88
792.57	221.33
792.89	221.00
793.21	221.26
793.54	221.05
793.86	220.93
794.18	221.26
794.50	220.81
794.82	220.79
795.14	221.10
795.47	221.48
795.79	221.55
796.11	221.05
796.43	220.74
796.75	220.50
797.07	220.45
797.39	220.36
797.71	218.79
798.04	218.88
798.36	219.00
798.68	219.05
799.00	219.10
799.32	217.55
799.64	218.17
799.96	217.93
800.28	218.19
800.60	218.12
800.92	218.07
801.24	218.02
801.56	218.17
801.89	218.24
802.21	218.43
802.53	218.05
802.85	218.45
803.17	219.71
803.49	219.36
803.81	219.26
804.13	218.98
804.45	218.86
804.77	218.95
805.09	218.90
805.41	218.57
805.73	218.19
806.05	217.95
806.37	217.64
806.69	217.71
807.01	217.36
807.33	217.43
807.65	216.71
807.97	217.40
808.28	217.07
808.60	216.88
808.92	216.24
809.24	217.76
809.56	217.40
809.88	216.60
810.20	216.83
810.52	217.40
810.84	217.10
811.16	216.62
811.48	216.52
811.80	217.17
812.12	217.19
812.43	217.60
812.75	217.93
813.07	217.50
813.39	217.45
813.71	217.36
814.03	217.10
814.35	217.17
814.67	216.33
814.98	216.10
815.30	215.93
815.62	215.71
815.94	214.14
816.26	214.21
816.58	213.83
816.89	213.93
817.21	213.50
817.53	213.86
817.85	214.17
818.17	214.07
818.48	213.55
818.80	214.00
819.12	213.71
819.44	213.14
819.76	213.12
820.07	213.31
820.39	213.31
820.71	213.76
821.03	214.07
821.34	214.05
821.66	214.48
821.98	214.79
822.30	214.74
822.61	215.83
822.93	215.81
823.25	215.83
823.57	215.76
823.88	216.24
824.20	216.12
824.52	216.55
824.83	216.50
825.15	216.05
825.47	215.95
825.79	216.00
826.10	216.05
826.42	216.14
826.74	216.43
827.05	216.36
827.37	216.24
827.69	216.00
828.00	216.17
828.32	216.14
828.64	215.86
828.95	217.05
829.27	216.57
829.58	216.48
829.90	216.81
830.22	216.98
830.53	216.14
830.85	215.88
831.17	215.33
831.48	215.17
831.80	215.12
832.11	214.67
832.43	214.40
832.75	214.60
833.06	215.74
833.38	214.83
833.69	214.76
834.01	214.79
834.32	214.50
834.64	214.36
834.96	214.21
835.27	214.07
835.59	213.21
835.90	212.81
836.22	212.62
836.53	212.31
836.85	212.07
837.16	214.17
837.48	214.26
837.79	215.12
838.11	215.26
838.42	215.43
838.74	215.79
839.05	215.64
839.37	215.55
839.68	214.50
840.00	214.36
840.31	214.83
840.63	214.71
840.94	214.71
841.26	214.62
841.57	214.57
841.88	214.98
842.20	214.81
842.51	214.81
842.83	214.93
843.14	216.74
843.46	216.71
843.77	215.71
844.08	215.52
844.40	214.48
844.71	214.19
845.03	214.21
845.34	214.26
845.65	214.29
845.97	213.93
846.28	214.10
846.60	214.38
846.91	213.86
847.22	213.48
847.54	213.90
847.85	213.79
848.16	213.67
848.48	213.12
848.79	213.79
849.10	214.00
849.42	214.07
849.73	212.19
850.04	212.17
850.36	211.38
850.67	211.83
850.98	212.19
851.30	212.69
851.61	212.31
851.92	212.12
852.23	212.90
852.55	213.48
852.86	213.12
853.17	213.12
853.49	213.57
853.80	214.26
854.11	214.17
854.42	214.67
854.74	214.43
855.05	214.57
855.36	213.67
855.67	213.57
855.99	213.62
856.30	216.12
856.61	215.95
856.92	216.12
857.23	216.05
857.55	215.81
857.86	215.67
858.17	216.21
858.48	215.86
858.79	215.19
859.11	215.17
859.42	215.07
859.73	214.93
860.04	214.86
860.35	214.24
860.66	213.90
860.98	213.50
861.29	213.93
861.60	213.69
861.91	214.26
862.22	213.98
862.53	213.55
862.84	211.02
863.16	211.60
863.47	211.19
863.78	210.88
864.09	211.07
864.40	211.26
864.71	211.07
865.02	211.33
865.33	211.07
865.64	210.67
865.95	210.83
866.27	212.29
866.58	211.95
866.89	212.40
867.20	212.52
867.51	212.38
867.82	212.33
868.13	213.14
868.44	212.43
868.75	212.83
869.06	213.21
869.37	213.60
869.68	212.90
869.99	213.36
870.30	213.69
870.61	213.93
870.92	213.36
871.23	213.31
871.54	213.76
871.85	214.33
872.16	214.57
872.47	214.52
872.78	213.24
873.09	213.76
873.40	213.43
873.71	213.55
874.02	213.93
874.33	213.64
874.64	213.21
874.95	213.81
875.26	213.36
875.56	213.17
875.87	213.07
876.18	213.14
876.49	214.90
876.80	214.55
877.11	213.83
877.42	214.07
877.73	214.05
878.04	213.43
878.35	213.38
878.66	213.40
878.96	213.33
879.27	213.12
879.58	212.71
879.89	212.64
880.20	213.31
880.51	212.98
880.82	212.90
881.12	212.90
881.43	212.60
881.74	212.60
882.05	212.67
882.36	212.79
882.67	212.88
882.97	211.02
883.28	210.93
883.59	211.10
883.90	210.93
884.21	211.43
884.51	211.64
884.82	211.29
885.13	211.21
885.44	211.12
885.74	211.21
886.05	211.10
886.36	211.29
886.67	210.36
886.98	211.33
887.28	211.74
887.59	211.79
887.90	211.83
888.20	211.81
888.51	212.14
888.82	211.64
889.13	211.67
889.43	213.12
889.74	213.10
890.05	213.05
890.35	213.12
890.66	212.60
890.97	212.26
891.28	212.19
891.58	212.21
891.89	212.21
892.20	212.19
892.50	212.14
892.81	211.90
893.12	211.93
893.42	211.05
893.73	210.95
894.04	210.93
894.34	211.02
894.65	210.83
894.95	210.57
895.26	210.76
895.57	211.79
895.87	209.90
896.18	210.29
896.48	210.69
896.79	210.69
897.10	211.00
897.40	211.36
897.71	211.74
898.01	211.55
898.32	211.86
898.63	211.90
898.93	211.93
899.24	211.83
899.54	211.95
899.85	211.83
900.15	211.71
900.46	211.64
900.76	211.90
901.07	211.83
901.38	211.95
901.68	212.14
901.99	211.07
902.29	211.43
902.60	211.38
902.90	210.93
903.21	210.95
903.51	210.83
903.82	210.95
904.12	210.79
904.43	211.12
904.73	210.98
905.03	210.98
905.34	213.10
905.64	213.12
905.95	212.93
906.25	213.02
906.56	213.19
906.86	213.36
907.17	213.05
907.47	213.31
907.77	212.98
908.08	212.48
908.38	212.76
908.69	212.64
908.99	212.69
909.30	212.86
909.60	212.83
909.90	213.02
910.21	212.62
910.51	212.24
910.81	212.26
911.12	212.40
911.42	212.48
911.73	210.31
912.03	210.48
912.33	210.90
912.64	210.88
912.94	210.50
913.24	210.21
913.55	209.98
913.85	209.86
914.15	210.17
914.46	210.74
914.76	210.40
915.06	210.43
915.37	210.14
915.67	210.10
915.97	210.17
916.27	209.55
916.58	209.83
916.88	209.79
917.18	209.60
917.49	211.02
917.79	210.95
918.09	211.29
918.39	211.62
918.70	211.45
919.00	211.50
919.30	212.57
919.60	212.50
919.91	212.67
920.21	212.69
920.51	212.12
920.81	211.83
921.12	212.12
921.42	212.10
921.72	212.45
922.02	212.76
922.32	212.98
922.63	213.24
922.93	214.12
923.23	214.33
923.53	214.24
923.83	212.98
924.13	213.14
924.44	213.10
924.74	213.40
925.04	213.98
925.34	213.98
925.64	212.83
925.94	212.71
926.24	213.76
926.55	213.64
926.85	214.17
927.15	214.14
927.45	214.24
927.75	214.07
928.05	214.07
928.35	213.55
928.65	213.74
928.95	214.07
929.26	213.31
929.56	213.60
929.86	213.83
930.16	213.57
930.46	213.55
930.76	213.52
931.06	212.71
931.36	212.17
931.66	212.29
931.96	212.74
932.26	213.07
932.56	212.26
932.86	212.33
933.16	212.19
933.46	212.05
933.76	211.60
934.06	212.33
934.36	213.05
934.66	213.17
934.96	213.00
935.26	212.79
935.56	213.02
935.86	212.67
936.16	212.19
936.46	212.02
936.76	211.86
937.06	211.60
937.36	211.67
937.66	211.69
937.96	211.60
938.26	211.14
938.56	211.07
938.86	211.05
939.16	211.81
939.46	212.00
939.76	212.07
940.06	212.21
940.35	211.57
940.65	210.52
940.95	210.69
941.25	210.14
941.55	210.17
941.85	210.00
942.15	210.60
942.45	211.24
942.75	211.36
943.04	211.36
943.34	212.00
943.64	211.79
943.94	211.57
944.24	211.74
944.54	211.98
944.84	211.81
945.13	211.40
945.43	210.98
945.73	210.88
946.03	210.88
946.33	210.74
946.62	210.43
946.92	210.43
947.22	210.69
947.52	210.88
947.82	210.81
948.11	210.64
948.41	210.12
948.71	209.57
949.01	209.60
949.31	209.40
949.60	209.00
949.90	209.36
950.20	209.12
950.50	209.10
950.79	209.07
951.09	209.31
951.39	209.38
951.69	209.02
951.98	209.52
952.28	209.55
952.58	209.60
952.87	209.90
953.17	210.12
953.47	209.69
953.76	209.88
954.06	209.86
954.36	209.48
954.66	209.50
954.95	210.29
955.25	210.48
955.55	210.64
955.84	210.67
956.14	210.86
956.44	211.21
956.73	210.95
957.03	211.21
957.32	211.12
957.62	211.26
957.92	211.79
958.21	211.36
958.51	213.81
958.81	214.26
959.10	214.31
959.40	214.98
959.69	215.19
959.99	215.36
960.29	215.36
960.58	215.55
960.88	216.17
961.17	215.71
961.47	215.74
961.76	215.62
962.06	215.81
962.36	215.43
962.65	215.40
962.95	215.48
963.24	215.24
963.54	215.52
963.83	215.67
964.13	215.21
964.42	214.76
964.72	213.07
965.01	212.83
965.31	212.76
965.60	211.93
965.90	213.19
966.19	212.79
966.49	212.93
966.78	212.74
967.08	212.57
967.37	212.50
967.67	212.17
967.96	212.67
968.26	212.52
968.55	212.81
968.85	212.76
969.14	212.81
969.43	212.71
969.73	212.69
970.02	212.64
970.32	212.83
970.61	213.21
970.91	212.52
971.20	212.38
971.49	212.19
971.79	212.50
972.08	210.95
972.38	210.98
972.67	210.69
972.96	210.98
973.26	210.60
973.55	211.55
973.85	211.55
974.14	211.43
974.43	211.64
974.73	211.33
975.02	211.21
975.31	211.02
975.61	210.93
975.90	210.38
976.19	210.24
976.49	210.05
976.78	210.02
977.07	210.02
977.37	209.90
977.66	210.14
977.95	209.93
978.24	210.19
978.54	210.83
978.83	210.64
979.12	210.48
979.42	210.67
979.71	209.86
980.00	209.74
980.29	209.60
980.59	209.07
980.88	209.67
981.17	209.76
981.46	209.93
981.76	210.02
982.05	210.79
982.34	210.83
982.63	211.07
982.93	210.83
983.22	211.52
983.51	211.83
983.80	212.17
984.09	212.52
984.39	212.45
984.68	212.00
984.97	212.19
985.26	212.12
985.55	212.07
985.85	211.81
986.14	211.95
986.43	212.14
986.72	211.98
987.01	211.19
987.30	211.14
987.59	211.07
987.89	211.07
988.18	210.38
988.47	210.19
988.76	209.98
989.05	210.00
989.34	209.57
989.63	210.19
989.92	209.81
990.22	209.43
990.51	209.31
990.80	209.10
991.09	209.26
991.38	209.55
991.67	209.48
991.96	209.31
992.25	209.60
992.54	209.29
992.83	209.43
993.12	209.64
993.41	210.05
993.70	210.79
993.99	211.45
994.28	211.74
994.58	212.02
994.87	211.90
995.16	212.07
995.45	211.98
995.74	211.05
996.03	211.26
996.32	211.64
996.61	212.24
996.90	212.45
997.19	212.36
997.48	212.40
997.77	212.19
998.06	212.26
998.34	212.00
998.63	212.12
998.92	212.26
999.21	212.55
999.50	212.55
999.79	211.93
1000.08	211.69
1000.37	211.83
1000.66	211.69
1000.95	212.36
1001.24	212.40
1001.53	212.40
1001.82	212.40
1002.11	212.17
1002.40	212.24
1002.68	212.31
1002.97	213.62
1003.26	213.48
1003.55	213.10
1003.84	213.21
1004.13	214.17
1004.42	214.02
1004.71	214.00
1004.99	213.86
1005.28	214.40
1005.57	214.02
1005.86	213.71
1006.15	213.50
1006.44	213.02
1006.72	213.19
1007.01	212.64
1007.30	212.43
1007.59	212.50
1007.88	212.43
1008.17	212.31
1008.45	211.98
1008.74	211.17
1009.03	209.88
1009.32	210.10
1009.60	210.14
1009.89	210.02
1010.18	208.98
1010.47	208.93
1010.76	208.81
1011.04	208.98
1011.33	208.83
1011.62	208.88
1011.91	209.24
1012.19	209.26
1012.48	209.38
1012.77	209.21
1013.05	210.12
1013.34	210.36
1013.63	210.26
1013.92	210.69
1014.20	210.69
1014.49	210.74
1014.78	211.14
1015.06	210.79
1015.35	210.57
1015.64	211.02
1015.92	211.38
1016.21	211.55
1016.50	211.69
1016.78	212.19
1017.07	212.31
1017.36	211.88
1017.64	211.76
1017.93	211.86
1018.22	211.76
1018.50	211.86
1018.79	211.79
1019.08	210.90
1019.36	210.88
1019.65	210.60
1019.93	210.95
1020.22	211.29
1020.51	212.19
1020.79	211.88
1021.08	210.50
1021.36	209.00
1021.65	208.50
1021.94	209.50
1022.22	211.50
1022.51	206.00
1022.79	221.50
1023.08	213.50
1023.36	232.50
1023.65	204.00
>>>>>End Processed Spectral Data<<<<<
