SpectraSuite Data File
++++++++++++++++++++++++++++++++++++
Date: Tue Apr 02 18:41:08 EDT 2013
User: group
Dark Spectrum Present: No
Reference Spectrum Present: No
Number of Sampled Component Spectra: 1
Spectrometers: USB2E7196
Integration Time (usec): 580000 (USB2E7196)
Spectra Averaged: 2 (USB2E7196)
Boxcar Smoothing: 10 (USB2E7196)
Correct for Electrical Dark: No (USB2E7196)
Strobe/Lamp Enabled: No (USB2E7196)
Correct for Detector Non-linearity: No (USB2E7196)
Correct for Stray Light: No (USB2E7196)
Number of Pixels in Processed Spectrum: 2048
>>>>>Begin Processed Spectral Data<<<<<
339.09	0.00
339.48	193.00
339.86	196.00
340.24	198.00
340.63	200.00
341.01	230.50
341.39	202.00
341.78	209.50
342.16	210.50
342.54	206.50
342.93	198.69
343.31	208.60
343.69	209.17
344.07	209.64
344.46	210.52
344.84	211.19
345.22	210.14
345.60	210.71
345.99	210.86
346.37	211.00
346.75	211.10
347.13	211.26
347.52	211.33
347.90	212.17
348.28	212.29
348.66	212.98
349.05	212.31
349.43	212.62
349.81	212.81
350.19	212.69
350.57	213.19
350.96	213.43
351.34	213.62
351.72	214.02
352.10	214.24
352.48	213.83
352.87	213.64
353.25	213.90
353.63	213.52
354.01	213.43
354.39	213.36
354.77	213.62
355.15	214.05
355.54	213.95
355.92	213.38
356.30	213.21
356.68	214.26
357.06	214.64
357.44	214.19
357.82	214.17
358.20	215.00
358.58	214.86
358.97	215.07
359.35	215.50
359.73	215.69
360.11	215.62
360.49	215.86
360.87	215.86
361.25	216.02
361.63	217.02
362.01	217.12
362.39	217.14
362.77	217.07
363.15	216.74
363.53	216.69
363.91	216.48
364.29	216.38
364.67	214.60
365.05	214.55
365.43	214.60
365.81	214.81
366.19	215.07
366.57	215.81
366.95	215.62
367.33	214.93
367.71	214.90
368.09	215.24
368.47	215.17
368.85	215.29
369.23	215.67
369.61	214.88
369.99	215.67
370.37	215.76
370.75	216.93
371.13	216.81
371.51	216.45
371.89	216.83
372.27	217.10
372.65	217.21
373.03	217.14
373.41	217.40
373.78	217.52
374.16	216.64
374.54	215.98
374.92	215.76
375.30	215.83
375.68	215.64
376.06	215.69
376.44	215.55
376.82	215.55
377.19	215.31
377.57	215.12
377.95	214.21
378.33	214.00
378.71	212.69
379.09	213.10
379.47	213.64
379.84	213.57
380.22	213.31
380.60	213.10
380.98	213.10
381.36	212.64
381.73	212.43
382.11	212.64
382.49	212.67
382.87	212.62
383.25	212.86
383.62	215.29
384.00	214.95
384.38	215.17
384.76	215.55
385.13	216.50
385.51	216.71
385.89	216.69
386.27	216.88
386.64	217.29
387.02	216.81
387.40	216.43
387.78	216.57
388.15	216.67
388.53	216.64
388.91	216.60
389.29	216.86
389.66	216.93
390.04	216.81
390.42	217.17
390.79	217.14
391.17	217.21
391.55	214.67
391.92	214.74
392.30	214.88
392.68	214.48
393.05	213.98
393.43	213.98
393.81	214.21
394.18	213.95
394.56	213.67
394.94	214.21
395.31	214.05
395.69	214.64
396.06	214.83
396.44	215.05
396.82	214.98
397.19	216.00
397.57	216.00
397.95	216.21
398.32	215.71
398.70	216.05
399.07	216.19
399.45	216.31
399.82	216.31
400.20	215.93
400.58	215.79
400.95	215.21
401.33	215.67
401.70	216.98
402.08	217.19
402.45	217.36
402.83	217.81
403.20	218.17
403.58	217.76
403.95	218.26
404.33	218.69
404.71	218.98
405.08	220.19
405.46	220.24
405.83	220.71
406.21	221.00
406.58	221.52
406.96	221.95
407.33	222.55
407.70	223.17
408.08	225.62
408.45	226.57
408.83	227.52
409.20	227.81
409.58	227.31
409.95	228.57
410.33	229.60
410.70	229.98
411.08	231.45
411.45	232.69
411.82	233.74
412.20	235.31
412.57	237.71
412.95	237.29
413.32	239.26
413.69	240.64
414.07	242.36
414.44	244.10
414.82	246.02
415.19	248.36
415.56	250.93
415.94	252.31
416.31	255.55
416.68	258.38
417.06	262.12
417.43	265.86
417.81	269.36
418.18	273.36
418.55	277.24
418.93	281.17
419.30	285.48
419.67	289.67
420.04	294.17
420.42	298.29
420.79	305.57
421.16	311.33
421.54	318.24
421.91	324.76
422.28	331.12
422.66	338.26
423.03	346.43
423.40	353.24
423.77	360.40
424.15	367.71
424.52	375.57
424.89	384.38
425.26	392.17
425.64	399.71
426.01	408.14
426.38	417.69
426.75	427.74
427.13	437.60
427.50	447.88
427.87	458.36
428.24	468.52
428.61	477.31
428.99	489.36
429.36	500.17
429.73	511.88
430.10	523.40
430.47	535.55
430.85	546.60
431.22	560.14
431.59	575.52
431.96	588.76
432.33	603.48
432.70	617.10
433.08	633.90
433.45	650.14
433.82	665.93
434.19	683.05
434.56	700.36
434.93	716.86
435.30	732.93
435.68	751.29
436.05	769.64
436.42	787.24
436.79	802.79
437.16	820.67
437.53	839.31
437.90	858.86
438.27	877.07
438.64	895.88
439.01	913.24
439.38	927.86
439.75	943.12
440.13	960.60
440.50	976.83
440.87	990.55
441.24	1004.10
441.61	1019.45
441.98	1030.76
442.35	1043.24
442.72	1056.52
443.09	1070.79
443.46	1078.24
443.83	1083.88
444.20	1089.29
444.57	1095.76
444.94	1099.26
445.31	1103.17
445.68	1108.33
446.05	1110.02
446.42	1108.79
446.79	1107.71
447.16	1105.17
447.53	1104.33
447.90	1097.88
448.27	1091.88
448.64	1082.86
449.01	1076.52
449.37	1065.00
449.74	1053.60
450.11	1041.93
450.48	1025.98
450.85	1009.45
451.22	996.19
451.59	984.02
451.96	971.36
452.33	955.26
452.70	940.40
453.07	921.90
453.43	902.02
453.80	884.67
454.17	868.31
454.54	852.55
454.91	836.24
455.28	819.17
455.65	803.52
456.02	791.57
456.38	778.12
456.75	762.19
457.12	748.26
457.49	734.98
457.86	720.19
458.23	710.19
458.59	698.07
458.96	685.98
459.33	674.74
459.70	664.00
460.07	655.52
460.43	645.45
460.80	637.31
461.17	629.29
461.54	620.76
461.91	612.29
462.27	603.40
462.64	595.83
463.01	588.19
463.38	581.19
463.74	569.93
464.11	563.00
464.48	557.12
464.85	550.14
465.21	545.52
465.58	540.38
465.95	533.62
466.32	528.64
466.68	523.19
467.05	517.76
467.42	512.83
467.78	506.90
468.15	502.29
468.52	497.95
468.88	492.40
469.25	487.38
469.62	483.86
469.98	479.64
470.35	475.98
470.72	472.33
471.08	467.45
471.45	464.83
471.82	461.93
472.18	457.95
472.55	455.93
472.92	452.33
473.28	448.55
473.65	445.50
474.02	442.60
474.38	440.71
474.75	438.64
475.11	435.83
475.48	434.26
475.85	432.26
476.21	430.12
476.58	428.83
476.94	427.69
477.31	426.26
477.67	425.17
478.04	424.10
478.41	423.38
478.77	425.36
479.14	423.74
479.50	422.81
479.87	422.86
480.23	422.14
480.60	421.45
480.96	421.55
481.33	422.57
481.69	422.69
482.06	422.69
482.42	422.90
482.79	423.40
483.15	423.76
483.52	424.74
483.88	425.40
484.25	425.62
484.61	426.45
484.98	426.93
485.34	428.76
485.71	430.67
486.07	431.67
486.44	430.83
486.80	432.38
487.17	434.02
487.53	436.55
487.90	439.40
488.26	442.93
488.62	446.02
488.99	447.81
489.35	450.83
489.72	453.31
490.08	456.02
490.44	458.88
490.81	462.64
491.17	465.40
491.54	468.81
491.90	472.62
492.26	476.19
492.63	480.64
492.99	483.95
493.36	487.57
493.72	492.31
494.08	496.36
494.45	501.24
494.81	506.88
495.17	510.67
495.54	515.26
495.90	519.62
496.26	524.71
496.63	530.19
496.99	535.48
497.35	541.60
497.72	547.79
498.08	553.69
498.44	559.50
498.80	566.07
499.17	573.17
499.53	579.81
499.89	587.48
500.26	593.81
500.62	601.12
500.98	609.21
501.34	616.02
501.71	624.45
502.07	631.86
502.43	638.40
502.79	646.12
503.16	653.33
503.52	660.76
503.88	667.60
504.24	675.31
504.60	683.50
504.97	691.48
505.33	699.55
505.69	708.24
506.05	716.62
506.41	724.86
506.78	732.60
507.14	740.62
507.50	748.64
507.86	757.43
508.22	765.64
508.59	772.48
508.95	781.07
509.31	789.50
509.67	797.88
510.03	806.40
510.39	814.50
510.75	822.79
511.12	830.95
511.48	839.57
511.84	847.62
512.20	855.29
512.56	863.14
512.92	870.95
513.28	878.79
513.64	886.12
514.00	893.76
514.37	901.31
514.73	908.64
515.09	915.93
515.45	922.52
515.81	929.95
516.17	937.55
516.53	943.76
516.89	950.02
517.25	956.55
517.61	964.14
517.97	971.00
518.33	978.14
518.69	984.74
519.05	991.57
519.41	998.43
519.77	1005.93
520.13	1012.48
520.49	1018.26
520.85	1024.88
521.21	1031.67
521.57	1038.31
521.93	1044.33
522.29	1051.02
522.65	1056.43
523.01	1062.71
523.37	1068.05
523.73	1073.90
524.09	1079.86
524.45	1085.19
524.81	1090.98
525.17	1096.43
525.53	1101.81
525.89	1106.07
526.25	1111.67
526.61	1116.62
526.97	1120.69
527.33	1125.10
527.68	1132.07
528.04	1137.95
528.40	1142.10
528.76	1146.31
529.12	1150.81
529.48	1155.60
529.84	1159.81
530.20	1164.67
530.56	1169.52
530.91	1174.52
531.27	1179.29
531.63	1184.55
531.99	1188.88
532.35	1193.48
532.71	1197.60
533.07	1202.64
533.42	1210.29
533.78	1214.88
534.14	1219.48
534.50	1224.50
534.86	1229.57
535.21	1231.60
535.57	1236.36
535.93	1240.17
536.29	1245.26
536.65	1249.67
537.00	1253.55
537.36	1257.36
537.72	1261.86
538.08	1266.17
538.44	1269.14
538.79	1273.14
539.15	1276.64
539.51	1280.60
539.87	1284.93
540.22	1288.83
540.58	1292.71
540.94	1294.45
541.29	1297.26
541.65	1299.93
542.01	1304.12
542.37	1306.93
542.72	1309.52
543.08	1311.45
543.44	1316.26
543.79	1318.62
544.15	1321.69
544.51	1325.45
544.87	1329.60
545.22	1333.00
545.58	1335.90
545.94	1340.24
546.29	1343.55
546.65	1347.00
547.01	1350.38
547.36	1353.24
547.72	1355.57
548.07	1358.50
548.43	1360.98
548.79	1364.21
549.14	1367.83
549.50	1370.76
549.86	1373.40
550.21	1377.86
550.57	1382.17
550.92	1384.69
551.28	1388.69
551.64	1391.86
551.99	1395.33
552.35	1397.86
552.70	1401.29
553.06	1404.95
553.41	1408.29
553.77	1412.95
554.13	1416.52
554.48	1421.64
554.84	1426.07
555.19	1430.88
555.55	1436.14
555.90	1440.88
556.26	1445.55
556.61	1449.76
556.97	1453.36
557.32	1457.74
557.68	1461.26
558.03	1465.60
558.39	1470.17
558.74	1474.29
559.10	1478.95
559.45	1483.79
559.81	1489.57
560.16	1494.19
560.52	1499.07
560.87	1503.38
561.23	1507.38
561.58	1513.67
561.94	1516.98
562.29	1521.50
562.64	1526.45
563.00	1529.64
563.35	1535.12
563.71	1540.81
564.06	1546.71
564.42	1552.40
564.77	1559.17
565.12	1565.79
565.48	1573.76
565.83	1580.17
566.19	1586.21
566.54	1591.86
566.89	1597.24
567.25	1602.62
567.60	1609.38
567.96	1617.10
568.31	1624.26
568.66	1630.10
569.02	1634.55
569.37	1640.38
569.72	1645.48
570.08	1650.29
570.43	1655.74
570.78	1661.81
571.14	1666.48
571.49	1671.31
571.84	1676.60
572.20	1680.05
572.55	1684.95
572.90	1687.00
573.26	1690.12
573.61	1693.93
573.96	1698.79
574.31	1702.12
574.67	1705.12
575.02	1708.26
575.37	1710.26
575.72	1712.21
576.08	1715.00
576.43	1718.52
576.78	1721.79
577.13	1725.02
577.49	1728.19
577.84	1731.52
578.19	1733.40
578.54	1737.36
578.90	1740.52
579.25	1743.38
579.60	1746.29
579.95	1747.36
580.30	1750.00
580.66	1754.17
581.01	1756.76
581.36	1758.40
581.71	1762.05
582.06	1766.83
582.42	1770.31
582.77	1771.79
583.12	1775.36
583.47	1778.48
583.82	1780.69
584.17	1783.10
584.53	1786.21
584.88	1787.81
585.23	1790.48
585.58	1792.43
585.93	1793.48
586.28	1795.10
586.63	1796.88
586.98	1798.71
587.34	1803.10
587.69	1803.98
588.04	1804.31
588.39	1806.33
588.74	1807.02
589.09	1807.55
589.44	1806.60
589.79	1805.64
590.14	1806.93
590.49	1807.12
590.84	1806.55
591.19	1807.05
591.54	1806.83
591.89	1805.74
592.25	1808.19
592.60	1807.40
592.95	1807.67
593.30	1808.12
593.65	1807.55
594.00	1806.69
594.35	1812.57
594.70	1809.81
595.05	1809.81
595.40	1809.40
595.75	1808.62
596.10	1810.12
596.45	1810.90
596.80	1811.17
597.15	1811.62
597.50	1811.07
597.85	1811.43
598.19	1811.40
598.54	1810.38
598.89	1810.21
599.24	1809.93
599.59	1807.60
599.94	1807.10
600.29	1805.86
600.64	1804.90
600.99	1804.38
601.34	1804.26
601.69	1797.17
602.04	1795.64
602.39	1794.69
602.74	1793.74
603.08	1791.40
603.43	1789.43
603.78	1787.24
604.13	1785.98
604.48	1784.02
604.83	1782.57
605.18	1780.40
605.53	1778.88
605.87	1776.64
606.22	1774.33
606.57	1771.98
606.92	1769.90
607.27	1768.62
607.62	1767.26
607.96	1765.55
608.31	1764.29
608.66	1761.26
609.01	1757.98
609.36	1756.74
609.70	1753.74
610.05	1750.50
610.40	1748.88
610.75	1745.24
611.10	1742.43
611.44	1738.79
611.79	1735.36
612.14	1731.81
612.49	1727.88
612.83	1724.36
613.18	1720.62
613.53	1716.26
613.88	1712.05
614.22	1708.00
614.57	1702.69
614.92	1696.93
615.27	1692.21
615.61	1686.29
615.96	1681.69
616.31	1677.81
616.65	1673.86
617.00	1669.43
617.35	1664.95
617.70	1660.29
618.04	1654.67
618.39	1648.52
618.74	1643.57
619.08	1638.64
619.43	1634.05
619.78	1629.17
620.12	1624.31
620.47	1619.67
620.82	1615.69
621.16	1610.76
621.51	1606.40
621.85	1600.95
622.20	1596.40
622.55	1589.93
622.89	1585.52
623.24	1581.05
623.59	1575.33
623.93	1569.95
624.28	1565.69
624.62	1563.31
624.97	1559.10
625.32	1554.81
625.66	1551.10
626.01	1545.60
626.35	1541.48
626.70	1535.95
627.04	1531.62
627.39	1526.64
627.73	1523.40
628.08	1518.76
628.43	1514.90
628.77	1509.98
629.12	1506.10
629.46	1501.67
629.81	1497.71
630.15	1492.38
630.50	1486.79
630.84	1481.98
631.19	1475.79
631.53	1468.71
631.88	1460.07
632.22	1452.88
632.57	1448.31
632.91	1441.93
633.26	1436.86
633.60	1430.07
633.95	1424.19
634.29	1417.48
634.64	1411.45
634.98	1404.52
635.32	1398.98
635.67	1393.95
636.01	1388.50
636.36	1382.12
636.70	1377.40
637.05	1371.14
637.39	1366.05
637.73	1361.00
638.08	1356.14
638.42	1351.05
638.77	1346.88
639.11	1342.02
639.45	1336.98
639.80	1330.60
640.14	1325.55
640.49	1319.64
640.83	1314.10
641.17	1309.00
641.52	1303.26
641.86	1298.12
642.20	1293.21
642.55	1286.95
642.89	1280.05
643.23	1273.26
643.58	1268.17
643.92	1260.31
644.26	1254.10
644.61	1247.31
644.95	1240.14
645.29	1232.64
645.64	1227.12
645.98	1219.74
646.32	1213.57
646.66	1206.71
647.01	1199.98
647.35	1193.07
647.69	1186.17
648.04	1180.21
648.38	1174.00
648.72	1168.14
649.06	1160.62
649.41	1152.57
649.75	1145.95
650.09	1139.07
650.43	1132.43
650.78	1125.00
651.12	1118.31
651.46	1111.33
651.80	1105.10
652.14	1098.86
652.49	1092.93
652.83	1085.26
653.17	1078.90
653.51	1071.81
653.85	1065.57
654.20	1058.83
654.54	1051.71
654.88	1045.38
655.22	1039.74
655.56	1033.00
655.90	1025.88
656.25	1019.93
656.59	1014.17
656.93	1008.14
657.27	1002.83
657.61	996.45
657.95	990.79
658.29	985.26
658.64	980.07
658.98	972.86
659.32	965.95
659.66	959.40
660.00	953.60
660.34	947.14
660.68	941.21
661.02	934.55
661.36	928.64
661.70	923.14
662.05	917.55
662.39	910.83
662.73	905.26
663.07	900.36
663.41	894.12
663.75	887.95
664.09	881.86
664.43	875.10
664.77	868.93
665.11	862.69
665.45	857.31
665.79	851.74
666.13	846.33
666.47	841.40
666.81	836.74
667.15	830.74
667.49	826.07
667.83	821.10
668.17	816.60
668.51	811.50
668.85	806.19
669.19	801.57
669.53	795.33
669.87	789.10
670.21	783.14
670.55	777.48
670.89	773.50
671.23	768.60
671.57	763.62
671.91	759.57
672.25	754.57
672.58	749.52
672.92	744.14
673.26	739.52
673.60	734.83
673.94	729.26
674.28	724.93
674.62	720.69
674.96	715.52
675.30	710.86
675.64	706.31
675.97	701.74
676.31	696.57
676.65	691.38
676.99	688.12
677.33	683.48
677.67	679.95
678.01	674.29
678.34	669.62
678.68	665.45
679.02	660.10
679.36	655.74
679.70	650.93
680.04	646.40
680.37	641.74
680.71	637.12
681.05	633.55
681.39	628.98
681.73	624.02
682.06	619.45
682.40	614.69
682.74	610.17
683.08	606.81
683.42	602.40
683.75	599.21
684.09	594.48
684.43	590.12
684.77	585.07
685.10	581.26
685.44	577.10
685.78	572.90
686.12	569.07
686.45	565.00
686.79	560.69
687.13	557.26
687.46	553.45
687.80	550.26
688.14	546.00
688.48	542.50
688.81	539.05
689.15	535.98
689.49	531.88
689.82	528.43
690.16	523.71
690.50	519.69
690.83	516.00
691.17	511.57
691.51	508.12
691.84	505.07
692.18	501.24
692.52	497.57
692.85	494.17
693.19	491.43
693.52	487.93
693.86	484.40
694.20	480.74
694.53	477.50
694.87	473.29
695.21	469.52
695.54	465.90
695.88	461.93
696.21	457.64
696.55	454.74
696.88	451.43
697.22	448.14
697.56	445.79
697.89	442.40
698.23	440.19
698.56	436.93
698.90	433.79
699.23	430.74
699.57	428.12
699.90	425.12
700.24	421.76
700.58	418.90
700.91	416.79
701.25	416.00
701.58	414.07
701.92	412.40
702.25	410.02
702.59	407.40
702.92	405.26
703.26	403.55
703.59	401.29
703.93	400.74
704.26	398.88
704.60	396.40
704.93	394.17
705.26	391.64
705.60	389.86
705.93	387.60
706.27	386.07
706.60	384.36
706.94	383.07
707.27	380.93
707.61	379.36
707.94	376.86
708.27	373.21
708.61	370.38
708.94	367.93
709.28	366.26
709.61	364.26
709.94	362.31
710.28	360.29
710.61	358.57
710.95	354.69
711.28	354.07
711.61	352.21
711.95	350.83
712.28	349.12
712.61	347.31
712.95	346.76
713.28	345.88
713.61	343.71
713.95	341.55
714.28	339.88
714.61	338.14
714.95	336.62
715.28	334.48
715.61	332.95
715.95	331.43
716.28	329.69
716.61	328.88
716.95	327.24
717.28	325.93
717.61	324.24
717.94	322.93
718.28	320.00
718.61	318.50
718.94	316.83
719.27	315.33
719.61	314.17
719.94	312.14
720.27	309.90
720.60	308.57
720.94	307.00
721.27	306.19
721.60	305.14
721.93	304.02
722.27	303.98
722.60	303.07
722.93	301.93
723.26	300.93
723.59	299.29
723.93	298.10
724.26	296.98
724.59	295.83
724.92	295.17
725.25	294.98
725.59	293.79
725.92	293.24
726.25	292.31
726.58	291.55
726.91	290.43
727.24	289.50
727.57	288.60
727.91	287.67
728.24	286.76
728.57	285.50
728.90	284.93
729.23	283.00
729.56	283.00
729.89	282.38
730.22	281.67
730.55	281.07
730.89	280.55
731.22	279.69
731.55	279.05
731.88	278.24
732.21	277.05
732.54	276.31
732.87	275.55
733.20	274.76
733.53	273.93
733.86	273.48
734.19	272.60
734.52	272.17
734.85	272.90
735.18	271.86
735.51	272.00
735.84	271.45
736.17	271.52
736.50	270.07
736.83	271.62
737.16	270.95
737.49	270.31
737.82	269.62
738.15	269.31
738.48	269.10
738.81	268.45
739.14	267.76
739.47	267.33
739.80	266.48
740.13	266.10
740.46	265.14
740.79	264.31
741.12	263.79
741.45	263.17
741.78	261.55
742.11	261.69
742.44	260.50
742.77	260.10
743.10	259.14
743.43	258.45
743.75	255.64
744.08	257.83
744.41	257.19
744.74	256.71
745.07	255.83
745.40	255.14
745.73	255.57
746.06	254.86
746.39	254.71
746.71	254.19
747.04	253.33
747.37	252.88
747.70	252.71
748.03	252.26
748.36	251.93
748.68	251.57
749.01	250.57
749.34	250.36
749.67	249.81
750.00	249.86
750.33	251.00
750.65	251.00
750.98	247.74
751.31	247.38
751.64	246.90
751.97	247.69
752.29	247.21
752.62	245.81
752.95	245.55
753.28	244.67
753.60	244.24
753.93	244.52
754.26	244.21
754.59	243.19
754.91	242.62
755.24	241.95
755.57	241.33
755.90	241.02
756.22	240.50
756.55	239.86
756.88	239.21
757.20	237.38
757.53	236.31
757.86	236.02
758.19	235.88
758.51	235.62
758.84	234.14
759.17	233.74
759.49	233.67
759.82	234.40
760.15	234.29
760.47	234.00
760.80	233.40
761.13	233.57
761.45	233.38
761.78	233.12
762.11	232.90
762.43	232.45
762.76	232.05
763.08	231.81
763.41	231.71
763.74	231.50
764.06	231.38
764.39	231.07
764.71	230.86
765.04	230.45
765.37	230.17
765.69	229.98
766.02	229.71
766.34	229.21
766.67	228.00
767.00	228.24
767.32	228.95
767.65	229.93
767.97	229.55
768.30	229.36
768.62	229.33
768.95	229.10
769.27	229.12
769.60	229.29
769.92	229.10
770.25	228.71
770.57	228.00
770.90	227.79
771.22	227.76
771.55	227.93
771.87	227.64
772.20	227.52
772.52	229.26
772.85	231.60
773.17	231.62
773.50	231.36
773.82	230.74
774.15	229.83
774.47	228.19
774.80	227.79
775.12	227.83
775.45	227.62
775.77	227.57
776.09	227.50
776.42	227.10
776.74	227.45
777.07	227.10
777.39	227.31
777.72	227.05
778.04	227.24
778.36	226.83
778.69	226.90
779.01	226.90
779.33	224.90
779.66	222.38
779.98	222.10
780.31	222.02
780.63	222.95
780.95	223.17
781.28	223.21
781.60	223.02
781.92	222.74
782.25	222.43
782.57	222.43
782.89	222.10
783.22	222.26
783.54	221.74
783.86	222.02
784.19	222.02
784.51	222.71
784.83	222.12
785.16	221.95
785.48	221.86
785.80	221.81
786.12	221.95
786.45	222.05
786.77	222.14
787.09	222.14
787.42	221.17
787.74	221.00
788.06	221.14
788.38	220.86
788.71	220.79
789.03	221.05
789.35	221.29
789.67	221.10
789.99	221.02
790.32	220.67
790.64	220.86
790.96	222.45
791.28	221.43
791.61	221.52
791.93	221.48
792.25	221.33
792.57	222.43
792.89	221.83
793.21	221.74
793.54	221.43
793.86	221.29
794.18	221.43
794.50	221.17
794.82	221.07
795.14	221.55
795.47	221.95
795.79	221.98
796.11	221.26
796.43	221.31
796.75	221.26
797.07	221.36
797.39	221.21
797.71	219.52
798.04	219.69
798.36	219.90
798.68	220.00
799.00	220.21
799.32	219.26
799.64	219.95
799.96	220.00
800.28	220.36
800.60	220.31
800.92	220.26
801.24	220.19
801.56	220.17
801.89	220.10
802.21	220.17
802.53	219.55
802.85	220.00
803.17	220.76
803.49	220.31
803.81	220.31
804.13	220.19
804.45	219.98
804.77	220.21
805.09	219.90
805.41	219.50
805.73	219.02
806.05	218.64
806.37	218.36
806.69	218.17
807.01	217.81
807.33	217.74
807.65	217.17
807.97	217.93
808.28	217.86
808.60	217.52
808.92	217.26
809.24	218.69
809.56	218.33
809.88	217.64
810.20	217.57
810.52	218.02
810.84	217.62
811.16	217.52
811.48	217.24
811.80	217.90
812.12	218.02
812.43	218.24
812.75	218.29
813.07	217.98
813.39	217.90
813.71	217.79
814.03	217.76
814.35	217.67
814.67	216.88
814.98	216.71
815.30	216.71
815.62	216.36
815.94	214.83
816.26	215.12
816.58	214.64
816.89	215.10
817.21	214.38
817.53	214.45
817.85	214.19
818.17	214.17
818.48	213.74
818.80	214.07
819.12	213.93
819.44	213.52
819.76	213.26
820.07	213.52
820.39	213.52
820.71	213.52
821.03	213.71
821.34	213.40
821.66	213.79
821.98	214.05
822.30	213.93
822.61	215.26
822.93	214.95
823.25	215.14
823.57	214.83
823.88	215.29
824.20	215.57
824.52	216.19
824.83	215.98
825.15	215.50
825.47	215.31
825.79	215.38
826.10	215.45
826.42	215.52
826.74	215.67
827.05	215.64
827.37	215.60
827.69	215.40
828.00	215.50
828.32	215.12
828.64	214.95
828.95	216.29
829.27	215.79
829.58	215.88
829.90	216.07
830.22	216.19
830.53	215.83
830.85	215.26
831.17	214.69
831.48	214.86
831.80	215.07
832.11	215.10
832.43	215.07
832.75	215.02
833.06	216.26
833.38	215.52
833.69	215.33
834.01	215.57
834.32	215.71
834.64	215.57
834.96	215.69
835.27	215.81
835.59	214.93
835.90	214.52
836.22	214.29
836.53	213.95
836.85	213.86
837.16	215.93
837.48	215.93
837.79	216.57
838.11	216.64
838.42	216.38
838.74	216.71
839.05	216.33
839.37	216.21
839.68	214.83
840.00	215.07
840.31	215.29
840.63	214.93
840.94	214.64
841.26	214.50
841.57	214.55
841.88	214.29
842.20	214.02
842.51	213.88
842.83	213.86
843.14	215.64
843.46	215.55
843.77	214.36
844.08	214.33
844.40	213.69
844.71	213.33
845.03	213.19
845.34	212.81
845.65	212.98
845.97	213.17
846.28	213.50
846.60	213.43
846.91	213.40
847.22	213.38
847.54	214.02
847.85	214.19
848.16	213.79
848.48	213.45
848.79	214.40
849.10	214.71
849.42	215.00
849.73	213.33
850.04	213.31
850.36	212.43
850.67	212.81
850.98	212.88
851.30	213.29
851.61	213.33
851.92	213.17
852.23	213.60
852.55	213.71
852.86	213.52
853.17	213.81
853.49	214.24
853.80	214.62
854.11	214.95
854.42	215.24
854.74	215.07
855.05	215.24
855.36	213.93
855.67	213.95
855.99	213.88
856.30	216.29
856.61	216.33
856.92	216.31
857.23	216.29
857.55	216.21
857.86	216.14
858.17	216.71
858.48	216.64
858.79	216.33
859.11	216.67
859.42	216.86
859.73	216.43
860.04	216.26
860.35	215.57
860.66	214.57
860.98	214.52
861.29	215.00
861.60	215.24
861.91	215.90
862.22	215.43
862.53	215.24
862.84	212.95
863.16	213.36
863.47	213.14
863.78	213.07
864.09	213.14
864.40	213.17
864.71	213.05
865.02	213.29
865.33	212.69
865.64	212.10
865.95	211.86
866.27	213.14
866.58	212.88
866.89	213.21
867.20	213.24
867.51	213.05
867.82	212.95
868.13	213.19
868.44	212.76
868.75	213.40
869.06	213.36
869.37	213.55
869.68	212.71
869.99	213.21
870.30	213.31
870.61	213.60
870.92	213.19
871.23	213.02
871.54	213.12
871.85	213.90
872.16	214.00
872.47	213.93
872.78	212.79
873.09	213.02
873.40	213.00
873.71	213.24
874.02	213.17
874.33	212.83
874.64	212.48
874.95	212.90
875.26	212.29
875.56	212.14
875.87	211.69
876.18	211.81
876.49	213.79
876.80	213.55
877.11	213.07
877.42	213.36
877.73	213.38
878.04	213.24
878.35	213.50
878.66	213.74
878.96	213.64
879.27	213.62
879.58	213.48
879.89	213.31
880.20	213.90
880.51	213.95
880.82	214.10
881.12	214.14
881.43	213.71
881.74	213.45
882.05	213.57
882.36	214.00
882.67	214.29
882.97	211.93
883.28	211.71
883.59	211.50
883.90	211.52
884.21	211.74
884.51	211.45
884.82	210.83
885.13	210.50
885.44	210.48
885.74	210.50
886.05	210.33
886.36	210.69
886.67	209.95
886.98	211.00
887.28	211.10
887.59	211.07
887.90	211.12
888.20	211.24
888.51	211.62
888.82	211.02
889.13	211.26
889.43	212.83
889.74	212.76
890.05	212.90
890.35	212.76
890.66	212.52
890.97	212.55
891.28	212.43
891.58	212.60
891.89	212.52
892.20	212.38
892.50	212.31
892.81	212.02
893.12	211.98
893.42	210.98
893.73	211.10
894.04	211.17
894.34	211.26
894.65	211.33
894.95	211.00
895.26	211.21
895.57	211.69
895.87	210.24
896.18	210.71
896.48	210.90
896.79	210.69
897.10	210.93
897.40	211.00
897.71	211.38
898.01	211.07
898.32	211.55
898.63	211.48
898.93	211.52
899.24	211.62
899.54	211.50
899.85	211.29
900.15	211.10
900.46	211.43
900.76	211.52
901.07	211.38
901.38	211.26
901.68	211.62
901.99	210.93
902.29	210.98
902.60	210.74
902.90	210.60
903.21	210.76
903.51	210.69
903.82	211.07
904.12	210.93
904.43	211.26
904.73	211.10
905.03	211.38
905.34	213.48
905.64	213.26
905.95	213.40
906.25	213.14
906.56	213.07
906.86	212.71
907.17	212.60
907.47	212.71
907.77	212.69
908.08	212.17
908.38	212.14
908.69	212.17
908.99	212.60
909.30	212.81
909.60	212.74
909.90	212.76
910.21	212.24
910.51	212.14
910.81	212.12
911.12	212.33
911.42	212.26
911.73	210.02
912.03	210.26
912.33	210.64
912.64	211.05
912.94	210.83
913.24	210.60
913.55	210.36
913.85	210.29
914.15	210.62
914.46	210.83
914.76	210.86
915.06	210.81
915.37	210.45
915.67	210.12
915.97	210.21
916.27	209.69
916.58	209.76
916.88	209.67
917.18	209.52
917.49	210.74
917.79	210.62
918.09	211.02
918.39	211.48
918.70	211.24
919.00	211.26
919.30	212.31
919.60	212.17
919.91	212.14
920.21	212.36
920.51	211.95
920.81	211.93
921.12	212.33
921.42	212.26
921.72	212.50
922.02	212.64
922.32	212.98
922.63	213.24
922.93	214.29
923.23	214.48
923.53	214.48
923.83	213.26
924.13	213.43
924.44	213.55
924.74	214.00
925.04	214.55
925.34	214.45
925.64	213.76
925.94	213.64
926.24	214.83
926.55	214.69
926.85	215.29
927.15	215.07
927.45	214.90
927.75	214.95
928.05	214.86
928.35	214.86
928.65	215.26
928.95	215.38
929.26	214.52
929.56	214.86
929.86	215.00
930.16	214.90
930.46	214.79
930.76	214.69
931.06	213.52
931.36	213.00
931.66	213.24
931.96	213.24
932.26	213.69
932.56	212.76
932.86	212.74
933.16	212.43
933.46	212.60
933.76	212.26
934.06	212.64
934.36	213.33
934.66	213.40
934.96	212.95
935.26	213.12
935.56	213.55
935.86	212.81
936.16	212.60
936.46	212.26
936.76	211.95
937.06	211.79
937.36	211.93
937.66	212.17
937.96	212.02
938.26	211.57
938.56	211.33
938.86	211.60
939.16	212.26
939.46	212.55
939.76	212.64
940.06	212.64
940.35	212.19
940.65	211.17
940.95	211.17
941.25	210.74
941.55	210.50
941.85	210.36
942.15	211.07
942.45	211.71
942.75	211.83
943.04	212.05
943.34	212.31
943.64	212.12
943.94	211.57
944.24	211.57
944.54	212.10
944.84	212.05
945.13	211.71
945.43	211.29
945.73	211.17
946.03	210.83
946.33	210.62
946.62	210.43
946.92	210.52
947.22	210.86
947.52	211.12
947.82	211.21
948.11	211.07
948.41	210.38
948.71	209.67
949.01	209.69
949.31	209.69
949.60	209.62
949.90	210.00
950.20	210.05
950.50	210.02
950.79	209.76
951.09	210.02
951.39	210.12
951.69	209.76
951.98	209.98
952.28	210.05
952.58	210.02
952.87	210.07
953.17	210.36
953.47	209.95
953.76	209.81
954.06	209.74
954.36	209.24
954.66	209.31
954.95	210.00
955.25	210.43
955.55	210.60
955.84	210.17
956.14	210.40
956.44	210.69
956.73	210.33
957.03	210.33
957.32	210.45
957.62	210.29
957.92	210.81
958.21	210.62
958.51	213.33
958.81	213.50
959.10	213.93
959.40	214.43
959.69	214.64
959.99	215.00
960.29	214.86
960.58	214.98
960.88	215.90
961.17	215.57
961.47	215.48
961.76	215.21
962.06	215.50
962.36	215.12
962.65	215.07
962.95	215.48
963.24	215.48
963.54	215.50
963.83	215.43
964.13	215.48
964.42	215.12
964.72	213.26
965.01	213.55
965.31	213.14
965.60	212.64
965.90	213.90
966.19	213.60
966.49	213.79
966.78	213.69
967.08	213.45
967.37	213.67
967.67	213.31
967.96	213.81
968.26	213.86
968.55	214.29
968.85	214.10
969.14	213.90
969.43	213.86
969.73	213.60
970.02	213.79
970.32	213.57
970.61	213.55
970.91	212.98
971.20	212.62
971.49	212.64
971.79	212.88
972.08	211.50
972.38	211.69
972.67	211.48
972.96	211.69
973.26	211.31
973.55	211.60
973.85	211.62
974.14	211.33
974.43	211.48
974.73	211.07
975.02	211.00
975.31	211.12
975.61	211.14
975.90	210.98
976.19	210.71
976.49	210.95
976.78	211.26
977.07	211.12
977.37	211.21
977.66	211.12
977.95	210.57
978.24	210.74
978.54	211.05
978.83	210.95
979.12	211.17
979.42	211.17
979.71	210.86
980.00	210.79
980.29	210.88
980.59	210.50
980.88	211.02
981.17	211.17
981.46	211.33
981.76	211.24
982.05	211.93
982.34	212.07
982.63	211.81
982.93	211.71
983.22	212.48
983.51	212.48
983.80	213.17
984.09	213.67
984.39	213.38
984.68	212.83
984.97	212.93
985.26	212.69
985.55	212.81
985.85	212.33
986.14	212.74
986.43	212.93
986.72	212.88
987.01	212.12
987.30	212.02
987.59	211.67
987.89	211.83
988.18	211.19
988.47	211.12
988.76	211.12
989.05	210.86
989.34	210.50
989.63	211.05
989.92	210.50
990.22	210.12
990.51	210.02
990.80	210.17
991.09	210.29
991.38	210.52
991.67	210.26
991.96	210.29
992.25	210.19
992.54	209.81
992.83	209.90
993.12	210.00
993.41	210.10
993.70	210.79
993.99	211.12
994.28	211.36
994.58	211.48
994.87	210.95
995.16	211.02
995.45	210.71
995.74	209.98
996.03	210.17
996.32	210.50
996.61	211.12
996.90	210.93
997.19	210.95
997.48	210.86
997.77	210.71
998.06	210.79
998.34	210.48
998.63	210.60
998.92	210.62
999.21	210.88
999.50	210.90
999.79	210.33
1000.08	210.33
1000.37	210.48
1000.66	210.36
1000.95	211.07
1001.24	211.02
1001.53	211.31
1001.82	211.36
1002.11	211.00
1002.40	211.19
1002.68	211.57
1002.97	213.19
1003.26	212.95
1003.55	212.60
1003.84	212.81
1004.13	213.69
1004.42	213.74
1004.71	213.71
1004.99	213.60
1005.28	214.14
1005.57	214.21
1005.86	214.12
1006.15	213.81
1006.44	213.64
1006.72	213.86
1007.01	213.52
1007.30	213.71
1007.59	213.60
1007.88	213.71
1008.17	214.02
1008.45	213.50
1008.74	212.71
1009.03	211.55
1009.32	211.64
1009.60	211.79
1009.89	211.50
1010.18	210.50
1010.47	210.29
1010.76	210.38
1011.04	210.52
1011.33	210.50
1011.62	210.71
1011.91	210.95
1012.19	211.02
1012.48	210.88
1012.77	210.95
1013.05	212.00
1013.34	212.10
1013.63	211.95
1013.92	212.19
1014.20	212.07
1014.49	212.21
1014.78	212.21
1015.06	211.86
1015.35	211.64
1015.64	211.98
1015.92	212.45
1016.21	212.55
1016.50	212.90
1016.78	212.88
1017.07	212.74
1017.36	212.05
1017.64	211.52
1017.93	211.64
1018.22	211.45
1018.50	211.26
1018.79	211.05
1019.08	210.07
1019.36	210.02
1019.65	209.83
1019.93	210.21
1020.22	210.55
1020.51	211.69
1020.79	211.48
1021.08	207.00
1021.36	204.00
1021.65	210.00
1021.94	211.00
1022.22	212.00
1022.51	207.00
1022.79	222.00
1023.08	216.00
1023.36	237.50
1023.65	204.50
>>>>>End Processed Spectral Data<<<<<
