SpectraSuite Data File
++++++++++++++++++++++++++++++++++++
Date: Tue Apr 02 18:43:21 EDT 2013
User: group
Dark Spectrum Present: No
Reference Spectrum Present: No
Number of Sampled Component Spectra: 1
Spectrometers: USB2E7196
Integration Time (usec): 580000 (USB2E7196)
Spectra Averaged: 2 (USB2E7196)
Boxcar Smoothing: 10 (USB2E7196)
Correct for Electrical Dark: No (USB2E7196)
Strobe/Lamp Enabled: No (USB2E7196)
Correct for Detector Non-linearity: No (USB2E7196)
Correct for Stray Light: No (USB2E7196)
Number of Pixels in Processed Spectrum: 2048
>>>>>Begin Processed Spectral Data<<<<<
339.09	0.00
339.48	195.50
339.86	197.00
340.24	198.00
340.63	194.50
341.01	233.50
341.39	199.00
341.78	204.00
342.16	208.00
342.54	200.50
342.93	197.07
343.31	206.71
343.69	207.07
344.07	207.48
344.46	208.10
344.84	208.98
345.22	207.71
345.60	208.17
345.99	208.33
346.37	208.24
346.75	208.64
347.13	208.90
347.52	209.21
347.90	210.19
348.28	210.29
348.66	210.81
349.05	210.12
349.43	210.29
349.81	210.67
350.19	210.45
350.57	210.81
350.96	210.52
351.34	210.98
351.72	211.12
352.10	211.17
352.48	211.10
352.87	210.90
353.25	210.90
353.63	210.81
354.01	210.74
354.39	210.95
354.77	210.86
355.15	211.31
355.54	210.98
355.92	210.00
356.30	210.07
356.68	211.12
357.06	211.45
357.44	211.17
357.82	211.12
358.20	212.48
358.58	212.36
358.97	212.83
359.35	213.26
359.73	213.83
360.11	214.07
360.49	214.19
360.87	214.19
361.25	214.52
361.63	215.33
362.01	215.60
362.39	215.38
362.77	215.71
363.15	215.29
363.53	215.33
363.91	215.69
364.29	215.48
364.67	213.57
365.05	213.55
365.43	213.81
365.81	214.05
366.19	214.07
366.57	214.86
366.95	214.71
367.33	214.17
367.71	214.00
368.09	214.38
368.47	214.50
368.85	214.40
369.23	214.88
369.61	214.14
369.99	214.74
370.37	215.24
370.75	216.33
371.13	215.90
371.51	215.74
371.89	215.79
372.27	216.12
372.65	216.36
373.03	216.57
373.41	216.43
373.78	216.45
374.16	215.26
374.54	214.50
374.92	214.43
375.30	214.45
375.68	214.45
376.06	214.50
376.44	214.17
376.82	214.33
377.19	214.02
377.57	214.12
377.95	213.50
378.33	213.31
378.71	211.93
379.09	212.57
379.47	212.81
379.84	212.62
380.22	212.50
380.60	212.31
380.98	212.19
381.36	212.19
381.73	211.90
382.11	212.50
382.49	212.88
382.87	212.69
383.25	212.83
383.62	214.95
384.00	214.40
384.38	214.67
384.76	215.14
385.13	216.19
385.51	216.19
385.89	216.10
386.27	216.17
386.64	216.69
387.02	216.43
387.40	216.19
387.78	216.40
388.15	216.38
388.53	216.24
388.91	216.05
389.29	215.93
389.66	216.17
390.04	215.79
390.42	215.93
390.79	216.12
391.17	215.83
391.55	213.64
391.92	213.55
392.30	213.64
392.68	213.33
393.05	212.79
393.43	212.76
393.81	212.86
394.18	212.43
394.56	212.24
394.94	212.93
395.31	212.81
395.69	213.33
396.06	213.62
396.44	214.05
396.82	214.02
397.19	215.21
397.57	215.05
397.95	215.36
398.32	214.76
398.70	214.98
399.07	215.48
399.45	215.26
399.82	215.57
400.20	215.52
400.58	215.52
400.95	214.86
401.33	215.24
401.70	216.76
402.08	217.14
402.45	217.26
402.83	217.52
403.20	218.00
403.58	217.81
403.95	218.38
404.33	218.67
404.71	218.98
405.08	220.26
405.46	220.88
405.83	221.24
406.21	221.57
406.58	222.05
406.96	222.45
407.33	223.07
407.70	223.81
408.08	225.76
408.45	226.60
408.83	227.88
409.20	228.40
409.58	227.67
409.95	228.69
410.33	229.50
410.70	229.88
411.08	230.98
411.45	232.07
411.82	232.69
412.20	234.21
412.57	236.57
412.95	235.90
413.32	237.31
413.69	238.76
414.07	240.55
414.44	242.12
414.82	244.21
415.19	246.57
415.56	248.55
415.94	249.83
416.31	252.60
416.68	255.26
417.06	258.60
417.43	262.24
417.81	265.93
418.18	269.57
418.55	273.48
418.93	277.29
419.30	281.33
419.67	285.60
420.04	289.98
420.42	294.19
420.79	302.00
421.16	307.50
421.54	314.48
421.91	320.74
422.28	326.95
422.66	333.64
423.03	341.93
423.40	348.86
423.77	355.98
424.15	363.05
424.52	370.90
424.89	379.57
425.26	387.50
425.64	394.64
426.01	403.14
426.38	411.62
426.75	421.02
427.13	430.74
427.50	440.48
427.87	450.17
428.24	460.14
428.61	468.02
428.99	479.21
429.36	489.31
429.73	500.02
430.10	511.33
430.47	523.07
430.85	533.36
431.22	545.52
431.59	560.55
431.96	573.05
432.33	586.74
432.70	600.45
433.08	616.60
433.45	632.07
433.82	647.48
434.19	664.71
434.56	681.69
434.93	696.79
435.30	712.93
435.68	731.00
436.05	748.26
436.42	765.12
436.79	781.48
437.16	799.07
437.53	818.12
437.90	836.12
438.27	853.76
438.64	872.26
439.01	889.45
439.38	902.90
439.75	917.90
440.13	934.76
440.50	950.10
440.87	962.57
441.24	975.93
441.61	989.93
441.98	1000.64
442.35	1012.52
442.72	1025.83
443.09	1039.67
443.46	1047.24
443.83	1052.43
444.20	1057.67
444.57	1063.19
444.94	1066.10
445.31	1069.24
445.68	1075.21
446.05	1076.57
446.42	1074.74
446.79	1074.19
447.16	1072.45
447.53	1071.76
447.90	1065.52
448.27	1059.21
448.64	1050.57
449.01	1044.43
449.37	1033.81
449.74	1023.55
450.11	1012.26
450.48	997.60
450.85	980.98
451.22	968.21
451.59	956.40
451.96	944.40
452.33	929.40
452.70	915.21
453.07	897.81
453.43	878.07
453.80	861.74
454.17	846.02
454.54	830.10
454.91	814.17
455.28	797.81
455.65	782.55
456.02	770.64
456.38	758.07
456.75	742.60
457.12	729.31
457.49	715.93
457.86	701.50
458.23	691.79
458.59	680.36
458.96	668.31
459.33	657.88
459.70	647.79
460.07	639.12
460.43	629.90
460.80	621.36
461.17	614.19
461.54	605.57
461.91	597.79
462.27	589.79
462.64	582.45
463.01	575.26
463.38	568.88
463.74	558.83
464.11	552.26
464.48	546.86
464.85	540.43
465.21	535.95
465.58	531.14
465.95	523.95
466.32	519.19
466.68	514.19
467.05	508.98
467.42	503.86
467.78	498.17
468.15	493.07
468.52	489.26
468.88	483.29
469.25	478.29
469.62	474.83
469.98	471.29
470.35	467.36
470.72	463.33
471.08	458.86
471.45	455.83
471.82	453.10
472.18	449.50
472.55	447.21
472.92	443.38
473.28	440.40
473.65	437.33
474.02	434.14
474.38	431.93
474.75	429.52
475.11	426.93
475.48	425.38
475.85	423.52
476.21	421.76
476.58	420.57
476.94	419.79
477.31	418.33
477.67	416.81
478.04	416.17
478.41	415.95
478.77	417.50
479.14	416.52
479.50	415.93
479.87	415.19
480.23	414.29
480.60	414.05
480.96	413.88
481.33	415.00
481.69	415.24
482.06	415.48
482.42	416.07
482.79	416.43
483.15	417.00
483.52	418.45
483.88	418.88
484.25	419.29
484.61	420.12
484.98	420.79
485.34	422.83
485.71	424.21
486.07	425.00
486.44	424.24
486.80	425.67
487.17	427.29
487.53	429.74
487.90	432.55
488.26	435.83
488.62	438.52
488.99	440.21
489.35	443.00
489.72	445.50
490.08	448.00
490.44	450.79
490.81	453.86
491.17	456.55
491.54	459.86
491.90	463.74
492.26	467.29
492.63	470.98
492.99	473.93
493.36	477.81
493.72	482.17
494.08	486.55
494.45	491.48
494.81	496.48
495.17	500.88
495.54	505.83
495.90	510.12
496.26	515.43
496.63	520.79
496.99	526.43
497.35	532.24
497.72	538.62
498.08	544.45
498.44	550.83
498.80	557.02
499.17	563.69
499.53	570.21
499.89	577.67
500.26	584.43
500.62	591.10
500.98	598.45
501.34	605.86
501.71	613.45
502.07	620.33
502.43	627.00
502.79	634.07
503.16	640.67
503.52	647.67
503.88	654.48
504.24	661.88
504.60	669.24
504.97	677.07
505.33	684.05
505.69	692.24
506.05	699.98
506.41	707.48
506.78	714.90
507.14	722.10
507.50	729.33
507.86	737.40
508.22	745.33
508.59	752.86
508.95	760.45
509.31	769.29
509.67	776.69
510.03	784.29
510.39	792.40
510.75	800.17
511.12	808.26
511.48	816.12
511.84	824.62
512.20	832.02
512.56	839.21
512.92	847.07
513.28	854.79
513.64	861.83
514.00	869.52
514.37	876.29
514.73	883.83
515.09	890.95
515.45	898.00
515.81	905.17
516.17	911.95
516.53	918.45
516.89	923.79
517.25	930.67
517.61	938.48
517.97	944.62
518.33	951.33
518.69	958.05
519.05	964.74
519.41	970.29
519.77	977.79
520.13	984.74
520.49	990.12
520.85	995.55
521.21	1002.24
521.57	1008.07
521.93	1013.69
522.29	1019.14
522.65	1024.52
523.01	1030.17
523.37	1034.76
523.73	1039.88
524.09	1045.14
524.45	1050.50
524.81	1055.79
525.17	1060.00
525.53	1064.33
525.89	1069.07
526.25	1073.43
526.61	1077.07
526.97	1081.71
527.33	1085.29
527.68	1090.19
528.04	1095.10
528.40	1099.17
528.76	1102.50
529.12	1106.57
529.48	1111.76
529.84	1115.38
530.20	1119.52
530.56	1123.64
530.91	1129.26
531.27	1133.71
531.63	1138.12
531.99	1141.29
532.35	1145.21
532.71	1149.21
533.07	1154.38
533.42	1161.14
533.78	1165.86
534.14	1171.00
534.50	1175.19
534.86	1179.52
535.21	1182.00
535.57	1187.10
535.93	1190.90
536.29	1195.67
536.65	1199.86
537.00	1203.12
537.36	1207.57
537.72	1211.33
538.08	1214.98
538.44	1217.12
538.79	1220.40
539.15	1223.81
539.51	1228.29
539.87	1231.69
540.22	1234.88
540.58	1238.45
540.94	1239.69
541.29	1242.02
541.65	1244.19
542.01	1247.81
542.37	1250.29
542.72	1253.07
543.08	1254.60
543.44	1258.07
543.79	1258.95
544.15	1261.83
544.51	1265.48
544.87	1269.10
545.22	1271.69
545.58	1273.98
545.94	1276.74
546.29	1279.52
546.65	1281.83
547.01	1283.90
547.36	1286.57
547.72	1288.86
548.07	1290.81
548.43	1292.86
548.79	1295.64
549.14	1297.64
549.50	1300.26
549.86	1302.55
550.21	1305.02
550.57	1308.26
550.92	1310.55
551.28	1314.90
551.64	1317.40
551.99	1319.57
552.35	1321.17
552.70	1323.93
553.06	1327.62
553.41	1330.57
553.77	1334.93
554.13	1338.83
554.48	1343.02
554.84	1347.10
555.19	1350.81
555.55	1355.50
555.90	1359.17
556.26	1362.76
556.61	1367.43
556.97	1369.50
557.32	1373.79
557.68	1378.29
558.03	1381.86
558.39	1385.24
558.74	1388.95
559.10	1392.48
559.45	1396.43
559.81	1401.48
560.16	1404.74
560.52	1409.05
560.87	1414.74
561.23	1417.40
561.58	1422.98
561.94	1426.24
562.29	1429.69
562.64	1434.57
563.00	1438.14
563.35	1442.45
563.71	1447.10
564.06	1451.95
564.42	1458.10
564.77	1463.50
565.12	1469.26
565.48	1476.64
565.83	1483.21
566.19	1489.24
566.54	1495.21
566.89	1500.21
567.25	1505.90
567.60	1514.36
567.96	1521.19
568.31	1527.05
568.66	1533.98
569.02	1538.05
569.37	1544.71
569.72	1551.05
570.08	1556.02
570.43	1561.07
570.78	1567.67
571.14	1573.33
571.49	1578.43
571.84	1583.76
572.20	1588.19
572.55	1593.48
572.90	1597.40
573.26	1602.40
573.61	1606.52
573.96	1611.60
574.31	1617.33
574.67	1621.52
575.02	1624.24
575.37	1627.43
575.72	1629.86
576.08	1633.36
576.43	1637.81
576.78	1641.07
577.13	1644.29
577.49	1648.93
577.84	1653.90
578.19	1657.50
578.54	1661.79
578.90	1665.67
579.25	1669.40
579.60	1672.60
579.95	1674.69
580.30	1677.98
580.66	1680.55
581.01	1684.17
581.36	1686.90
581.71	1689.95
582.06	1693.71
582.42	1697.88
582.77	1700.36
583.12	1705.24
583.47	1709.00
583.82	1712.02
584.17	1715.60
584.53	1720.02
584.88	1722.31
585.23	1725.64
585.58	1728.26
585.93	1730.40
586.28	1733.55
586.63	1736.67
586.98	1740.17
587.34	1744.48
587.69	1745.48
588.04	1749.38
588.39	1751.33
588.74	1752.76
589.09	1754.90
589.44	1756.19
589.79	1757.43
590.14	1759.26
590.49	1759.67
590.84	1760.67
591.19	1762.45
591.54	1763.52
591.89	1764.14
592.25	1767.29
592.60	1767.60
592.95	1768.69
593.30	1770.60
593.65	1771.40
594.00	1771.10
594.35	1776.95
594.70	1776.33
595.05	1777.45
595.40	1777.29
595.75	1778.21
596.10	1779.88
596.45	1780.36
596.80	1781.31
597.15	1782.33
597.50	1782.55
597.85	1784.24
598.19	1784.93
598.54	1784.71
598.89	1785.31
599.24	1786.69
599.59	1785.19
599.94	1785.12
600.29	1785.12
600.64	1784.64
600.99	1785.38
601.34	1787.02
601.69	1781.48
602.04	1781.60
602.39	1782.12
602.74	1781.55
603.08	1781.14
603.43	1781.64
603.78	1781.45
604.13	1780.57
604.48	1780.02
604.83	1779.83
605.18	1779.69
605.53	1779.17
605.87	1778.71
606.22	1777.43
606.57	1774.38
606.92	1773.74
607.27	1772.88
607.62	1772.33
607.96	1771.50
608.31	1770.00
608.66	1768.38
609.01	1767.50
609.36	1766.71
609.70	1764.57
610.05	1763.33
610.40	1761.12
610.75	1758.31
611.10	1756.90
611.44	1755.00
611.79	1752.07
612.14	1749.90
612.49	1745.38
612.83	1742.79
613.18	1739.38
613.53	1736.67
613.88	1733.57
614.22	1730.83
614.57	1727.45
614.92	1723.07
615.27	1719.45
615.61	1715.02
615.96	1710.31
616.31	1706.31
616.65	1703.33
617.00	1701.36
617.35	1697.57
617.70	1694.69
618.04	1690.69
618.39	1685.93
618.74	1682.14
619.08	1678.33
619.43	1674.14
619.78	1671.19
620.12	1667.29
620.47	1664.62
620.82	1660.50
621.16	1656.64
621.51	1652.95
621.85	1648.50
622.20	1645.17
622.55	1640.26
622.89	1636.90
623.24	1634.55
623.59	1629.93
623.93	1624.86
624.28	1619.48
624.62	1617.38
624.97	1614.31
625.32	1610.81
625.66	1607.12
626.01	1602.40
626.35	1598.64
626.70	1594.95
627.04	1591.36
627.39	1586.95
627.73	1583.10
628.08	1579.74
628.43	1576.74
628.77	1571.95
629.12	1569.64
629.46	1566.00
629.81	1561.86
630.15	1557.40
630.50	1551.45
630.84	1547.45
631.19	1542.31
631.53	1537.79
631.88	1530.45
632.22	1523.88
632.57	1518.60
632.91	1513.29
633.26	1509.43
633.60	1504.05
633.95	1498.38
634.29	1493.10
634.64	1488.21
634.98	1481.86
635.32	1477.40
635.67	1472.29
636.01	1469.00
636.36	1462.43
636.70	1457.36
637.05	1453.48
637.39	1449.05
637.73	1444.71
638.08	1441.14
638.42	1436.64
638.77	1432.29
639.11	1427.81
639.45	1422.88
639.80	1418.19
640.14	1413.76
640.49	1407.62
640.83	1402.83
641.17	1398.12
641.52	1391.74
641.86	1386.74
642.20	1382.86
642.55	1376.05
642.89	1370.17
643.23	1363.52
643.58	1359.19
643.92	1352.95
644.26	1346.93
644.61	1341.33
644.95	1335.55
645.29	1329.10
645.64	1323.33
645.98	1317.40
646.32	1311.86
646.66	1305.93
647.01	1299.26
647.35	1292.95
647.69	1287.50
648.04	1281.67
648.38	1276.31
648.72	1271.21
649.06	1265.07
649.41	1257.81
649.75	1251.55
650.09	1245.55
650.43	1237.98
650.78	1230.79
651.12	1224.36
651.46	1217.67
651.80	1210.64
652.14	1204.40
652.49	1197.98
652.83	1191.48
653.17	1184.12
653.51	1176.57
653.85	1170.74
654.20	1164.57
654.54	1157.21
654.88	1150.31
655.22	1144.17
655.56	1137.31
655.90	1131.05
656.25	1124.24
656.59	1118.24
656.93	1112.26
657.27	1106.17
657.61	1100.64
657.95	1094.86
658.29	1088.88
658.64	1083.43
658.98	1076.90
659.32	1069.55
659.66	1062.48
660.00	1056.67
660.34	1050.48
660.68	1044.67
661.02	1037.74
661.36	1031.52
661.70	1025.90
662.05	1020.26
662.39	1013.76
662.73	1008.29
663.07	1003.36
663.41	996.93
663.75	990.71
664.09	985.17
664.43	978.52
664.77	971.95
665.11	965.05
665.45	958.50
665.79	952.10
666.13	946.12
666.47	940.95
666.81	935.21
667.15	929.12
667.49	923.62
667.83	918.81
668.17	913.33
668.51	908.12
668.85	902.67
669.19	897.71
669.53	891.88
669.87	885.29
670.21	878.29
670.55	873.02
670.89	867.74
671.23	861.95
671.57	856.76
671.91	851.60
672.25	846.90
672.58	842.14
672.92	835.79
673.26	830.60
673.60	825.02
673.94	819.62
674.28	813.98
674.62	809.21
674.96	803.86
675.30	798.98
675.64	793.48
675.97	788.98
676.31	783.17
676.65	778.17
676.99	774.62
677.33	770.12
677.67	765.12
678.01	759.90
678.34	755.10
678.68	750.67
679.02	746.02
679.36	740.71
679.70	735.60
680.04	731.79
680.37	726.60
680.71	721.93
681.05	718.38
681.39	713.88
681.73	709.02
682.06	703.88
682.40	699.17
682.74	695.05
683.08	690.57
683.42	685.74
683.75	681.33
684.09	675.62
684.43	670.38
684.77	665.69
685.10	661.21
685.44	656.60
685.78	651.43
686.12	646.71
686.45	642.36
686.79	637.38
687.13	633.29
687.46	629.52
687.80	626.02
688.14	621.21
688.48	617.14
688.81	613.33
689.15	609.71
689.49	605.31
689.82	600.74
690.16	595.74
690.50	591.55
690.83	587.33
691.17	583.02
691.51	579.10
691.84	575.33
692.18	571.31
692.52	567.33
692.85	564.29
693.19	561.50
693.52	557.60
693.86	553.81
694.20	549.57
694.53	545.86
694.87	541.05
695.21	536.50
695.54	533.10
695.88	528.62
696.21	524.10
696.55	520.36
696.88	516.81
697.22	513.00
697.56	510.12
697.89	506.24
698.23	503.02
698.56	499.57
698.90	496.55
699.23	492.69
699.57	489.26
699.90	485.67
700.24	481.36
700.58	477.90
700.91	475.38
701.25	473.74
701.58	471.21
701.92	468.86
702.25	466.55
702.59	462.86
702.92	459.86
703.26	457.00
703.59	454.19
703.93	452.88
704.26	450.57
704.60	447.45
704.93	444.74
705.26	441.55
705.60	439.05
705.93	435.64
706.27	433.90
706.60	431.79
706.94	429.71
707.27	426.83
707.61	424.50
707.94	421.64
708.27	417.67
708.61	414.19
708.94	411.33
709.28	409.31
709.61	407.02
709.94	404.71
710.28	402.48
710.61	400.29
710.95	396.19
711.28	395.50
711.61	393.36
711.95	391.36
712.28	389.31
712.61	387.12
712.95	385.95
713.28	384.36
713.61	381.79
713.95	379.00
714.28	377.43
714.61	375.05
714.95	373.17
715.28	370.79
715.61	368.98
715.95	367.26
716.28	364.38
716.61	362.57
716.95	360.43
717.28	358.86
717.61	356.90
717.94	355.10
718.28	351.55
718.61	349.52
718.94	347.64
719.27	346.05
719.61	344.31
719.94	342.55
720.27	339.90
720.60	338.07
720.94	336.62
721.27	335.17
721.60	334.17
721.93	332.45
722.27	331.67
722.60	330.45
722.93	328.83
723.26	327.81
723.59	326.26
723.93	325.07
724.26	323.45
724.59	321.95
724.92	320.93
725.25	319.88
725.59	318.43
725.92	317.48
726.25	315.93
726.58	314.64
726.91	312.90
727.24	312.05
727.57	311.02
727.91	309.40
728.24	308.31
728.57	307.14
728.90	306.74
729.23	305.10
729.56	304.76
729.89	303.90
730.22	302.74
730.55	301.52
730.89	300.50
731.22	299.45
731.55	298.55
731.88	297.36
732.21	296.12
732.54	295.31
732.87	294.29
733.20	293.71
733.53	292.90
733.86	292.31
734.19	291.00
734.52	290.52
734.85	291.36
735.18	290.10
735.51	289.57
735.84	288.48
736.17	288.26
736.50	286.40
736.83	287.52
737.16	286.67
737.49	286.10
737.82	285.31
738.15	284.83
738.48	284.05
738.81	283.17
739.14	282.24
739.47	281.45
739.80	280.57
740.13	279.90
740.46	278.81
740.79	277.90
741.12	276.95
741.45	275.81
741.78	273.71
742.11	273.62
742.44	272.45
742.77	272.07
743.10	270.76
743.43	270.07
743.75	267.36
744.08	269.19
744.41	268.31
744.74	267.48
745.07	266.62
745.40	266.26
745.73	266.52
746.06	266.02
746.39	265.71
746.71	264.81
747.04	263.98
747.37	263.40
747.70	262.88
748.03	262.60
748.36	262.38
748.68	262.19
749.01	260.90
749.34	260.38
749.67	259.55
750.00	259.62
750.33	260.74
750.65	260.48
750.98	257.52
751.31	257.10
751.64	256.55
751.97	256.86
752.29	256.19
752.62	254.79
752.95	254.26
753.28	253.57
753.60	253.24
753.93	253.36
754.26	252.93
754.59	251.95
754.91	251.38
755.24	250.60
755.57	249.83
755.90	249.36
756.22	248.90
756.55	248.07
756.88	247.12
757.20	245.12
757.53	244.17
757.86	243.71
758.19	243.52
758.51	243.14
758.84	241.81
759.17	241.31
759.49	240.98
759.82	241.55
760.15	241.31
760.47	240.86
760.80	239.69
761.13	239.74
761.45	239.29
761.78	238.71
762.11	238.45
762.43	237.86
762.76	237.64
763.08	237.43
763.41	237.33
763.74	237.14
764.06	236.93
764.39	236.55
764.71	236.33
765.04	235.60
765.37	235.48
765.69	235.40
766.02	235.17
766.34	234.67
766.67	233.60
767.00	233.57
767.32	234.60
767.65	235.64
767.97	235.14
768.30	235.29
768.62	235.10
768.95	234.50
769.27	234.24
769.60	234.38
769.92	233.83
770.25	233.10
770.57	232.45
770.90	231.88
771.22	231.52
771.55	231.33
771.87	231.29
772.20	230.86
772.52	231.88
772.85	233.90
773.17	234.00
773.50	233.83
773.82	233.21
774.15	231.86
774.47	230.55
774.80	230.12
775.12	229.74
775.45	229.60
775.77	229.81
776.09	230.02
776.42	229.83
776.74	230.38
777.07	230.14
777.39	230.05
777.72	229.64
778.04	229.60
778.36	229.21
778.69	229.21
779.01	229.26
779.33	227.74
779.66	225.38
779.98	225.07
780.31	224.69
780.63	225.50
780.95	225.67
781.28	225.55
781.60	225.62
781.92	225.67
782.25	225.52
782.57	225.31
782.89	224.90
783.22	224.52
783.54	223.79
783.86	224.26
784.19	224.07
784.51	224.95
784.83	224.67
785.16	224.40
785.48	224.36
785.80	224.31
786.12	224.24
786.45	224.17
786.77	224.29
787.09	224.12
787.42	223.14
787.74	223.14
788.06	223.02
788.38	222.57
788.71	222.17
789.03	222.26
789.35	222.05
789.67	221.90
789.99	222.07
790.32	221.95
790.64	222.07
790.96	223.71
791.28	222.74
791.61	222.86
791.93	223.12
792.25	222.95
792.57	224.21
792.89	223.62
793.21	223.52
793.54	223.38
793.86	223.14
794.18	223.14
794.50	222.67
794.82	222.60
795.14	222.90
795.47	223.21
795.79	223.10
796.11	222.83
796.43	222.67
796.75	222.60
797.07	222.62
797.39	222.26
797.71	220.93
798.04	221.17
798.36	221.24
798.68	221.29
799.00	221.40
799.32	220.17
799.64	220.81
799.96	220.81
800.28	220.86
800.60	220.71
800.92	220.88
801.24	220.62
801.56	220.71
801.89	220.62
802.21	220.90
802.53	220.43
802.85	220.88
803.17	221.67
803.49	221.12
803.81	220.76
804.13	220.62
804.45	220.29
804.77	220.38
805.09	219.95
805.41	219.43
805.73	218.88
806.05	218.67
806.37	218.33
806.69	218.24
807.01	218.00
807.33	218.12
807.65	217.55
807.97	218.74
808.28	218.60
808.60	218.57
808.92	217.95
809.24	219.50
809.56	219.19
809.88	218.52
810.20	218.83
810.52	219.12
810.84	218.95
811.16	218.55
811.48	218.38
811.80	219.36
812.12	219.48
812.43	219.83
812.75	219.81
813.07	219.60
813.39	219.67
813.71	219.29
814.03	219.36
814.35	219.24
814.67	218.07
814.98	217.81
815.30	217.74
815.62	217.52
815.94	215.95
816.26	215.90
816.58	215.57
816.89	215.60
817.21	215.21
817.53	215.26
817.85	215.60
818.17	215.26
818.48	214.10
818.80	214.36
819.12	213.93
819.44	213.57
819.76	213.36
820.07	213.29
820.39	213.48
820.71	213.62
821.03	213.71
821.34	213.76
821.66	214.17
821.98	214.24
822.30	214.10
822.61	215.38
822.93	215.24
823.25	215.00
823.57	214.69
823.88	215.19
824.20	215.05
824.52	215.24
824.83	215.38
825.15	215.50
825.47	215.52
825.79	215.71
826.10	215.50
826.42	215.45
826.74	215.43
827.05	215.29
827.37	215.19
827.69	215.12
828.00	215.17
828.32	214.76
828.64	214.50
828.95	215.52
829.27	215.02
829.58	214.98
829.90	215.69
830.22	215.76
830.53	215.26
830.85	215.21
831.17	214.74
831.48	214.69
831.80	214.79
832.11	214.36
832.43	214.21
832.75	214.26
833.06	215.50
833.38	215.10
833.69	215.02
834.01	215.12
834.32	215.10
834.64	215.02
834.96	215.07
835.27	214.88
835.59	214.17
835.90	213.52
836.22	213.43
836.53	212.67
836.85	212.40
837.16	214.26
837.48	214.17
837.79	214.95
838.11	215.14
838.42	215.19
838.74	215.36
839.05	215.19
839.37	215.12
839.68	214.00
840.00	214.12
840.31	214.62
840.63	214.48
840.94	214.31
841.26	213.98
841.57	214.26
841.88	214.52
842.20	214.43
842.51	214.29
842.83	214.38
843.14	216.40
843.46	216.64
843.77	215.71
844.08	215.60
844.40	214.62
844.71	214.17
845.03	213.93
845.34	213.88
845.65	213.88
845.97	214.12
846.28	214.17
846.60	214.14
846.91	213.48
847.22	212.98
847.54	213.24
847.85	213.60
848.16	213.19
848.48	212.74
848.79	213.50
849.10	213.83
849.42	214.02
849.73	212.19
850.04	211.93
850.36	211.31
850.67	211.79
850.98	212.14
851.30	212.60
851.61	212.55
851.92	212.48
852.23	212.95
852.55	212.83
852.86	212.86
853.17	213.10
853.49	213.79
853.80	214.55
854.11	214.88
854.42	214.95
854.74	214.88
855.05	215.21
855.36	214.17
855.67	214.24
855.99	214.24
856.30	216.60
856.61	216.74
856.92	216.57
857.23	216.36
857.55	216.21
857.86	216.07
858.17	216.52
858.48	216.36
858.79	215.86
859.11	216.21
859.42	215.98
859.73	215.52
860.04	215.40
860.35	214.95
860.66	214.17
860.98	214.12
861.29	214.29
861.60	214.14
861.91	214.69
862.22	214.31
862.53	214.05
862.84	211.64
863.16	212.12
863.47	211.86
863.78	211.79
864.09	211.95
864.40	212.07
864.71	211.95
865.02	212.38
865.33	212.48
865.64	212.17
865.95	212.38
866.27	213.83
866.58	213.79
866.89	213.90
867.20	214.10
867.51	213.64
867.82	213.62
868.13	214.33
868.44	213.76
868.75	214.17
869.06	214.33
869.37	214.60
869.68	213.95
869.99	214.26
870.30	214.40
870.61	214.55
870.92	214.17
871.23	213.98
871.54	213.86
871.85	214.29
872.16	214.19
872.47	214.10
872.78	213.00
873.09	213.00
873.40	212.67
873.71	212.64
874.02	212.98
874.33	212.69
874.64	212.00
874.95	212.43
875.26	212.17
875.56	211.98
875.87	211.86
876.18	211.81
876.49	213.98
876.80	213.76
877.11	213.33
877.42	213.45
877.73	213.48
878.04	213.43
878.35	213.43
878.66	213.62
878.96	213.60
879.27	213.40
879.58	213.48
879.89	213.76
880.20	214.40
880.51	214.36
880.82	214.38
881.12	214.52
881.43	214.07
881.74	213.81
882.05	213.83
882.36	213.90
882.67	214.14
882.97	211.95
883.28	211.86
883.59	211.83
883.90	212.12
884.21	212.45
884.51	212.05
884.82	211.64
885.13	211.64
885.44	211.52
885.74	211.48
886.05	211.33
886.36	211.33
886.67	210.52
886.98	211.52
887.28	211.86
887.59	211.88
887.90	212.24
888.20	212.43
888.51	212.86
888.82	212.45
889.13	212.62
889.43	214.26
889.74	213.98
890.05	213.93
890.35	213.60
890.66	213.43
890.97	213.45
891.28	213.33
891.58	213.19
891.89	213.24
892.20	213.10
892.50	212.62
892.81	212.57
893.12	212.62
893.42	211.52
893.73	211.50
894.04	211.57
894.34	211.55
894.65	211.38
894.95	210.88
895.26	211.12
895.57	211.83
895.87	210.07
896.18	210.67
896.48	210.93
896.79	211.07
897.10	211.17
897.40	211.31
897.71	211.62
898.01	211.79
898.32	211.98
898.63	211.98
898.93	212.24
899.24	212.00
899.54	211.93
899.85	211.74
900.15	211.64
900.46	211.50
900.76	211.48
901.07	211.31
901.38	211.50
901.68	211.67
901.99	210.98
902.29	210.93
902.60	210.74
902.90	210.36
903.21	210.48
903.51	210.55
903.82	210.90
904.12	210.79
904.43	210.76
904.73	210.74
905.03	210.95
905.34	212.98
905.64	213.07
905.95	213.19
906.25	213.31
906.56	213.05
906.86	213.02
907.17	212.98
907.47	213.10
907.77	212.71
908.08	212.17
908.38	211.98
908.69	212.38
908.99	212.81
909.30	212.90
909.60	212.83
909.90	212.83
910.21	212.29
910.51	212.05
910.81	212.07
911.12	212.19
911.42	212.19
911.73	210.21
912.03	210.29
912.33	210.55
912.64	210.52
912.94	210.64
913.24	210.50
913.55	210.38
913.85	210.43
914.15	211.05
914.46	211.55
914.76	211.33
915.06	210.88
915.37	210.33
915.67	210.43
915.97	210.24
916.27	209.69
916.58	209.79
916.88	209.79
917.18	209.57
917.49	210.93
917.79	210.79
918.09	210.76
918.39	211.48
918.70	211.26
919.00	211.36
919.30	212.21
919.60	212.05
919.91	212.07
920.21	212.36
920.51	211.67
920.81	211.60
921.12	212.07
921.42	212.24
921.72	212.48
922.02	212.76
922.32	213.14
922.63	213.38
922.93	214.52
923.23	214.31
923.53	214.31
923.83	212.98
924.13	213.31
924.44	213.40
924.74	213.64
925.04	214.29
925.34	214.26
925.64	213.57
925.94	213.57
926.24	214.69
926.55	214.26
926.85	214.76
927.15	214.67
927.45	214.57
927.75	214.43
928.05	214.69
928.35	214.33
928.65	214.64
928.95	214.98
929.26	214.21
929.56	214.81
929.86	214.95
930.16	214.83
930.46	214.62
930.76	214.50
931.06	213.29
931.36	212.67
931.66	212.86
931.96	212.90
932.26	213.14
932.56	212.31
932.86	212.43
933.16	212.50
933.46	212.24
933.76	211.81
934.06	212.43
934.36	212.98
934.66	212.98
934.96	212.76
935.26	212.62
935.56	212.88
935.86	212.38
936.16	212.40
936.46	212.17
936.76	212.00
937.06	211.88
937.36	212.38
937.66	212.69
937.96	212.64
938.26	212.45
938.56	212.43
938.86	212.26
939.16	212.64
939.46	212.76
939.76	213.00
940.06	213.24
940.35	212.52
940.65	211.29
940.95	211.29
941.25	210.71
941.55	210.45
941.85	210.21
942.15	210.90
942.45	211.31
942.75	211.17
943.04	211.26
943.34	212.07
943.64	211.50
943.94	210.98
944.24	211.17
944.54	211.26
944.84	211.21
945.13	211.24
945.43	211.10
945.73	210.93
946.03	211.00
946.33	210.50
946.62	210.29
946.92	210.50
947.22	210.76
947.52	210.98
947.82	211.26
948.11	211.05
948.41	210.21
948.71	209.60
949.01	209.98
949.31	209.81
949.60	209.26
949.90	209.71
950.20	209.71
950.50	209.57
950.79	209.45
951.09	209.79
951.39	209.60
951.69	209.19
951.98	209.69
952.28	209.57
952.58	209.93
952.87	210.19
953.17	210.43
953.47	210.02
953.76	209.90
954.06	209.43
954.36	209.24
954.66	209.55
954.95	209.93
955.25	209.81
955.55	210.07
955.84	209.71
956.14	210.10
956.44	210.31
956.73	210.10
957.03	210.05
957.32	209.95
957.62	209.95
957.92	210.50
958.21	210.21
958.51	212.67
958.81	212.83
959.10	212.98
959.40	213.57
959.69	214.02
959.99	214.52
960.29	214.71
960.58	214.57
960.88	215.36
961.17	215.31
961.47	215.55
961.76	215.38
962.06	215.93
962.36	215.48
962.65	215.57
962.95	215.55
963.24	215.52
963.54	215.36
963.83	215.36
964.13	215.19
964.42	214.57
964.72	212.83
965.01	212.76
965.31	212.62
965.60	212.00
965.90	213.26
966.19	212.62
966.49	212.79
966.78	212.86
967.08	212.45
967.37	212.50
967.67	212.40
967.96	212.76
968.26	212.60
968.55	213.10
968.85	212.81
969.14	212.71
969.43	212.62
969.73	212.76
970.02	212.64
970.32	212.62
970.61	212.55
970.91	211.93
971.20	211.79
971.49	211.69
971.79	212.00
972.08	210.55
972.38	211.02
972.67	210.93
972.96	211.12
973.26	210.76
973.55	211.21
973.85	210.95
974.14	210.83
974.43	210.76
974.73	210.26
975.02	210.14
975.31	210.48
975.61	210.57
975.90	210.21
976.19	210.21
976.49	210.33
976.78	210.79
977.07	210.83
977.37	211.05
977.66	211.38
977.95	210.98
978.24	211.07
978.54	211.12
978.83	210.95
979.12	210.93
979.42	211.02
979.71	210.52
980.00	210.36
980.29	210.26
980.59	210.05
980.88	210.45
981.17	210.67
981.46	210.64
981.76	210.64
982.05	211.26
982.34	211.55
982.63	211.57
982.93	211.45
983.22	211.95
983.51	211.93
983.80	212.10
984.09	212.52
984.39	212.48
984.68	212.14
984.97	212.38
985.26	212.19
985.55	212.38
985.85	212.17
986.14	212.60
986.43	212.79
986.72	212.64
987.01	211.95
987.30	211.86
987.59	211.43
987.89	211.45
988.18	210.98
988.47	210.62
988.76	210.38
989.05	210.19
989.34	209.86
989.63	210.38
989.92	210.05
990.22	209.57
990.51	209.45
990.80	209.60
991.09	209.40
991.38	209.64
991.67	209.26
991.96	209.02
992.25	209.02
992.54	208.62
992.83	208.81
993.12	208.98
993.41	209.29
993.70	210.36
993.99	210.60
994.28	210.90
994.58	211.02
994.87	210.74
995.16	210.79
995.45	210.60
995.74	209.88
996.03	210.21
996.32	210.52
996.61	211.10
996.90	211.00
997.19	210.98
997.48	211.05
997.77	211.05
998.06	211.36
998.34	211.24
998.63	211.67
998.92	211.81
999.21	211.93
999.50	212.05
999.79	211.10
1000.08	211.00
1000.37	210.71
1000.66	210.57
1000.95	211.36
1001.24	211.64
1001.53	211.79
1001.82	211.52
1002.11	211.10
1002.40	211.33
1002.68	211.50
1002.97	213.10
1003.26	212.90
1003.55	212.79
1003.84	213.02
1004.13	213.57
1004.42	213.50
1004.71	213.24
1004.99	213.02
1005.28	213.69
1005.57	213.48
1005.86	213.45
1006.15	213.50
1006.44	213.19
1006.72	213.52
1007.01	213.00
1007.30	212.71
1007.59	212.60
1007.88	212.76
1008.17	212.86
1008.45	212.36
1008.74	211.62
1009.03	210.64
1009.32	210.79
1009.60	210.55
1009.89	210.26
1010.18	209.60
1010.47	209.43
1010.76	209.19
1011.04	209.19
1011.33	209.21
1011.62	209.31
1011.91	209.36
1012.19	209.38
1012.48	209.76
1012.77	209.79
1013.05	210.69
1013.34	210.93
1013.63	210.86
1013.92	210.86
1014.20	210.60
1014.49	210.71
1014.78	210.98
1015.06	210.19
1015.35	210.31
1015.64	210.88
1015.92	211.33
1016.21	211.38
1016.50	211.31
1016.78	211.69
1017.07	211.74
1017.36	211.00
1017.64	210.64
1017.93	211.12
1018.22	211.07
1018.50	210.74
1018.79	210.62
1019.08	209.60
1019.36	209.45
1019.65	209.17
1019.93	209.76
1020.22	210.12
1020.51	211.10
1020.79	210.67
1021.08	211.50
1021.36	203.50
1021.65	210.50
1021.94	207.50
1022.22	210.00
1022.51	203.00
1022.79	218.50
1023.08	212.00
1023.36	233.50
1023.65	204.00
>>>>>End Processed Spectral Data<<<<<
