SpectraSuite Data File
++++++++++++++++++++++++++++++++++++
Date: Tue Apr 02 18:39:55 EDT 2013
User: group
Dark Spectrum Present: No
Reference Spectrum Present: No
Number of Sampled Component Spectra: 1
Spectrometers: USB2E7196
Integration Time (usec): 580000 (USB2E7196)
Spectra Averaged: 2 (USB2E7196)
Boxcar Smoothing: 10 (USB2E7196)
Correct for Electrical Dark: No (USB2E7196)
Strobe/Lamp Enabled: No (USB2E7196)
Correct for Detector Non-linearity: No (USB2E7196)
Correct for Stray Light: No (USB2E7196)
Number of Pixels in Processed Spectrum: 2048
>>>>>Begin Processed Spectral Data<<<<<
339.09	0.00
339.48	194.00
339.86	197.50
340.24	197.00
340.63	199.50
341.01	234.50
341.39	201.50
341.78	208.50
342.16	211.00
342.54	205.00
342.93	198.29
343.31	208.31
343.69	209.10
344.07	209.50
344.46	210.17
344.84	210.88
345.22	209.57
345.60	210.02
345.99	210.17
346.37	210.10
346.75	210.19
347.13	210.36
347.52	210.52
347.90	211.19
348.28	211.26
348.66	211.86
349.05	211.31
349.43	211.26
349.81	211.64
350.19	211.81
350.57	211.86
350.96	212.19
351.34	212.17
351.72	212.14
352.10	212.14
352.48	211.83
352.87	211.74
353.25	211.90
353.63	211.81
354.01	211.71
354.39	211.86
354.77	212.02
355.15	212.36
355.54	212.29
355.92	211.76
356.30	211.93
356.68	213.21
357.06	213.33
357.44	212.98
357.82	212.88
358.20	213.60
358.58	213.60
358.97	213.38
359.35	213.98
359.73	214.48
360.11	214.67
360.49	214.90
360.87	214.64
361.25	214.81
361.63	215.74
362.01	216.05
362.39	215.81
362.77	215.67
363.15	215.57
363.53	215.48
363.91	215.67
364.29	215.60
364.67	213.60
365.05	213.57
365.43	214.02
365.81	214.17
366.19	214.40
366.57	214.90
366.95	214.90
367.33	214.43
367.71	214.10
368.09	214.43
368.47	214.43
368.85	214.50
369.23	215.05
369.61	214.00
369.99	214.60
370.37	214.86
370.75	216.17
371.13	215.90
371.51	215.67
371.89	215.90
372.27	216.19
372.65	216.62
373.03	216.57
373.41	216.26
373.78	216.24
374.16	215.19
374.54	214.64
374.92	214.67
375.30	214.64
375.68	214.29
376.06	214.48
376.44	214.40
376.82	214.62
377.19	214.14
377.57	214.19
377.95	213.45
378.33	213.36
378.71	212.10
379.09	212.45
379.47	212.81
379.84	212.45
380.22	212.19
380.60	211.83
380.98	211.81
381.36	211.95
381.73	211.79
382.11	212.31
382.49	212.69
382.87	212.26
383.25	212.26
383.62	214.55
384.00	213.98
384.38	214.14
384.76	214.52
385.13	215.43
385.51	215.52
385.89	215.40
386.27	215.76
386.64	216.29
387.02	215.90
387.40	215.69
387.78	215.83
388.15	216.00
388.53	215.93
388.91	216.17
389.29	215.95
389.66	216.10
390.04	215.74
390.42	215.76
390.79	216.02
391.17	215.90
391.55	214.02
391.92	214.02
392.30	214.17
392.68	213.79
393.05	213.64
393.43	213.71
393.81	213.81
394.18	213.33
394.56	213.12
394.94	213.60
395.31	213.69
395.69	214.24
396.06	214.52
396.44	214.62
396.82	214.40
397.19	215.52
397.57	215.50
397.95	216.02
398.32	215.48
398.70	215.79
399.07	216.48
399.45	216.31
399.82	216.57
400.20	216.50
400.58	216.45
400.95	215.81
401.33	216.29
401.70	217.76
402.08	218.00
402.45	218.12
402.83	218.76
403.20	218.81
403.58	218.81
403.95	219.29
404.33	219.81
404.71	220.24
405.08	221.52
405.46	221.74
405.83	221.90
406.21	222.40
406.58	222.76
406.96	222.69
407.33	223.52
407.70	224.05
408.08	226.07
408.45	227.07
408.83	228.21
409.20	228.57
409.58	228.07
409.95	229.26
410.33	230.29
410.70	230.69
411.08	232.12
411.45	233.36
411.82	234.10
412.20	235.74
412.57	238.19
412.95	237.88
413.32	239.71
413.69	241.40
414.07	243.31
414.44	245.31
414.82	247.79
415.19	250.33
415.56	252.81
415.94	254.67
416.31	257.71
416.68	260.62
417.06	264.36
417.43	268.24
417.81	272.00
418.18	275.93
418.55	279.74
418.93	283.90
419.30	288.57
419.67	293.36
420.04	298.14
420.42	302.81
420.79	310.21
421.16	316.45
421.54	323.95
421.91	330.76
422.28	337.64
422.66	344.48
423.03	352.60
423.40	360.40
423.77	368.05
424.15	375.69
424.52	383.86
424.89	393.07
425.26	401.12
425.64	409.10
426.01	418.38
426.38	428.36
426.75	438.74
427.13	448.45
427.50	458.81
427.87	469.62
428.24	480.36
428.61	489.62
428.99	501.88
429.36	513.69
429.73	525.93
430.10	538.07
430.47	551.74
430.85	563.19
431.22	576.40
431.59	592.26
431.96	606.07
432.33	621.50
432.70	636.36
433.08	654.74
433.45	671.52
433.82	688.00
434.19	706.33
434.56	724.36
434.93	741.71
435.30	759.12
435.68	778.43
436.05	797.31
436.42	816.52
436.79	833.40
437.16	851.40
437.53	870.81
437.90	889.95
438.27	908.24
438.64	928.52
439.01	947.38
439.38	962.31
439.75	979.02
440.13	997.07
440.50	1014.31
440.87	1028.21
441.24	1042.45
441.61	1058.33
441.98	1070.48
442.35	1083.79
442.72	1097.17
443.09	1111.76
443.46	1119.90
443.83	1126.00
444.20	1131.07
444.57	1137.83
444.94	1141.38
445.31	1145.12
445.68	1151.19
446.05	1153.21
446.42	1151.57
446.79	1149.79
447.16	1147.29
447.53	1145.07
447.90	1138.12
448.27	1130.45
448.64	1120.62
449.01	1114.50
449.37	1102.21
449.74	1089.69
450.11	1077.07
450.48	1061.31
450.85	1043.76
451.22	1029.95
451.59	1016.43
451.96	1003.76
452.33	986.79
452.70	971.17
453.07	952.48
453.43	931.24
453.80	913.31
454.17	896.24
454.54	879.64
454.91	862.57
455.28	845.17
455.65	829.02
456.02	816.36
456.38	802.60
456.75	785.74
457.12	770.98
457.49	757.12
457.86	741.29
458.23	730.76
458.59	718.76
458.96	705.60
459.33	693.40
459.70	681.45
460.07	672.21
460.43	661.69
460.80	652.98
461.17	644.71
461.54	635.14
461.91	626.29
462.27	617.26
462.64	609.64
463.01	601.67
463.38	594.57
463.74	583.31
464.11	575.52
464.48	568.88
464.85	562.52
465.21	558.00
465.58	552.93
465.95	545.48
466.32	539.52
466.68	533.74
467.05	528.86
467.42	523.52
467.78	517.48
468.15	512.07
468.52	507.45
468.88	502.12
469.25	497.55
469.62	493.67
469.98	489.19
470.35	485.21
470.72	481.60
471.08	476.55
471.45	473.93
471.82	471.38
472.18	467.55
472.55	464.71
472.92	460.74
473.28	457.48
473.65	454.98
474.02	452.40
474.38	450.60
474.75	448.67
475.11	446.14
475.48	444.52
475.85	442.64
476.21	440.43
476.58	438.95
476.94	437.52
477.31	436.17
477.67	435.26
478.04	433.81
478.41	433.07
478.77	434.86
479.14	433.12
479.50	432.10
479.87	431.79
480.23	431.43
480.60	430.79
480.96	430.79
481.33	431.14
481.69	430.86
482.06	430.90
482.42	431.05
482.79	431.33
483.15	431.60
483.52	433.10
483.88	433.62
484.25	434.43
484.61	435.10
484.98	436.10
485.34	437.74
485.71	439.76
486.07	441.10
486.44	440.81
486.80	442.88
487.17	444.38
487.53	447.26
487.90	449.76
488.26	452.83
488.62	456.02
488.99	458.24
489.35	461.40
489.72	464.17
490.08	467.12
490.44	470.05
490.81	473.81
491.17	476.93
491.54	480.93
491.90	484.90
492.26	488.74
492.63	492.88
492.99	496.64
493.36	501.00
493.72	506.26
494.08	510.64
494.45	515.76
494.81	521.67
495.17	526.10
495.54	531.69
495.90	536.88
496.26	541.98
496.63	548.33
496.99	554.29
497.35	560.29
497.72	566.64
498.08	573.05
498.44	579.67
498.80	586.90
499.17	593.62
499.53	600.26
499.89	608.19
500.26	615.55
500.62	623.12
500.98	631.00
501.34	638.38
501.71	646.55
502.07	654.05
502.43	661.45
502.79	669.36
503.16	677.24
503.52	684.81
503.88	692.67
504.24	700.21
504.60	709.02
504.97	718.29
505.33	727.02
505.69	737.17
506.05	745.79
506.41	753.50
506.78	761.45
507.14	770.14
507.50	778.83
507.86	787.55
508.22	796.40
508.59	803.86
508.95	812.62
509.31	822.19
509.67	831.21
510.03	840.24
510.39	848.93
510.75	856.83
511.12	865.43
511.48	873.98
511.84	882.67
512.20	890.71
512.56	898.71
512.92	907.26
513.28	915.26
513.64	923.45
514.00	931.69
514.37	940.74
514.73	949.33
515.09	957.60
515.45	966.21
515.81	974.52
516.17	983.95
516.53	991.05
516.89	997.90
517.25	1005.98
517.61	1014.31
517.97	1022.00
518.33	1030.50
518.69	1038.62
519.05	1046.64
519.41	1053.86
519.77	1062.24
520.13	1069.38
520.49	1075.86
520.85	1081.98
521.21	1090.19
521.57	1097.88
521.93	1104.36
522.29	1111.60
522.65	1117.62
523.01	1123.67
523.37	1129.81
523.73	1136.36
524.09	1143.17
524.45	1149.31
524.81	1155.14
525.17	1161.12
525.53	1167.67
525.89	1173.33
526.25	1179.40
526.61	1185.67
526.97	1191.64
527.33	1196.83
527.68	1204.38
528.04	1210.64
528.40	1216.17
528.76	1220.95
529.12	1226.10
529.48	1232.50
529.84	1236.52
530.20	1242.40
530.56	1248.33
530.91	1254.24
531.27	1259.38
531.63	1265.12
531.99	1270.55
532.35	1275.60
532.71	1280.64
533.07	1285.57
533.42	1293.00
533.78	1298.05
534.14	1303.07
534.50	1307.74
534.86	1313.40
535.21	1317.40
535.57	1323.14
535.93	1328.69
536.29	1334.48
536.65	1339.79
537.00	1344.31
537.36	1349.48
537.72	1353.55
538.08	1358.12
538.44	1362.67
538.79	1367.40
539.15	1370.57
539.51	1375.81
539.87	1381.33
540.22	1385.60
540.58	1390.21
540.94	1392.57
541.29	1397.10
541.65	1400.17
542.01	1405.48
542.37	1409.02
542.72	1412.24
543.08	1415.40
543.44	1420.07
543.79	1422.60
544.15	1427.50
544.51	1432.48
544.87	1436.74
545.22	1442.17
545.58	1445.52
545.94	1448.93
546.29	1452.86
546.65	1458.14
547.01	1460.86
547.36	1464.52
547.72	1468.38
548.07	1472.69
548.43	1475.50
548.79	1478.43
549.14	1481.98
549.50	1485.79
549.86	1488.12
550.21	1491.45
550.57	1495.55
550.92	1497.74
551.28	1501.48
551.64	1504.95
551.99	1507.74
552.35	1511.36
552.70	1514.95
553.06	1519.14
553.41	1523.29
553.77	1527.83
554.13	1532.26
554.48	1537.07
554.84	1541.33
555.19	1545.21
555.55	1550.05
555.90	1554.79
556.26	1559.98
556.61	1565.10
556.97	1567.86
557.32	1573.02
557.68	1577.48
558.03	1581.60
558.39	1585.81
558.74	1590.90
559.10	1595.48
559.45	1600.50
559.81	1605.19
560.16	1608.45
560.52	1613.71
560.87	1617.74
561.23	1621.60
561.58	1627.00
561.94	1631.00
562.29	1635.24
562.64	1640.38
563.00	1644.38
563.35	1649.29
563.71	1653.57
564.06	1658.52
564.42	1664.40
564.77	1669.76
565.12	1675.36
565.48	1682.00
565.83	1688.62
566.19	1694.38
566.54	1698.81
566.89	1703.57
567.25	1709.64
567.60	1716.67
567.96	1722.57
568.31	1728.07
568.66	1733.60
569.02	1736.50
569.37	1741.50
569.72	1745.71
570.08	1750.17
570.43	1754.33
570.78	1759.67
571.14	1763.64
571.49	1767.05
571.84	1770.52
572.20	1774.14
572.55	1778.07
572.90	1780.02
573.26	1781.88
573.61	1784.38
573.96	1787.50
574.31	1790.48
574.67	1792.02
575.02	1792.83
575.37	1793.24
575.72	1795.33
576.08	1797.50
576.43	1799.57
576.78	1800.21
577.13	1801.88
577.49	1803.48
577.84	1805.05
578.19	1805.98
578.54	1808.81
578.90	1810.62
579.25	1812.71
579.60	1813.79
579.95	1814.19
580.30	1815.60
580.66	1818.57
581.01	1819.83
581.36	1820.60
581.71	1820.88
582.06	1823.76
582.42	1825.67
582.77	1826.38
583.12	1827.00
583.47	1825.95
583.82	1826.36
584.17	1827.81
584.53	1828.88
584.88	1829.55
585.23	1829.43
585.58	1828.71
585.93	1827.50
586.28	1827.26
586.63	1827.52
586.98	1827.17
587.34	1827.90
587.69	1827.29
588.04	1825.60
588.39	1824.98
588.74	1823.10
589.09	1822.83
589.44	1819.40
589.79	1818.74
590.14	1818.67
590.49	1817.74
590.84	1817.31
591.19	1817.10
591.54	1815.60
591.89	1814.02
592.25	1812.90
592.60	1811.24
592.95	1810.17
593.30	1810.00
593.65	1808.81
594.00	1806.52
594.35	1810.95
594.70	1808.21
595.05	1806.55
595.40	1805.62
595.75	1803.79
596.10	1802.79
596.45	1800.45
596.80	1800.24
597.15	1797.24
597.50	1794.31
597.85	1792.95
598.19	1789.79
598.54	1787.36
598.89	1785.24
599.24	1783.36
599.59	1779.95
599.94	1777.62
600.29	1775.74
600.64	1772.76
600.99	1770.10
601.34	1767.93
601.69	1759.00
602.04	1756.17
602.39	1753.12
602.74	1749.62
603.08	1745.93
603.43	1745.00
603.78	1742.36
604.13	1739.17
604.48	1736.76
604.83	1734.33
605.18	1731.79
605.53	1730.55
605.87	1727.05
606.22	1724.38
606.57	1721.17
606.92	1718.71
607.27	1715.83
607.62	1712.48
607.96	1709.71
608.31	1707.07
608.66	1702.76
609.01	1699.50
609.36	1696.69
609.70	1692.57
610.05	1687.95
610.40	1684.17
610.75	1678.57
611.10	1674.36
611.44	1669.14
611.79	1664.67
612.14	1660.19
612.49	1653.86
612.83	1648.10
613.18	1642.95
613.53	1637.38
613.88	1631.17
614.22	1624.67
614.57	1619.43
614.92	1614.17
615.27	1607.86
615.61	1600.86
615.96	1595.83
616.31	1590.12
616.65	1585.33
617.00	1580.81
617.35	1576.95
617.70	1571.29
618.04	1565.10
618.39	1559.88
618.74	1554.81
619.08	1548.29
619.43	1542.55
619.78	1537.98
620.12	1532.86
620.47	1528.02
620.82	1522.21
621.16	1516.43
621.51	1512.64
621.85	1506.24
622.20	1500.33
622.55	1494.79
622.89	1489.21
623.24	1483.74
623.59	1478.07
623.93	1471.74
624.28	1466.67
624.62	1462.81
624.97	1459.14
625.32	1454.64
625.66	1448.62
626.01	1442.62
626.35	1438.10
626.70	1431.81
627.04	1426.67
627.39	1420.98
627.73	1417.14
628.08	1412.81
628.43	1408.55
628.77	1402.43
629.12	1397.71
629.46	1392.64
629.81	1387.48
630.15	1382.00
630.50	1375.86
630.84	1369.67
631.19	1364.10
631.53	1357.29
631.88	1347.24
632.22	1338.79
632.57	1332.36
632.91	1325.88
633.26	1319.69
633.60	1313.52
633.95	1308.10
634.29	1300.57
634.64	1294.33
634.98	1285.50
635.32	1279.26
635.67	1272.62
636.01	1266.29
636.36	1259.93
636.70	1254.05
637.05	1247.90
637.39	1242.76
637.73	1237.33
638.08	1232.81
638.42	1225.98
638.77	1219.69
639.11	1214.98
639.45	1210.05
639.80	1203.93
640.14	1197.79
640.49	1191.90
640.83	1184.95
641.17	1179.02
641.52	1173.33
641.86	1166.79
642.20	1162.12
642.55	1154.74
642.89	1148.43
643.23	1142.02
643.58	1135.64
643.92	1128.10
644.26	1121.02
644.61	1114.81
644.95	1107.62
645.29	1099.69
645.64	1093.76
645.98	1086.86
646.32	1080.29
646.66	1073.12
647.01	1065.76
647.35	1059.26
647.69	1053.19
648.04	1047.69
648.38	1041.12
648.72	1034.67
649.06	1027.88
649.41	1020.79
649.75	1014.50
650.09	1008.29
650.43	1001.14
650.78	994.69
651.12	988.05
651.46	981.48
651.80	974.14
652.14	968.33
652.49	963.69
652.83	956.93
653.17	950.95
653.51	944.24
653.85	937.88
654.20	932.74
654.54	926.93
654.88	919.88
655.22	913.64
655.56	906.52
655.90	900.19
656.25	894.69
656.59	888.07
656.93	882.79
657.27	877.21
657.61	871.33
657.95	865.67
658.29	860.14
658.64	854.95
658.98	849.19
659.32	842.55
659.66	835.71
660.00	829.93
660.34	824.43
660.68	819.43
661.02	814.07
661.36	807.95
661.70	802.55
662.05	797.50
662.39	792.31
662.73	788.43
663.07	784.07
663.41	778.48
663.75	772.79
664.09	766.86
664.43	760.43
664.77	755.50
665.11	749.26
665.45	744.14
665.79	738.81
666.13	733.48
666.47	728.48
666.81	723.31
667.15	718.07
667.49	713.29
667.83	709.10
668.17	703.90
668.51	699.10
668.85	694.00
669.19	690.21
669.53	684.24
669.87	677.98
670.21	672.26
670.55	667.83
670.89	664.67
671.23	660.05
671.57	656.43
671.91	652.19
672.25	648.62
672.58	644.74
672.92	639.62
673.26	635.69
673.60	631.62
673.94	627.57
674.28	623.76
674.62	619.62
674.96	615.14
675.30	611.64
675.64	607.52
675.97	603.52
676.31	598.93
676.65	594.50
676.99	591.88
677.33	587.62
677.67	583.52
678.01	578.71
678.34	575.17
678.68	571.00
679.02	566.83
679.36	563.05
679.70	558.38
680.04	555.26
680.37	551.40
680.71	547.50
681.05	543.95
681.39	540.21
681.73	536.24
682.06	531.64
682.40	527.55
682.74	524.17
683.08	521.24
683.42	517.07
683.75	514.38
684.09	510.00
684.43	506.60
684.77	503.21
685.10	500.02
685.44	496.24
685.78	493.02
686.12	489.69
686.45	486.05
686.79	482.62
687.13	479.29
687.46	476.10
687.80	473.55
688.14	470.24
688.48	467.24
688.81	464.12
689.15	462.12
689.49	459.38
689.82	456.43
690.16	452.69
690.50	450.05
690.83	446.76
691.17	443.55
691.51	441.00
691.84	438.19
692.18	435.24
692.52	432.71
692.85	429.95
693.19	427.95
693.52	425.00
693.86	422.36
694.20	419.45
694.53	416.83
694.87	413.93
695.21	410.71
695.54	407.83
695.88	405.17
696.21	401.86
696.55	399.02
696.88	396.33
697.22	394.10
697.56	391.64
697.89	389.29
698.23	387.26
698.56	384.69
698.90	382.86
699.23	380.26
699.57	378.31
699.90	375.90
700.24	373.12
700.58	371.17
700.91	369.62
701.25	369.17
701.58	367.76
701.92	366.21
702.25	364.74
702.59	363.02
702.92	361.24
703.26	359.48
703.59	357.81
703.93	357.64
704.26	355.81
704.60	354.24
704.93	352.26
705.26	350.50
705.60	349.50
705.93	347.07
706.27	346.43
706.60	345.14
706.94	344.36
707.27	342.67
707.61	341.33
707.94	339.79
708.27	336.57
708.61	334.21
708.94	332.55
709.28	331.19
709.61	329.36
709.94	327.83
710.28	326.52
710.61	325.17
710.95	321.64
711.28	321.67
711.61	320.07
711.95	319.33
712.28	318.26
712.61	316.64
712.95	316.64
713.28	315.93
713.61	314.10
713.95	312.43
714.28	311.40
714.61	310.29
714.95	308.93
715.28	307.71
715.61	306.88
715.95	305.81
716.28	304.38
716.61	303.48
716.95	302.02
717.28	300.69
717.61	299.43
717.94	298.62
718.28	295.83
718.61	294.55
718.94	292.83
719.27	291.48
719.61	290.48
719.94	288.67
720.27	286.67
720.60	285.67
720.94	284.19
721.27	283.31
721.60	282.60
721.93	281.60
722.27	281.31
722.60	280.55
722.93	279.26
723.26	278.74
723.59	277.79
723.93	277.43
724.26	276.71
724.59	275.69
724.92	275.02
725.25	275.00
725.59	274.21
725.92	273.95
726.25	273.29
726.58	272.81
726.91	271.88
727.24	271.10
727.57	270.31
727.91	269.79
728.24	269.33
728.57	268.07
728.90	267.55
729.23	266.48
729.56	266.90
729.89	266.50
730.22	265.74
730.55	265.31
730.89	264.55
731.22	264.07
731.55	263.57
731.88	262.98
732.21	262.17
732.54	261.79
732.87	261.29
733.20	261.00
733.53	260.36
733.86	260.17
734.19	259.67
734.52	259.86
734.85	260.74
735.18	259.71
735.51	260.21
735.84	259.95
736.17	259.88
736.50	258.07
736.83	259.98
737.16	259.67
737.49	259.24
737.82	258.76
738.15	258.62
738.48	258.45
738.81	258.17
739.14	257.17
739.47	256.36
739.80	255.95
740.13	255.52
740.46	254.76
740.79	254.10
741.12	253.55
741.45	252.38
741.78	250.86
742.11	251.17
742.44	250.21
742.77	250.07
743.10	249.21
743.43	248.81
743.75	245.93
744.08	248.14
744.41	247.40
744.74	246.95
745.07	246.02
745.40	245.79
745.73	246.24
746.06	246.26
746.39	246.31
746.71	245.93
747.04	245.45
747.37	244.95
747.70	244.88
748.03	244.69
748.36	244.79
748.68	244.64
749.01	243.88
749.34	243.40
749.67	242.81
750.00	242.88
750.33	244.36
750.65	244.40
750.98	241.40
751.31	241.40
751.64	241.43
751.97	242.33
752.29	241.83
752.62	240.48
752.95	239.95
753.28	239.40
753.60	238.88
753.93	239.10
754.26	239.10
754.59	238.17
754.91	237.62
755.24	236.98
755.57	236.31
755.90	235.90
756.22	235.60
756.55	235.05
756.88	234.43
757.20	232.74
757.53	231.93
757.86	231.50
758.19	231.38
758.51	231.02
758.84	229.76
759.17	229.45
759.49	229.31
759.82	230.17
760.15	230.21
760.47	229.98
760.80	229.14
761.13	229.38
761.45	229.19
761.78	229.17
762.11	229.07
762.43	228.81
762.76	228.43
763.08	228.45
763.41	228.57
763.74	228.43
764.06	228.14
764.39	228.10
764.71	227.95
765.04	227.71
765.37	227.33
765.69	227.14
766.02	227.02
766.34	226.83
766.67	225.93
767.00	225.83
767.32	226.81
767.65	227.98
767.97	227.24
768.30	227.10
768.62	226.95
768.95	226.86
769.27	226.74
769.60	226.83
769.92	226.14
770.25	225.50
770.57	225.07
770.90	225.10
771.22	224.76
771.55	224.88
771.87	224.86
772.20	224.71
772.52	226.29
772.85	228.50
773.17	228.48
773.50	228.26
773.82	228.10
774.15	226.95
774.47	225.24
774.80	225.12
775.12	225.29
775.45	225.10
775.77	225.00
776.09	224.95
776.42	225.12
776.74	225.83
777.07	225.64
777.39	225.86
777.72	225.31
778.04	225.36
778.36	225.10
778.69	225.14
779.01	225.33
779.33	223.60
779.66	221.21
779.98	221.02
780.31	221.12
780.63	221.67
780.95	222.14
781.28	222.36
781.60	222.17
781.92	222.14
782.25	221.95
782.57	221.83
782.89	221.60
783.22	221.26
783.54	220.62
783.86	220.88
784.19	220.62
784.51	221.17
784.83	220.88
785.16	220.76
785.48	220.55
785.80	220.48
786.12	220.43
786.45	220.48
786.77	220.60
787.09	220.43
787.42	219.62
787.74	219.43
788.06	219.48
788.38	219.48
788.71	219.05
789.03	219.19
789.35	219.50
789.67	219.33
789.99	219.38
790.32	219.40
790.64	219.64
790.96	221.26
791.28	220.48
791.61	220.43
791.93	220.26
792.25	220.17
792.57	221.48
792.89	221.17
793.21	221.10
793.54	220.86
793.86	220.50
794.18	220.86
794.50	220.55
794.82	220.36
795.14	220.55
795.47	220.83
795.79	220.83
796.11	220.17
796.43	220.10
796.75	220.14
797.07	220.33
797.39	220.05
797.71	218.45
798.04	218.98
798.36	219.14
798.68	219.24
799.00	219.07
799.32	217.79
799.64	218.24
799.96	218.55
800.28	218.81
800.60	218.69
800.92	218.67
801.24	218.48
801.56	218.60
801.89	218.45
802.21	218.76
802.53	218.48
802.85	218.95
803.17	219.93
803.49	219.45
803.81	219.00
804.13	219.05
804.45	218.71
804.77	218.76
805.09	218.64
805.41	218.31
805.73	218.10
806.05	217.69
806.37	217.52
806.69	217.10
807.01	216.79
807.33	216.81
807.65	216.05
807.97	216.71
808.28	216.55
808.60	216.45
808.92	216.07
809.24	217.21
809.56	216.90
809.88	215.93
810.20	216.14
810.52	216.67
810.84	216.26
811.16	215.95
811.48	215.38
811.80	216.17
812.12	216.14
812.43	216.43
812.75	216.81
813.07	216.67
813.39	216.69
813.71	216.43
814.03	216.26
814.35	216.31
814.67	215.64
814.98	215.57
815.30	215.71
815.62	215.38
815.94	214.07
816.26	214.12
816.58	213.81
816.89	213.79
817.21	213.14
817.53	213.45
817.85	213.93
818.17	214.10
818.48	213.19
818.80	213.83
819.12	213.55
819.44	213.12
819.76	212.71
820.07	212.67
820.39	212.69
820.71	213.07
821.03	213.02
821.34	213.00
821.66	213.26
821.98	213.33
822.30	213.24
822.61	214.60
822.93	214.33
823.25	214.45
823.57	214.38
823.88	214.98
824.20	214.69
824.52	214.76
824.83	214.83
825.15	214.55
825.47	214.48
825.79	214.55
826.10	214.43
826.42	214.48
826.74	214.79
827.05	214.88
827.37	214.79
827.69	214.98
828.00	215.07
828.32	214.95
828.64	214.64
828.95	215.90
829.27	215.12
829.58	215.29
829.90	215.45
830.22	215.69
830.53	215.10
830.85	215.21
831.17	214.79
831.48	214.43
831.80	214.81
832.11	214.55
832.43	214.43
832.75	214.40
833.06	215.60
833.38	214.93
833.69	214.69
834.01	214.83
834.32	214.62
834.64	214.33
834.96	214.36
835.27	214.24
835.59	213.38
835.90	212.88
836.22	212.88
836.53	212.50
836.85	212.26
837.16	214.29
837.48	214.19
837.79	215.14
838.11	215.26
838.42	215.10
838.74	215.33
839.05	215.12
839.37	215.00
839.68	213.81
840.00	213.90
840.31	214.31
840.63	214.17
840.94	214.14
841.26	213.95
841.57	213.88
841.88	214.24
842.20	213.86
842.51	213.83
842.83	213.76
843.14	215.64
843.46	215.50
843.77	214.55
844.08	214.60
844.40	213.71
844.71	213.86
845.03	213.62
845.34	213.48
845.65	213.52
845.97	213.83
846.28	214.05
846.60	214.14
846.91	213.76
847.22	213.74
847.54	214.05
847.85	214.14
848.16	213.81
848.48	213.29
848.79	214.21
849.10	214.24
849.42	214.26
849.73	212.62
850.04	212.55
850.36	211.71
850.67	211.93
850.98	212.02
851.30	212.12
851.61	212.17
851.92	212.07
852.23	212.76
852.55	212.64
852.86	212.55
853.17	212.79
853.49	213.43
853.80	213.74
854.11	214.07
854.42	214.40
854.74	214.60
855.05	214.64
855.36	213.67
855.67	214.10
855.99	214.17
856.30	216.62
856.61	216.57
856.92	216.55
857.23	216.40
857.55	216.14
857.86	216.05
858.17	216.50
858.48	216.17
858.79	215.55
859.11	215.69
859.42	215.60
859.73	215.26
860.04	214.88
860.35	214.40
860.66	213.74
860.98	213.50
861.29	213.67
861.60	213.64
861.91	214.29
862.22	213.69
862.53	213.19
862.84	210.64
863.16	211.24
863.47	211.02
863.78	210.88
864.09	211.17
864.40	211.17
864.71	211.07
865.02	211.21
865.33	211.17
865.64	210.95
865.95	211.07
866.27	212.43
866.58	212.24
866.89	212.29
867.20	212.07
867.51	211.93
867.82	211.69
868.13	212.17
868.44	211.55
868.75	212.00
869.06	212.36
869.37	212.31
869.68	211.76
869.99	212.10
870.30	212.55
870.61	212.62
870.92	212.33
871.23	212.17
871.54	212.48
871.85	213.12
872.16	213.33
872.47	213.05
872.78	211.88
873.09	212.17
873.40	212.26
873.71	212.60
874.02	212.76
874.33	212.74
874.64	212.24
874.95	212.71
875.26	212.21
875.56	212.21
875.87	212.26
876.18	212.14
876.49	214.17
876.80	213.93
877.11	213.52
877.42	213.62
877.73	213.86
878.04	213.55
878.35	213.64
878.66	213.71
878.96	213.57
879.27	213.31
879.58	213.12
879.89	212.93
880.20	213.40
880.51	213.33
880.82	213.36
881.12	213.64
881.43	213.24
881.74	213.12
882.05	213.05
882.36	213.29
882.67	213.31
882.97	211.29
883.28	211.24
883.59	211.38
883.90	211.55
884.21	211.62
884.51	211.62
884.82	210.98
885.13	210.71
885.44	210.83
885.74	211.00
886.05	210.95
886.36	211.00
886.67	210.31
886.98	211.38
887.28	211.67
887.59	211.71
887.90	211.69
888.20	211.93
888.51	212.29
888.82	212.00
889.13	212.40
889.43	214.00
889.74	213.79
890.05	213.74
890.35	213.64
890.66	213.24
890.97	213.21
891.28	213.19
891.58	213.52
891.89	213.67
892.20	213.36
892.50	213.24
892.81	212.98
893.12	213.29
893.42	212.38
893.73	212.57
894.04	212.48
894.34	212.83
894.65	212.88
894.95	212.67
895.26	212.79
895.57	213.83
895.87	211.71
896.18	211.98
896.48	211.95
896.79	211.86
897.10	212.36
897.40	212.17
897.71	212.48
898.01	212.21
898.32	212.36
898.63	212.40
898.93	212.52
899.24	212.62
899.54	212.21
899.85	212.10
900.15	211.90
900.46	211.90
900.76	211.83
901.07	211.62
901.38	211.60
901.68	211.83
901.99	210.52
902.29	210.93
902.60	210.83
902.90	211.05
903.21	211.19
903.51	211.05
903.82	211.74
904.12	211.64
904.43	211.83
904.73	212.02
905.03	212.26
905.34	214.24
905.64	214.14
905.95	214.24
906.25	214.07
906.56	213.83
906.86	214.00
907.17	213.95
907.47	214.07
907.77	213.93
908.08	213.67
908.38	213.98
908.69	213.90
908.99	214.26
909.30	214.29
909.60	214.29
909.90	214.26
910.21	213.57
910.51	213.48
910.81	213.57
911.12	213.29
911.42	213.17
911.73	211.02
912.03	211.26
912.33	211.90
912.64	212.05
912.94	212.07
913.24	211.74
913.55	211.55
913.85	211.36
914.15	211.60
914.46	211.83
914.76	211.45
915.06	211.33
915.37	211.05
915.67	210.81
915.97	210.81
916.27	210.43
916.58	210.43
916.88	210.10
917.18	209.71
917.49	211.12
917.79	211.05
918.09	211.50
918.39	212.05
918.70	211.50
919.00	211.48
919.30	212.14
919.60	211.95
919.91	211.79
920.21	212.10
920.51	211.81
920.81	211.48
921.12	211.76
921.42	211.86
921.72	211.88
922.02	212.14
922.32	212.43
922.63	212.64
922.93	213.74
923.23	214.02
923.53	214.17
923.83	212.83
924.13	213.12
924.44	213.05
924.74	213.48
925.04	214.14
925.34	214.21
925.64	213.62
925.94	213.74
926.24	214.88
926.55	214.62
926.85	215.07
927.15	215.33
927.45	215.29
927.75	215.26
928.05	215.50
928.35	215.26
928.65	215.62
928.95	215.67
929.26	214.95
929.56	215.17
929.86	215.26
930.16	215.26
930.46	215.29
930.76	215.43
931.06	214.40
931.36	213.67
931.66	213.86
931.96	214.10
932.26	214.26
932.56	213.50
932.86	213.71
933.16	213.50
933.46	213.45
933.76	213.24
934.06	213.81
934.36	214.14
934.66	214.31
934.96	213.76
935.26	213.98
935.56	214.43
935.86	213.95
936.16	213.60
936.46	213.33
936.76	213.17
937.06	212.71
937.36	212.62
937.66	213.12
937.96	213.07
938.26	212.55
938.56	212.40
938.86	212.57
939.16	212.90
939.46	213.19
939.76	212.93
940.06	213.21
940.35	212.62
940.65	211.69
940.95	211.71
941.25	211.36
941.55	211.26
941.85	211.14
942.15	211.55
942.45	212.12
942.75	212.05
943.04	212.00
943.34	212.52
943.64	212.52
943.94	211.98
944.24	211.98
944.54	212.14
944.84	212.00
945.13	211.81
945.43	211.21
945.73	210.88
946.03	210.86
946.33	210.40
946.62	210.36
946.92	210.36
947.22	210.36
947.52	210.60
947.82	210.57
948.11	209.98
948.41	209.74
948.71	209.19
949.01	209.40
949.31	209.40
949.60	209.14
949.90	209.24
950.20	209.33
950.50	209.45
950.79	209.29
951.09	209.62
951.39	209.38
951.69	209.52
951.98	210.10
952.28	210.19
952.58	210.02
952.87	209.90
953.17	210.31
953.47	210.17
953.76	210.12
954.06	209.67
954.36	209.60
954.66	209.60
954.95	210.31
955.25	210.24
955.55	210.29
955.84	209.95
956.14	210.33
956.44	210.33
956.73	209.83
957.03	209.93
957.32	209.64
957.62	209.62
957.92	210.24
958.21	209.81
958.51	212.31
958.81	212.67
959.10	212.98
959.40	213.19
959.69	213.26
959.99	213.60
960.29	213.86
960.58	213.83
960.88	214.48
961.17	214.05
961.47	214.29
961.76	214.07
962.06	214.71
962.36	214.00
962.65	214.14
962.95	214.26
963.24	214.29
963.54	214.76
963.83	214.98
964.13	214.74
964.42	214.33
964.72	212.36
965.01	212.62
965.31	212.57
965.60	212.29
965.90	213.55
966.19	213.07
966.49	213.05
966.78	212.86
967.08	212.76
967.37	212.88
967.67	212.62
967.96	213.02
968.26	212.62
968.55	213.38
968.85	213.26
969.14	213.33
969.43	213.17
969.73	212.90
970.02	212.71
970.32	212.33
970.61	212.26
970.91	211.81
971.20	211.50
971.49	211.29
971.79	211.60
972.08	210.17
972.38	210.33
972.67	210.19
972.96	210.74
973.26	210.33
973.55	210.95
973.85	211.02
974.14	210.81
974.43	211.05
974.73	210.71
975.02	210.60
975.31	210.57
975.61	210.43
975.90	210.24
976.19	210.19
976.49	210.38
976.78	210.90
977.07	210.90
977.37	211.02
977.66	211.29
977.95	210.76
978.24	211.05
978.54	211.26
978.83	211.24
979.12	210.93
979.42	210.79
979.71	210.33
980.00	210.14
980.29	210.45
980.59	210.12
980.88	210.45
981.17	210.43
981.46	210.69
981.76	210.83
982.05	211.45
982.34	211.67
982.63	211.62
982.93	211.50
983.22	211.71
983.51	211.74
983.80	211.95
984.09	212.21
984.39	211.95
984.68	211.98
984.97	212.17
985.26	212.05
985.55	212.10
985.85	211.76
986.14	212.29
986.43	212.26
986.72	212.24
987.01	211.79
987.30	211.86
987.59	211.67
987.89	211.83
988.18	211.21
988.47	210.86
988.76	210.79
989.05	210.43
989.34	210.45
989.63	211.07
989.92	210.81
990.22	210.52
990.51	210.50
990.80	210.21
991.09	210.29
991.38	210.74
991.67	210.64
991.96	210.55
992.25	210.50
992.54	210.14
992.83	210.07
993.12	209.88
993.41	210.31
993.70	211.02
993.99	211.48
994.28	211.88
994.58	212.45
994.87	212.21
995.16	212.21
995.45	212.17
995.74	211.29
996.03	211.62
996.32	212.02
996.61	212.52
996.90	212.50
997.19	212.55
997.48	212.50
997.77	212.21
998.06	212.55
998.34	212.29
998.63	212.57
998.92	212.67
999.21	212.98
999.50	212.83
999.79	211.98
1000.08	211.71
1000.37	211.67
1000.66	211.12
1000.95	211.67
1001.24	211.90
1001.53	211.98
1001.82	212.31
1002.11	211.69
1002.40	211.90
1002.68	212.21
1002.97	213.74
1003.26	213.43
1003.55	213.07
1003.84	213.52
1004.13	213.88
1004.42	213.76
1004.71	213.43
1004.99	213.36
1005.28	214.10
1005.57	213.95
1005.86	213.81
1006.15	213.74
1006.44	213.31
1006.72	213.74
1007.01	213.40
1007.30	213.36
1007.59	213.17
1007.88	212.79
1008.17	212.95
1008.45	212.43
1008.74	211.69
1009.03	210.69
1009.32	210.76
1009.60	210.60
1009.89	210.38
1010.18	209.26
1010.47	209.17
1010.76	209.26
1011.04	209.24
1011.33	209.02
1011.62	209.17
1011.91	209.21
1012.19	209.24
1012.48	209.36
1012.77	209.36
1013.05	210.29
1013.34	210.21
1013.63	210.10
1013.92	210.10
1014.20	210.02
1014.49	210.29
1014.78	210.52
1015.06	210.00
1015.35	209.71
1015.64	210.21
1015.92	210.52
1016.21	211.07
1016.50	211.24
1016.78	211.31
1017.07	211.52
1017.36	211.14
1017.64	211.00
1017.93	211.36
1018.22	211.14
1018.50	211.07
1018.79	210.83
1019.08	209.88
1019.36	210.14
1019.65	210.21
1019.93	210.93
1020.22	211.19
1020.51	212.05
1020.79	211.69
1021.08	207.00
1021.36	205.50
1021.65	209.50
1021.94	209.00
1022.22	213.00
1022.51	210.50
1022.79	220.00
1023.08	214.00
1023.36	233.50
1023.65	204.50
>>>>>End Processed Spectral Data<<<<<
