SpectraSuite Data File
++++++++++++++++++++++++++++++++++++
Date: Tue Apr 02 18:40:24 EDT 2013
User: group
Dark Spectrum Present: No
Reference Spectrum Present: No
Number of Sampled Component Spectra: 1
Spectrometers: USB2E7196
Integration Time (usec): 580000 (USB2E7196)
Spectra Averaged: 2 (USB2E7196)
Boxcar Smoothing: 10 (USB2E7196)
Correct for Electrical Dark: No (USB2E7196)
Strobe/Lamp Enabled: No (USB2E7196)
Correct for Detector Non-linearity: No (USB2E7196)
Correct for Stray Light: No (USB2E7196)
Number of Pixels in Processed Spectrum: 2048
>>>>>Begin Processed Spectral Data<<<<<
339.09	0.00
339.48	196.00
339.86	191.00
340.24	198.50
340.63	199.00
341.01	238.00
341.39	201.50
341.78	212.00
342.16	214.00
342.54	207.00
342.93	199.67
343.31	209.48
343.69	210.07
344.07	211.02
344.46	211.62
344.84	212.24
345.22	210.88
345.60	211.17
345.99	210.98
346.37	210.86
346.75	210.83
347.13	210.81
347.52	211.21
347.90	211.57
348.28	211.57
348.66	211.93
349.05	211.31
349.43	211.45
349.81	211.69
350.19	211.57
350.57	211.50
350.96	211.76
351.34	212.17
351.72	212.10
352.10	211.90
352.48	211.62
352.87	211.38
353.25	211.29
353.63	211.19
354.01	211.21
354.39	211.17
354.77	211.14
355.15	211.74
355.54	211.21
355.92	210.60
356.30	210.52
356.68	211.62
357.06	211.90
357.44	211.45
357.82	211.26
358.20	212.14
358.58	212.12
358.97	212.00
359.35	211.98
359.73	212.48
360.11	212.45
360.49	212.74
360.87	212.64
361.25	213.02
361.63	213.88
362.01	214.12
362.39	213.93
362.77	214.21
363.15	213.98
363.53	213.93
363.91	214.29
364.29	214.24
364.67	212.26
365.05	212.26
365.43	212.38
365.81	212.62
366.19	212.83
366.57	213.57
366.95	213.36
367.33	213.14
367.71	213.21
368.09	213.83
368.47	213.79
368.85	214.00
369.23	214.19
369.61	213.36
369.99	213.93
370.37	214.26
370.75	215.24
371.13	215.05
371.51	214.81
371.89	214.81
372.27	214.86
372.65	215.31
373.03	215.36
373.41	215.48
373.78	215.45
374.16	214.40
374.54	213.95
374.92	213.90
375.30	214.10
375.68	213.55
376.06	213.38
376.44	213.29
376.82	213.33
377.19	213.40
377.57	213.36
377.95	212.64
378.33	212.50
378.71	211.36
379.09	211.52
379.47	211.83
379.84	211.88
380.22	211.90
380.60	211.64
380.98	211.64
381.36	211.38
381.73	210.98
382.11	211.50
382.49	211.74
382.87	211.60
383.25	211.36
383.62	213.88
384.00	213.52
384.38	213.76
384.76	214.14
385.13	214.81
385.51	214.93
385.89	214.86
386.27	215.02
386.64	215.07
387.02	214.95
387.40	214.81
387.78	214.67
388.15	214.81
388.53	214.81
388.91	214.79
389.29	214.74
389.66	215.24
390.04	214.81
390.42	215.07
390.79	215.33
391.17	215.50
391.55	213.02
391.92	213.29
392.30	213.33
392.68	213.00
393.05	212.69
393.43	213.02
393.81	213.00
394.18	212.64
394.56	212.98
394.94	213.55
395.31	213.45
395.69	214.33
396.06	214.79
396.44	214.79
396.82	214.69
397.19	216.05
397.57	216.00
397.95	216.52
398.32	215.79
398.70	215.95
399.07	216.52
399.45	216.60
399.82	216.29
400.20	216.17
400.58	216.07
400.95	215.55
401.33	215.95
401.70	217.43
402.08	217.64
402.45	217.60
402.83	217.86
403.20	218.14
403.58	217.88
403.95	218.00
404.33	218.36
404.71	218.71
405.08	219.67
405.46	219.86
405.83	220.19
406.21	220.45
406.58	220.90
406.96	220.95
407.33	221.60
407.70	222.62
408.08	224.76
408.45	226.07
408.83	227.14
409.20	227.50
409.58	227.19
409.95	228.60
410.33	229.83
410.70	230.17
411.08	231.83
411.45	232.79
411.82	233.74
412.20	235.62
412.57	238.10
412.95	238.10
413.32	240.17
413.69	241.76
414.07	243.93
414.44	245.69
414.82	247.64
415.19	250.26
415.56	252.71
415.94	254.10
416.31	256.88
416.68	259.74
417.06	263.31
417.43	267.02
417.81	270.50
418.18	274.52
418.55	278.17
418.93	282.02
419.30	286.62
419.67	291.55
420.04	296.07
420.42	300.43
420.79	307.62
421.16	313.36
421.54	320.38
421.91	326.81
422.28	333.64
422.66	340.81
423.03	349.12
423.40	356.26
423.77	363.69
424.15	371.26
424.52	379.52
424.89	388.26
425.26	396.55
425.64	404.79
426.01	413.14
426.38	422.83
426.75	432.43
427.13	442.26
427.50	452.64
427.87	463.38
428.24	473.90
428.61	483.10
428.99	494.76
429.36	506.14
429.73	517.79
430.10	529.98
430.47	542.07
430.85	553.52
431.22	566.93
431.59	583.40
431.96	597.17
432.33	611.88
432.70	626.67
433.08	643.67
433.45	659.45
433.82	675.64
434.19	694.14
434.56	711.81
434.93	728.64
435.30	745.24
435.68	764.07
436.05	782.45
436.42	800.21
436.79	817.31
437.16	835.74
437.53	855.17
437.90	873.50
438.27	893.26
438.64	912.05
439.01	930.40
439.38	944.90
439.75	960.45
440.13	978.83
440.50	995.55
440.87	1009.14
441.24	1024.12
441.61	1040.07
441.98	1051.90
442.35	1065.43
442.72	1079.05
443.09	1093.38
443.46	1101.48
443.83	1107.67
444.20	1112.90
444.57	1118.95
444.94	1122.45
445.31	1126.55
445.68	1133.02
446.05	1134.00
446.42	1132.83
446.79	1131.52
447.16	1128.33
447.53	1127.36
447.90	1119.98
448.27	1113.40
448.64	1104.02
449.01	1096.81
449.37	1084.62
449.74	1072.50
450.11	1060.26
450.48	1044.67
450.85	1027.62
451.22	1013.45
451.59	1000.21
451.96	988.43
452.33	972.50
452.70	957.43
453.07	938.98
453.43	918.12
453.80	900.62
454.17	884.02
454.54	867.40
454.91	850.86
455.28	833.71
455.65	818.02
456.02	804.90
456.38	792.12
456.75	775.74
457.12	761.48
457.49	747.88
457.86	732.57
458.23	721.79
458.59	709.48
458.96	697.38
459.33	686.10
459.70	674.40
460.07	665.10
460.43	654.31
460.80	644.83
461.17	637.24
461.54	628.55
461.91	619.90
462.27	611.02
462.64	603.48
463.01	595.33
463.38	588.50
463.74	577.48
464.11	569.93
464.48	563.95
464.85	557.69
465.21	552.45
465.58	547.21
465.95	539.93
466.32	534.48
466.68	528.64
467.05	523.14
467.42	517.90
467.78	512.29
468.15	507.26
468.52	503.48
468.88	497.24
469.25	492.26
469.62	489.12
469.98	485.12
470.35	481.60
470.72	477.57
471.08	472.40
471.45	469.60
471.82	466.57
472.18	462.64
472.55	459.83
472.92	456.33
473.28	453.38
473.65	450.62
474.02	447.86
474.38	445.69
474.75	443.90
475.11	441.33
475.48	439.26
475.85	437.43
476.21	435.17
476.58	433.95
476.94	432.60
477.31	430.57
477.67	429.67
478.04	428.38
478.41	428.17
478.77	429.74
479.14	428.62
479.50	427.88
479.87	427.64
480.23	427.26
480.60	426.74
480.96	426.40
481.33	427.24
481.69	427.07
482.06	427.74
482.42	427.86
482.79	428.26
483.15	428.95
483.52	430.19
483.88	431.07
484.25	432.17
484.61	433.07
484.98	433.81
485.34	435.05
485.71	436.76
486.07	437.83
486.44	437.05
486.80	438.36
487.17	440.07
487.53	442.31
487.90	444.71
488.26	447.98
488.62	450.90
488.99	452.90
489.35	455.55
489.72	457.79
490.08	460.48
490.44	463.43
490.81	466.76
491.17	469.57
491.54	473.19
491.90	476.79
492.26	480.67
492.63	484.93
492.99	488.64
493.36	493.05
493.72	497.76
494.08	502.83
494.45	508.26
494.81	514.17
495.17	519.45
495.54	524.64
495.90	529.43
496.26	534.50
496.63	540.00
496.99	546.12
497.35	552.57
497.72	558.86
498.08	565.48
498.44	571.57
498.80	578.48
499.17	585.31
499.53	591.98
499.89	599.07
500.26	606.05
500.62	612.81
500.98	620.57
501.34	627.74
501.71	635.29
502.07	642.71
502.43	649.57
502.79	656.79
503.16	664.52
503.52	672.40
503.88	679.88
504.24	688.36
504.60	696.71
504.97	704.40
505.33	712.64
505.69	721.48
506.05	730.12
506.41	738.29
506.78	745.83
507.14	753.64
507.50	762.14
507.86	771.00
508.22	779.95
508.59	787.19
508.95	795.57
509.31	804.88
509.67	812.50
510.03	820.83
510.39	829.31
510.75	837.93
511.12	846.36
511.48	855.50
511.84	864.26
512.20	872.60
512.56	881.14
512.92	889.43
513.28	897.62
513.64	905.71
514.00	913.60
514.37	921.95
514.73	930.17
515.09	938.50
515.45	945.86
515.81	953.55
516.17	961.62
516.53	969.40
516.89	976.17
517.25	984.38
517.61	992.31
517.97	999.05
518.33	1006.21
518.69	1013.33
519.05	1020.40
519.41	1027.05
519.77	1034.48
520.13	1041.17
520.49	1047.69
520.85	1054.02
521.21	1061.76
521.57	1068.62
521.93	1074.71
522.29	1081.36
522.65	1086.67
523.01	1092.57
523.37	1098.45
523.73	1105.21
524.09	1110.93
524.45	1116.90
524.81	1123.19
525.17	1128.86
525.53	1135.33
525.89	1140.81
526.25	1146.76
526.61	1151.69
526.97	1156.60
527.33	1161.98
527.68	1169.57
528.04	1175.31
528.40	1181.17
528.76	1185.67
529.12	1191.12
529.48	1197.26
529.84	1201.93
530.20	1208.05
530.56	1213.71
530.91	1219.52
531.27	1223.86
531.63	1229.50
531.99	1233.64
532.35	1237.60
532.71	1242.21
533.07	1247.74
533.42	1255.45
533.78	1260.62
534.14	1266.55
534.50	1271.21
534.86	1275.83
535.21	1278.31
535.57	1284.07
535.93	1287.24
536.29	1293.10
536.65	1297.86
537.00	1301.64
537.36	1306.74
537.72	1310.90
538.08	1315.31
538.44	1319.29
538.79	1323.62
539.15	1326.17
539.51	1331.45
539.87	1336.90
540.22	1340.40
540.58	1344.17
540.94	1345.67
541.29	1349.12
541.65	1352.33
542.01	1356.17
542.37	1359.10
542.72	1362.02
543.08	1363.88
543.44	1368.50
543.79	1370.10
544.15	1374.29
544.51	1378.74
544.87	1381.88
545.22	1385.64
545.58	1389.48
545.94	1392.81
546.29	1396.43
546.65	1400.62
547.01	1403.36
547.36	1406.69
547.72	1410.67
548.07	1413.86
548.43	1417.14
548.79	1419.71
549.14	1423.62
549.50	1428.02
549.86	1431.71
550.21	1436.02
550.57	1440.48
550.92	1442.88
551.28	1447.38
551.64	1449.43
551.99	1453.02
552.35	1457.29
552.70	1460.31
553.06	1464.38
553.41	1468.67
553.77	1474.17
554.13	1478.71
554.48	1484.26
554.84	1488.64
555.19	1492.64
555.55	1498.38
555.90	1502.93
556.26	1508.14
556.61	1511.79
556.97	1515.14
557.32	1519.62
557.68	1523.93
558.03	1527.67
558.39	1533.29
558.74	1537.93
559.10	1542.98
559.45	1547.71
559.81	1552.50
560.16	1556.31
560.52	1560.00
560.87	1564.33
561.23	1567.10
561.58	1573.74
561.94	1577.45
562.29	1581.10
562.64	1585.62
563.00	1589.07
563.35	1593.79
563.71	1598.67
564.06	1604.36
564.42	1610.26
564.77	1615.74
565.12	1622.67
565.48	1630.74
565.83	1636.38
566.19	1641.90
566.54	1647.45
566.89	1652.74
567.25	1657.88
567.60	1665.62
567.96	1673.02
568.31	1678.71
568.66	1685.48
569.02	1688.14
569.37	1692.45
569.72	1697.76
570.08	1702.79
570.43	1707.71
570.78	1712.48
571.14	1716.62
571.49	1720.31
571.84	1725.00
572.20	1729.19
572.55	1732.36
572.90	1734.33
573.26	1736.93
573.61	1739.71
573.96	1743.40
574.31	1746.60
574.67	1749.86
575.02	1751.81
575.37	1752.55
575.72	1754.64
576.08	1757.43
576.43	1761.19
576.78	1764.24
577.13	1766.29
577.49	1769.48
577.84	1772.00
578.19	1775.36
578.54	1778.83
578.90	1781.93
579.25	1783.71
579.60	1784.62
579.95	1785.55
580.30	1788.50
580.66	1792.36
581.01	1794.81
581.36	1795.90
581.71	1797.40
582.06	1799.79
582.42	1801.62
582.77	1803.50
583.12	1805.90
583.47	1806.57
583.82	1808.17
584.17	1809.57
584.53	1812.26
584.88	1813.45
585.23	1815.24
585.58	1815.19
585.93	1815.79
586.28	1816.19
586.63	1816.50
586.98	1818.64
587.34	1821.19
587.69	1820.26
588.04	1819.45
588.39	1820.07
588.74	1820.00
589.09	1820.19
589.44	1819.10
589.79	1819.45
590.14	1819.52
590.49	1818.67
590.84	1819.07
591.19	1818.98
591.54	1819.69
591.89	1818.29
592.25	1819.90
592.60	1817.55
592.95	1816.71
593.30	1817.19
593.65	1816.50
594.00	1815.57
594.35	1820.24
594.70	1818.10
595.05	1817.50
595.40	1816.31
595.75	1814.95
596.10	1815.55
596.45	1814.43
596.80	1814.17
597.15	1812.52
597.50	1811.05
597.85	1811.69
598.19	1809.21
598.54	1807.38
598.89	1805.00
599.24	1804.24
599.59	1801.00
599.94	1800.33
600.29	1798.90
600.64	1795.45
600.99	1794.19
601.34	1793.48
601.69	1785.79
602.04	1783.38
602.39	1781.33
602.74	1779.69
603.08	1777.26
603.43	1775.79
603.78	1774.33
604.13	1772.55
604.48	1770.62
604.83	1769.38
605.18	1766.98
605.53	1764.64
605.87	1761.74
606.22	1758.93
606.57	1756.24
606.92	1752.95
607.27	1750.90
607.62	1749.05
607.96	1747.95
608.31	1745.79
608.66	1742.21
609.01	1738.71
609.36	1736.86
609.70	1733.19
610.05	1729.14
610.40	1725.76
610.75	1720.60
611.10	1716.60
611.44	1711.83
611.79	1708.17
612.14	1703.60
612.49	1697.43
612.83	1693.86
613.18	1689.05
613.53	1684.74
613.88	1679.21
614.22	1674.88
614.57	1669.33
614.92	1663.14
615.27	1657.10
615.61	1651.14
615.96	1646.40
616.31	1640.74
616.65	1636.26
617.00	1632.55
617.35	1628.45
617.70	1623.24
618.04	1617.71
618.39	1611.64
618.74	1605.93
619.08	1599.60
619.43	1593.64
619.78	1588.95
620.12	1583.33
620.47	1578.90
620.82	1574.26
621.16	1568.79
621.51	1563.83
621.85	1558.29
622.20	1553.69
622.55	1547.71
622.89	1541.86
623.24	1536.60
623.59	1532.40
623.93	1525.88
624.28	1520.67
624.62	1516.93
624.97	1513.17
625.32	1508.60
625.66	1504.14
626.01	1499.50
626.35	1495.36
626.70	1490.86
627.04	1486.05
627.39	1480.69
627.73	1476.21
628.08	1471.12
628.43	1466.62
628.77	1461.07
629.12	1456.90
629.46	1451.60
629.81	1446.64
630.15	1441.26
630.50	1435.05
630.84	1428.86
631.19	1422.52
631.53	1415.60
631.88	1406.69
632.22	1399.52
632.57	1394.19
632.91	1388.10
633.26	1382.10
633.60	1376.07
633.95	1369.57
634.29	1362.52
634.64	1357.10
634.98	1349.95
635.32	1344.48
635.67	1338.81
636.01	1332.55
636.36	1325.14
636.70	1320.33
637.05	1314.81
637.39	1308.86
637.73	1303.83
638.08	1299.26
638.42	1293.79
638.77	1288.45
639.11	1284.02
639.45	1278.74
639.80	1272.00
640.14	1265.57
640.49	1259.43
640.83	1253.02
641.17	1247.29
641.52	1241.83
641.86	1235.60
642.20	1230.38
642.55	1223.07
642.89	1216.86
643.23	1210.62
643.58	1205.24
643.92	1197.12
644.26	1190.05
644.61	1184.24
644.95	1177.36
645.29	1170.00
645.64	1164.02
645.98	1156.90
646.32	1150.14
646.66	1142.55
647.01	1135.50
647.35	1130.14
647.69	1123.83
648.04	1117.62
648.38	1111.29
648.72	1105.00
649.06	1097.95
649.41	1090.88
649.75	1084.14
650.09	1076.79
650.43	1069.60
650.78	1062.48
651.12	1055.86
651.46	1049.10
651.80	1042.76
652.14	1036.36
652.49	1031.02
652.83	1024.38
653.17	1017.79
653.51	1011.43
653.85	1005.12
654.20	998.62
654.54	990.95
654.88	983.74
655.22	977.62
655.56	970.81
655.90	963.90
656.25	957.86
656.59	951.62
656.93	945.67
657.27	940.71
657.61	935.07
657.95	929.14
658.29	923.21
658.64	917.95
658.98	911.33
659.32	904.93
659.66	898.24
660.00	892.52
660.34	887.38
660.68	881.31
661.02	875.05
661.36	869.52
661.70	864.40
662.05	859.52
662.39	853.45
662.73	848.71
663.07	844.02
663.41	838.17
663.75	832.17
664.09	826.05
664.43	819.71
664.77	814.10
665.11	808.05
665.45	802.64
665.79	796.76
666.13	790.69
666.47	785.55
666.81	780.05
667.15	774.24
667.49	769.05
667.83	764.50
668.17	760.00
668.51	754.67
668.85	749.36
669.19	744.71
669.53	738.83
669.87	733.07
670.21	727.55
670.55	722.52
670.89	718.57
671.23	714.10
671.57	709.02
671.91	704.45
672.25	699.98
672.58	696.45
672.92	691.69
673.26	687.71
673.60	682.88
673.94	677.71
674.28	673.14
674.62	668.31
674.96	663.19
675.30	659.36
675.64	655.05
675.97	650.98
676.31	645.88
676.65	641.33
676.99	637.86
677.33	633.14
677.67	629.05
678.01	623.98
678.34	619.93
678.68	616.40
679.02	611.86
679.36	607.64
679.70	602.07
680.04	597.76
680.37	593.33
680.71	589.43
681.05	585.86
681.39	581.57
681.73	577.43
682.06	573.02
682.40	568.24
682.74	564.38
683.08	560.69
683.42	556.57
683.75	553.29
684.09	548.57
684.43	545.29
684.77	541.17
685.10	537.83
685.44	534.07
685.78	529.81
686.12	526.62
686.45	522.74
686.79	518.74
687.13	515.67
687.46	512.10
687.80	508.90
688.14	505.36
688.48	502.36
688.81	498.67
689.15	495.88
689.49	492.24
689.82	488.95
690.16	484.40
690.50	481.26
690.83	477.71
691.17	474.14
691.51	470.10
691.84	466.98
692.18	463.31
692.52	459.83
692.85	457.14
693.19	454.55
693.52	451.71
693.86	448.95
694.20	445.52
694.53	442.86
694.87	439.38
695.21	436.19
695.54	433.43
695.88	430.38
696.21	426.62
696.55	423.67
696.88	420.93
697.22	418.74
697.56	416.33
697.89	413.64
698.23	411.40
698.56	409.24
698.90	407.00
699.23	404.02
699.57	401.71
699.90	398.86
700.24	395.71
700.58	393.33
700.91	391.50
701.25	391.05
701.58	389.05
701.92	387.05
702.25	385.07
702.59	382.43
702.92	380.67
703.26	379.26
703.59	377.69
703.93	377.36
704.26	375.57
704.60	373.64
704.93	371.67
705.26	369.71
705.60	368.36
705.93	366.02
706.27	365.31
706.60	363.95
706.94	362.98
707.27	360.86
707.61	359.07
707.94	356.93
708.27	353.48
708.61	351.19
708.94	349.50
709.28	347.76
709.61	345.98
709.94	344.26
710.28	342.62
710.61	341.07
710.95	337.67
711.28	337.29
711.61	335.57
711.95	334.57
712.28	332.93
712.61	330.95
712.95	330.48
713.28	329.07
713.61	327.21
713.95	324.95
714.28	324.05
714.61	322.74
714.95	321.24
715.28	319.93
715.61	318.57
715.95	317.50
716.28	315.79
716.61	314.67
716.95	313.12
717.28	311.60
717.61	309.93
717.94	308.79
718.28	305.90
718.61	304.62
718.94	302.88
719.27	301.50
719.61	300.55
719.94	298.71
720.27	296.69
720.60	295.12
720.94	294.12
721.27	292.69
721.60	292.17
721.93	291.48
722.27	290.86
722.60	290.10
722.93	288.40
723.26	287.79
723.59	286.52
723.93	285.98
724.26	285.31
724.59	284.57
724.92	283.81
725.25	283.50
725.59	282.76
725.92	282.19
726.25	281.45
726.58	280.62
726.91	279.83
727.24	279.62
727.57	279.02
727.91	278.17
728.24	277.62
728.57	276.48
728.90	275.98
729.23	274.69
729.56	274.81
729.89	274.55
730.22	273.60
730.55	272.81
730.89	272.17
731.22	271.31
731.55	270.48
731.88	269.79
732.21	268.69
732.54	267.74
732.87	267.21
733.20	266.81
733.53	266.24
733.86	265.98
734.19	264.83
734.52	264.31
734.85	265.21
735.18	264.31
735.51	264.26
735.84	263.62
736.17	263.45
736.50	261.86
736.83	263.76
737.16	263.26
737.49	263.07
737.82	262.02
738.15	261.74
738.48	261.12
738.81	260.43
739.14	259.71
739.47	259.02
739.80	258.17
740.13	257.76
740.46	256.81
740.79	255.98
741.12	255.45
741.45	255.07
741.78	253.31
742.11	253.57
742.44	252.67
742.77	252.50
743.10	251.71
743.43	251.14
743.75	248.45
744.08	250.88
744.41	250.26
744.74	250.07
745.07	249.17
745.40	249.14
745.73	249.57
746.06	249.40
746.39	249.50
746.71	248.93
747.04	248.38
747.37	247.90
747.70	247.83
748.03	247.88
748.36	247.98
748.68	247.43
749.01	246.17
749.34	246.00
749.67	245.55
750.00	245.52
750.33	246.83
750.65	246.67
750.98	243.74
751.31	243.55
751.64	243.17
751.97	244.29
752.29	244.00
752.62	242.74
752.95	242.26
753.28	241.71
753.60	241.52
753.93	241.83
754.26	241.79
754.59	240.81
754.91	240.10
755.24	239.48
755.57	239.31
755.90	239.29
756.22	238.45
756.55	237.86
756.88	237.21
757.20	235.45
757.53	234.26
757.86	233.90
758.19	233.67
758.51	233.50
758.84	231.93
759.17	231.19
759.49	231.14
759.82	231.86
760.15	231.60
760.47	231.29
760.80	230.45
761.13	230.43
761.45	230.40
761.78	230.26
762.11	229.83
762.43	229.43
762.76	229.29
763.08	229.55
763.41	229.48
763.74	229.26
764.06	229.17
764.39	229.21
764.71	229.07
765.04	228.86
765.37	228.50
765.69	228.12
766.02	228.00
766.34	227.83
766.67	227.10
767.00	227.24
767.32	228.26
767.65	229.33
767.97	229.02
768.30	229.05
768.62	228.79
768.95	228.67
769.27	228.57
769.60	228.48
769.92	227.90
770.25	227.33
770.57	227.02
770.90	226.79
771.22	226.62
771.55	226.45
771.87	226.45
772.20	226.29
772.52	228.05
772.85	230.33
773.17	230.12
773.50	229.67
773.82	229.48
774.15	228.17
774.47	226.74
774.80	226.52
775.12	226.50
775.45	226.60
775.77	226.45
776.09	226.40
776.42	226.31
776.74	226.88
777.07	226.71
777.39	226.74
777.72	226.50
778.04	226.71
778.36	226.50
778.69	226.31
779.01	226.33
779.33	224.40
779.66	222.07
779.98	221.93
780.31	222.02
780.63	222.67
780.95	223.12
781.28	222.93
781.60	222.79
781.92	222.29
782.25	222.21
782.57	222.31
782.89	222.29
783.22	222.07
783.54	221.38
783.86	221.62
784.19	221.55
784.51	222.02
784.83	221.62
785.16	221.55
785.48	221.55
785.80	221.55
786.12	221.76
786.45	221.86
786.77	221.57
787.09	221.62
787.42	220.64
787.74	220.43
788.06	220.55
788.38	220.31
788.71	220.29
789.03	220.29
789.35	220.33
789.67	219.88
789.99	220.26
790.32	220.00
790.64	220.12
790.96	221.83
791.28	221.19
791.61	221.07
791.93	221.14
792.25	220.93
792.57	222.29
792.89	221.88
793.21	221.83
793.54	222.07
793.86	221.81
794.18	221.95
794.50	221.74
794.82	221.67
795.14	221.95
795.47	222.29
795.79	222.21
796.11	221.48
796.43	221.29
796.75	221.12
797.07	221.50
797.39	221.52
797.71	219.76
798.04	219.81
798.36	219.88
798.68	219.79
799.00	220.10
799.32	218.86
799.64	219.21
799.96	219.24
800.28	219.33
800.60	219.00
800.92	219.24
801.24	218.88
801.56	218.95
801.89	218.62
802.21	218.64
802.53	218.10
802.85	218.95
803.17	220.12
803.49	219.50
803.81	219.10
804.13	218.83
804.45	218.74
804.77	218.90
805.09	218.93
805.41	218.55
805.73	217.98
806.05	217.40
806.37	217.29
806.69	217.00
807.01	216.93
807.33	217.17
807.65	216.26
807.97	217.31
808.28	217.05
808.60	217.02
808.92	216.79
809.24	218.17
809.56	217.55
809.88	216.74
810.20	217.05
810.52	217.48
810.84	217.05
811.16	216.93
811.48	216.71
811.80	217.57
812.12	217.74
812.43	218.07
812.75	218.52
813.07	218.12
813.39	218.36
813.71	217.88
814.03	217.50
814.35	217.62
814.67	216.81
814.98	216.52
815.30	216.57
815.62	216.05
815.94	214.64
816.26	214.74
816.58	214.36
816.89	214.40
817.21	213.90
817.53	214.24
817.85	214.17
818.17	214.31
818.48	213.33
818.80	213.50
819.12	213.12
819.44	212.81
819.76	212.67
820.07	212.43
820.39	212.55
820.71	212.98
821.03	213.21
821.34	213.05
821.66	213.48
821.98	213.69
822.30	213.79
822.61	215.17
822.93	214.86
823.25	214.81
823.57	214.62
823.88	215.02
824.20	214.67
824.52	215.10
824.83	214.64
825.15	214.31
825.47	214.26
825.79	214.71
826.10	214.57
826.42	214.67
826.74	214.93
827.05	215.10
827.37	215.24
827.69	214.83
828.00	215.10
828.32	215.05
828.64	214.93
828.95	215.83
829.27	215.26
829.58	215.50
829.90	215.86
830.22	216.00
830.53	215.45
830.85	215.33
831.17	214.74
831.48	214.81
831.80	215.12
832.11	214.83
832.43	214.29
832.75	214.19
833.06	215.36
833.38	214.88
833.69	214.74
834.01	214.76
834.32	214.90
834.64	214.83
834.96	214.76
835.27	214.40
835.59	213.76
835.90	213.33
836.22	213.10
836.53	212.67
836.85	212.40
837.16	214.67
837.48	214.95
837.79	215.71
838.11	216.00
838.42	215.90
838.74	216.14
839.05	216.14
839.37	215.88
839.68	214.55
840.00	214.33
840.31	214.55
840.63	214.14
840.94	214.02
841.26	213.52
841.57	213.48
841.88	213.64
842.20	213.36
842.51	213.05
842.83	213.14
843.14	215.14
843.46	214.83
843.77	213.52
844.08	213.38
844.40	212.83
844.71	212.57
845.03	212.29
845.34	212.24
845.65	212.14
845.97	212.24
846.28	212.60
846.60	212.79
846.91	212.48
847.22	212.48
847.54	213.02
847.85	213.17
848.16	213.00
848.48	212.90
848.79	213.98
849.10	214.21
849.42	214.24
849.73	212.05
850.04	212.29
850.36	211.71
850.67	212.00
850.98	211.88
851.30	212.26
851.61	212.52
851.92	212.43
852.23	213.26
852.55	213.64
852.86	213.62
853.17	213.83
853.49	214.10
853.80	214.64
854.11	214.76
854.42	215.00
854.74	214.76
855.05	214.74
855.36	213.40
855.67	213.55
855.99	213.50
856.30	216.00
856.61	215.90
856.92	215.79
857.23	215.81
857.55	215.67
857.86	215.33
858.17	215.55
858.48	215.21
858.79	214.69
859.11	214.62
859.42	214.62
859.73	214.17
860.04	214.05
860.35	213.31
860.66	212.67
860.98	212.69
861.29	213.38
861.60	213.26
861.91	214.00
862.22	213.64
862.53	213.48
862.84	211.17
863.16	211.86
863.47	211.52
863.78	211.40
864.09	211.40
864.40	211.57
864.71	211.36
865.02	211.81
865.33	211.74
865.64	211.45
865.95	211.33
866.27	212.79
866.58	212.62
866.89	212.74
867.20	212.67
867.51	212.52
867.82	212.29
868.13	213.19
868.44	212.71
868.75	213.19
869.06	213.45
869.37	213.79
869.68	213.14
869.99	213.69
870.30	213.57
870.61	213.90
870.92	213.60
871.23	213.50
871.54	213.79
871.85	214.26
872.16	214.52
872.47	214.55
872.78	213.33
873.09	213.64
873.40	213.76
873.71	214.02
874.02	213.93
874.33	213.62
874.64	212.90
874.95	213.14
875.26	212.71
875.56	212.50
875.87	212.21
876.18	212.19
876.49	214.12
876.80	214.10
877.11	213.83
877.42	213.95
877.73	214.00
878.04	213.38
878.35	213.24
878.66	213.24
878.96	213.17
879.27	213.21
879.58	213.02
879.89	212.76
880.20	213.29
880.51	213.55
880.82	213.64
881.12	213.83
881.43	213.55
881.74	213.31
882.05	213.36
882.36	213.71
882.67	213.95
882.97	211.67
883.28	211.62
883.59	211.74
883.90	211.88
884.21	212.29
884.51	212.21
884.82	211.86
885.13	212.00
885.44	211.74
885.74	211.88
886.05	211.90
886.36	212.12
886.67	211.50
886.98	212.33
887.28	212.48
887.59	212.45
887.90	212.29
888.20	212.24
888.51	212.71
888.82	212.29
889.13	212.64
889.43	214.45
889.74	214.36
890.05	213.90
890.35	213.81
890.66	213.50
890.97	213.67
891.28	213.40
891.58	213.21
891.89	213.26
892.20	212.93
892.50	212.57
892.81	212.48
893.12	212.19
893.42	211.00
893.73	211.12
894.04	211.14
894.34	211.43
894.65	211.29
894.95	210.64
895.26	210.76
895.57	211.26
895.87	208.98
896.18	209.33
896.48	209.74
896.79	209.69
897.10	209.88
897.40	209.95
897.71	210.33
898.01	210.24
898.32	210.64
898.63	210.45
898.93	211.02
899.24	210.98
899.54	210.95
899.85	211.07
900.15	210.69
900.46	210.55
900.76	210.88
901.07	211.10
901.38	211.48
901.68	211.50
901.99	210.48
902.29	210.79
902.60	210.60
902.90	210.29
903.21	210.52
903.51	210.36
903.82	210.64
904.12	210.55
904.43	210.69
904.73	210.62
905.03	211.07
905.34	212.67
905.64	212.38
905.95	212.57
906.25	212.45
906.56	212.69
906.86	212.86
907.17	212.43
907.47	212.62
907.77	212.36
908.08	211.98
908.38	212.14
908.69	212.57
908.99	213.02
909.30	213.29
909.60	212.86
909.90	212.81
910.21	212.45
910.51	212.40
910.81	212.55
911.12	212.55
911.42	212.45
911.73	210.38
912.03	210.74
912.33	211.12
912.64	211.00
912.94	210.76
913.24	210.36
913.55	210.36
913.85	210.24
914.15	210.69
914.46	211.19
914.76	210.95
915.06	210.69
915.37	210.33
915.67	210.02
915.97	210.24
916.27	210.14
916.58	210.21
916.88	210.07
917.18	209.93
917.49	211.40
917.79	211.33
918.09	211.69
918.39	212.14
918.70	211.88
919.00	212.05
919.30	212.98
919.60	212.81
919.91	212.48
920.21	212.50
920.51	211.93
920.81	211.76
921.12	212.00
921.42	211.95
921.72	211.98
922.02	212.26
922.32	212.52
922.63	212.67
922.93	213.64
923.23	213.62
923.53	213.29
923.83	212.00
924.13	212.17
924.44	212.07
924.74	212.36
925.04	212.83
925.34	213.14
925.64	212.43
925.94	212.67
926.24	214.14
926.55	214.00
926.85	214.52
927.15	214.29
927.45	214.40
927.75	214.26
928.05	214.21
928.35	213.98
928.65	214.36
928.95	214.45
929.26	213.50
929.56	213.98
929.86	214.48
930.16	214.24
930.46	214.12
930.76	214.29
931.06	213.21
931.36	212.74
931.66	212.74
931.96	212.90
932.26	212.95
932.56	212.17
932.86	212.43
933.16	212.14
933.46	212.43
933.76	211.95
934.06	212.74
934.36	213.52
934.66	213.62
934.96	213.14
935.26	213.19
935.56	213.62
935.86	213.17
936.16	212.76
936.46	212.57
936.76	212.48
937.06	212.12
937.36	212.60
937.66	212.60
937.96	212.60
938.26	212.29
938.56	212.21
938.86	212.21
939.16	212.43
939.46	212.74
939.76	212.71
940.06	212.83
940.35	212.31
940.65	211.29
940.95	211.52
941.25	211.05
941.55	210.50
941.85	210.38
942.15	211.00
942.45	211.55
942.75	211.48
943.04	211.45
943.34	211.93
943.64	211.76
943.94	211.67
944.24	211.55
944.54	211.55
944.84	211.50
945.13	211.24
945.43	210.88
945.73	210.71
946.03	210.60
946.33	210.38
946.62	210.19
946.92	210.14
947.22	210.26
947.52	210.45
947.82	211.21
948.11	210.67
948.41	210.10
948.71	209.64
949.01	209.83
949.31	209.98
949.60	209.71
949.90	209.93
950.20	209.74
950.50	209.90
950.79	209.90
951.09	210.05
951.39	209.93
951.69	209.71
951.98	210.10
952.28	210.24
952.58	210.40
952.87	210.43
953.17	210.74
953.47	210.36
953.76	210.57
954.06	209.98
954.36	209.81
954.66	209.76
954.95	210.31
955.25	210.33
955.55	210.43
955.84	210.12
956.14	210.24
956.44	210.50
956.73	210.02
957.03	210.14
957.32	210.17
957.62	210.07
957.92	210.52
958.21	210.26
958.51	212.45
958.81	212.76
959.10	213.00
959.40	213.50
959.69	213.90
959.99	214.12
960.29	214.26
960.58	214.55
960.88	215.33
961.17	215.02
961.47	215.31
961.76	215.07
962.06	215.52
962.36	215.26
962.65	215.17
962.95	215.19
963.24	214.93
963.54	215.05
963.83	215.33
964.13	215.17
964.42	214.62
964.72	213.05
965.01	213.05
965.31	212.81
965.60	212.21
965.90	213.38
966.19	212.79
966.49	212.81
966.78	212.71
967.08	212.48
967.37	212.43
967.67	211.90
967.96	212.33
968.26	212.21
968.55	212.48
968.85	212.64
969.14	212.62
969.43	212.74
969.73	212.45
970.02	212.26
970.32	212.26
970.61	212.31
970.91	211.62
971.20	211.33
971.49	211.38
971.79	211.76
972.08	210.26
972.38	210.60
972.67	210.64
972.96	210.95
973.26	210.50
973.55	211.05
973.85	211.26
974.14	210.79
974.43	210.93
974.73	210.60
975.02	210.24
975.31	210.19
975.61	210.07
975.90	210.05
976.19	209.86
976.49	210.05
976.78	210.40
977.07	210.26
977.37	210.45
977.66	210.48
977.95	210.12
978.24	210.48
978.54	210.81
978.83	210.36
979.12	210.29
979.42	210.33
979.71	210.10
980.00	210.07
980.29	210.19
980.59	209.81
980.88	210.52
981.17	210.48
981.46	210.64
981.76	210.62
982.05	211.52
982.34	211.71
982.63	211.79
982.93	211.69
983.22	212.31
983.51	212.21
983.80	212.67
984.09	212.98
984.39	212.45
984.68	212.19
984.97	212.40
985.26	212.07
985.55	212.31
985.85	211.76
986.14	211.93
986.43	212.19
986.72	212.07
987.01	211.26
987.30	211.45
987.59	211.43
987.89	211.50
988.18	210.62
988.47	210.50
988.76	210.17
989.05	209.95
989.34	209.57
989.63	210.05
989.92	209.45
990.22	209.05
990.51	209.14
990.80	209.05
991.09	209.43
991.38	209.74
991.67	209.60
991.96	209.50
992.25	209.52
992.54	209.29
992.83	209.64
993.12	209.60
993.41	210.05
993.70	210.81
993.99	211.10
994.28	211.50
994.58	211.83
994.87	211.43
995.16	211.36
995.45	211.19
995.74	210.74
996.03	211.07
996.32	211.55
996.61	212.12
996.90	212.02
997.19	211.69
997.48	211.81
997.77	211.62
998.06	211.79
998.34	211.81
998.63	211.93
998.92	211.83
999.21	212.10
999.50	211.86
999.79	211.17
1000.08	210.90
1000.37	210.71
1000.66	210.43
1000.95	211.29
1001.24	211.67
1001.53	212.12
1001.82	211.86
1002.11	211.52
1002.40	211.67
1002.68	211.93
1002.97	213.50
1003.26	213.50
1003.55	213.10
1003.84	213.14
1004.13	213.93
1004.42	213.55
1004.71	213.33
1004.99	213.07
1005.28	213.69
1005.57	213.69
1005.86	213.50
1006.15	213.74
1006.44	213.48
1006.72	213.74
1007.01	213.43
1007.30	213.17
1007.59	212.88
1007.88	212.90
1008.17	213.00
1008.45	212.52
1008.74	211.64
1009.03	210.64
1009.32	210.55
1009.60	210.74
1009.89	210.69
1010.18	209.67
1010.47	209.55
1010.76	209.67
1011.04	209.69
1011.33	209.71
1011.62	209.74
1011.91	209.76
1012.19	209.60
1012.48	209.67
1012.77	209.67
1013.05	210.45
1013.34	210.48
1013.63	210.40
1013.92	210.62
1014.20	210.43
1014.49	210.33
1014.78	210.88
1015.06	210.19
1015.35	210.14
1015.64	210.31
1015.92	210.55
1016.21	210.90
1016.50	211.10
1016.78	211.36
1017.07	211.40
1017.36	210.76
1017.64	210.55
1017.93	210.86
1018.22	210.81
1018.50	210.64
1018.79	210.26
1019.08	209.60
1019.36	209.86
1019.65	209.52
1019.93	209.86
1020.22	210.24
1020.51	211.48
1020.79	211.02
1021.08	208.00
1021.36	204.00
1021.65	205.00
1021.94	214.50
1022.22	213.50
1022.51	203.00
1022.79	217.00
1023.08	212.50
1023.36	236.00
1023.65	206.50
>>>>>End Processed Spectral Data<<<<<
