SpectraSuite Data File
++++++++++++++++++++++++++++++++++++
Date: Tue Apr 02 18:38:27 EDT 2013
User: group
Dark Spectrum Present: No
Reference Spectrum Present: No
Number of Sampled Component Spectra: 1
Spectrometers: USB2E7196
Integration Time (usec): 580000 (USB2E7196)
Spectra Averaged: 2 (USB2E7196)
Boxcar Smoothing: 10 (USB2E7196)
Correct for Electrical Dark: No (USB2E7196)
Strobe/Lamp Enabled: No (USB2E7196)
Correct for Detector Non-linearity: No (USB2E7196)
Correct for Stray Light: No (USB2E7196)
Number of Pixels in Processed Spectrum: 2048
>>>>>Begin Processed Spectral Data<<<<<
339.09	0.00
339.48	192.00
339.86	196.50
340.24	195.00
340.63	194.00
341.01	229.50
341.39	200.50
341.78	207.00
342.16	209.50
342.54	201.50
342.93	196.93
343.31	206.50
343.69	207.17
344.07	207.62
344.46	208.43
344.84	209.05
345.22	208.17
345.60	208.67
345.99	208.90
346.37	209.00
346.75	209.21
347.13	209.31
347.52	209.33
347.90	209.81
348.28	210.07
348.66	210.69
349.05	210.07
349.43	210.38
349.81	210.86
350.19	210.93
350.57	211.02
350.96	211.14
351.34	211.60
351.72	211.79
352.10	211.90
352.48	211.90
352.87	212.05
353.25	211.86
353.63	211.88
354.01	211.93
354.39	212.05
354.77	212.24
355.15	212.88
355.54	212.71
355.92	212.24
356.30	212.52
356.68	213.81
357.06	214.00
357.44	213.90
357.82	213.90
358.20	214.83
358.58	214.79
358.97	215.14
359.35	215.52
359.73	215.95
360.11	216.12
360.49	216.10
360.87	216.38
361.25	216.90
361.63	217.57
362.01	217.64
362.39	217.48
362.77	217.79
363.15	217.60
363.53	217.74
363.91	218.00
364.29	218.02
364.67	216.00
365.05	216.14
365.43	216.50
365.81	216.62
366.19	216.67
366.57	217.64
366.95	217.19
367.33	216.90
367.71	216.98
368.09	217.31
368.47	217.26
368.85	216.88
369.23	217.26
369.61	216.48
369.99	217.29
370.37	217.76
370.75	218.64
371.13	218.17
371.51	217.90
371.89	218.00
372.27	218.02
372.65	218.14
373.03	218.14
373.41	217.88
373.78	217.74
374.16	216.81
374.54	216.00
374.92	215.95
375.30	215.95
375.68	215.38
376.06	215.38
376.44	215.26
376.82	215.43
377.19	215.12
377.57	215.14
377.95	214.38
378.33	213.86
378.71	212.62
379.09	213.05
379.47	213.40
379.84	213.00
380.22	212.79
380.60	212.71
380.98	212.48
381.36	212.33
381.73	211.90
382.11	212.48
382.49	212.50
382.87	212.14
383.25	212.14
383.62	214.43
384.00	213.81
384.38	214.05
384.76	214.69
385.13	215.71
385.51	215.69
385.89	215.19
386.27	215.71
386.64	216.17
387.02	215.90
387.40	215.62
387.78	215.83
388.15	216.07
388.53	215.95
388.91	216.21
389.29	216.19
389.66	216.74
390.04	216.40
390.42	216.83
390.79	217.24
391.17	217.17
391.55	215.14
391.92	215.26
392.30	215.40
392.68	214.98
393.05	214.71
393.43	214.90
393.81	215.10
394.18	214.69
394.56	214.69
394.94	214.98
395.31	214.88
395.69	215.52
396.06	215.81
396.44	215.95
396.82	215.71
397.19	216.69
397.57	216.62
397.95	217.10
398.32	216.40
398.70	216.40
399.07	217.05
399.45	217.07
399.82	217.07
400.20	217.02
400.58	217.10
400.95	216.26
401.33	216.83
401.70	218.50
402.08	218.67
402.45	218.55
402.83	219.36
403.20	219.67
403.58	219.55
403.95	219.81
404.33	220.48
404.71	220.88
405.08	222.24
405.46	222.36
405.83	222.48
406.21	223.21
406.58	223.93
406.96	224.24
407.33	224.76
407.70	225.81
408.08	227.90
408.45	228.95
408.83	230.02
409.20	230.50
409.58	230.05
409.95	231.43
410.33	232.71
410.70	233.07
411.08	234.57
411.45	236.05
411.82	237.00
412.20	238.67
412.57	241.07
412.95	240.93
413.32	243.05
413.69	244.67
414.07	246.38
414.44	248.45
414.82	250.79
415.19	253.74
415.56	256.31
415.94	258.10
416.31	260.98
416.68	264.31
417.06	267.74
417.43	271.71
417.81	275.29
418.18	279.71
418.55	284.07
418.93	288.76
419.30	293.50
419.67	298.67
420.04	303.69
420.42	309.19
420.79	317.31
421.16	324.00
421.54	331.90
421.91	339.57
422.28	347.31
422.66	355.12
423.03	364.14
423.40	372.10
423.77	380.50
424.15	389.14
424.52	398.05
424.89	408.43
425.26	417.93
425.64	427.00
426.01	436.62
426.38	447.33
426.75	458.45
427.13	469.50
427.50	481.02
427.87	493.07
428.24	505.26
428.61	515.07
428.99	528.29
429.36	540.71
429.73	553.76
430.10	567.10
430.47	580.60
430.85	593.26
431.22	608.76
431.59	626.36
431.96	641.71
432.33	658.05
432.70	673.55
433.08	692.48
433.45	710.38
433.82	728.07
434.19	747.83
434.56	767.36
434.93	785.90
435.30	804.62
435.68	825.38
436.05	845.36
436.42	865.88
436.79	885.19
437.16	906.38
437.53	927.95
437.90	949.19
438.27	970.36
438.64	992.19
439.01	1012.93
439.38	1029.29
439.75	1047.48
440.13	1067.14
440.50	1086.48
440.87	1102.24
441.24	1118.90
441.61	1137.07
441.98	1150.50
442.35	1165.02
442.72	1180.98
443.09	1197.69
443.46	1207.31
443.83	1214.05
444.20	1220.14
444.57	1226.64
444.94	1229.98
445.31	1234.52
445.68	1240.74
446.05	1242.36
446.42	1240.55
446.79	1238.62
447.16	1235.95
447.53	1234.71
447.90	1228.43
448.27	1221.36
448.64	1211.10
449.01	1203.07
449.37	1189.74
449.74	1176.95
450.11	1163.79
450.48	1145.93
450.85	1126.79
451.22	1111.71
451.59	1097.26
451.96	1083.43
452.33	1065.36
452.70	1048.93
453.07	1028.74
453.43	1006.21
453.80	987.02
454.17	968.67
454.54	950.02
454.91	931.55
455.28	912.10
455.65	894.29
456.02	878.98
456.38	863.90
456.75	845.83
457.12	830.10
457.49	814.05
457.86	797.21
458.23	784.90
458.59	770.69
458.96	756.38
459.33	743.55
459.70	731.31
460.07	721.57
460.43	709.93
460.80	698.79
461.17	689.90
461.54	680.05
461.91	670.36
462.27	660.43
462.64	652.19
463.01	642.93
463.38	634.60
463.74	623.10
464.11	614.98
464.48	608.36
464.85	600.71
465.21	595.60
465.58	589.79
465.95	582.21
466.32	576.79
466.68	570.38
467.05	564.43
467.42	558.43
467.78	551.57
468.15	545.62
468.52	541.36
468.88	534.29
469.25	528.71
469.62	524.83
469.98	520.29
470.35	515.98
470.72	511.98
471.08	507.10
471.45	504.26
471.82	501.14
472.18	496.98
472.55	493.79
472.92	489.57
473.28	485.79
473.65	482.83
474.02	479.48
474.38	477.07
474.75	474.88
475.11	472.02
475.48	470.43
475.85	468.43
476.21	466.36
476.58	465.12
476.94	463.79
477.31	462.02
477.67	460.71
478.04	459.48
478.41	458.26
478.77	459.19
479.14	457.29
479.50	456.29
479.87	456.07
480.23	456.21
480.60	456.14
480.96	455.98
481.33	456.74
481.69	456.88
482.06	456.86
482.42	457.12
482.79	457.60
483.15	458.10
483.52	459.24
483.88	459.98
484.25	460.74
484.61	461.93
484.98	462.60
485.34	464.74
485.71	466.76
486.07	468.83
486.44	468.88
486.80	471.12
487.17	472.88
487.53	475.71
487.90	478.40
488.26	481.83
488.62	485.19
488.99	487.71
489.35	491.07
489.72	494.64
490.08	498.12
490.44	501.79
490.81	505.71
491.17	509.86
491.54	514.29
491.90	518.64
492.26	523.24
492.63	528.79
492.99	533.10
493.36	538.19
493.72	543.45
494.08	549.33
494.45	555.79
494.81	562.57
495.17	568.31
495.54	574.98
495.90	581.17
496.26	587.71
496.63	594.81
496.99	601.79
497.35	609.12
497.72	616.86
498.08	624.14
498.44	632.26
498.80	640.67
499.17	648.45
499.53	657.38
499.89	666.38
500.26	674.76
500.62	683.48
500.98	692.33
501.34	701.50
501.71	711.33
502.07	720.19
502.43	729.07
502.79	738.67
503.16	747.76
503.52	757.38
503.88	766.69
504.24	776.10
504.60	786.71
504.97	797.14
505.33	807.69
505.69	818.95
506.05	829.05
506.41	838.88
506.78	849.19
507.14	859.21
507.50	870.33
507.86	881.05
508.22	892.31
508.59	902.67
508.95	913.98
509.31	925.31
509.67	936.40
510.03	946.86
510.39	957.60
510.75	968.74
511.12	979.26
511.48	991.02
511.84	1003.02
512.20	1013.50
512.56	1023.76
512.92	1033.98
513.28	1045.21
513.64	1055.76
514.00	1066.40
514.37	1077.60
514.73	1089.74
515.09	1100.50
515.45	1111.02
515.81	1120.76
516.17	1131.24
516.53	1140.36
516.89	1149.19
517.25	1159.81
517.61	1170.64
517.97	1180.60
518.33	1189.86
518.69	1199.83
519.05	1209.29
519.41	1218.36
519.77	1229.38
520.13	1239.67
520.49	1249.26
520.85	1257.76
521.21	1268.07
521.57	1277.48
521.93	1285.95
522.29	1293.45
522.65	1301.02
523.01	1310.19
523.37	1318.90
523.73	1327.64
524.09	1335.55
524.45	1344.57
524.81	1352.19
525.17	1361.02
525.53	1368.88
525.89	1377.45
526.25	1386.24
526.61	1393.79
526.97	1400.21
527.33	1407.17
527.68	1416.05
528.04	1422.74
528.40	1430.05
528.76	1436.60
529.12	1443.36
529.48	1451.81
529.84	1458.43
530.20	1466.88
530.56	1473.74
530.91	1481.38
531.27	1488.52
531.63	1497.50
531.99	1503.40
532.35	1509.26
532.71	1515.38
533.07	1522.48
533.42	1530.21
533.78	1536.17
534.14	1542.98
534.50	1550.57
534.86	1556.74
535.21	1560.88
535.57	1568.29
535.93	1574.40
536.29	1581.14
536.65	1587.93
537.00	1592.83
537.36	1599.14
537.72	1602.38
538.08	1606.93
538.44	1610.76
538.79	1614.79
539.15	1617.55
539.51	1622.57
539.87	1626.95
540.22	1630.86
540.58	1635.24
540.94	1638.52
541.29	1642.67
541.65	1645.88
542.01	1649.29
542.37	1651.62
542.72	1654.10
543.08	1655.62
543.44	1657.86
543.79	1659.31
544.15	1661.45
544.51	1664.50
544.87	1666.69
545.22	1669.95
545.58	1672.36
545.94	1675.71
546.29	1679.14
546.65	1682.10
547.01	1683.67
547.36	1686.05
547.72	1687.90
548.07	1689.21
548.43	1690.55
548.79	1690.71
549.14	1691.57
549.50	1692.21
549.86	1693.38
550.21	1695.19
550.57	1697.55
550.92	1698.71
551.28	1700.40
551.64	1701.19
551.99	1701.95
552.35	1702.52
552.70	1703.55
553.06	1704.83
553.41	1705.74
553.77	1706.81
554.13	1707.79
554.48	1709.93
554.84	1712.10
555.19	1713.24
555.55	1715.71
555.90	1716.10
556.26	1717.50
556.61	1717.81
556.97	1718.93
557.32	1719.29
557.68	1720.71
558.03	1720.45
558.39	1720.48
558.74	1720.74
559.10	1720.17
559.45	1720.45
559.81	1721.48
560.16	1721.19
560.52	1721.62
560.87	1721.10
561.23	1720.00
561.58	1720.55
561.94	1719.05
562.29	1717.62
562.64	1717.21
563.00	1714.05
563.35	1713.29
563.71	1713.45
564.06	1713.79
564.42	1713.33
564.77	1714.12
565.12	1714.14
565.48	1716.62
565.83	1717.29
566.19	1716.93
566.54	1717.79
566.89	1717.55
567.25	1717.69
567.60	1719.21
567.96	1720.50
568.31	1722.31
568.66	1722.71
569.02	1721.17
569.37	1720.19
569.72	1719.71
570.08	1717.60
570.43	1717.55
570.78	1717.05
571.14	1716.10
571.49	1714.79
571.84	1714.52
572.20	1712.12
572.55	1709.86
572.90	1706.14
573.26	1703.71
573.61	1701.33
573.96	1698.95
574.31	1696.67
574.67	1693.48
575.02	1690.12
575.37	1685.55
575.72	1680.31
576.08	1676.98
576.43	1673.45
576.78	1670.29
577.13	1666.71
577.49	1664.12
577.84	1661.12
578.19	1657.52
578.54	1654.31
578.90	1651.43
579.25	1646.48
579.60	1642.71
579.95	1638.24
580.30	1634.10
580.66	1630.81
581.01	1627.62
581.36	1623.24
581.71	1618.60
582.06	1615.31
582.42	1611.43
582.77	1606.24
583.12	1602.40
583.47	1597.26
583.82	1593.93
584.17	1590.29
584.53	1586.26
584.88	1581.86
585.23	1578.00
585.58	1572.60
585.93	1566.90
586.28	1562.60
586.63	1558.55
586.98	1555.24
587.34	1551.95
587.69	1546.67
588.04	1541.62
588.39	1535.36
588.74	1529.26
589.09	1524.45
589.44	1517.86
589.79	1512.45
590.14	1508.05
590.49	1502.67
590.84	1497.29
591.19	1491.64
591.54	1486.43
591.89	1480.55
592.25	1476.93
592.60	1470.57
592.95	1466.17
593.30	1460.52
593.65	1453.71
594.00	1447.50
594.35	1447.02
594.70	1440.14
595.05	1434.71
595.40	1428.48
595.75	1422.86
596.10	1419.00
596.45	1413.67
596.80	1408.86
597.15	1403.38
597.50	1397.19
597.85	1391.98
598.19	1386.74
598.54	1381.36
598.89	1374.81
599.24	1369.79
599.59	1362.79
599.94	1357.60
600.29	1351.83
600.64	1346.64
600.99	1341.19
601.34	1336.19
601.69	1323.88
602.04	1318.26
602.39	1313.05
602.74	1307.76
603.08	1302.95
603.43	1297.71
603.78	1291.93
604.13	1285.29
604.48	1277.90
604.83	1272.83
605.18	1267.45
605.53	1262.10
605.87	1255.57
606.22	1250.17
606.57	1244.29
606.92	1238.67
607.27	1232.12
607.62	1226.00
607.96	1220.33
608.31	1215.05
608.66	1209.19
609.01	1203.40
609.36	1197.71
609.70	1191.71
610.05	1186.07
610.40	1179.90
610.75	1172.98
611.10	1167.17
611.44	1161.64
611.79	1156.95
612.14	1150.88
612.49	1144.50
612.83	1138.00
613.18	1132.36
613.53	1126.21
613.88	1119.83
614.22	1113.33
614.57	1106.93
614.92	1100.71
615.27	1094.40
615.61	1087.79
615.96	1081.55
616.31	1076.24
616.65	1071.21
617.00	1065.19
617.35	1058.50
617.70	1053.10
618.04	1047.60
618.39	1041.12
618.74	1035.55
619.08	1028.86
619.43	1023.02
619.78	1017.02
620.12	1011.67
620.47	1006.07
620.82	1000.71
621.16	994.50
621.51	989.67
621.85	984.33
622.20	978.90
622.55	973.38
622.89	967.79
623.24	962.98
623.59	956.81
623.93	950.71
624.28	946.05
624.62	943.52
624.97	939.31
625.32	933.60
625.66	928.50
626.01	922.71
626.35	918.29
626.70	913.50
627.04	909.14
627.39	903.45
627.73	900.00
628.08	894.86
628.43	890.00
628.77	884.19
629.12	879.57
629.46	875.45
629.81	870.29
630.15	865.38
630.50	860.05
630.84	855.31
631.19	850.02
631.53	844.29
631.88	836.86
632.22	829.88
632.57	825.29
632.91	820.17
633.26	815.74
633.60	810.10
633.95	804.55
634.29	798.38
634.64	793.76
634.98	787.10
635.32	782.93
635.67	779.14
636.01	774.45
636.36	769.36
636.70	764.48
637.05	759.81
637.39	755.38
637.73	750.17
638.08	746.69
638.42	742.17
638.77	738.45
639.11	734.21
639.45	729.76
639.80	725.40
640.14	721.07
640.49	716.50
640.83	712.40
641.17	707.79
641.52	703.33
641.86	699.21
642.20	695.83
642.55	690.81
642.89	686.38
643.23	682.48
643.58	678.98
643.92	673.90
644.26	669.83
644.61	666.19
644.95	662.62
645.29	657.38
645.64	653.17
645.98	648.31
646.32	644.79
646.66	640.88
647.01	636.17
647.35	632.43
647.69	628.86
648.04	624.40
648.38	620.88
648.72	617.48
649.06	613.19
649.41	608.67
649.75	604.86
650.09	600.95
650.43	596.40
650.78	591.62
651.12	587.76
651.46	583.57
651.80	579.21
652.14	574.95
652.49	571.83
652.83	568.48
653.17	564.40
653.51	559.40
653.85	555.98
654.20	553.00
654.54	549.21
654.88	545.29
655.22	543.05
655.56	539.26
655.90	535.43
656.25	532.21
656.59	528.95
656.93	525.67
657.27	522.64
657.61	519.38
657.95	516.79
658.29	513.83
658.64	511.60
658.98	508.33
659.32	505.31
659.66	501.81
660.00	498.86
660.34	496.29
660.68	493.88
661.02	490.50
661.36	487.12
661.70	484.33
662.05	481.21
662.39	478.14
662.73	476.21
663.07	475.14
663.41	472.50
663.75	469.33
664.09	466.67
664.43	463.45
664.77	461.29
665.11	458.52
665.45	456.02
665.79	453.43
666.13	451.00
666.47	448.57
666.81	446.24
667.15	443.67
667.49	441.38
667.83	439.64
668.17	437.33
668.51	435.02
668.85	432.83
669.19	431.64
669.53	428.64
669.87	425.71
670.21	422.26
670.55	420.24
670.89	419.14
671.23	416.93
671.57	415.36
671.91	413.33
672.25	411.50
672.58	410.48
672.92	407.98
673.26	406.17
673.60	404.02
673.94	402.10
674.28	400.07
674.62	398.26
674.96	396.19
675.30	395.10
675.64	393.71
675.97	391.81
676.31	389.64
676.65	388.00
676.99	387.00
677.33	385.31
677.67	383.50
678.01	380.79
678.34	379.29
678.68	377.64
679.02	375.67
679.36	373.81
679.70	371.50
680.04	369.90
680.37	368.38
680.71	366.83
681.05	365.38
681.39	363.83
681.73	362.19
682.06	360.38
682.40	358.48
682.74	356.88
683.08	356.00
683.42	354.29
683.75	353.29
684.09	351.43
684.43	350.05
684.77	348.50
685.10	347.50
685.44	346.21
685.78	344.69
686.12	343.14
686.45	341.60
686.79	340.14
687.13	339.26
687.46	337.67
687.80	336.64
688.14	335.21
688.48	334.05
688.81	332.90
689.15	331.95
689.49	330.52
689.82	329.50
690.16	327.45
690.50	325.95
690.83	324.29
691.17	322.71
691.51	321.36
691.84	320.33
692.18	318.90
692.52	317.60
692.85	316.31
693.19	316.14
693.52	315.12
693.86	313.79
694.20	312.52
694.53	311.64
694.87	310.10
695.21	308.74
695.54	307.60
695.88	305.93
696.21	304.36
696.55	303.57
696.88	302.38
697.22	301.52
697.56	300.86
697.89	299.64
698.23	299.17
698.56	298.10
698.90	297.24
699.23	296.07
699.57	295.14
699.90	294.00
700.24	292.24
700.58	291.67
700.91	291.19
701.25	291.79
701.58	291.38
701.92	291.33
702.25	290.90
702.59	290.07
702.92	289.60
703.26	288.74
703.59	287.98
703.93	288.69
704.26	287.81
704.60	287.36
704.93	286.88
705.26	285.64
705.60	285.33
705.93	284.21
706.27	284.45
706.60	284.10
706.94	284.12
707.27	283.52
707.61	282.62
707.94	281.74
708.27	279.33
708.61	277.95
708.94	277.26
709.28	276.52
709.61	275.57
709.94	275.07
710.28	274.79
710.61	274.02
710.95	271.74
711.28	272.50
711.61	271.55
711.95	271.14
712.28	270.67
712.61	270.00
712.95	270.74
713.28	270.64
713.61	269.67
713.95	268.52
714.28	268.12
714.61	267.26
714.95	266.76
715.28	266.02
715.61	265.57
715.95	264.90
716.28	264.19
716.61	264.17
716.95	263.43
717.28	262.95
717.61	262.52
717.94	262.26
718.28	260.21
718.61	259.36
718.94	258.33
719.27	257.76
719.61	257.07
719.94	255.60
720.27	254.05
720.60	253.48
720.94	253.05
721.27	252.48
721.60	252.67
721.93	252.07
722.27	252.57
722.60	252.36
722.93	251.81
723.26	251.38
723.59	250.64
723.93	250.33
724.26	250.14
724.59	249.57
724.92	249.10
725.25	249.31
725.59	249.17
725.92	249.17
726.25	248.69
726.58	248.50
726.91	248.17
727.24	248.26
727.57	248.10
727.91	247.43
728.24	247.33
728.57	246.45
728.90	246.24
729.23	245.10
729.56	245.81
729.89	245.48
730.22	245.10
730.55	244.64
730.89	244.40
731.22	243.93
731.55	243.71
731.88	243.52
732.21	243.02
732.54	242.55
732.87	242.17
733.20	242.02
733.53	241.79
733.86	241.67
734.19	240.88
734.52	240.81
734.85	241.86
735.18	241.38
735.51	241.95
735.84	241.90
736.17	242.40
736.50	241.10
736.83	243.12
737.16	243.07
737.49	243.10
737.82	242.79
738.15	242.40
738.48	242.05
738.81	241.69
739.14	241.14
739.47	241.00
739.80	240.83
740.13	240.83
740.46	240.33
740.79	239.74
741.12	239.48
741.45	239.02
741.78	237.90
742.11	238.10
742.44	237.52
742.77	237.55
743.10	236.83
743.43	236.45
743.75	234.14
744.08	236.45
744.41	235.90
744.74	235.55
745.07	235.40
745.40	235.71
745.73	236.07
746.06	236.05
746.39	236.12
746.71	235.93
747.04	235.33
747.37	235.00
747.70	235.40
748.03	235.57
748.36	235.79
748.68	235.40
749.01	234.60
749.34	234.43
749.67	233.93
750.00	234.07
750.33	235.40
750.65	235.36
750.98	232.45
751.31	232.67
751.64	232.52
751.97	233.43
752.29	233.00
752.62	232.05
752.95	231.81
753.28	231.26
753.60	231.02
753.93	231.52
754.26	231.55
754.59	230.90
754.91	230.33
755.24	230.07
755.57	229.76
755.90	229.71
756.22	229.31
756.55	228.98
756.88	228.21
757.20	226.55
757.53	225.69
757.86	225.76
758.19	225.64
758.51	225.69
758.84	224.40
759.17	224.12
759.49	224.10
759.82	224.98
760.15	225.10
760.47	225.02
760.80	224.38
761.13	224.67
761.45	224.21
761.78	224.33
762.11	224.02
762.43	223.90
762.76	223.88
763.08	223.98
763.41	224.14
763.74	224.33
764.06	224.38
764.39	224.48
764.71	224.55
765.04	223.95
765.37	223.57
765.69	223.50
766.02	223.45
766.34	223.17
766.67	222.19
767.00	222.36
767.32	223.24
767.65	224.31
767.97	224.07
768.30	224.21
768.62	224.00
768.95	223.48
769.27	223.50
769.60	223.55
769.92	223.00
770.25	222.62
770.57	222.10
770.90	222.00
771.22	221.76
771.55	221.57
771.87	221.86
772.20	221.79
772.52	223.19
772.85	225.33
773.17	225.52
773.50	225.21
773.82	224.71
774.15	223.40
774.47	222.02
774.80	221.64
775.12	221.48
775.45	221.40
775.77	221.74
776.09	222.07
776.42	222.10
776.74	222.81
777.07	222.52
777.39	222.50
777.72	222.43
778.04	222.81
778.36	222.43
778.69	222.43
779.01	222.50
779.33	220.90
779.66	218.74
779.98	218.64
780.31	218.67
780.63	219.86
780.95	220.26
781.28	220.43
781.60	220.29
781.92	220.60
782.25	220.57
782.57	220.64
782.89	220.40
783.22	220.21
783.54	219.62
783.86	219.81
784.19	219.67
784.51	220.26
784.83	219.86
785.16	220.10
785.48	219.93
785.80	219.98
786.12	220.19
786.45	220.00
786.77	219.95
787.09	220.05
787.42	219.19
787.74	219.43
788.06	219.31
788.38	219.29
788.71	218.67
789.03	218.60
789.35	218.60
789.67	218.07
789.99	218.19
790.32	218.14
790.64	218.55
790.96	220.57
791.28	219.50
791.61	219.52
791.93	219.50
792.25	219.45
792.57	220.71
792.89	220.19
793.21	220.29
793.54	220.12
793.86	219.81
794.18	219.69
794.50	218.98
794.82	218.76
795.14	218.90
795.47	219.48
795.79	219.83
796.11	219.45
796.43	219.50
796.75	219.48
797.07	219.52
797.39	219.00
797.71	217.45
798.04	217.74
798.36	217.74
798.68	217.67
799.00	217.81
799.32	216.81
799.64	217.19
799.96	217.10
800.28	217.50
800.60	217.40
800.92	217.45
801.24	217.74
801.56	218.12
801.89	218.10
802.21	218.19
802.53	217.62
802.85	218.07
803.17	219.10
803.49	218.64
803.81	218.38
804.13	218.40
804.45	217.95
804.77	218.21
805.09	218.40
805.41	218.05
805.73	217.62
806.05	217.00
806.37	216.71
806.69	216.43
807.01	216.19
807.33	216.48
807.65	216.02
807.97	216.76
808.28	216.57
808.60	216.33
808.92	215.86
809.24	217.29
809.56	216.90
809.88	216.07
810.20	216.26
810.52	216.50
810.84	216.24
811.16	216.12
811.48	215.88
811.80	216.29
812.12	216.40
812.43	216.98
812.75	217.36
813.07	217.36
813.39	217.86
813.71	217.76
814.03	217.52
814.35	217.29
814.67	216.24
814.98	216.00
815.30	216.07
815.62	215.76
815.94	214.21
816.26	214.12
816.58	213.60
816.89	213.62
817.21	213.21
817.53	213.67
817.85	213.60
818.17	213.31
818.48	212.67
818.80	213.07
819.12	212.50
819.44	212.10
819.76	211.93
820.07	211.83
820.39	211.93
820.71	212.21
821.03	212.50
821.34	212.50
821.66	212.98
821.98	213.14
822.30	213.33
822.61	214.69
822.93	214.55
823.25	214.71
823.57	214.62
823.88	215.26
824.20	214.67
824.52	215.21
824.83	215.52
825.15	215.43
825.47	215.38
825.79	215.88
826.10	215.71
826.42	215.79
826.74	216.05
827.05	215.81
827.37	215.57
827.69	215.31
828.00	215.50
828.32	215.29
828.64	215.05
828.95	215.83
829.27	215.21
829.58	215.48
829.90	215.81
830.22	216.05
830.53	215.52
830.85	215.40
831.17	214.83
831.48	214.83
831.80	214.83
832.11	214.45
832.43	214.12
832.75	214.10
833.06	215.29
833.38	214.33
833.69	214.36
834.01	214.64
834.32	214.90
834.64	214.55
834.96	214.62
835.27	214.74
835.59	214.14
835.90	213.48
836.22	213.19
836.53	212.74
836.85	212.45
837.16	214.50
837.48	214.81
837.79	215.48
838.11	215.40
838.42	215.19
838.74	215.60
839.05	215.24
839.37	215.31
839.68	213.98
840.00	214.12
840.31	214.38
840.63	214.10
840.94	213.81
841.26	213.69
841.57	213.55
841.88	213.60
842.20	213.48
842.51	213.29
842.83	213.40
843.14	215.38
843.46	215.26
843.77	214.05
844.08	213.81
844.40	213.26
844.71	213.05
845.03	213.29
845.34	213.14
845.65	213.26
845.97	213.33
846.28	213.55
846.60	213.86
846.91	213.48
847.22	213.62
847.54	214.02
847.85	214.29
848.16	214.12
848.48	213.83
848.79	214.81
849.10	215.43
849.42	215.55
849.73	213.62
850.04	213.69
850.36	213.00
850.67	213.38
850.98	213.45
851.30	213.71
851.61	213.29
851.92	213.02
852.23	213.76
852.55	213.93
852.86	214.00
853.17	214.21
853.49	214.76
853.80	215.12
854.11	215.33
854.42	215.57
854.74	215.43
855.05	215.40
855.36	214.19
855.67	214.19
855.99	214.45
856.30	216.93
856.61	216.76
856.92	216.83
857.23	216.95
857.55	216.76
857.86	216.64
858.17	217.21
858.48	217.05
858.79	216.60
859.11	216.79
859.42	216.43
859.73	216.00
860.04	215.83
860.35	215.17
860.66	214.43
860.98	214.14
861.29	214.12
861.60	214.17
861.91	214.62
862.22	214.10
862.53	213.36
862.84	210.83
863.16	211.52
863.47	211.19
863.78	210.88
864.09	211.12
864.40	211.33
864.71	211.38
865.02	211.74
865.33	211.52
865.64	211.07
865.95	211.29
866.27	212.52
866.58	212.24
866.89	212.40
867.20	212.40
867.51	212.45
867.82	212.74
868.13	213.43
868.44	212.83
868.75	213.55
869.06	213.67
869.37	213.93
869.68	213.24
869.99	213.69
870.30	214.10
870.61	214.02
870.92	213.60
871.23	213.38
871.54	213.55
871.85	214.07
872.16	214.29
872.47	214.07
872.78	213.00
873.09	213.00
873.40	212.88
873.71	213.24
874.02	213.43
874.33	213.21
874.64	212.48
874.95	212.95
875.26	212.26
875.56	212.50
875.87	212.29
876.18	212.12
876.49	214.05
876.80	213.62
877.11	213.45
877.42	213.64
877.73	213.33
878.04	212.88
878.35	212.79
878.66	213.00
878.96	213.07
879.27	213.19
879.58	213.45
879.89	213.36
880.20	213.86
880.51	213.45
880.82	213.76
881.12	213.86
881.43	213.48
881.74	213.45
882.05	213.24
882.36	213.48
882.67	213.86
882.97	211.71
883.28	211.81
883.59	211.86
883.90	211.98
884.21	212.60
884.51	212.52
884.82	212.26
885.13	212.00
885.44	211.95
885.74	211.81
886.05	211.52
886.36	211.55
886.67	210.69
886.98	211.88
887.28	211.95
887.59	211.88
887.90	212.10
888.20	211.90
888.51	212.45
888.82	212.14
889.13	212.24
889.43	213.83
889.74	213.69
890.05	213.43
890.35	213.17
890.66	212.81
890.97	212.86
891.28	212.62
891.58	212.71
891.89	212.57
892.20	212.19
892.50	211.90
892.81	211.86
893.12	211.83
893.42	210.79
893.73	210.55
894.04	210.62
894.34	210.86
894.65	210.93
894.95	210.50
895.26	210.64
895.57	211.45
895.87	209.62
896.18	209.71
896.48	209.86
896.79	209.71
897.10	210.12
897.40	210.21
897.71	210.60
898.01	210.50
898.32	210.88
898.63	211.07
898.93	211.43
899.24	211.62
899.54	211.74
899.85	211.74
900.15	211.74
900.46	211.64
900.76	211.69
901.07	211.71
901.38	211.95
901.68	212.02
901.99	210.93
902.29	211.05
902.60	211.07
902.90	211.12
903.21	211.36
903.51	210.95
903.82	211.33
904.12	211.14
904.43	211.24
904.73	211.31
905.03	211.52
905.34	213.26
905.64	213.02
905.95	212.98
906.25	213.07
906.56	213.07
906.86	213.26
907.17	212.98
907.47	213.07
907.77	212.81
908.08	212.57
908.38	212.86
908.69	213.00
908.99	213.33
909.30	213.43
909.60	213.45
909.90	213.71
910.21	212.90
910.51	212.69
910.81	212.60
911.12	212.31
911.42	212.19
911.73	210.19
912.03	210.48
912.33	210.93
912.64	210.83
912.94	210.52
913.24	210.07
913.55	210.07
913.85	209.95
914.15	210.31
914.46	210.55
914.76	210.36
915.06	210.29
915.37	209.93
915.67	209.79
915.97	209.81
916.27	209.48
916.58	209.81
916.88	209.76
917.18	209.76
917.49	211.45
917.79	211.40
918.09	211.74
918.39	212.00
918.70	211.86
919.00	211.74
919.30	212.93
919.60	213.12
919.91	212.95
920.21	213.07
920.51	212.62
920.81	212.57
921.12	212.71
921.42	212.79
921.72	213.10
922.02	213.24
922.32	213.50
922.63	213.43
922.93	214.48
923.23	214.57
923.53	214.31
923.83	212.86
924.13	212.86
924.44	212.71
924.74	213.33
925.04	213.62
925.34	213.50
925.64	212.36
925.94	212.40
926.24	213.57
926.55	213.38
926.85	213.52
927.15	213.48
927.45	213.52
927.75	213.33
928.05	213.21
928.35	213.17
928.65	213.36
928.95	213.67
929.26	212.88
929.56	213.55
929.86	214.02
930.16	213.69
930.46	213.81
930.76	214.07
931.06	213.05
931.36	212.64
931.66	213.21
931.96	213.62
932.26	213.45
932.56	212.52
932.86	212.90
933.16	213.17
933.46	213.19
933.76	213.02
934.06	213.60
934.36	214.14
934.66	214.05
934.96	213.76
935.26	213.76
935.56	213.93
935.86	213.19
936.16	212.69
936.46	212.86
936.76	212.71
937.06	212.48
937.36	212.67
937.66	212.93
937.96	212.74
938.26	212.43
938.56	212.40
938.86	212.67
939.16	212.90
939.46	212.86
939.76	212.79
940.06	212.98
940.35	212.45
940.65	211.69
940.95	211.74
941.25	211.26
941.55	210.86
941.85	210.79
942.15	211.19
942.45	211.88
942.75	211.52
943.04	211.50
943.34	211.95
943.64	211.57
943.94	211.02
944.24	211.17
944.54	211.21
944.84	211.19
945.13	210.76
945.43	210.67
945.73	210.60
946.03	210.57
946.33	210.21
946.62	210.10
946.92	210.05
947.22	210.29
947.52	210.55
947.82	210.98
948.11	210.67
948.41	210.26
948.71	209.64
949.01	210.05
949.31	209.81
949.60	209.60
949.90	209.86
950.20	209.81
950.50	209.62
950.79	209.55
951.09	210.00
951.39	210.02
951.69	209.55
951.98	209.83
952.28	209.93
952.58	209.83
952.87	209.86
953.17	209.98
953.47	209.83
953.76	209.67
954.06	209.40
954.36	209.31
954.66	209.14
954.95	209.52
955.25	209.60
955.55	209.88
955.84	209.31
956.14	209.52
956.44	209.81
956.73	209.55
957.03	209.74
957.32	209.57
957.62	209.48
957.92	210.12
958.21	209.81
958.51	212.07
958.81	212.52
959.10	212.83
959.40	213.48
959.69	213.45
959.99	213.74
960.29	213.74
960.58	213.67
960.88	214.71
961.17	214.71
961.47	214.93
961.76	214.98
962.06	215.62
962.36	215.38
962.65	215.31
962.95	215.50
963.24	215.29
963.54	215.48
963.83	215.64
964.13	215.31
964.42	214.95
964.72	213.31
965.01	213.19
965.31	213.05
965.60	212.48
965.90	213.74
966.19	213.40
966.49	213.60
966.78	213.40
967.08	212.98
967.37	212.86
967.67	212.57
967.96	212.60
968.26	212.50
968.55	212.79
968.85	212.90
969.14	212.86
969.43	212.81
969.73	212.55
970.02	212.55
970.32	212.55
970.61	212.57
970.91	211.71
971.20	211.31
971.49	210.95
971.79	211.02
972.08	209.45
972.38	209.64
972.67	209.50
972.96	210.19
973.26	209.86
973.55	210.48
973.85	210.14
974.14	210.12
974.43	210.19
974.73	209.86
975.02	209.50
975.31	209.55
975.61	209.57
975.90	209.24
976.19	208.98
976.49	208.95
976.78	209.05
977.07	209.33
977.37	209.50
977.66	209.71
977.95	209.48
978.24	209.83
978.54	210.17
978.83	209.98
979.12	209.55
979.42	209.57
979.71	209.07
980.00	209.12
980.29	209.17
980.59	208.74
980.88	209.31
981.17	209.45
981.46	209.36
981.76	209.31
982.05	210.29
982.34	210.50
982.63	210.83
982.93	211.07
983.22	211.52
983.51	211.57
983.80	212.05
984.09	212.33
984.39	212.19
984.68	211.93
984.97	212.14
985.26	211.93
985.55	212.17
985.85	212.00
986.14	212.50
986.43	212.74
986.72	212.60
987.01	211.86
987.30	211.90
987.59	211.83
987.89	211.88
988.18	211.33
988.47	211.21
988.76	210.81
989.05	210.45
989.34	210.21
989.63	210.81
989.92	210.43
990.22	210.07
990.51	209.86
990.80	209.76
991.09	209.95
991.38	210.26
991.67	210.05
991.96	210.00
992.25	209.95
992.54	209.76
992.83	209.86
993.12	210.24
993.41	210.52
993.70	211.40
993.99	211.95
994.28	211.93
994.58	212.07
994.87	211.86
995.16	211.93
995.45	211.60
995.74	211.05
996.03	211.40
996.32	211.86
996.61	212.64
996.90	212.55
997.19	212.33
997.48	212.36
997.77	212.19
998.06	212.24
998.34	211.88
998.63	211.88
998.92	211.93
999.21	211.86
999.50	211.79
999.79	211.07
1000.08	211.00
1000.37	211.14
1000.66	211.05
1000.95	211.50
1001.24	211.55
1001.53	211.88
1001.82	211.76
1002.11	211.33
1002.40	211.52
1002.68	211.83
1002.97	213.43
1003.26	213.40
1003.55	213.26
1003.84	213.31
1004.13	214.14
1004.42	214.21
1004.71	214.07
1004.99	214.14
1005.28	214.76
1005.57	214.71
1005.86	214.31
1006.15	214.17
1006.44	213.93
1006.72	213.90
1007.01	213.76
1007.30	213.76
1007.59	213.62
1007.88	213.67
1008.17	213.67
1008.45	213.12
1008.74	212.24
1009.03	211.43
1009.32	211.62
1009.60	211.74
1009.89	211.62
1010.18	210.57
1010.47	210.50
1010.76	210.55
1011.04	210.67
1011.33	210.64
1011.62	210.88
1011.91	211.10
1012.19	210.98
1012.48	210.98
1012.77	211.19
1013.05	212.17
1013.34	212.19
1013.63	212.31
1013.92	212.45
1014.20	212.33
1014.49	212.45
1014.78	212.76
1015.06	212.10
1015.35	211.81
1015.64	211.98
1015.92	212.52
1016.21	212.81
1016.50	212.90
1016.78	213.24
1017.07	213.10
1017.36	212.71
1017.64	212.26
1017.93	212.79
1018.22	212.74
1018.50	212.74
1018.79	212.64
1019.08	211.57
1019.36	211.79
1019.65	211.40
1019.93	211.67
1020.22	212.14
1020.51	213.26
1020.79	212.98
1021.08	210.00
1021.36	208.00
1021.65	211.00
1021.94	210.00
1022.22	213.00
1022.51	207.00
1022.79	217.00
1023.08	216.00
1023.36	236.00
1023.65	207.00
>>>>>End Processed Spectral Data<<<<<
