SpectraSuite Data File
++++++++++++++++++++++++++++++++++++
Date: Tue Apr 02 18:43:42 EDT 2013
User: group
Dark Spectrum Present: No
Reference Spectrum Present: No
Number of Sampled Component Spectra: 1
Spectrometers: USB2E7196
Integration Time (usec): 580000 (USB2E7196)
Spectra Averaged: 2 (USB2E7196)
Boxcar Smoothing: 10 (USB2E7196)
Correct for Electrical Dark: No (USB2E7196)
Strobe/Lamp Enabled: No (USB2E7196)
Correct for Detector Non-linearity: No (USB2E7196)
Correct for Stray Light: No (USB2E7196)
Number of Pixels in Processed Spectrum: 2048
>>>>>Begin Processed Spectral Data<<<<<
339.09	0.00
339.48	192.00
339.86	196.00
340.24	196.00
340.63	196.00
341.01	229.00
341.39	197.00
341.78	207.00
342.16	208.50
342.54	203.50
342.93	196.55
343.31	206.38
343.69	206.86
344.07	207.29
344.46	207.88
344.84	208.62
345.22	207.55
345.60	208.14
345.99	208.17
346.37	208.21
346.75	208.19
347.13	208.31
347.52	208.71
347.90	209.36
348.28	209.29
348.66	209.81
349.05	209.38
349.43	209.74
349.81	210.07
350.19	210.24
350.57	210.36
350.96	210.55
351.34	210.88
351.72	211.19
352.10	211.26
352.48	211.05
352.87	210.95
353.25	211.29
353.63	211.21
354.01	211.19
354.39	211.64
354.77	211.90
355.15	212.64
355.54	212.45
355.92	211.98
356.30	212.17
356.68	213.57
357.06	213.88
357.44	213.69
357.82	213.43
358.20	214.33
358.58	214.55
358.97	214.79
359.35	215.10
359.73	215.71
360.11	215.83
360.49	216.38
360.87	216.45
361.25	216.62
361.63	217.60
362.01	217.83
362.39	217.50
362.77	217.74
363.15	217.57
363.53	217.64
363.91	217.81
364.29	218.05
364.67	216.24
365.05	216.02
365.43	216.50
365.81	216.90
366.19	217.12
366.57	217.67
366.95	217.60
367.33	217.21
367.71	217.02
368.09	217.40
368.47	217.38
368.85	217.36
369.23	217.90
369.61	216.95
369.99	217.74
370.37	217.86
370.75	218.81
371.13	218.36
371.51	218.07
371.89	218.02
372.27	217.88
372.65	217.67
373.03	217.95
373.41	217.52
373.78	217.40
374.16	216.45
374.54	215.86
374.92	215.60
375.30	215.62
375.68	215.26
376.06	215.43
376.44	215.19
376.82	215.38
377.19	214.98
377.57	215.07
377.95	214.29
378.33	214.33
378.71	213.07
379.09	213.31
379.47	213.36
379.84	213.33
380.22	213.36
380.60	213.36
380.98	213.02
381.36	212.98
381.73	212.74
382.11	213.05
382.49	213.10
382.87	212.98
383.25	213.14
383.62	215.55
384.00	215.26
384.38	215.29
384.76	215.57
385.13	216.45
385.51	216.48
385.89	216.36
386.27	216.26
386.64	216.67
387.02	216.33
387.40	216.40
387.78	216.57
388.15	216.45
388.53	216.31
388.91	216.50
389.29	216.40
389.66	216.69
390.04	216.38
390.42	216.64
390.79	216.83
391.17	216.60
391.55	214.29
391.92	214.05
392.30	214.19
392.68	213.76
393.05	213.50
393.43	213.60
393.81	213.67
394.18	213.33
394.56	213.21
394.94	213.76
395.31	213.52
395.69	213.93
396.06	214.29
396.44	214.36
396.82	214.17
397.19	215.31
397.57	215.12
397.95	215.17
398.32	214.74
398.70	214.57
399.07	215.00
399.45	214.93
399.82	215.02
400.20	214.86
400.58	214.69
400.95	213.76
401.33	214.24
401.70	215.45
402.08	216.00
402.45	216.19
402.83	216.64
403.20	216.81
403.58	216.60
403.95	217.14
404.33	217.79
404.71	218.07
405.08	219.17
405.46	219.45
405.83	220.07
406.21	220.29
406.58	220.83
406.96	220.93
407.33	221.71
407.70	222.40
408.08	224.71
408.45	225.86
408.83	227.05
409.20	227.33
409.58	227.10
409.95	228.02
410.33	228.86
410.70	229.33
411.08	230.57
411.45	231.76
411.82	232.43
412.20	233.93
412.57	236.36
412.95	235.93
413.32	237.76
413.69	238.88
414.07	240.81
414.44	242.76
414.82	244.90
415.19	247.24
415.56	249.55
415.94	250.67
416.31	253.43
416.68	256.19
417.06	259.45
417.43	263.24
417.81	266.50
418.18	270.24
418.55	273.71
418.93	277.83
419.30	282.14
419.67	286.40
420.04	290.81
420.42	295.02
420.79	302.14
421.16	307.67
421.54	315.26
421.91	321.48
422.28	327.64
422.66	334.12
423.03	341.62
423.40	348.38
423.77	355.67
424.15	362.67
424.52	370.38
424.89	379.19
425.26	386.62
425.64	394.26
426.01	402.45
426.38	411.52
426.75	421.00
427.13	430.43
427.50	440.19
427.87	450.45
428.24	460.55
428.61	468.86
428.99	480.19
429.36	489.76
429.73	501.07
430.10	512.02
430.47	523.62
430.85	534.45
431.22	547.33
431.59	562.19
431.96	575.07
432.33	589.12
432.70	602.38
433.08	618.33
433.45	634.12
433.82	649.38
434.19	666.10
434.56	682.74
434.93	697.79
435.30	713.29
435.68	730.31
436.05	747.40
436.42	764.81
436.79	780.24
437.16	797.29
437.53	814.71
437.90	833.52
438.27	851.40
438.64	868.93
439.01	885.86
439.38	899.62
439.75	913.98
440.13	930.55
440.50	946.40
440.87	959.17
441.24	971.79
441.61	986.83
441.98	997.43
442.35	1009.21
442.72	1022.60
443.09	1036.74
443.46	1044.36
443.83	1050.00
444.20	1054.90
444.57	1061.52
444.94	1066.05
445.31	1070.19
445.68	1075.33
446.05	1077.00
446.42	1075.93
446.79	1074.81
447.16	1072.62
447.53	1072.14
447.90	1065.88
448.27	1059.26
448.64	1051.31
449.01	1045.52
449.37	1033.98
449.74	1024.00
450.11	1012.86
450.48	998.12
450.85	982.17
451.22	969.93
451.59	957.36
451.96	945.40
452.33	929.45
452.70	914.43
453.07	896.57
453.43	876.86
453.80	860.31
454.17	845.02
454.54	829.12
454.91	812.90
455.28	796.86
455.65	781.79
456.02	770.48
456.38	757.57
456.75	742.00
457.12	728.57
457.49	715.05
457.86	700.90
458.23	691.10
458.59	678.83
458.96	666.69
459.33	656.24
459.70	645.55
460.07	637.29
460.43	627.86
460.80	619.29
461.17	612.33
461.54	603.90
461.91	595.62
462.27	587.52
462.64	580.36
463.01	572.93
463.38	566.48
463.74	555.45
464.11	548.52
464.48	542.76
464.85	536.62
465.21	532.26
465.58	527.31
465.95	520.17
466.32	515.69
466.68	510.40
467.05	505.24
467.42	500.36
467.78	494.64
468.15	489.26
468.52	485.83
468.88	480.17
469.25	475.76
469.62	472.55
469.98	468.55
470.35	465.36
470.72	461.88
471.08	457.52
471.45	454.81
471.82	452.02
472.18	448.26
472.55	446.40
472.92	443.02
473.28	440.07
473.65	437.76
474.02	434.86
474.38	433.24
474.75	431.52
475.11	429.19
475.48	427.83
475.85	426.40
476.21	424.45
476.58	422.86
476.94	421.52
477.31	420.21
477.67	419.17
478.04	417.86
478.41	416.57
478.77	417.74
479.14	416.81
479.50	416.02
479.87	415.71
480.23	414.93
480.60	414.33
480.96	414.24
481.33	414.88
481.69	414.98
482.06	414.83
482.42	414.79
482.79	415.24
483.15	415.36
483.52	416.17
483.88	416.52
484.25	417.12
484.61	417.69
484.98	418.19
485.34	419.74
485.71	421.55
486.07	422.86
486.44	422.38
486.80	424.10
487.17	426.00
487.53	428.83
487.90	430.83
488.26	433.76
488.62	436.40
488.99	437.90
489.35	440.81
489.72	443.50
490.08	446.40
490.44	449.19
490.81	452.69
491.17	455.48
491.54	459.33
491.90	463.60
492.26	467.43
492.63	471.26
492.99	474.57
493.36	478.45
493.72	483.24
494.08	487.69
494.45	492.55
494.81	497.26
495.17	501.19
495.54	506.26
495.90	510.62
496.26	515.24
496.63	521.00
496.99	525.83
497.35	531.62
497.72	537.79
498.08	543.48
498.44	548.95
498.80	555.14
499.17	561.29
499.53	567.50
499.89	574.43
500.26	581.00
500.62	588.19
500.98	595.83
501.34	602.81
501.71	610.21
502.07	617.29
502.43	624.36
502.79	631.43
503.16	638.79
503.52	646.17
503.88	653.88
504.24	661.43
504.60	669.07
504.97	676.71
505.33	684.02
505.69	692.95
506.05	701.45
506.41	709.31
506.78	716.67
507.14	724.07
507.50	731.48
507.86	739.52
508.22	747.55
508.59	754.52
508.95	761.83
509.31	770.60
509.67	778.07
510.03	785.48
510.39	793.88
510.75	801.83
511.12	808.95
511.48	816.21
511.84	823.45
512.20	831.24
512.56	838.79
512.92	846.45
513.28	853.83
513.64	860.95
514.00	868.62
514.37	876.17
514.73	882.98
515.09	890.38
515.45	897.95
515.81	904.02
516.17	911.05
516.53	917.69
516.89	923.31
517.25	930.00
517.61	937.17
517.97	942.95
518.33	948.71
518.69	955.81
519.05	962.60
519.41	969.05
519.77	976.74
520.13	982.07
520.49	987.88
520.85	992.83
521.21	999.45
521.57	1005.07
521.93	1010.21
522.29	1016.64
522.65	1021.45
523.01	1025.98
523.37	1031.74
523.73	1036.76
524.09	1042.52
524.45	1047.14
524.81	1052.07
525.17	1057.02
525.53	1062.45
525.89	1067.74
526.25	1071.76
526.61	1075.45
526.97	1079.71
527.33	1082.86
527.68	1088.95
528.04	1092.71
528.40	1096.76
528.76	1100.00
529.12	1104.31
529.48	1108.98
529.84	1112.43
530.20	1117.05
530.56	1121.71
530.91	1126.12
531.27	1130.26
531.63	1133.90
531.99	1137.48
532.35	1140.69
532.71	1144.07
533.07	1148.26
533.42	1154.62
533.78	1159.62
534.14	1164.98
534.50	1169.36
534.86	1174.45
535.21	1177.31
535.57	1182.69
535.93	1186.26
536.29	1191.86
536.65	1196.36
537.00	1199.76
537.36	1203.62
537.72	1207.52
538.08	1211.79
538.44	1214.86
538.79	1219.07
539.15	1222.21
539.51	1226.62
539.87	1231.00
540.22	1234.19
540.58	1237.38
540.94	1237.83
541.29	1241.14
541.65	1243.19
542.01	1246.33
542.37	1247.86
542.72	1249.64
543.08	1250.95
543.44	1254.24
543.79	1254.64
544.15	1256.83
544.51	1260.10
544.87	1263.24
545.22	1266.02
545.58	1268.12
545.94	1270.60
546.29	1272.74
546.65	1275.60
547.01	1278.10
547.36	1280.52
547.72	1284.02
548.07	1286.62
548.43	1289.00
548.79	1290.88
549.14	1293.62
549.50	1296.62
549.86	1298.88
550.21	1301.79
550.57	1305.81
550.92	1308.36
551.28	1312.21
551.64	1315.07
551.99	1318.21
552.35	1320.93
552.70	1323.36
553.06	1325.90
553.41	1329.24
553.77	1333.76
554.13	1337.05
554.48	1341.55
554.84	1346.24
555.19	1350.52
555.55	1354.76
555.90	1359.10
556.26	1363.67
556.61	1366.90
556.97	1369.76
557.32	1374.10
557.68	1378.79
558.03	1382.24
558.39	1386.52
558.74	1389.90
559.10	1394.21
559.45	1398.05
559.81	1402.26
560.16	1406.40
560.52	1411.10
560.87	1416.36
561.23	1418.57
561.58	1424.38
561.94	1427.24
562.29	1429.98
562.64	1433.71
563.00	1437.76
563.35	1442.45
563.71	1446.05
564.06	1451.88
564.42	1456.93
564.77	1462.67
565.12	1468.43
565.48	1475.36
565.83	1481.40
566.19	1487.21
566.54	1491.52
566.89	1497.64
567.25	1503.81
567.60	1511.26
567.96	1518.64
568.31	1524.83
568.66	1531.83
569.02	1537.00
569.37	1542.69
569.72	1548.98
570.08	1554.50
570.43	1560.00
570.78	1565.45
571.14	1571.60
571.49	1576.40
571.84	1581.67
572.20	1586.69
572.55	1591.43
572.90	1594.48
573.26	1598.71
573.61	1603.43
573.96	1608.64
574.31	1612.52
574.67	1616.02
575.02	1618.98
575.37	1622.12
575.72	1623.83
576.08	1627.88
576.43	1631.05
576.78	1635.55
577.13	1638.60
577.49	1642.24
577.84	1645.24
578.19	1648.95
578.54	1652.45
578.90	1656.12
579.25	1659.69
579.60	1662.48
579.95	1665.00
580.30	1668.83
580.66	1673.43
581.01	1676.98
581.36	1680.26
581.71	1683.90
582.06	1688.71
582.42	1692.90
582.77	1694.60
583.12	1698.88
583.47	1702.24
583.82	1705.40
584.17	1708.33
584.53	1713.48
584.88	1715.62
585.23	1719.36
585.58	1721.90
585.93	1723.69
586.28	1726.55
586.63	1730.10
586.98	1732.79
587.34	1736.21
587.69	1739.12
588.04	1740.93
588.39	1743.57
588.74	1745.71
589.09	1747.90
589.44	1748.33
589.79	1750.14
590.14	1753.43
590.49	1755.43
590.84	1755.90
591.19	1757.50
591.54	1759.57
591.89	1759.55
592.25	1763.36
592.60	1764.14
592.95	1765.60
593.30	1768.48
593.65	1769.98
594.00	1770.24
594.35	1776.62
594.70	1776.93
595.05	1777.52
595.40	1777.98
595.75	1777.76
596.10	1778.26
596.45	1778.62
596.80	1779.33
597.15	1779.71
597.50	1780.10
597.85	1781.29
598.19	1781.90
598.54	1782.12
598.89	1782.07
599.24	1783.12
599.59	1782.43
599.94	1782.26
600.29	1782.86
600.64	1782.38
600.99	1782.40
601.34	1783.67
601.69	1778.40
602.04	1778.57
602.39	1778.24
602.74	1777.55
603.08	1778.10
603.43	1779.64
603.78	1779.21
604.13	1778.98
604.48	1777.64
604.83	1777.43
605.18	1777.05
605.53	1776.38
605.87	1775.76
606.22	1774.24
606.57	1771.93
606.92	1770.29
607.27	1769.71
607.62	1768.76
607.96	1767.74
608.31	1767.26
608.66	1765.24
609.01	1763.95
609.36	1762.67
609.70	1760.10
610.05	1758.62
610.40	1756.29
610.75	1752.48
611.10	1751.48
611.44	1749.90
611.79	1747.55
612.14	1744.81
612.49	1740.64
612.83	1738.29
613.18	1735.52
613.53	1733.38
613.88	1730.67
614.22	1727.43
614.57	1724.57
614.92	1720.29
615.27	1718.14
615.61	1713.24
615.96	1708.33
616.31	1704.60
616.65	1701.62
617.00	1699.71
617.35	1697.26
617.70	1694.48
618.04	1691.60
618.39	1687.24
618.74	1683.62
619.08	1679.52
619.43	1675.79
619.78	1672.74
620.12	1669.48
620.47	1665.93
620.82	1660.64
621.16	1656.10
621.51	1653.40
621.85	1647.90
622.20	1643.69
622.55	1638.36
622.89	1635.12
623.24	1632.26
623.59	1628.48
623.93	1624.24
624.28	1619.40
624.62	1617.29
624.97	1614.14
625.32	1610.40
625.66	1607.24
626.01	1602.31
626.35	1599.26
626.70	1595.67
627.04	1592.69
627.39	1588.17
627.73	1585.45
628.08	1583.38
628.43	1580.52
628.77	1575.17
629.12	1573.43
629.46	1569.71
629.81	1565.10
630.15	1560.24
630.50	1555.86
630.84	1551.45
631.19	1546.14
631.53	1541.29
631.88	1533.33
632.22	1526.88
632.57	1522.55
632.91	1516.43
633.26	1512.33
633.60	1507.10
633.95	1501.19
634.29	1495.02
634.64	1490.88
634.98	1484.79
635.32	1479.79
635.67	1476.38
636.01	1472.05
636.36	1466.29
636.70	1462.71
637.05	1458.14
637.39	1454.05
637.73	1449.93
638.08	1446.24
638.42	1442.07
638.77	1437.88
639.11	1433.31
639.45	1428.90
639.80	1422.67
640.14	1417.74
640.49	1412.43
640.83	1406.86
641.17	1402.48
641.52	1397.05
641.86	1391.21
642.20	1387.07
642.55	1380.98
642.89	1374.19
643.23	1368.57
643.58	1364.00
643.92	1357.07
644.26	1352.17
644.61	1347.17
644.95	1340.71
645.29	1333.64
645.64	1328.76
645.98	1323.05
646.32	1317.55
646.66	1310.60
647.01	1304.50
647.35	1298.86
647.69	1292.86
648.04	1287.90
648.38	1281.38
648.72	1276.07
649.06	1269.60
649.41	1262.26
649.75	1255.60
650.09	1249.14
650.43	1243.26
650.78	1235.81
651.12	1229.48
651.46	1222.38
651.80	1215.45
652.14	1209.29
652.49	1203.48
652.83	1196.02
653.17	1189.00
653.51	1181.93
653.85	1176.69
654.20	1170.86
654.54	1164.38
654.88	1157.43
655.22	1151.02
655.56	1144.10
655.90	1137.29
656.25	1131.19
656.59	1124.86
656.93	1118.38
657.27	1112.88
657.61	1105.86
657.95	1100.17
658.29	1094.36
658.64	1088.83
658.98	1081.98
659.32	1075.21
659.66	1069.10
660.00	1062.74
660.34	1056.88
660.68	1050.81
661.02	1043.50
661.36	1037.50
661.70	1031.45
662.05	1025.62
662.39	1019.17
662.73	1013.88
663.07	1009.40
663.41	1003.21
663.75	996.93
664.09	992.14
664.43	985.60
664.77	979.26
665.11	972.86
665.45	967.14
665.79	960.88
666.13	955.00
666.47	949.45
666.81	942.83
667.15	936.79
667.49	931.21
667.83	926.69
668.17	921.90
668.51	916.26
668.85	910.62
669.19	905.64
669.53	899.93
669.87	893.86
670.21	887.50
670.55	881.62
670.89	877.10
671.23	871.07
671.57	865.50
671.91	860.79
672.25	854.71
672.58	849.55
672.92	843.74
673.26	838.55
673.60	833.07
673.94	828.36
674.28	823.79
674.62	818.50
674.96	812.02
675.30	806.76
675.64	800.93
675.97	795.76
676.31	789.98
676.65	784.95
676.99	781.17
677.33	775.83
677.67	771.57
678.01	766.02
678.34	761.17
678.68	756.79
679.02	750.98
679.36	746.43
679.70	741.26
680.04	736.52
680.37	731.21
680.71	726.52
681.05	721.83
681.39	717.00
681.73	712.33
682.06	708.24
682.40	703.55
682.74	699.90
683.08	695.79
683.42	691.24
683.75	686.60
684.09	680.95
684.43	676.38
684.77	671.33
685.10	666.90
685.44	662.40
685.78	657.60
686.12	653.52
686.45	649.00
686.79	644.00
687.13	640.26
687.46	636.36
687.80	632.31
688.14	627.21
688.48	622.57
688.81	618.24
689.15	614.57
689.49	610.79
689.82	605.88
690.16	600.67
690.50	596.38
690.83	592.31
691.17	587.52
691.51	582.55
691.84	578.71
692.18	574.33
692.52	570.43
692.85	566.90
693.19	563.64
693.52	559.81
693.86	556.52
694.20	552.19
694.53	547.93
694.87	544.10
695.21	540.50
695.54	537.12
695.88	533.02
696.21	528.45
696.55	524.07
696.88	520.50
697.22	516.81
697.56	514.00
697.89	510.21
698.23	507.14
698.56	504.17
698.90	501.02
699.23	497.48
699.57	493.60
699.90	489.45
700.24	485.88
700.58	482.88
700.91	479.29
701.25	477.74
701.58	475.79
701.92	472.95
702.25	469.86
702.59	466.62
702.92	463.83
703.26	461.10
703.59	458.33
703.93	457.29
704.26	454.81
704.60	451.76
704.93	449.05
705.26	446.12
705.60	443.64
705.93	440.24
706.27	438.10
706.60	436.07
706.94	434.19
707.27	431.43
707.61	428.67
707.94	425.93
708.27	421.64
708.61	417.90
708.94	415.05
709.28	413.02
709.61	410.40
709.94	407.88
710.28	405.19
710.61	403.05
710.95	398.86
711.28	397.95
711.61	395.55
711.95	393.62
712.28	391.62
712.61	389.33
712.95	388.55
713.28	387.12
713.61	384.71
713.95	382.43
714.28	380.55
714.61	378.76
714.95	377.02
715.28	374.98
715.61	373.48
715.95	371.74
716.28	369.50
716.61	368.05
716.95	365.83
717.28	364.17
717.61	362.05
717.94	360.10
718.28	356.79
718.61	354.81
718.94	352.52
719.27	350.81
719.61	348.88
719.94	346.10
720.27	343.33
720.60	341.24
720.94	339.50
721.27	337.55
721.60	336.29
721.93	334.48
722.27	333.67
722.60	332.31
722.93	330.76
723.26	329.45
723.59	327.45
723.93	326.48
724.26	325.38
724.59	323.86
724.92	322.67
725.25	322.24
725.59	320.88
725.92	319.98
726.25	318.38
726.58	317.38
726.91	316.26
727.24	315.33
727.57	314.50
727.91	313.07
728.24	312.38
728.57	310.81
728.90	309.98
729.23	308.26
729.56	307.86
729.89	306.88
730.22	305.57
730.55	304.57
730.89	303.24
731.22	301.69
731.55	300.71
731.88	299.88
732.21	298.05
732.54	296.81
732.87	295.67
733.20	295.10
733.53	294.00
733.86	293.14
734.19	292.12
734.52	291.43
734.85	291.83
735.18	290.71
735.51	290.31
735.84	289.55
736.17	289.38
736.50	287.67
736.83	289.05
737.16	288.29
737.49	287.62
737.82	286.81
738.15	286.33
738.48	285.52
738.81	284.43
739.14	283.67
739.47	282.95
739.80	282.17
740.13	281.45
740.46	280.64
740.79	279.48
741.12	278.57
741.45	277.60
741.78	275.64
742.11	275.43
742.44	274.52
742.77	274.05
743.10	272.95
743.43	271.95
743.75	268.71
744.08	270.52
744.41	269.55
744.74	268.62
745.07	267.67
745.40	267.36
745.73	267.60
746.06	266.81
746.39	266.48
746.71	265.60
747.04	264.64
747.37	264.00
747.70	263.90
748.03	263.45
748.36	263.12
748.68	262.67
749.01	261.33
749.34	260.60
749.67	259.86
750.00	259.64
750.33	260.48
750.65	260.21
750.98	257.31
751.31	256.93
751.64	256.71
751.97	257.38
752.29	256.76
752.62	255.31
752.95	254.93
753.28	254.33
753.60	254.02
753.93	254.12
754.26	253.43
754.59	252.64
754.91	251.81
755.24	251.33
755.57	250.81
755.90	250.24
756.22	249.60
756.55	248.83
756.88	247.88
757.20	246.36
757.53	245.24
757.86	244.86
758.19	244.67
758.51	244.19
758.84	242.55
759.17	242.05
759.49	241.88
759.82	242.40
760.15	242.05
760.47	241.43
760.80	240.64
761.13	240.71
761.45	240.19
761.78	240.10
762.11	239.57
762.43	239.17
762.76	239.12
763.08	239.07
763.41	239.17
763.74	238.76
764.06	238.38
764.39	238.31
764.71	237.95
765.04	237.31
765.37	236.81
765.69	236.43
766.02	236.07
766.34	235.62
766.67	234.69
767.00	234.69
767.32	235.71
767.65	236.69
767.97	236.26
768.30	236.12
768.62	235.93
768.95	235.67
769.27	235.38
769.60	235.19
769.92	234.48
770.25	233.60
770.57	233.14
770.90	232.93
771.22	232.67
771.55	232.26
771.87	232.14
772.20	231.86
772.52	233.57
772.85	235.88
773.17	235.81
773.50	235.26
773.82	234.88
774.15	233.60
774.47	232.17
774.80	231.90
775.12	231.79
775.45	231.50
775.77	231.21
776.09	231.14
776.42	231.02
776.74	231.67
777.07	231.48
777.39	231.45
777.72	231.05
778.04	231.12
778.36	230.88
778.69	230.76
779.01	230.83
779.33	228.90
779.66	226.12
779.98	225.81
780.31	225.81
780.63	226.24
780.95	226.48
781.28	226.26
781.60	225.88
781.92	225.81
782.25	225.45
782.57	225.17
782.89	224.90
783.22	224.60
783.54	224.00
783.86	224.14
784.19	224.02
784.51	224.48
784.83	224.17
785.16	224.02
785.48	223.88
785.80	223.90
786.12	223.93
786.45	223.81
786.77	223.81
787.09	223.71
787.42	223.19
787.74	223.19
788.06	223.05
788.38	222.79
788.71	222.17
789.03	222.21
789.35	222.45
789.67	221.86
789.99	221.86
790.32	221.52
790.64	221.79
790.96	223.29
791.28	222.55
791.61	222.21
791.93	222.38
792.25	222.40
792.57	223.55
792.89	222.95
793.21	223.12
793.54	222.98
793.86	222.60
794.18	222.60
794.50	222.12
794.82	222.17
795.14	222.76
795.47	223.19
795.79	223.21
796.11	222.93
796.43	222.98
796.75	222.95
797.07	222.98
797.39	222.60
797.71	221.14
798.04	221.29
798.36	221.40
798.68	221.14
799.00	221.19
799.32	220.10
799.64	220.57
799.96	220.43
800.28	220.45
800.60	220.60
800.92	220.52
801.24	220.31
801.56	220.31
801.89	220.12
802.21	220.33
802.53	219.86
802.85	220.12
803.17	221.07
803.49	220.76
803.81	220.57
804.13	220.74
804.45	220.36
804.77	220.40
805.09	220.55
805.41	220.45
805.73	220.00
806.05	219.50
806.37	219.36
806.69	219.31
807.01	219.17
807.33	219.17
807.65	218.52
807.97	219.48
808.28	219.26
808.60	218.95
808.92	218.36
809.24	219.57
809.56	219.31
809.88	218.57
810.20	218.71
810.52	219.12
810.84	218.33
811.16	217.90
811.48	217.71
811.80	218.12
812.12	218.12
812.43	218.48
812.75	218.60
813.07	218.21
813.39	218.12
813.71	217.98
814.03	217.64
814.35	217.69
814.67	216.67
814.98	216.48
815.30	216.48
815.62	216.07
815.94	214.90
816.26	214.81
816.58	214.33
816.89	214.24
817.21	213.74
817.53	213.88
817.85	214.29
818.17	214.21
818.48	213.48
818.80	213.67
819.12	213.21
819.44	212.95
819.76	212.69
820.07	212.81
820.39	212.81
820.71	212.95
821.03	212.76
821.34	212.79
821.66	213.24
821.98	213.48
822.30	213.71
822.61	215.02
822.93	215.00
823.25	214.98
823.57	214.62
823.88	214.98
824.20	215.19
824.52	215.62
824.83	215.60
825.15	215.45
825.47	215.55
825.79	215.74
826.10	215.62
826.42	215.93
826.74	216.19
827.05	216.10
827.37	216.19
827.69	216.19
828.00	216.21
828.32	216.14
828.64	215.57
828.95	216.64
829.27	215.62
829.58	215.62
829.90	215.93
830.22	216.52
830.53	216.00
830.85	215.62
831.17	214.95
831.48	215.02
831.80	215.07
832.11	214.76
832.43	214.38
832.75	214.38
833.06	215.36
833.38	214.64
833.69	214.57
834.01	214.76
834.32	214.71
834.64	214.48
834.96	214.14
835.27	214.38
835.59	213.57
835.90	213.29
836.22	213.17
836.53	212.81
836.85	212.52
837.16	214.60
837.48	214.88
837.79	215.50
838.11	215.55
838.42	215.64
838.74	215.90
839.05	216.02
839.37	215.86
839.68	214.55
840.00	214.55
840.31	214.79
840.63	214.52
840.94	214.52
841.26	214.50
841.57	214.71
841.88	215.02
842.20	214.76
842.51	214.69
842.83	214.79
843.14	216.67
843.46	216.43
843.77	215.67
844.08	215.36
844.40	214.60
844.71	214.24
845.03	214.19
845.34	213.98
845.65	213.98
845.97	214.19
846.28	214.43
846.60	214.55
846.91	214.29
847.22	214.29
847.54	214.74
847.85	214.81
848.16	214.50
848.48	213.98
848.79	215.05
849.10	215.33
849.42	215.29
849.73	213.64
850.04	213.76
850.36	212.50
850.67	213.02
850.98	213.31
851.30	213.79
851.61	213.62
851.92	213.79
852.23	214.33
852.55	214.33
852.86	214.24
853.17	214.55
853.49	215.00
853.80	215.31
854.11	215.57
854.42	215.74
854.74	215.60
855.05	215.62
855.36	214.29
855.67	214.45
855.99	214.45
856.30	216.69
856.61	216.57
856.92	216.83
857.23	216.88
857.55	216.62
857.86	216.26
858.17	216.48
858.48	216.14
858.79	215.67
859.11	215.98
859.42	216.05
859.73	215.86
860.04	215.67
860.35	214.95
860.66	214.14
860.98	214.17
861.29	214.50
861.60	214.45
861.91	215.05
862.22	214.62
862.53	214.33
862.84	211.98
863.16	212.45
863.47	211.93
863.78	211.52
864.09	211.79
864.40	212.17
864.71	212.14
865.02	212.43
865.33	212.33
865.64	211.83
865.95	211.88
866.27	213.00
866.58	212.95
866.89	213.33
867.20	213.38
867.51	213.00
867.82	212.76
868.13	213.33
868.44	212.88
868.75	213.36
869.06	213.57
869.37	213.95
869.68	213.31
869.99	213.81
870.30	213.90
870.61	214.02
870.92	213.64
871.23	213.57
871.54	213.71
871.85	214.14
872.16	214.36
872.47	214.21
872.78	212.98
873.09	213.07
873.40	212.86
873.71	213.05
874.02	213.33
874.33	213.26
874.64	212.81
874.95	213.12
875.26	212.71
875.56	212.74
875.87	212.57
876.18	212.48
876.49	214.43
876.80	214.43
877.11	214.07
877.42	214.17
877.73	214.19
878.04	214.00
878.35	214.05
878.66	214.12
878.96	214.12
879.27	213.95
879.58	213.81
879.89	213.93
880.20	214.36
880.51	214.19
880.82	214.29
881.12	214.52
881.43	214.38
881.74	214.21
882.05	213.86
882.36	213.76
882.67	213.93
882.97	211.76
883.28	211.33
883.59	211.38
883.90	211.40
884.21	211.67
884.51	211.19
884.82	210.69
885.13	210.64
885.44	210.60
885.74	210.81
886.05	210.81
886.36	210.64
886.67	209.98
886.98	210.98
887.28	211.21
887.59	211.00
887.90	210.86
888.20	210.76
888.51	211.17
888.82	210.81
889.13	211.00
889.43	212.93
889.74	213.07
890.05	213.02
890.35	212.90
890.66	212.69
890.97	212.69
891.28	212.45
891.58	212.40
891.89	212.36
892.20	212.12
892.50	211.93
892.81	211.88
893.12	212.02
893.42	211.07
893.73	211.00
894.04	211.26
894.34	211.48
894.65	211.45
894.95	211.48
895.26	211.86
895.57	212.81
895.87	210.67
896.18	211.21
896.48	211.31
896.79	211.33
897.10	211.52
897.40	211.69
897.71	212.12
898.01	212.05
898.32	212.48
898.63	212.40
898.93	212.67
899.24	212.64
899.54	212.57
899.85	212.62
900.15	212.67
900.46	212.57
900.76	212.74
901.07	212.83
901.38	212.55
901.68	212.76
901.99	211.60
902.29	211.98
902.60	211.69
902.90	211.38
903.21	211.24
903.51	211.33
903.82	211.69
904.12	211.64
904.43	211.83
904.73	211.60
905.03	211.67
905.34	213.24
905.64	213.36
905.95	213.17
906.25	213.14
906.56	212.93
906.86	212.83
907.17	212.62
907.47	212.69
907.77	212.64
908.08	212.05
908.38	212.36
908.69	212.50
908.99	212.81
909.30	213.17
909.60	213.21
909.90	213.24
910.21	212.79
910.51	212.48
910.81	212.45
911.12	212.60
911.42	212.86
911.73	211.17
912.03	211.26
912.33	211.64
912.64	211.50
912.94	211.36
913.24	211.05
913.55	210.88
913.85	210.62
914.15	211.05
914.46	211.36
914.76	211.19
915.06	210.86
915.37	210.29
915.67	210.07
915.97	210.21
916.27	209.45
916.58	209.71
916.88	209.90
917.18	209.79
917.49	211.12
917.79	210.95
918.09	211.24
918.39	211.76
918.70	211.95
919.00	211.98
919.30	213.02
919.60	213.00
919.91	212.93
920.21	213.17
920.51	212.69
920.81	212.57
921.12	212.98
921.42	213.02
921.72	213.26
922.02	213.52
922.32	213.79
922.63	213.95
922.93	214.83
923.23	214.81
923.53	214.74
923.83	213.40
924.13	213.43
924.44	213.29
924.74	213.50
925.04	213.79
925.34	213.88
925.64	213.00
925.94	212.98
926.24	214.26
926.55	213.98
926.85	214.38
927.15	214.24
927.45	214.19
927.75	214.14
928.05	214.21
928.35	214.07
928.65	214.26
928.95	214.45
929.26	213.62
929.56	214.02
929.86	214.12
930.16	213.76
930.46	213.86
930.76	214.14
931.06	213.19
931.36	212.64
931.66	212.98
931.96	213.10
932.26	213.21
932.56	212.31
932.86	212.52
933.16	212.43
933.46	212.69
933.76	212.48
934.06	212.88
934.36	213.71
934.66	213.67
934.96	213.36
935.26	213.43
935.56	213.62
935.86	213.00
936.16	212.88
936.46	213.10
936.76	212.90
937.06	212.19
937.36	212.43
937.66	212.55
937.96	212.14
938.26	211.95
938.56	211.86
938.86	211.98
939.16	212.40
939.46	212.52
939.76	212.45
940.06	212.19
940.35	211.74
940.65	210.50
940.95	210.71
941.25	210.29
941.55	210.24
941.85	210.21
942.15	210.67
942.45	211.17
942.75	210.86
943.04	210.86
943.34	211.60
943.64	211.38
943.94	211.05
944.24	211.29
944.54	211.40
944.84	211.40
945.13	210.98
945.43	210.45
945.73	210.43
946.03	210.21
946.33	210.10
946.62	209.98
946.92	210.10
947.22	210.12
947.52	210.29
947.82	210.50
948.11	210.38
948.41	209.95
948.71	209.40
949.01	209.60
949.31	209.40
949.60	209.12
949.90	209.43
950.20	209.38
950.50	209.40
950.79	209.36
951.09	209.79
951.39	209.62
951.69	209.55
951.98	209.93
952.28	210.02
952.58	210.07
952.87	210.21
953.17	210.43
953.47	210.14
953.76	210.00
954.06	209.43
954.36	209.05
954.66	209.00
954.95	209.64
955.25	209.81
955.55	210.00
955.84	209.71
956.14	209.62
956.44	209.71
956.73	209.21
957.03	209.12
957.32	209.14
957.62	209.36
957.92	209.74
958.21	209.43
958.51	211.74
958.81	212.02
959.10	211.93
959.40	212.52
959.69	212.71
959.99	213.12
960.29	213.38
960.58	213.43
960.88	214.43
961.17	213.95
961.47	214.12
961.76	214.00
962.06	214.21
962.36	214.31
962.65	214.43
962.95	214.76
963.24	214.67
963.54	214.71
963.83	214.76
964.13	214.69
964.42	214.14
964.72	212.50
965.01	212.55
965.31	212.45
965.60	212.02
965.90	213.36
966.19	212.90
966.49	213.07
966.78	213.00
967.08	212.64
967.37	212.86
967.67	212.52
967.96	212.90
968.26	212.83
968.55	213.07
968.85	212.86
969.14	212.71
969.43	212.83
969.73	212.50
970.02	212.45
970.32	212.21
970.61	212.24
970.91	211.74
971.20	211.24
971.49	211.26
971.79	211.26
972.08	209.88
972.38	210.10
972.67	209.93
972.96	210.24
973.26	209.76
973.55	210.45
973.85	210.33
974.14	210.10
974.43	210.45
974.73	209.98
975.02	209.98
975.31	210.05
975.61	209.93
975.90	209.83
976.19	209.76
976.49	209.95
976.78	210.10
977.07	210.10
977.37	210.24
977.66	210.48
977.95	210.36
978.24	210.29
978.54	210.64
978.83	210.50
979.12	210.33
979.42	210.48
979.71	209.79
980.00	209.71
980.29	210.05
980.59	209.62
980.88	210.07
981.17	210.00
981.46	210.14
981.76	210.17
982.05	210.93
982.34	210.95
982.63	211.14
982.93	211.24
983.22	211.90
983.51	212.14
983.80	212.50
984.09	212.79
984.39	212.86
984.68	212.57
984.97	212.83
985.26	212.52
985.55	212.95
985.85	212.76
986.14	213.24
986.43	213.17
986.72	213.02
987.01	212.62
987.30	212.57
987.59	212.26
987.89	212.43
988.18	211.64
988.47	211.52
988.76	211.48
989.05	211.24
989.34	210.69
989.63	211.43
989.92	210.93
990.22	210.62
990.51	210.38
990.80	210.33
991.09	210.36
991.38	210.93
991.67	210.45
991.96	210.40
992.25	210.52
992.54	210.26
992.83	210.24
993.12	210.00
993.41	210.43
993.70	211.21
993.99	211.38
994.28	211.64
994.58	211.79
994.87	211.50
995.16	211.62
995.45	211.33
995.74	210.36
996.03	210.76
996.32	211.26
996.61	211.67
996.90	211.67
997.19	211.57
997.48	211.45
997.77	211.29
998.06	211.31
998.34	210.95
998.63	210.90
998.92	211.14
999.21	211.79
999.50	211.86
999.79	211.31
1000.08	211.36
1000.37	211.43
1000.66	211.33
1000.95	211.76
1001.24	211.74
1001.53	212.05
1001.82	212.26
1002.11	211.81
1002.40	211.50
1002.68	212.00
1002.97	213.67
1003.26	213.36
1003.55	212.95
1003.84	213.12
1004.13	213.71
1004.42	213.62
1004.71	213.67
1004.99	213.33
1005.28	213.55
1005.57	213.26
1005.86	213.07
1006.15	212.86
1006.44	212.62
1006.72	212.74
1007.01	212.36
1007.30	212.45
1007.59	212.26
1007.88	212.05
1008.17	212.26
1008.45	212.07
1008.74	211.29
1009.03	210.00
1009.32	210.36
1009.60	210.62
1009.89	210.57
1010.18	209.81
1010.47	209.71
1010.76	209.60
1011.04	209.60
1011.33	209.90
1011.62	210.00
1011.91	210.14
1012.19	210.17
1012.48	210.21
1012.77	210.24
1013.05	211.07
1013.34	210.95
1013.63	211.14
1013.92	211.38
1014.20	211.02
1014.49	211.05
1014.78	211.21
1015.06	210.48
1015.35	210.40
1015.64	210.69
1015.92	211.05
1016.21	211.33
1016.50	211.38
1016.78	211.69
1017.07	211.81
1017.36	211.00
1017.64	210.62
1017.93	210.86
1018.22	210.64
1018.50	210.43
1018.79	210.50
1019.08	209.74
1019.36	209.88
1019.65	209.36
1019.93	209.81
1020.22	210.10
1020.51	211.24
1020.79	210.95
1021.08	205.50
1021.36	205.00
1021.65	212.00
1021.94	210.50
1022.22	210.00
1022.51	203.00
1022.79	221.00
1023.08	209.50
1023.36	236.00
1023.65	205.00
>>>>>End Processed Spectral Data<<<<<
