SpectraSuite Data File
++++++++++++++++++++++++++++++++++++
Date: Tue Apr 02 18:40:48 EDT 2013
User: group
Dark Spectrum Present: No
Reference Spectrum Present: No
Number of Sampled Component Spectra: 1
Spectrometers: USB2E7196
Integration Time (usec): 580000 (USB2E7196)
Spectra Averaged: 2 (USB2E7196)
Boxcar Smoothing: 10 (USB2E7196)
Correct for Electrical Dark: No (USB2E7196)
Strobe/Lamp Enabled: No (USB2E7196)
Correct for Detector Non-linearity: No (USB2E7196)
Correct for Stray Light: No (USB2E7196)
Number of Pixels in Processed Spectrum: 2048
>>>>>Begin Processed Spectral Data<<<<<
339.09	0.00
339.48	194.00
339.86	193.00
340.24	196.50
340.63	196.50
341.01	232.50
341.39	201.50
341.78	203.00
342.16	207.00
342.54	204.00
342.93	195.93
343.31	205.57
343.69	206.02
344.07	206.71
344.46	207.43
344.84	208.00
345.22	206.69
345.60	207.26
345.99	207.43
346.37	207.74
346.75	207.76
347.13	207.79
347.52	207.98
347.90	208.81
348.28	208.90
348.66	209.29
349.05	208.81
349.43	208.98
349.81	209.21
350.19	209.02
350.57	209.21
350.96	209.60
351.34	210.10
351.72	210.38
352.10	210.52
352.48	210.26
352.87	210.29
353.25	210.48
353.63	210.21
354.01	210.55
354.39	210.50
354.77	210.48
355.15	211.50
355.54	211.52
355.92	211.05
356.30	211.14
356.68	212.64
357.06	213.07
357.44	212.81
357.82	212.83
358.20	213.90
358.58	213.74
358.97	213.81
359.35	214.33
359.73	214.79
360.11	214.60
360.49	214.95
360.87	214.95
361.25	215.36
361.63	216.19
362.01	216.29
362.39	216.36
362.77	216.86
363.15	216.48
363.53	216.57
363.91	216.71
364.29	216.81
364.67	214.90
365.05	214.79
365.43	215.31
365.81	215.69
366.19	216.05
366.57	216.93
366.95	216.90
367.33	216.31
367.71	216.21
368.09	216.98
368.47	216.95
368.85	216.98
369.23	217.24
369.61	216.60
369.99	217.19
370.37	217.62
370.75	218.76
371.13	218.50
371.51	218.33
371.89	218.50
372.27	218.83
372.65	219.14
373.03	219.31
373.41	219.00
373.78	218.88
374.16	217.90
374.54	217.57
374.92	217.19
375.30	217.17
375.68	216.83
376.06	216.57
376.44	216.55
376.82	216.71
377.19	216.67
377.57	216.64
377.95	215.83
378.33	215.36
378.71	213.79
379.09	214.00
379.47	214.29
379.84	213.79
380.22	213.48
380.60	213.21
380.98	212.90
381.36	212.90
381.73	212.55
382.11	213.02
382.49	213.00
382.87	213.05
383.25	213.14
383.62	215.74
384.00	215.43
384.38	215.36
384.76	215.69
385.13	216.36
385.51	216.29
385.89	216.14
386.27	216.31
386.64	216.81
387.02	216.81
387.40	216.48
387.78	216.83
388.15	216.86
388.53	216.64
388.91	217.00
389.29	217.14
389.66	217.57
390.04	217.10
390.42	217.29
390.79	217.62
391.17	217.48
391.55	214.90
391.92	214.86
392.30	215.02
392.68	214.55
393.05	214.12
393.43	214.26
393.81	214.31
394.18	214.05
394.56	214.31
394.94	214.64
395.31	214.55
395.69	215.10
396.06	215.31
396.44	215.67
396.82	215.26
397.19	216.10
397.57	215.93
397.95	216.29
398.32	215.79
398.70	215.71
399.07	216.29
399.45	216.48
399.82	216.45
400.20	216.43
400.58	216.45
400.95	215.88
401.33	216.24
401.70	217.88
402.08	217.93
402.45	217.69
402.83	217.93
403.20	218.07
403.58	218.07
403.95	218.71
404.33	219.00
404.71	219.52
405.08	220.79
405.46	220.98
405.83	221.17
406.21	221.57
406.58	222.14
406.96	222.36
407.33	222.88
407.70	223.76
408.08	225.81
408.45	226.93
408.83	228.24
409.20	228.62
409.58	228.31
409.95	229.60
410.33	230.74
410.70	231.21
411.08	232.71
411.45	233.55
411.82	234.55
412.20	236.14
412.57	238.45
412.95	238.12
413.32	240.07
413.69	241.62
414.07	243.43
414.44	245.29
414.82	247.50
415.19	249.83
415.56	252.14
415.94	253.50
416.31	256.36
416.68	259.33
417.06	262.98
417.43	266.71
417.81	270.31
418.18	274.26
418.55	278.43
418.93	282.48
419.30	287.17
419.67	291.33
420.04	295.81
420.42	300.10
420.79	307.69
421.16	313.55
421.54	320.79
421.91	327.26
422.28	333.81
422.66	340.57
423.03	348.95
423.40	356.00
423.77	363.48
424.15	371.10
424.52	379.00
424.89	387.98
425.26	396.07
425.64	404.14
426.01	412.57
426.38	421.81
426.75	431.71
427.13	440.90
427.50	451.43
427.87	461.83
428.24	472.57
428.61	481.48
428.99	492.79
429.36	504.24
429.73	515.88
430.10	527.67
430.47	540.36
430.85	551.43
431.22	564.50
431.59	580.43
431.96	594.02
432.33	608.57
432.70	622.69
433.08	640.05
433.45	655.83
433.82	671.81
434.19	689.69
434.56	707.57
434.93	724.19
435.30	741.12
435.68	760.38
436.05	778.00
436.42	796.00
436.79	812.81
437.16	830.19
437.53	849.19
437.90	868.31
438.27	886.31
438.64	905.86
439.01	924.33
439.38	938.10
439.75	953.07
440.13	970.33
440.50	986.50
440.87	999.36
441.24	1013.50
441.61	1028.83
441.98	1040.12
442.35	1052.24
442.72	1065.98
443.09	1079.31
443.46	1087.31
443.83	1093.38
444.20	1097.95
444.57	1104.10
444.94	1107.36
445.31	1110.88
445.68	1116.67
446.05	1118.88
446.42	1117.24
446.79	1116.26
447.16	1114.76
447.53	1113.67
447.90	1107.48
448.27	1100.95
448.64	1091.43
449.01	1085.50
449.37	1074.07
449.74	1062.52
450.11	1050.71
450.48	1035.26
450.85	1018.88
451.22	1004.62
451.59	991.83
451.96	980.50
452.33	964.69
452.70	950.79
453.07	932.93
453.43	912.19
453.80	894.26
454.17	877.29
454.54	860.40
454.91	843.38
455.28	826.67
455.65	810.55
456.02	798.45
456.38	785.24
456.75	768.38
457.12	754.50
457.49	740.95
457.86	725.95
458.23	715.67
458.59	703.31
458.96	690.90
459.33	679.76
459.70	667.71
460.07	658.93
460.43	648.33
460.80	639.38
461.17	631.67
461.54	623.12
461.91	614.90
462.27	606.14
462.64	598.81
463.01	590.83
463.38	584.05
463.74	573.07
464.11	566.38
464.48	560.48
464.85	553.69
465.21	548.98
465.58	544.24
465.95	537.19
466.32	532.17
466.68	526.90
467.05	521.52
467.42	516.57
467.78	510.98
468.15	505.76
468.52	501.71
468.88	495.90
469.25	491.05
469.62	487.33
469.98	483.21
470.35	479.33
470.72	476.02
471.08	471.69
471.45	469.02
471.82	466.26
472.18	462.33
472.55	459.86
472.92	455.95
473.28	452.48
473.65	449.48
474.02	446.64
474.38	444.74
474.75	442.74
475.11	439.95
475.48	437.98
475.85	436.10
476.21	433.81
476.58	432.83
476.94	431.71
477.31	430.52
477.67	429.67
478.04	428.26
478.41	427.17
478.77	427.95
479.14	426.31
479.50	425.33
479.87	425.26
480.23	424.76
480.60	424.60
480.96	424.36
481.33	424.98
481.69	424.90
482.06	424.88
482.42	425.26
482.79	425.74
483.15	425.79
483.52	426.83
483.88	427.62
484.25	427.71
484.61	428.45
484.98	428.95
485.34	430.40
485.71	432.05
486.07	433.62
486.44	433.79
486.80	435.52
487.17	437.38
487.53	439.62
487.90	441.76
488.26	444.74
488.62	447.48
488.99	449.62
489.35	452.71
489.72	455.43
490.08	458.10
490.44	461.12
490.81	464.98
491.17	467.95
491.54	471.79
491.90	475.64
492.26	479.60
492.63	484.00
492.99	487.24
493.36	491.64
493.72	496.50
494.08	501.12
494.45	506.36
494.81	511.24
495.17	516.12
495.54	521.76
495.90	526.76
496.26	532.38
496.63	538.07
496.99	543.31
497.35	548.98
497.72	555.31
498.08	561.88
498.44	568.05
498.80	574.86
499.17	581.36
499.53	587.83
499.89	594.79
500.26	601.52
500.62	609.29
500.98	616.86
501.34	623.81
501.71	631.02
502.07	637.90
502.43	645.50
502.79	653.02
503.16	660.24
503.52	667.62
503.88	674.67
504.24	682.81
504.60	690.83
504.97	699.45
505.33	707.14
505.69	715.81
506.05	723.74
506.41	731.64
506.78	739.69
507.14	748.00
507.50	756.33
507.86	764.45
508.22	772.14
508.59	779.55
508.95	788.29
509.31	797.81
509.67	806.05
510.03	813.95
510.39	821.83
510.75	830.10
511.12	838.69
511.48	846.79
511.84	854.19
512.20	862.31
512.56	870.12
512.92	878.33
513.28	886.12
513.64	894.55
514.00	902.83
514.37	910.67
514.73	918.88
515.09	926.83
515.45	934.40
515.81	941.57
516.17	949.57
516.53	955.62
516.89	962.00
517.25	969.71
517.61	977.50
517.97	984.55
518.33	991.24
518.69	997.74
519.05	1005.40
519.41	1012.21
519.77	1020.17
520.13	1026.60
520.49	1032.69
520.85	1038.88
521.21	1045.64
521.57	1052.19
521.93	1058.17
522.29	1064.14
522.65	1069.67
523.01	1075.69
523.37	1082.21
523.73	1087.83
524.09	1094.29
524.45	1099.69
524.81	1104.88
525.17	1110.14
525.53	1115.98
525.89	1121.26
526.25	1127.29
526.61	1131.55
526.97	1137.40
527.33	1141.95
527.68	1149.40
528.04	1155.19
528.40	1159.98
528.76	1164.38
529.12	1168.90
529.48	1174.48
529.84	1179.55
530.20	1185.00
530.56	1191.07
530.91	1196.24
531.27	1200.88
531.63	1205.64
531.99	1209.79
532.35	1214.45
532.71	1218.93
533.07	1223.88
533.42	1231.36
533.78	1236.02
534.14	1242.62
534.50	1247.12
534.86	1252.26
535.21	1255.14
535.57	1259.71
535.93	1263.93
536.29	1269.02
536.65	1273.50
537.00	1276.79
537.36	1280.52
537.72	1284.40
538.08	1287.95
538.44	1291.55
538.79	1296.36
539.15	1300.45
539.51	1304.74
539.87	1308.81
540.22	1313.26
540.58	1317.00
540.94	1318.55
541.29	1322.19
541.65	1324.21
542.01	1327.95
542.37	1330.93
542.72	1332.74
543.08	1336.05
543.44	1340.31
543.79	1342.38
544.15	1346.69
544.51	1351.00
544.87	1355.36
545.22	1358.43
545.58	1361.71
545.94	1365.71
546.29	1369.07
546.65	1371.88
547.01	1375.31
547.36	1378.95
547.72	1381.69
548.07	1385.26
548.43	1388.19
548.79	1390.95
549.14	1394.69
549.50	1398.55
549.86	1401.38
550.21	1406.02
550.57	1409.60
550.92	1411.60
551.28	1415.86
551.64	1418.40
551.99	1422.38
552.35	1425.10
552.70	1428.76
553.06	1432.64
553.41	1436.33
553.77	1440.86
554.13	1445.00
554.48	1449.45
554.84	1454.38
555.19	1458.57
555.55	1463.55
555.90	1467.71
556.26	1471.98
556.61	1476.19
556.97	1479.33
557.32	1483.10
557.68	1486.07
558.03	1490.10
558.39	1495.05
558.74	1499.29
559.10	1504.05
559.45	1508.02
559.81	1512.40
560.16	1516.55
560.52	1521.21
560.87	1526.50
561.23	1530.45
561.58	1537.12
561.94	1541.71
562.29	1544.95
562.64	1550.98
563.00	1555.31
563.35	1560.45
563.71	1566.71
564.06	1571.76
564.42	1576.86
564.77	1584.36
565.12	1591.24
565.48	1599.40
565.83	1605.81
566.19	1612.12
566.54	1617.26
566.89	1622.48
567.25	1628.76
567.60	1636.21
567.96	1643.43
568.31	1649.88
568.66	1655.88
569.02	1659.83
569.37	1664.55
569.72	1670.52
570.08	1674.48
570.43	1679.43
570.78	1684.83
571.14	1689.12
571.49	1693.79
571.84	1699.05
572.20	1702.93
572.55	1707.90
572.90	1709.98
573.26	1713.83
573.61	1716.90
573.96	1720.86
574.31	1725.10
574.67	1728.67
575.02	1731.76
575.37	1733.31
575.72	1734.79
576.08	1737.52
576.43	1740.71
576.78	1744.24
577.13	1746.98
577.49	1749.02
577.84	1751.81
578.19	1754.86
578.54	1758.29
578.90	1760.69
579.25	1762.88
579.60	1764.57
579.95	1765.43
580.30	1767.60
580.66	1769.86
581.01	1772.62
581.36	1775.12
581.71	1777.50
582.06	1781.05
582.42	1782.57
582.77	1783.95
583.12	1786.17
583.47	1788.14
583.82	1790.19
584.17	1792.38
584.53	1794.86
584.88	1797.31
585.23	1799.21
585.58	1800.02
585.93	1800.52
586.28	1802.45
586.63	1804.93
586.98	1806.40
587.34	1808.88
587.69	1809.98
588.04	1811.00
588.39	1811.93
588.74	1812.55
589.09	1813.19
589.44	1811.95
589.79	1812.43
590.14	1814.00
590.49	1814.33
590.84	1813.90
591.19	1814.02
591.54	1814.71
591.89	1813.98
592.25	1815.76
592.60	1814.40
592.95	1815.40
593.30	1816.21
593.65	1815.86
594.00	1813.81
594.35	1819.29
594.70	1817.38
595.05	1817.14
595.40	1816.24
595.75	1815.55
596.10	1814.86
596.45	1814.45
596.80	1813.90
597.15	1813.69
597.50	1811.55
597.85	1811.69
598.19	1810.98
598.54	1810.52
598.89	1808.86
599.24	1808.31
599.59	1806.26
599.94	1805.60
600.29	1803.71
600.64	1801.33
600.99	1800.14
601.34	1800.05
601.69	1792.00
602.04	1791.76
602.39	1789.71
602.74	1789.33
603.08	1787.36
603.43	1786.81
603.78	1784.60
604.13	1783.07
604.48	1780.07
604.83	1780.29
605.18	1778.10
605.53	1777.05
605.87	1774.00
606.22	1771.43
606.57	1768.55
606.92	1765.95
607.27	1763.50
607.62	1761.26
607.96	1759.38
608.31	1756.76
608.66	1754.40
609.01	1752.02
609.36	1749.60
609.70	1746.71
610.05	1742.57
610.40	1739.83
610.75	1735.02
611.10	1732.17
611.44	1727.88
611.79	1724.88
612.14	1720.64
612.49	1715.50
612.83	1710.79
613.18	1707.29
613.53	1702.69
613.88	1698.81
614.22	1693.95
614.57	1689.93
614.92	1685.38
615.27	1680.17
615.61	1674.98
615.96	1669.55
616.31	1664.71
616.65	1660.67
617.00	1656.81
617.35	1652.21
617.70	1646.43
618.04	1641.55
618.39	1636.02
618.74	1631.88
619.08	1626.55
619.43	1620.74
619.78	1617.26
620.12	1612.02
620.47	1606.79
620.82	1602.26
621.16	1595.88
621.51	1591.90
621.85	1585.93
622.20	1580.86
622.55	1574.98
622.89	1570.29
623.24	1565.48
623.59	1560.36
623.93	1554.36
624.28	1549.00
624.62	1546.33
624.97	1543.02
625.32	1538.67
625.66	1533.98
626.01	1528.74
626.35	1524.24
626.70	1519.40
627.04	1514.33
627.39	1509.55
627.73	1505.00
628.08	1500.33
628.43	1496.36
628.77	1490.50
629.12	1486.69
629.46	1481.74
629.81	1476.69
630.15	1471.29
630.50	1465.17
630.84	1460.12
631.19	1454.52
631.53	1448.36
631.88	1439.81
632.22	1431.88
632.57	1426.52
632.91	1420.45
633.26	1415.38
633.60	1408.60
633.95	1402.02
634.29	1394.83
634.64	1388.86
634.98	1382.12
635.32	1377.12
635.67	1372.21
636.01	1367.43
636.36	1360.67
636.70	1355.17
637.05	1350.24
637.39	1345.00
637.73	1339.95
638.08	1335.26
638.42	1329.64
638.77	1324.17
639.11	1318.57
639.45	1314.00
639.80	1307.52
640.14	1302.14
640.49	1295.40
640.83	1289.48
641.17	1284.07
641.52	1278.81
641.86	1272.86
642.20	1267.52
642.55	1259.95
642.89	1252.88
643.23	1245.83
643.58	1240.31
643.92	1232.67
644.26	1226.60
644.61	1219.26
644.95	1213.00
645.29	1205.62
645.64	1198.90
645.98	1192.21
646.32	1186.17
646.66	1179.55
647.01	1172.71
647.35	1165.62
647.69	1159.38
648.04	1153.98
648.38	1147.93
648.72	1141.52
649.06	1134.79
649.41	1127.43
649.75	1120.45
650.09	1113.62
650.43	1106.79
650.78	1099.69
651.12	1093.26
651.46	1086.00
651.80	1080.07
652.14	1073.81
652.49	1067.55
652.83	1061.00
653.17	1054.21
653.51	1046.83
653.85	1039.60
654.20	1032.74
654.54	1025.48
654.88	1018.31
655.22	1012.17
655.56	1004.19
655.90	997.45
656.25	990.95
656.59	984.98
656.93	979.31
657.27	974.40
657.61	967.50
657.95	961.81
658.29	955.71
658.64	949.95
658.98	943.76
659.32	936.31
659.66	930.17
660.00	924.17
660.34	918.14
660.68	912.57
661.02	907.48
661.36	901.17
661.70	896.52
662.05	891.38
662.39	885.24
662.73	881.12
663.07	875.93
663.41	870.45
663.75	864.62
664.09	858.88
664.43	852.02
664.77	846.38
665.11	840.19
665.45	834.95
665.79	829.24
666.13	823.36
666.47	818.19
666.81	812.10
667.15	806.12
667.49	800.88
667.83	796.55
668.17	791.33
668.51	786.81
668.85	781.29
669.19	776.67
669.53	770.19
669.87	763.81
670.21	757.67
670.55	752.10
670.89	747.38
671.23	741.64
671.57	736.52
671.91	732.50
672.25	727.33
672.58	722.74
672.92	717.17
673.26	712.21
673.60	707.62
673.94	703.05
674.28	698.67
674.62	694.24
674.96	689.05
675.30	684.17
675.64	679.43
675.97	674.55
676.31	669.17
676.65	664.90
676.99	661.71
677.33	657.52
677.67	653.64
678.01	648.86
678.34	645.19
678.68	641.45
679.02	636.43
679.36	632.21
679.70	627.29
680.04	623.57
680.37	619.62
680.71	615.12
681.05	611.02
681.39	606.71
681.73	602.40
682.06	597.74
682.40	593.57
682.74	589.71
683.08	586.55
683.42	582.81
683.75	579.17
684.09	574.38
684.43	570.19
684.77	566.14
685.10	562.17
685.44	558.24
685.78	554.07
686.12	550.43
686.45	546.02
686.79	541.90
687.13	538.64
687.46	534.62
687.80	531.76
688.14	527.86
688.48	524.57
688.81	521.05
689.15	517.86
689.49	513.95
689.82	510.40
690.16	505.74
690.50	501.74
690.83	498.05
691.17	493.98
691.51	490.69
691.84	487.10
692.18	483.64
692.52	480.38
692.85	477.48
693.19	474.67
693.52	471.81
693.86	468.76
694.20	464.93
694.53	462.10
694.87	458.14
695.21	454.64
695.54	451.17
695.88	447.43
696.21	443.83
696.55	440.71
696.88	437.86
697.22	434.98
697.56	432.55
697.89	429.55
698.23	427.29
698.56	424.40
698.90	421.93
699.23	419.05
699.57	416.17
699.90	413.07
700.24	409.98
700.58	407.33
700.91	405.36
701.25	404.36
701.58	402.31
701.92	400.62
702.25	398.81
702.59	396.33
702.92	394.43
703.26	392.69
703.59	390.50
703.93	389.67
704.26	387.83
704.60	385.33
704.93	383.29
705.26	381.02
705.60	379.43
705.93	376.83
706.27	375.60
706.60	374.40
706.94	373.07
707.27	371.07
707.61	369.67
707.94	367.43
708.27	364.07
708.61	361.26
708.94	359.29
709.28	357.43
709.61	355.62
709.94	354.05
710.28	351.90
710.61	350.26
710.95	346.69
711.28	346.33
711.61	344.83
711.95	343.31
712.28	341.76
712.61	339.62
712.95	339.43
713.28	338.43
713.61	336.10
713.95	334.12
714.28	332.76
714.61	330.98
714.95	329.57
715.28	327.86
715.61	326.93
715.95	325.33
716.28	323.71
716.61	322.88
716.95	321.02
717.28	319.86
717.61	318.74
717.94	317.52
718.28	314.48
718.61	312.83
718.94	311.48
719.27	309.88
719.61	309.07
719.94	307.14
720.27	304.55
720.60	303.26
720.94	301.74
721.27	300.74
721.60	299.95
721.93	298.62
722.27	298.26
722.60	297.29
722.93	296.05
723.26	295.05
723.59	293.48
723.93	292.79
724.26	291.95
724.59	290.74
724.92	289.93
725.25	289.50
725.59	288.64
725.92	288.10
726.25	287.52
726.58	286.26
726.91	285.10
727.24	284.67
727.57	284.00
727.91	283.12
728.24	282.26
728.57	280.76
728.90	279.93
729.23	278.43
729.56	278.45
729.89	277.81
730.22	277.02
730.55	276.14
730.89	275.31
731.22	274.43
731.55	273.60
731.88	273.07
732.21	272.24
732.54	271.57
732.87	270.86
733.20	270.21
733.53	269.64
733.86	269.12
734.19	268.40
734.52	268.00
734.85	268.76
735.18	267.93
735.51	268.19
735.84	267.93
736.17	268.10
736.50	266.40
736.83	267.90
737.16	267.50
737.49	267.00
737.82	266.40
738.15	265.95
738.48	265.33
738.81	264.67
739.14	263.64
739.47	262.93
739.80	262.10
740.13	261.86
740.46	261.14
740.79	260.57
741.12	259.81
741.45	259.00
741.78	257.50
742.11	257.52
742.44	256.52
742.77	256.43
743.10	255.71
743.43	255.29
743.75	252.90
744.08	254.71
744.41	254.40
744.74	254.02
745.07	253.24
745.40	253.26
745.73	253.48
746.06	253.38
746.39	253.14
746.71	252.60
747.04	251.40
747.37	251.00
747.70	250.69
748.03	250.52
748.36	250.31
748.68	249.69
749.01	248.60
749.34	248.17
749.67	247.21
750.00	246.74
750.33	247.57
750.65	247.40
750.98	244.83
751.31	244.31
751.64	243.79
751.97	244.76
752.29	244.26
752.62	242.93
752.95	242.52
753.28	241.93
753.60	241.67
753.93	242.36
754.26	241.95
754.59	241.36
754.91	240.86
755.24	240.52
755.57	240.05
755.90	239.67
756.22	239.07
756.55	238.60
756.88	238.26
757.20	236.67
757.53	235.55
757.86	235.00
758.19	235.02
758.51	234.76
758.84	233.29
759.17	232.83
759.49	232.67
759.82	233.48
760.15	233.50
760.47	233.19
760.80	232.10
761.13	232.52
761.45	231.95
761.78	231.55
762.11	231.21
762.43	231.07
762.76	231.02
763.08	231.21
763.41	231.24
763.74	230.74
764.06	230.69
764.39	230.69
764.71	230.43
765.04	230.07
765.37	229.60
765.69	229.38
766.02	229.05
766.34	228.98
766.67	227.95
767.00	228.21
767.32	229.24
767.65	230.24
767.97	229.71
768.30	229.90
768.62	230.00
768.95	229.81
769.27	229.55
769.60	229.48
769.92	229.12
770.25	228.64
770.57	228.43
770.90	228.24
771.22	228.05
771.55	227.95
771.87	227.67
772.20	227.52
772.52	229.12
772.85	231.67
773.17	231.45
773.50	231.24
773.82	230.50
774.15	229.24
774.47	227.86
774.80	227.48
775.12	227.24
775.45	227.00
775.77	226.93
776.09	227.05
776.42	226.86
776.74	227.31
777.07	227.21
777.39	227.33
777.72	226.76
778.04	226.83
778.36	226.36
778.69	226.33
779.01	226.38
779.33	224.60
779.66	222.10
779.98	221.83
780.31	221.79
780.63	222.67
780.95	222.83
781.28	222.93
781.60	222.69
781.92	222.43
782.25	222.38
782.57	222.14
782.89	221.76
783.22	221.62
783.54	221.02
783.86	221.17
784.19	220.79
784.51	221.64
784.83	221.31
785.16	221.26
785.48	221.24
785.80	221.43
786.12	221.55
786.45	221.55
786.77	221.95
787.09	221.57
787.42	220.71
787.74	220.90
788.06	220.86
788.38	220.74
788.71	220.83
789.03	220.93
789.35	220.98
789.67	220.95
789.99	221.14
790.32	220.98
790.64	221.12
790.96	222.60
791.28	221.74
791.61	221.81
791.93	221.83
792.25	221.71
792.57	222.93
792.89	222.40
793.21	222.38
793.54	222.00
793.86	221.86
794.18	221.83
794.50	221.43
794.82	221.36
795.14	221.64
795.47	221.74
795.79	221.64
796.11	221.29
796.43	220.88
796.75	220.71
797.07	220.64
797.39	220.33
797.71	219.07
798.04	219.31
798.36	219.14
798.68	219.40
799.00	219.50
799.32	218.31
799.64	218.69
799.96	218.45
800.28	218.62
800.60	218.52
800.92	218.64
801.24	218.31
801.56	218.38
801.89	218.21
802.21	218.33
802.53	218.07
802.85	218.69
803.17	219.81
803.49	219.60
803.81	219.45
804.13	219.31
804.45	219.00
804.77	219.05
805.09	218.95
805.41	218.69
805.73	218.21
806.05	217.81
806.37	217.67
806.69	217.60
807.01	217.40
807.33	217.55
807.65	217.07
807.97	218.19
808.28	218.07
808.60	217.64
808.92	217.40
809.24	218.64
809.56	218.12
809.88	217.40
810.20	217.38
810.52	217.86
810.84	217.69
811.16	217.52
811.48	217.19
811.80	217.98
812.12	217.93
812.43	218.31
812.75	218.69
813.07	218.33
813.39	218.45
813.71	218.17
814.03	218.24
814.35	218.26
814.67	217.26
814.98	217.07
815.30	217.36
815.62	216.98
815.94	215.38
816.26	215.52
816.58	215.02
816.89	215.10
817.21	214.62
817.53	214.88
817.85	214.95
818.17	215.00
818.48	214.24
818.80	214.55
819.12	214.29
819.44	213.79
819.76	213.88
820.07	213.79
820.39	213.95
820.71	213.83
821.03	213.81
821.34	213.83
821.66	214.19
821.98	214.38
822.30	214.29
822.61	215.74
822.93	215.43
823.25	215.48
823.57	215.38
823.88	215.62
824.20	215.50
824.52	215.98
824.83	216.07
825.15	215.90
825.47	215.76
825.79	216.00
826.10	215.90
826.42	215.64
826.74	216.00
827.05	215.79
827.37	215.93
827.69	215.62
828.00	215.50
828.32	215.33
828.64	215.12
828.95	216.31
829.27	215.74
829.58	216.00
829.90	216.64
830.22	216.83
830.53	216.24
830.85	215.98
831.17	215.36
831.48	215.31
831.80	215.33
832.11	215.17
832.43	214.67
832.75	214.62
833.06	216.02
833.38	215.17
833.69	215.26
834.01	215.40
834.32	215.60
834.64	215.48
834.96	215.43
835.27	215.36
835.59	214.76
835.90	214.12
836.22	214.00
836.53	213.57
836.85	213.24
837.16	215.48
837.48	215.52
837.79	216.00
838.11	216.10
838.42	216.10
838.74	216.38
839.05	216.40
839.37	216.43
839.68	215.05
840.00	215.24
840.31	215.57
840.63	215.12
840.94	214.90
841.26	214.98
841.57	215.02
841.88	215.24
842.20	214.71
842.51	214.90
842.83	214.76
843.14	216.40
843.46	216.40
843.77	215.29
844.08	215.10
844.40	214.52
844.71	214.38
845.03	214.12
845.34	213.98
845.65	213.98
845.97	213.98
846.28	214.21
846.60	214.24
846.91	213.71
847.22	213.71
847.54	214.05
847.85	214.07
848.16	214.00
848.48	213.64
848.79	214.74
849.10	214.60
849.42	214.74
849.73	212.98
850.04	212.95
850.36	212.14
850.67	212.52
850.98	212.71
851.30	212.74
851.61	212.95
851.92	212.81
852.23	213.67
852.55	213.79
852.86	213.74
853.17	213.98
853.49	214.50
853.80	215.05
854.11	215.24
854.42	215.45
854.74	215.10
855.05	215.14
855.36	213.90
855.67	214.05
855.99	214.17
856.30	216.67
856.61	216.71
856.92	216.98
857.23	217.31
857.55	217.10
857.86	217.26
858.17	217.38
858.48	217.05
858.79	216.38
859.11	216.62
859.42	216.33
859.73	216.02
860.04	215.83
860.35	215.05
860.66	214.45
860.98	214.55
861.29	214.67
861.60	214.50
861.91	214.93
862.22	214.81
862.53	214.48
862.84	211.69
863.16	212.24
863.47	211.90
863.78	211.40
864.09	211.43
864.40	211.40
864.71	211.40
865.02	211.81
865.33	211.62
865.64	211.17
865.95	211.26
866.27	212.79
866.58	212.71
866.89	213.10
867.20	213.26
867.51	212.69
867.82	212.69
868.13	213.29
868.44	212.98
868.75	213.14
869.06	213.24
869.37	213.86
869.68	213.05
869.99	213.38
870.30	213.60
870.61	213.98
870.92	213.62
871.23	213.71
871.54	213.88
871.85	214.48
872.16	214.90
872.47	214.83
872.78	213.55
873.09	213.83
873.40	213.74
873.71	213.76
874.02	213.93
874.33	213.62
874.64	213.19
874.95	213.74
875.26	213.52
875.56	213.43
875.87	213.07
876.18	213.10
876.49	214.95
876.80	214.64
877.11	214.26
877.42	214.36
877.73	214.26
878.04	213.88
878.35	213.76
878.66	213.76
878.96	213.86
879.27	213.64
879.58	213.33
879.89	213.10
880.20	213.90
880.51	213.76
880.82	213.83
881.12	214.02
881.43	213.48
881.74	213.10
882.05	213.10
882.36	213.29
882.67	213.38
882.97	211.26
883.28	211.19
883.59	211.17
883.90	211.48
884.21	211.69
884.51	211.69
884.82	211.45
885.13	211.29
885.44	211.26
885.74	211.40
886.05	211.50
886.36	211.64
886.67	210.76
886.98	212.00
887.28	212.31
887.59	212.19
887.90	212.12
888.20	212.10
888.51	212.48
888.82	212.21
889.13	212.40
889.43	213.83
889.74	214.02
890.05	213.88
890.35	213.43
890.66	213.19
890.97	213.02
891.28	212.71
891.58	212.79
891.89	212.60
892.20	212.57
892.50	212.10
892.81	212.02
893.12	211.93
893.42	210.86
893.73	210.93
894.04	211.10
894.34	211.29
894.65	211.45
894.95	211.05
895.26	211.10
895.57	212.05
895.87	210.26
896.18	210.31
896.48	210.67
896.79	210.95
897.10	211.12
897.40	211.24
897.71	211.60
898.01	211.43
898.32	211.79
898.63	211.62
898.93	211.76
899.24	211.86
899.54	212.12
899.85	211.93
900.15	211.83
900.46	211.74
900.76	212.05
901.07	212.00
901.38	212.07
901.68	212.26
901.99	211.10
902.29	211.50
902.60	211.26
902.90	211.02
903.21	210.95
903.51	210.76
903.82	211.19
904.12	211.31
904.43	211.67
904.73	211.55
905.03	211.81
905.34	213.95
905.64	213.76
905.95	213.38
906.25	213.40
906.56	213.38
906.86	213.33
907.17	213.02
907.47	213.14
907.77	213.14
908.08	212.76
908.38	213.19
908.69	213.31
908.99	214.00
909.30	214.17
909.60	214.17
909.90	214.29
910.21	213.57
910.51	213.36
910.81	213.07
911.12	213.21
911.42	213.14
911.73	210.93
912.03	211.05
912.33	211.74
912.64	211.81
912.94	211.69
913.24	211.29
913.55	211.31
913.85	211.19
914.15	211.57
914.46	211.74
914.76	211.33
915.06	211.07
915.37	210.43
915.67	210.33
915.97	210.29
916.27	209.90
916.58	210.17
916.88	210.10
917.18	210.10
917.49	211.62
917.79	211.48
918.09	211.95
918.39	212.52
918.70	212.31
919.00	212.24
919.30	213.26
919.60	213.29
919.91	212.98
920.21	213.10
920.51	212.48
920.81	212.64
921.12	213.17
921.42	213.17
921.72	213.29
922.02	213.33
922.32	213.62
922.63	213.79
922.93	215.00
923.23	214.74
923.53	214.43
923.83	212.93
924.13	213.10
924.44	213.05
924.74	213.43
925.04	213.86
925.34	214.05
925.64	213.12
925.94	213.33
926.24	214.62
926.55	214.67
926.85	215.05
927.15	214.76
927.45	214.76
927.75	214.81
928.05	214.90
928.35	214.81
928.65	215.19
928.95	215.50
929.26	214.38
929.56	215.02
929.86	215.50
930.16	215.45
930.46	215.36
930.76	215.26
931.06	214.24
931.36	213.79
931.66	214.07
931.96	214.17
932.26	214.21
932.56	213.21
932.86	213.24
933.16	213.07
933.46	212.95
933.76	212.40
934.06	212.90
934.36	213.60
934.66	213.74
934.96	213.40
935.26	213.40
935.56	213.69
935.86	213.17
936.16	212.74
936.46	212.43
936.76	212.29
937.06	212.14
937.36	212.26
937.66	212.21
937.96	212.02
938.26	211.86
938.56	211.64
938.86	211.79
939.16	212.05
939.46	212.45
939.76	212.62
940.06	212.88
940.35	212.36
940.65	211.52
940.95	211.50
941.25	211.02
941.55	210.79
941.85	210.95
942.15	211.55
942.45	212.14
942.75	212.21
943.04	212.29
943.34	212.71
943.64	212.45
943.94	212.21
944.24	212.12
944.54	212.19
944.84	212.17
945.13	212.00
945.43	211.57
945.73	211.43
946.03	211.29
946.33	210.76
946.62	210.81
946.92	210.74
947.22	210.71
947.52	210.86
947.82	211.07
948.11	210.74
948.41	210.19
948.71	209.60
949.01	209.67
949.31	209.50
949.60	209.36
949.90	209.88
950.20	209.67
950.50	209.71
950.79	209.57
951.09	210.05
951.39	209.86
951.69	209.74
951.98	210.10
952.28	210.21
952.58	210.29
952.87	210.07
953.17	210.45
953.47	210.26
953.76	210.29
954.06	209.79
954.36	209.60
954.66	209.62
954.95	210.24
955.25	210.52
955.55	210.74
955.84	210.33
956.14	210.60
956.44	210.83
956.73	210.55
957.03	210.64
957.32	210.43
957.62	210.45
957.92	211.07
958.21	210.69
958.51	213.10
958.81	213.62
959.10	213.90
959.40	214.17
959.69	214.33
959.99	214.67
960.29	214.93
960.58	214.88
960.88	215.64
961.17	215.29
961.47	215.38
961.76	215.19
962.06	215.79
962.36	215.29
962.65	215.40
962.95	215.57
963.24	215.26
963.54	215.31
963.83	215.40
964.13	215.02
964.42	214.52
964.72	212.90
965.01	212.79
965.31	212.71
965.60	212.19
965.90	213.62
966.19	213.14
966.49	213.19
966.78	213.05
967.08	212.74
967.37	212.86
967.67	212.43
967.96	212.74
968.26	212.45
968.55	212.86
968.85	212.93
969.14	212.88
969.43	213.00
969.73	212.86
970.02	212.76
970.32	212.90
970.61	213.07
970.91	212.55
971.20	212.21
971.49	212.02
971.79	212.36
972.08	210.71
972.38	210.67
972.67	210.55
972.96	211.05
973.26	210.52
973.55	211.02
973.85	210.88
974.14	210.74
974.43	210.95
974.73	210.48
975.02	210.07
975.31	210.00
975.61	210.14
975.90	209.83
976.19	209.88
976.49	209.93
976.78	210.14
977.07	209.95
977.37	210.19
977.66	210.45
977.95	209.98
978.24	210.29
978.54	210.81
978.83	210.74
979.12	210.45
979.42	210.57
979.71	210.10
980.00	210.14
980.29	210.36
980.59	209.88
980.88	210.52
981.17	210.67
981.46	210.83
981.76	210.67
982.05	211.64
982.34	211.83
982.63	211.90
982.93	211.83
983.22	212.60
983.51	212.43
983.80	212.50
984.09	212.86
984.39	212.74
984.68	212.43
984.97	212.52
985.26	212.24
985.55	212.48
985.85	212.02
986.14	212.33
986.43	212.50
986.72	212.38
987.01	211.74
987.30	211.86
987.59	211.64
987.89	211.86
988.18	210.93
988.47	210.55
988.76	210.31
989.05	210.10
989.34	209.60
989.63	210.07
989.92	209.79
990.22	209.43
990.51	209.10
990.80	209.17
991.09	209.33
991.38	209.86
991.67	209.64
991.96	209.83
992.25	209.74
992.54	209.29
992.83	209.43
993.12	209.43
993.41	209.74
993.70	210.62
993.99	210.98
994.28	211.38
994.58	211.81
994.87	211.60
995.16	211.62
995.45	211.43
995.74	210.83
996.03	211.38
996.32	211.69
996.61	212.38
996.90	212.31
997.19	212.29
997.48	212.05
997.77	211.79
998.06	211.64
998.34	211.55
998.63	211.52
998.92	211.79
999.21	212.07
999.50	212.17
999.79	211.38
1000.08	211.19
1000.37	211.02
1000.66	210.69
1000.95	211.19
1001.24	211.31
1001.53	211.60
1001.82	211.64
1002.11	210.90
1002.40	211.10
1002.68	211.43
1002.97	212.74
1003.26	212.43
1003.55	212.36
1003.84	212.74
1004.13	213.55
1004.42	213.52
1004.71	213.71
1004.99	213.24
1005.28	213.83
1005.57	213.40
1005.86	213.17
1006.15	213.17
1006.44	213.21
1006.72	213.29
1007.01	213.02
1007.30	213.02
1007.59	212.79
1007.88	212.79
1008.17	213.17
1008.45	212.83
1008.74	212.10
1009.03	211.12
1009.32	211.33
1009.60	211.21
1009.89	211.14
1010.18	210.45
1010.47	210.31
1010.76	210.00
1011.04	210.02
1011.33	209.81
1011.62	210.02
1011.91	210.33
1012.19	210.36
1012.48	210.29
1012.77	210.38
1013.05	211.19
1013.34	211.19
1013.63	211.05
1013.92	211.14
1014.20	210.81
1014.49	210.86
1014.78	211.17
1015.06	210.60
1015.35	210.36
1015.64	210.64
1015.92	210.71
1016.21	210.76
1016.50	210.95
1016.78	211.50
1017.07	211.76
1017.36	211.33
1017.64	211.02
1017.93	211.17
1018.22	210.83
1018.50	210.76
1018.79	210.69
1019.08	209.83
1019.36	209.76
1019.65	209.90
1019.93	210.60
1020.22	210.93
1020.51	212.00
1020.79	211.64
1021.08	206.50
1021.36	206.00
1021.65	209.50
1021.94	211.50
1022.22	207.50
1022.51	211.00
1022.79	223.00
1023.08	212.50
1023.36	235.00
1023.65	206.50
>>>>>End Processed Spectral Data<<<<<
