SpectraSuite Data File
++++++++++++++++++++++++++++++++++++
Date: Tue Apr 02 18:42:42 EDT 2013
User: group
Dark Spectrum Present: No
Reference Spectrum Present: No
Number of Sampled Component Spectra: 1
Spectrometers: USB2E7196
Integration Time (usec): 580000 (USB2E7196)
Spectra Averaged: 2 (USB2E7196)
Boxcar Smoothing: 10 (USB2E7196)
Correct for Electrical Dark: No (USB2E7196)
Strobe/Lamp Enabled: No (USB2E7196)
Correct for Detector Non-linearity: No (USB2E7196)
Correct for Stray Light: No (USB2E7196)
Number of Pixels in Processed Spectrum: 2048
>>>>>Begin Processed Spectral Data<<<<<
339.09	0.00
339.48	194.50
339.86	197.00
340.24	193.00
340.63	200.00
341.01	230.50
341.39	201.00
341.78	211.00
342.16	217.50
342.54	209.50
342.93	198.95
343.31	208.71
343.69	209.29
344.07	209.76
344.46	211.00
344.84	211.45
345.22	210.38
345.60	210.81
345.99	210.67
346.37	210.29
346.75	210.31
347.13	210.07
347.52	210.21
347.90	210.81
348.28	210.76
348.66	211.24
349.05	210.40
349.43	210.67
349.81	210.81
350.19	210.98
350.57	211.07
350.96	211.05
351.34	211.21
351.72	211.31
352.10	211.48
352.48	210.86
352.87	210.81
353.25	210.86
353.63	210.88
354.01	211.00
354.39	211.14
354.77	210.95
355.15	211.55
355.54	211.40
355.92	210.81
356.30	210.88
356.68	212.10
357.06	212.29
357.44	211.93
357.82	211.81
358.20	212.81
358.58	212.86
358.97	213.21
359.35	213.81
359.73	214.21
360.11	214.10
360.49	214.26
360.87	214.38
361.25	214.64
361.63	215.43
362.01	215.45
362.39	215.36
362.77	215.69
363.15	215.64
363.53	215.76
363.91	216.05
364.29	215.98
364.67	214.26
365.05	214.50
365.43	214.83
365.81	215.14
366.19	215.24
366.57	216.14
366.95	216.00
367.33	215.81
367.71	215.60
368.09	216.14
368.47	216.26
368.85	216.24
369.23	216.60
369.61	215.79
369.99	216.60
370.37	216.95
370.75	217.93
371.13	217.57
371.51	217.33
371.89	217.60
372.27	217.64
372.65	217.69
373.03	217.74
373.41	217.50
373.78	217.52
374.16	216.52
374.54	215.86
374.92	215.86
375.30	215.64
375.68	215.57
376.06	215.83
376.44	215.67
376.82	216.07
377.19	216.07
377.57	216.12
377.95	215.40
378.33	215.05
378.71	214.05
379.09	214.57
379.47	214.79
379.84	214.60
380.22	214.45
380.60	214.43
380.98	214.21
381.36	214.33
381.73	214.00
382.11	214.33
382.49	214.67
382.87	214.26
383.25	214.19
383.62	216.64
384.00	215.88
384.38	216.05
384.76	216.05
385.13	216.79
385.51	216.93
385.89	216.74
386.27	216.98
386.64	217.12
387.02	216.86
387.40	216.79
387.78	216.71
388.15	217.14
388.53	216.74
388.91	216.86
389.29	216.83
389.66	217.07
390.04	216.71
390.42	216.69
390.79	216.76
391.17	217.02
391.55	214.64
391.92	214.67
392.30	214.93
392.68	214.64
393.05	214.38
393.43	214.55
393.81	214.57
394.18	214.29
394.56	214.21
394.94	214.45
395.31	214.31
395.69	215.12
396.06	215.17
396.44	215.52
396.82	215.29
397.19	216.17
397.57	216.17
397.95	216.67
398.32	216.10
398.70	216.31
399.07	216.71
399.45	216.48
399.82	216.74
400.20	216.45
400.58	216.40
400.95	215.64
401.33	215.88
401.70	217.57
402.08	217.90
402.45	218.10
402.83	218.57
403.20	218.74
403.58	218.43
403.95	218.71
404.33	219.05
404.71	219.40
405.08	220.71
405.46	220.90
405.83	221.05
406.21	221.67
406.58	222.12
406.96	222.26
407.33	223.24
407.70	224.07
408.08	226.40
408.45	227.14
408.83	228.24
409.20	228.64
409.58	228.26
409.95	229.12
410.33	230.00
410.70	230.24
411.08	231.67
411.45	232.83
411.82	233.52
412.20	235.17
412.57	237.52
412.95	237.17
413.32	238.79
413.69	240.29
414.07	241.76
414.44	243.74
414.82	245.60
415.19	247.95
415.56	249.98
415.94	251.05
416.31	254.00
416.68	256.81
417.06	260.12
417.43	263.69
417.81	267.33
418.18	271.12
418.55	274.95
418.93	278.93
419.30	282.79
419.67	287.55
420.04	291.86
420.42	296.00
420.79	303.00
421.16	308.64
421.54	315.43
421.91	321.83
422.28	328.05
422.66	334.83
423.03	342.93
423.40	349.64
423.77	356.88
424.15	364.26
424.52	372.02
424.89	380.60
425.26	388.31
425.64	395.95
426.01	404.17
426.38	413.26
426.75	422.79
427.13	431.81
427.50	441.33
427.87	451.31
428.24	461.33
428.61	469.74
428.99	481.60
429.36	492.64
429.73	503.29
430.10	514.67
430.47	526.52
430.85	536.86
431.22	549.83
431.59	564.76
431.96	577.50
432.33	591.60
432.70	605.31
433.08	621.45
433.45	636.50
433.82	652.07
434.19	669.48
434.56	686.45
434.93	702.71
435.30	718.88
435.68	737.02
436.05	754.43
436.42	771.95
436.79	787.12
437.16	804.67
437.53	823.02
437.90	841.05
438.27	858.90
438.64	876.57
439.01	893.74
439.38	907.69
439.75	921.86
440.13	938.69
440.50	954.95
440.87	967.36
441.24	981.10
441.61	995.98
441.98	1006.48
442.35	1018.33
442.72	1031.21
443.09	1045.07
443.46	1052.69
443.83	1057.93
444.20	1062.98
444.57	1069.02
444.94	1071.14
445.31	1075.31
445.68	1080.74
446.05	1081.69
446.42	1080.83
446.79	1080.26
447.16	1078.17
447.53	1077.45
447.90	1071.00
448.27	1064.19
448.64	1055.74
449.01	1050.14
449.37	1038.74
449.74	1028.24
450.11	1016.90
450.48	1002.57
450.85	985.95
451.22	973.26
451.59	961.48
451.96	949.45
452.33	934.33
452.70	920.55
453.07	902.93
453.43	883.21
453.80	866.71
454.17	850.95
454.54	834.45
454.91	818.17
455.28	802.88
455.65	788.14
456.02	775.93
456.38	762.95
456.75	746.71
457.12	732.90
457.49	719.00
457.86	704.60
458.23	694.07
458.59	682.38
458.96	670.07
459.33	658.90
459.70	648.24
460.07	639.26
460.43	629.24
460.80	620.69
461.17	613.57
461.54	605.26
461.91	597.19
462.27	588.81
462.64	581.86
463.01	574.02
463.38	567.36
463.74	556.81
464.11	551.00
464.48	544.98
464.85	538.76
465.21	534.86
465.58	529.60
465.95	522.95
466.32	518.07
466.68	512.45
467.05	507.62
467.42	502.60
467.78	497.45
468.15	492.93
468.52	488.98
468.88	483.33
469.25	478.83
469.62	475.55
469.98	471.64
470.35	467.81
470.72	464.26
471.08	459.76
471.45	457.24
471.82	454.07
472.18	450.71
472.55	448.48
472.92	444.67
473.28	441.93
473.65	439.24
474.02	436.76
474.38	435.45
474.75	433.69
475.11	430.95
475.48	429.38
475.85	427.43
476.21	425.76
476.58	424.43
476.94	423.21
477.31	421.57
477.67	420.43
478.04	419.45
478.41	418.21
478.77	419.50
479.14	418.52
479.50	417.36
479.87	416.83
480.23	416.36
480.60	416.05
480.96	415.83
481.33	416.48
481.69	416.07
482.06	415.52
482.42	415.17
482.79	415.95
483.15	416.17
483.52	416.90
483.88	417.02
484.25	417.43
484.61	418.24
484.98	418.93
485.34	420.69
485.71	422.24
486.07	423.52
486.44	422.90
486.80	423.83
487.17	425.64
487.53	428.00
487.90	430.43
488.26	433.38
488.62	435.98
488.99	437.79
489.35	440.90
489.72	443.93
490.08	446.93
490.44	449.52
490.81	452.62
491.17	455.71
491.54	459.64
491.90	463.38
492.26	467.02
492.63	470.93
492.99	474.14
493.36	477.74
493.72	482.43
494.08	486.98
494.45	492.48
494.81	497.64
495.17	502.02
495.54	507.29
495.90	511.74
496.26	516.88
496.63	521.79
496.99	526.86
497.35	532.38
497.72	538.31
498.08	543.86
498.44	550.10
498.80	556.67
499.17	562.24
499.53	568.57
499.89	575.50
500.26	581.79
500.62	588.74
500.98	596.50
501.34	603.50
501.71	610.90
502.07	617.60
502.43	624.64
502.79	631.45
503.16	638.12
503.52	645.52
503.88	652.50
504.24	660.79
504.60	668.69
504.97	676.40
505.33	684.24
505.69	693.38
506.05	701.64
506.41	708.93
506.78	717.05
507.14	724.71
507.50	732.40
507.86	740.45
508.22	748.74
508.59	755.60
508.95	763.50
509.31	771.55
509.67	779.17
510.03	786.07
510.39	794.40
510.75	801.90
511.12	809.81
511.48	817.55
511.84	825.38
512.20	832.79
512.56	840.62
512.92	848.90
513.28	855.95
513.64	862.19
514.00	870.33
514.37	877.19
514.73	884.93
515.09	891.98
515.45	899.00
515.81	906.00
516.17	913.21
516.53	919.38
516.89	925.38
517.25	932.38
517.61	940.19
517.97	945.71
518.33	952.43
518.69	958.74
519.05	965.60
519.41	971.55
519.77	979.31
520.13	985.10
520.49	989.86
520.85	995.14
521.21	1002.48
521.57	1008.07
521.93	1014.02
522.29	1019.79
522.65	1024.79
523.01	1030.33
523.37	1035.57
523.73	1041.21
524.09	1046.86
524.45	1052.81
524.81	1057.76
525.17	1062.83
525.53	1068.43
525.89	1073.31
526.25	1078.31
526.61	1082.21
526.97	1086.26
527.33	1089.64
527.68	1096.33
528.04	1100.81
528.40	1105.02
528.76	1108.69
529.12	1112.86
529.48	1117.64
529.84	1121.55
530.20	1126.62
530.56	1131.71
530.91	1135.57
531.27	1139.38
531.63	1143.38
531.99	1146.93
532.35	1150.86
532.71	1153.83
533.07	1158.64
533.42	1165.02
533.78	1169.40
534.14	1174.38
534.50	1179.38
534.86	1183.83
535.21	1186.29
535.57	1190.10
535.93	1194.60
536.29	1199.43
536.65	1203.98
537.00	1207.10
537.36	1210.86
537.72	1214.33
538.08	1217.71
538.44	1221.36
538.79	1225.48
539.15	1228.50
539.51	1232.90
539.87	1236.38
540.22	1240.69
540.58	1243.76
540.94	1245.17
541.29	1248.00
541.65	1249.95
542.01	1252.69
542.37	1255.45
542.72	1257.45
543.08	1260.88
543.44	1264.14
543.79	1265.24
544.15	1267.86
544.51	1271.69
544.87	1274.57
545.22	1277.69
545.58	1280.83
545.94	1283.86
546.29	1286.67
546.65	1290.64
547.01	1292.60
547.36	1295.43
547.72	1298.05
548.07	1300.76
548.43	1303.00
548.79	1305.52
549.14	1308.48
549.50	1311.90
549.86	1313.33
550.21	1316.26
550.57	1319.21
550.92	1321.33
551.28	1325.02
551.64	1327.29
551.99	1329.88
552.35	1332.17
552.70	1335.19
553.06	1338.31
553.41	1341.57
553.77	1345.83
554.13	1348.50
554.48	1351.64
554.84	1356.05
555.19	1359.79
555.55	1365.38
555.90	1369.48
556.26	1373.67
556.61	1378.31
556.97	1381.57
557.32	1387.17
557.68	1390.95
558.03	1394.52
558.39	1399.43
558.74	1403.43
559.10	1407.64
559.45	1412.24
559.81	1416.98
560.16	1420.33
560.52	1423.88
560.87	1428.40
561.23	1431.40
561.58	1437.62
561.94	1441.69
562.29	1445.07
562.64	1449.38
563.00	1452.02
563.35	1456.69
563.71	1461.45
564.06	1466.17
564.42	1471.05
564.77	1475.36
565.12	1481.88
565.48	1489.76
565.83	1494.98
566.19	1500.64
566.54	1506.05
566.89	1511.19
567.25	1517.81
567.60	1525.31
567.96	1534.05
568.31	1540.86
568.66	1547.17
569.02	1551.21
569.37	1557.86
569.72	1564.79
570.08	1570.52
570.43	1576.24
570.78	1582.45
571.14	1588.07
571.49	1592.48
571.84	1598.71
572.20	1604.48
572.55	1608.86
572.90	1611.69
573.26	1616.43
573.61	1621.43
573.96	1626.26
574.31	1630.69
574.67	1633.64
575.02	1636.76
575.37	1637.83
575.72	1640.86
576.08	1644.71
576.43	1648.83
576.78	1651.50
577.13	1653.95
577.49	1657.36
577.84	1660.86
578.19	1663.71
578.54	1667.62
578.90	1672.36
579.25	1674.76
579.60	1677.10
579.95	1679.40
580.30	1683.29
580.66	1687.24
581.01	1690.14
581.36	1693.79
581.71	1697.29
582.06	1702.76
582.42	1706.55
582.77	1709.76
583.12	1713.69
583.47	1717.43
583.82	1720.81
584.17	1724.21
584.53	1728.83
584.88	1732.00
585.23	1735.48
585.58	1737.21
585.93	1739.33
586.28	1741.74
586.63	1744.38
586.98	1746.74
587.34	1751.07
587.69	1752.24
588.04	1754.17
588.39	1756.19
588.74	1757.36
589.09	1758.40
589.44	1757.83
589.79	1759.38
590.14	1761.26
590.49	1761.48
590.84	1761.69
591.19	1763.21
591.54	1763.98
591.89	1764.38
592.25	1767.05
592.60	1767.40
592.95	1769.36
593.30	1770.64
593.65	1771.60
594.00	1771.52
594.35	1778.10
594.70	1777.67
595.05	1780.02
595.40	1780.45
595.75	1781.31
596.10	1783.31
596.45	1785.26
596.80	1787.40
597.15	1788.19
597.50	1788.21
597.85	1789.40
598.19	1789.31
598.54	1789.05
598.89	1790.40
599.24	1789.81
599.59	1788.62
599.94	1788.50
600.29	1788.79
600.64	1787.95
600.99	1787.38
601.34	1788.60
601.69	1783.14
602.04	1782.05
602.39	1781.10
602.74	1780.21
603.08	1779.50
603.43	1779.74
603.78	1778.83
604.13	1777.86
604.48	1776.14
604.83	1776.69
605.18	1775.52
605.53	1775.83
605.87	1773.95
606.22	1771.45
606.57	1770.74
606.92	1768.86
607.27	1768.71
607.62	1768.05
607.96	1767.43
608.31	1767.38
608.66	1765.69
609.01	1764.67
609.36	1764.31
609.70	1762.26
610.05	1760.29
610.40	1758.64
610.75	1754.74
611.10	1752.71
611.44	1750.50
611.79	1748.36
612.14	1744.83
612.49	1741.10
612.83	1737.57
613.18	1735.26
613.53	1733.48
613.88	1729.14
614.22	1725.60
614.57	1720.83
614.92	1716.93
615.27	1712.52
615.61	1707.14
615.96	1703.21
616.31	1698.67
616.65	1695.95
617.00	1692.81
617.35	1689.26
617.70	1685.00
618.04	1681.29
618.39	1676.07
618.74	1672.31
619.08	1668.40
619.43	1664.52
619.78	1661.86
620.12	1658.14
620.47	1654.10
620.82	1649.10
621.16	1644.64
621.51	1641.79
621.85	1638.10
622.20	1633.93
622.55	1630.33
622.89	1627.48
623.24	1623.90
623.59	1620.64
623.93	1615.69
624.28	1610.60
624.62	1608.50
624.97	1606.36
625.32	1601.76
625.66	1597.50
626.01	1591.79
626.35	1587.64
626.70	1583.60
627.04	1580.36
627.39	1576.19
627.73	1572.69
628.08	1570.24
628.43	1566.76
628.77	1562.45
629.12	1559.31
629.46	1555.45
629.81	1551.07
630.15	1545.00
630.50	1540.79
630.84	1535.64
631.19	1530.50
631.53	1526.12
631.88	1518.00
632.22	1511.14
632.57	1506.95
632.91	1502.17
633.26	1497.90
633.60	1492.64
633.95	1487.55
634.29	1480.29
634.64	1474.74
634.98	1468.95
635.32	1463.60
635.67	1459.95
636.01	1455.48
636.36	1448.95
636.70	1444.52
637.05	1439.36
637.39	1435.55
637.73	1430.10
638.08	1425.40
638.42	1420.31
638.77	1415.40
639.11	1410.95
639.45	1405.69
639.80	1399.79
640.14	1394.50
640.49	1389.45
640.83	1384.71
641.17	1379.55
641.52	1375.93
641.86	1370.45
642.20	1366.86
642.55	1360.07
642.89	1353.79
643.23	1346.69
643.58	1342.60
643.92	1334.93
644.26	1328.98
644.61	1323.05
644.95	1316.40
645.29	1309.79
645.64	1304.02
645.98	1298.05
646.32	1293.12
646.66	1287.67
647.01	1282.14
647.35	1277.64
647.69	1270.74
648.04	1264.86
648.38	1258.64
648.72	1251.38
649.06	1245.71
649.41	1238.31
649.75	1231.98
650.09	1225.26
650.43	1219.14
650.78	1211.98
651.12	1206.45
651.46	1200.00
651.80	1193.55
652.14	1187.86
652.49	1182.07
652.83	1175.10
653.17	1168.02
653.51	1160.36
653.85	1153.40
654.20	1146.50
654.54	1138.26
654.88	1132.14
655.22	1125.60
655.56	1118.64
655.90	1112.14
656.25	1105.81
656.59	1099.48
656.93	1093.07
657.27	1087.74
657.61	1081.14
657.95	1074.74
658.29	1067.45
658.64	1062.00
658.98	1055.10
659.32	1048.19
659.66	1041.67
660.00	1035.62
660.34	1029.00
660.68	1022.88
661.02	1016.55
661.36	1010.62
661.70	1005.31
662.05	999.10
662.39	992.95
662.73	987.69
663.07	982.69
663.41	976.00
663.75	969.19
664.09	963.52
664.43	956.67
664.77	950.86
665.11	944.62
665.45	939.43
665.79	933.07
666.13	927.45
666.47	921.52
666.81	916.07
667.15	909.81
667.49	904.24
667.83	899.33
668.17	893.40
668.51	887.43
668.85	881.76
669.19	876.76
669.53	870.40
669.87	863.88
670.21	857.62
670.55	851.43
670.89	846.71
671.23	841.48
671.57	836.12
671.91	830.71
672.25	824.95
672.58	820.29
672.92	814.50
673.26	809.52
673.60	804.19
673.94	798.17
674.28	793.19
674.62	788.60
674.96	783.10
675.30	778.36
675.64	773.50
675.97	768.19
676.31	762.76
676.65	757.88
676.99	754.38
677.33	748.79
677.67	745.14
678.01	739.86
678.34	735.50
678.68	730.98
679.02	725.67
679.36	721.07
679.70	715.07
680.04	709.81
680.37	704.40
680.71	699.76
681.05	695.76
681.39	691.67
681.73	686.88
682.06	682.07
682.40	677.71
682.74	673.38
683.08	669.38
683.42	664.71
683.75	660.14
684.09	654.48
684.43	649.93
684.77	644.88
685.10	640.10
685.44	635.33
685.78	630.74
686.12	626.71
686.45	622.10
686.79	618.10
687.13	614.48
687.46	610.36
687.80	606.76
688.14	602.52
688.48	598.26
688.81	594.29
689.15	591.07
689.49	586.60
689.82	582.40
690.16	577.76
690.50	573.83
690.83	569.55
691.17	565.52
691.51	561.95
691.84	558.19
692.18	554.71
692.52	550.62
692.85	547.40
693.19	544.69
693.52	541.02
693.86	537.07
694.20	533.38
694.53	530.10
694.87	525.62
695.21	521.38
695.54	517.57
695.88	513.57
696.21	508.69
696.55	505.07
696.88	501.40
697.22	498.10
697.56	494.79
697.89	491.24
698.23	487.88
698.56	484.29
698.90	481.21
699.23	477.60
699.57	474.26
699.90	470.45
700.24	466.00
700.58	463.00
700.91	460.31
701.25	458.98
701.58	456.36
701.92	454.24
702.25	451.36
702.59	448.26
702.92	445.33
703.26	443.21
703.59	440.83
703.93	439.86
704.26	436.83
704.60	434.17
704.93	431.64
705.26	428.83
705.60	426.64
705.93	423.38
706.27	421.12
706.60	419.36
706.94	417.74
707.27	415.33
707.61	413.14
707.94	410.48
708.27	406.38
708.61	403.19
708.94	400.57
709.28	398.60
709.61	396.62
709.94	394.62
710.28	392.31
710.61	389.81
710.95	385.40
711.28	385.14
711.61	383.14
711.95	381.52
712.28	379.17
712.61	376.93
712.95	376.24
713.28	375.14
713.61	372.33
713.95	369.64
714.28	368.14
714.61	365.98
714.95	364.05
715.28	361.81
715.61	360.14
715.95	358.60
716.28	356.50
716.61	354.83
716.95	352.83
717.28	351.29
717.61	349.31
717.94	347.93
718.28	344.64
718.61	342.38
718.94	340.36
719.27	339.00
719.61	337.45
719.94	334.98
720.27	332.21
720.60	330.74
720.94	329.21
721.27	327.74
721.60	326.57
721.93	324.90
722.27	324.36
722.60	323.17
722.93	321.24
723.26	320.07
723.59	318.31
723.93	317.24
724.26	315.83
724.59	314.81
724.92	313.76
725.25	313.29
725.59	312.43
725.92	311.86
726.25	310.76
726.58	309.90
726.91	309.12
727.24	308.43
727.57	307.36
727.91	305.95
728.24	304.93
728.57	303.83
728.90	302.83
729.23	301.02
729.56	301.05
729.89	300.17
730.22	298.88
730.55	297.76
730.89	296.90
731.22	295.50
731.55	294.19
731.88	293.40
732.21	291.93
732.54	290.67
732.87	289.29
733.20	288.17
733.53	286.95
733.86	286.19
734.19	285.14
734.52	284.48
734.85	285.12
735.18	283.95
735.51	283.62
735.84	283.24
736.17	283.24
736.50	281.40
736.83	283.17
737.16	282.81
737.49	282.19
737.82	281.24
738.15	281.05
738.48	280.36
738.81	279.24
739.14	278.17
739.47	277.69
739.80	276.83
740.13	276.52
740.46	275.69
740.79	274.67
741.12	273.67
741.45	272.69
741.78	270.88
742.11	270.79
742.44	269.90
742.77	269.52
743.10	268.33
743.43	267.45
743.75	264.55
744.08	266.17
744.41	265.60
744.74	264.71
745.07	263.33
745.40	263.17
745.73	263.21
746.06	262.79
746.39	262.05
746.71	261.45
747.04	260.52
747.37	259.79
747.70	259.40
748.03	258.83
748.36	258.55
748.68	257.93
749.01	256.98
749.34	256.26
749.67	255.55
750.00	255.40
750.33	256.40
750.65	255.98
750.98	252.93
751.31	252.29
751.64	252.07
751.97	253.31
752.29	252.86
752.62	251.40
752.95	250.69
753.28	250.29
753.60	249.81
753.93	250.02
754.26	249.79
754.59	248.95
754.91	248.71
755.24	248.05
755.57	247.57
755.90	247.05
756.22	246.64
756.55	246.02
756.88	245.05
757.20	243.36
757.53	242.40
757.86	242.48
758.19	242.38
758.51	241.98
758.84	240.17
759.17	239.48
759.49	239.76
759.82	240.81
760.15	240.71
760.47	240.33
760.80	239.52
761.13	239.55
761.45	239.29
761.78	239.07
762.11	238.83
762.43	238.55
762.76	238.21
763.08	237.88
763.41	237.60
763.74	237.52
764.06	237.10
764.39	237.10
764.71	236.45
765.04	236.05
765.37	235.38
765.69	235.21
766.02	234.74
766.34	234.21
766.67	232.90
767.00	232.90
767.32	233.86
767.65	234.98
767.97	234.48
768.30	234.40
768.62	234.05
768.95	233.76
769.27	233.21
769.60	233.14
769.92	232.62
770.25	232.05
770.57	231.38
770.90	231.31
771.22	230.74
771.55	230.52
771.87	230.21
772.20	230.21
772.52	231.83
772.85	234.38
773.17	234.17
773.50	233.69
773.82	233.29
774.15	231.88
774.47	230.33
774.80	229.81
775.12	229.60
775.45	229.21
775.77	229.00
776.09	229.33
776.42	229.19
776.74	229.81
777.07	229.36
777.39	229.55
777.72	229.07
778.04	229.24
778.36	228.74
778.69	228.79
779.01	228.79
779.33	226.98
779.66	224.57
779.98	224.33
780.31	224.52
780.63	225.14
780.95	225.67
781.28	225.55
781.60	225.48
781.92	225.24
782.25	225.17
782.57	225.21
782.89	224.69
783.22	224.40
783.54	223.67
783.86	223.90
784.19	223.40
784.51	223.93
784.83	223.45
785.16	223.48
785.48	223.38
785.80	223.14
786.12	223.43
786.45	223.14
786.77	223.12
787.09	222.95
787.42	221.95
787.74	221.76
788.06	221.31
788.38	221.12
788.71	220.93
789.03	220.95
789.35	221.00
789.67	220.79
789.99	220.98
790.32	220.71
790.64	221.05
790.96	222.74
791.28	222.17
791.61	222.21
791.93	222.17
792.25	222.02
792.57	223.50
792.89	222.74
793.21	222.88
793.54	222.79
793.86	222.43
794.18	222.69
794.50	222.31
794.82	222.55
795.14	222.83
795.47	223.10
795.79	223.19
796.11	222.67
796.43	222.62
796.75	222.45
797.07	222.55
797.39	222.21
797.71	220.83
798.04	220.81
798.36	220.86
798.68	220.90
799.00	220.93
799.32	219.57
799.64	220.14
799.96	219.79
800.28	220.02
800.60	220.02
800.92	219.95
801.24	219.71
801.56	220.00
801.89	219.81
802.21	219.90
802.53	219.36
802.85	219.83
803.17	220.69
803.49	220.33
803.81	220.10
804.13	220.05
804.45	219.79
804.77	220.14
805.09	219.79
805.41	219.55
805.73	219.14
806.05	218.81
806.37	218.40
806.69	218.48
807.01	217.98
807.33	218.10
807.65	217.52
807.97	218.62
808.28	218.21
808.60	218.02
808.92	217.83
809.24	219.19
809.56	218.74
809.88	217.90
810.20	217.98
810.52	218.40
810.84	218.07
811.16	217.98
811.48	217.57
811.80	218.50
812.12	218.26
812.43	218.55
812.75	218.71
813.07	218.57
813.39	218.67
813.71	218.57
814.03	218.40
814.35	218.19
814.67	217.21
814.98	217.07
815.30	217.10
815.62	216.64
815.94	215.19
816.26	215.33
816.58	215.12
816.89	215.19
817.21	214.74
817.53	214.95
817.85	214.81
818.17	214.76
818.48	213.98
818.80	214.55
819.12	214.38
819.44	214.02
819.76	213.71
820.07	213.62
820.39	213.71
820.71	213.67
821.03	213.81
821.34	213.26
821.66	213.67
821.98	213.98
822.30	213.83
822.61	215.05
822.93	214.86
823.25	214.62
823.57	214.43
823.88	214.74
824.20	214.81
824.52	215.19
824.83	214.95
825.15	214.86
825.47	214.86
825.79	215.02
826.10	214.95
826.42	215.05
826.74	215.38
827.05	215.29
827.37	215.55
827.69	215.57
828.00	215.93
828.32	215.71
828.64	215.45
828.95	216.52
829.27	215.69
829.58	215.69
829.90	216.21
830.22	216.26
830.53	215.79
830.85	215.57
831.17	215.10
831.48	215.21
831.80	215.14
832.11	214.76
832.43	214.38
832.75	214.48
833.06	215.79
833.38	215.00
833.69	214.86
834.01	214.74
834.32	214.52
834.64	214.43
834.96	214.45
835.27	214.24
835.59	213.64
835.90	213.31
836.22	213.36
836.53	212.88
836.85	212.88
837.16	214.88
837.48	214.95
837.79	215.55
838.11	215.69
838.42	215.76
838.74	216.10
839.05	215.93
839.37	215.83
839.68	214.76
840.00	214.83
840.31	215.19
840.63	215.10
840.94	215.12
841.26	215.21
841.57	215.19
841.88	215.52
842.20	215.26
842.51	215.17
842.83	215.10
843.14	217.17
843.46	217.24
843.77	216.40
844.08	216.31
844.40	215.76
844.71	215.52
845.03	215.38
845.34	215.24
845.65	215.50
845.97	215.55
846.28	215.07
846.60	215.17
846.91	214.81
847.22	214.83
847.54	215.24
847.85	215.14
848.16	215.07
848.48	214.74
848.79	215.71
849.10	215.86
849.42	216.12
849.73	214.12
850.04	214.00
850.36	212.88
850.67	213.21
850.98	213.57
851.30	213.90
851.61	213.81
851.92	213.69
852.23	214.05
852.55	214.19
852.86	214.52
853.17	214.76
853.49	215.10
853.80	215.48
854.11	215.71
854.42	215.93
854.74	215.64
855.05	215.60
855.36	214.10
855.67	214.38
855.99	214.07
856.30	216.62
856.61	216.57
856.92	216.74
857.23	216.69
857.55	216.17
857.86	215.71
858.17	216.21
858.48	215.98
858.79	215.62
859.11	215.90
859.42	215.74
859.73	215.64
860.04	215.88
860.35	215.31
860.66	214.67
860.98	214.50
861.29	214.64
861.60	214.60
861.91	215.19
862.22	214.64
862.53	214.50
862.84	211.88
863.16	212.31
863.47	212.07
863.78	211.79
864.09	212.00
864.40	212.31
864.71	212.31
865.02	212.45
865.33	212.33
865.64	211.83
865.95	211.81
866.27	212.71
866.58	212.33
866.89	212.60
867.20	212.83
867.51	212.69
867.82	212.64
868.13	213.26
868.44	213.00
868.75	213.69
869.06	213.79
869.37	214.10
869.68	213.33
869.99	213.76
870.30	213.74
870.61	214.00
870.92	213.52
871.23	213.02
871.54	213.50
871.85	213.69
872.16	213.86
872.47	213.93
872.78	212.86
873.09	212.98
873.40	212.55
873.71	212.55
874.02	212.57
874.33	212.43
874.64	211.95
874.95	212.45
875.26	211.86
875.56	211.64
875.87	211.50
876.18	211.52
876.49	213.29
876.80	213.07
877.11	212.62
877.42	212.74
877.73	212.83
878.04	212.48
878.35	212.62
878.66	212.83
878.96	212.69
879.27	212.64
879.58	212.50
879.89	212.45
880.20	212.86
880.51	212.83
880.82	212.83
881.12	213.02
881.43	212.62
881.74	212.50
882.05	212.60
882.36	212.86
882.67	213.21
882.97	211.24
883.28	211.33
883.59	211.38
883.90	211.62
884.21	211.95
884.51	211.86
884.82	211.45
885.13	211.21
885.44	211.36
885.74	211.36
886.05	211.29
886.36	211.48
886.67	210.79
886.98	211.67
887.28	212.02
887.59	211.88
887.90	211.95
888.20	211.81
888.51	212.38
888.82	212.21
889.13	212.31
889.43	213.90
889.74	213.79
890.05	213.64
890.35	213.50
890.66	213.14
890.97	212.81
891.28	212.76
891.58	212.83
891.89	212.74
892.20	212.62
892.50	212.57
892.81	212.52
893.12	212.60
893.42	211.57
893.73	211.43
894.04	211.62
894.34	211.62
894.65	212.07
894.95	211.52
895.26	211.64
895.57	212.40
895.87	210.48
896.18	210.71
896.48	210.93
896.79	210.93
897.10	211.21
897.40	211.45
897.71	211.69
898.01	211.81
898.32	212.12
898.63	211.90
898.93	212.14
899.24	212.12
899.54	212.02
899.85	212.26
900.15	212.14
900.46	211.86
900.76	212.12
901.07	211.67
901.38	211.90
901.68	211.83
901.99	210.90
902.29	210.95
902.60	210.86
902.90	210.62
903.21	210.52
903.51	210.43
903.82	210.81
904.12	210.79
904.43	210.86
904.73	210.55
905.03	210.98
905.34	213.05
905.64	212.88
905.95	212.95
906.25	212.98
906.56	213.10
906.86	213.36
907.17	213.05
907.47	213.19
907.77	212.93
908.08	212.43
908.38	212.52
908.69	212.98
908.99	213.24
909.30	213.45
909.60	213.57
909.90	213.76
910.21	213.29
910.51	213.02
910.81	213.00
911.12	213.14
911.42	212.88
911.73	210.67
912.03	210.86
912.33	211.07
912.64	210.98
912.94	210.76
913.24	210.40
913.55	210.29
913.85	210.26
914.15	210.79
914.46	211.55
914.76	211.31
915.06	211.07
915.37	210.60
915.67	210.43
915.97	210.29
916.27	209.90
916.58	210.00
916.88	209.86
917.18	209.74
917.49	211.10
917.79	211.12
918.09	211.36
918.39	211.98
918.70	211.95
919.00	211.93
919.30	212.83
919.60	212.67
919.91	212.62
920.21	212.79
920.51	212.29
920.81	211.93
921.12	212.26
921.42	212.26
921.72	212.62
922.02	212.79
922.32	213.31
922.63	213.48
922.93	214.67
923.23	215.05
923.53	214.69
923.83	213.31
924.13	213.57
924.44	213.55
924.74	213.69
925.04	214.19
925.34	214.26
925.64	213.48
925.94	213.52
926.24	214.67
926.55	214.38
926.85	214.79
927.15	214.69
927.45	214.67
927.75	214.64
928.05	214.60
928.35	214.38
928.65	214.64
928.95	214.81
929.26	213.88
929.56	214.12
929.86	214.45
930.16	214.48
930.46	214.33
930.76	214.43
931.06	213.86
931.36	213.43
931.66	213.57
931.96	213.64
932.26	213.95
932.56	213.19
932.86	213.57
933.16	213.60
933.46	213.67
933.76	213.43
934.06	213.95
934.36	214.71
934.66	214.74
934.96	214.50
935.26	214.43
935.56	214.57
935.86	213.98
936.16	213.69
936.46	213.43
936.76	213.62
937.06	213.38
937.36	213.38
937.66	213.40
937.96	213.40
938.26	213.12
938.56	213.00
938.86	213.17
939.16	213.55
939.46	213.79
939.76	213.86
940.06	213.98
940.35	213.21
940.65	212.19
940.95	212.48
941.25	212.02
941.55	212.07
941.85	212.07
942.15	212.90
942.45	213.40
942.75	213.36
943.04	213.14
943.34	213.67
943.64	213.45
943.94	212.98
944.24	212.93
944.54	213.19
944.84	213.02
945.13	212.60
945.43	212.36
945.73	212.00
946.03	211.71
946.33	211.36
946.62	211.33
946.92	211.33
947.22	211.57
947.52	211.62
947.82	211.64
948.11	211.19
948.41	210.50
948.71	210.14
949.01	210.33
949.31	210.29
949.60	210.02
949.90	210.19
950.20	210.21
950.50	210.12
950.79	209.69
951.09	209.88
951.39	209.90
951.69	209.38
951.98	209.62
952.28	209.71
952.58	209.93
952.87	210.26
953.17	210.52
953.47	210.10
953.76	210.07
954.06	209.71
954.36	209.69
954.66	209.50
954.95	209.81
955.25	209.90
955.55	209.95
955.84	209.33
956.14	209.52
956.44	209.64
956.73	209.45
957.03	209.86
957.32	209.95
957.62	209.74
957.92	210.36
958.21	210.29
958.51	212.74
958.81	212.83
959.10	212.90
959.40	213.36
959.69	213.48
959.99	213.81
960.29	213.71
960.58	213.69
960.88	214.71
961.17	214.64
961.47	214.90
961.76	214.88
962.06	215.57
962.36	215.38
962.65	215.62
962.95	215.69
963.24	215.36
963.54	215.60
963.83	215.81
964.13	215.67
964.42	215.00
964.72	213.31
965.01	213.50
965.31	213.14
965.60	212.50
965.90	213.83
966.19	213.57
966.49	213.90
966.78	213.83
967.08	213.50
967.37	213.48
967.67	213.14
967.96	213.48
968.26	213.33
968.55	213.57
968.85	213.24
969.14	213.17
969.43	213.26
969.73	212.83
970.02	212.57
970.32	212.38
970.61	212.60
970.91	211.90
971.20	211.36
971.49	211.43
971.79	212.00
972.08	210.52
972.38	210.17
972.67	209.98
972.96	210.45
973.26	209.98
973.55	210.81
973.85	210.83
974.14	210.52
974.43	210.74
974.73	210.36
975.02	210.26
975.31	210.21
975.61	210.05
975.90	209.98
976.19	210.02
976.49	210.07
976.78	210.40
977.07	210.40
977.37	210.74
977.66	210.95
977.95	210.29
978.24	210.55
978.54	211.26
978.83	210.98
979.12	210.83
979.42	211.05
979.71	210.43
980.00	210.38
980.29	210.52
980.59	210.02
980.88	210.62
981.17	210.67
981.46	210.90
981.76	211.07
982.05	211.79
982.34	211.93
982.63	211.98
982.93	211.86
983.22	212.43
983.51	212.40
983.80	212.76
984.09	213.24
984.39	213.02
984.68	212.64
984.97	213.07
985.26	212.79
985.55	212.81
985.85	212.31
986.14	212.52
986.43	212.95
986.72	212.88
987.01	212.19
987.30	212.14
987.59	211.83
987.89	211.88
988.18	211.12
988.47	211.02
988.76	210.93
989.05	210.62
989.34	210.21
989.63	210.79
989.92	210.38
990.22	210.26
990.51	210.26
990.80	210.40
991.09	210.43
991.38	210.79
991.67	210.76
991.96	210.74
992.25	210.55
992.54	210.07
992.83	210.36
993.12	210.21
993.41	210.71
993.70	211.60
993.99	212.14
994.28	212.48
994.58	212.71
994.87	212.60
995.16	212.50
995.45	212.33
995.74	211.62
996.03	211.71
996.32	211.90
996.61	212.24
996.90	212.05
997.19	211.93
997.48	211.88
997.77	211.67
998.06	211.86
998.34	212.02
998.63	211.81
998.92	211.45
999.21	211.88
999.50	211.71
999.79	210.93
1000.08	210.69
1000.37	210.57
1000.66	210.07
1000.95	210.52
1001.24	210.69
1001.53	210.86
1001.82	211.00
1002.11	210.60
1002.40	210.64
1002.68	211.12
1002.97	212.60
1003.26	212.45
1003.55	212.12
1003.84	212.26
1004.13	212.76
1004.42	212.52
1004.71	212.60
1004.99	212.76
1005.28	213.17
1005.57	213.00
1005.86	212.95
1006.15	212.86
1006.44	212.71
1006.72	213.24
1007.01	212.98
1007.30	213.07
1007.59	213.10
1007.88	212.90
1008.17	213.31
1008.45	213.05
1008.74	211.93
1009.03	210.74
1009.32	210.69
1009.60	210.62
1009.89	210.52
1010.18	209.81
1010.47	209.64
1010.76	209.60
1011.04	209.45
1011.33	209.50
1011.62	209.88
1011.91	209.95
1012.19	209.88
1012.48	209.90
1012.77	210.10
1013.05	211.02
1013.34	211.07
1013.63	210.90
1013.92	211.10
1014.20	210.83
1014.49	210.83
1014.78	211.10
1015.06	210.69
1015.35	210.52
1015.64	210.98
1015.92	211.29
1016.21	211.38
1016.50	211.26
1016.78	211.62
1017.07	211.69
1017.36	211.33
1017.64	210.83
1017.93	211.17
1018.22	211.07
1018.50	211.24
1018.79	210.81
1019.08	209.67
1019.36	209.64
1019.65	209.62
1019.93	210.00
1020.22	210.26
1020.51	211.36
1020.79	211.36
1021.08	208.50
1021.36	211.00
1021.65	208.50
1021.94	207.50
1022.22	210.50
1022.51	209.50
1022.79	218.50
1023.08	213.00
1023.36	235.50
1023.65	207.00
>>>>>End Processed Spectral Data<<<<<
