SpectraSuite Data File
++++++++++++++++++++++++++++++++++++
Date: Tue Apr 02 18:38:32 EDT 2013
User: group
Dark Spectrum Present: No
Reference Spectrum Present: No
Number of Sampled Component Spectra: 1
Spectrometers: USB2E7196
Integration Time (usec): 580000 (USB2E7196)
Spectra Averaged: 2 (USB2E7196)
Boxcar Smoothing: 10 (USB2E7196)
Correct for Electrical Dark: No (USB2E7196)
Strobe/Lamp Enabled: No (USB2E7196)
Correct for Detector Non-linearity: No (USB2E7196)
Correct for Stray Light: No (USB2E7196)
Number of Pixels in Processed Spectrum: 2048
>>>>>Begin Processed Spectral Data<<<<<
339.09	0.00
339.48	195.00
339.86	195.00
340.24	200.50
340.63	200.50
341.01	232.00
341.39	203.00
341.78	205.00
342.16	215.00
342.54	206.50
342.93	198.95
343.31	208.98
343.69	209.36
344.07	209.76
344.46	210.33
344.84	210.88
345.22	209.76
345.60	210.29
345.99	210.62
346.37	210.33
346.75	210.45
347.13	210.50
347.52	210.40
347.90	210.86
348.28	211.00
348.66	211.60
349.05	210.88
349.43	210.74
349.81	211.02
350.19	210.81
350.57	210.95
350.96	210.98
351.34	210.88
351.72	211.10
352.10	211.19
352.48	211.02
352.87	211.00
353.25	210.98
353.63	210.83
354.01	210.71
354.39	210.69
354.77	210.45
355.15	210.98
355.54	210.93
355.92	210.33
356.30	210.33
356.68	211.57
357.06	211.93
357.44	211.86
357.82	211.60
358.20	212.52
358.58	212.52
358.97	212.71
359.35	213.05
359.73	213.50
360.11	213.57
360.49	213.60
360.87	213.43
361.25	213.67
361.63	214.14
362.01	214.24
362.39	214.29
362.77	214.48
363.15	214.19
363.53	214.31
363.91	214.50
364.29	214.38
364.67	212.33
365.05	212.14
365.43	212.55
365.81	213.24
366.19	213.29
366.57	214.14
366.95	214.14
367.33	213.90
367.71	213.81
368.09	214.29
368.47	214.29
368.85	214.31
369.23	214.81
369.61	214.33
369.99	215.05
370.37	215.36
370.75	216.55
371.13	216.31
371.51	216.05
371.89	216.31
372.27	216.48
372.65	216.98
373.03	217.38
373.41	217.10
373.78	216.79
374.16	215.88
374.54	214.98
374.92	214.71
375.30	214.81
375.68	214.48
376.06	214.69
376.44	214.93
376.82	215.14
377.19	215.02
377.57	214.88
377.95	214.19
378.33	214.02
378.71	212.88
379.09	213.00
379.47	213.38
379.84	213.40
380.22	213.31
380.60	213.10
380.98	212.67
381.36	212.62
381.73	212.36
382.11	212.60
382.49	213.07
382.87	212.79
383.25	212.95
383.62	215.21
384.00	214.64
384.38	214.52
384.76	215.00
385.13	215.67
385.51	215.79
385.89	215.45
386.27	215.55
386.64	216.00
387.02	215.90
387.40	215.79
387.78	215.62
388.15	215.81
388.53	215.67
388.91	215.81
389.29	215.86
389.66	216.14
390.04	215.90
390.42	216.19
390.79	216.71
391.17	216.40
391.55	214.38
391.92	214.48
392.30	214.76
392.68	214.24
393.05	214.00
393.43	214.19
393.81	214.52
394.18	214.40
394.56	214.50
394.94	214.88
395.31	214.62
395.69	215.10
396.06	215.33
396.44	215.69
396.82	215.57
397.19	216.50
397.57	216.36
397.95	216.98
398.32	216.24
398.70	216.36
399.07	217.07
399.45	216.93
399.82	216.98
400.20	216.69
400.58	216.90
400.95	216.24
401.33	216.69
401.70	218.14
402.08	218.10
402.45	217.83
402.83	218.52
403.20	218.86
403.58	218.88
403.95	219.52
404.33	219.71
404.71	220.19
405.08	221.60
405.46	222.14
405.83	222.50
406.21	223.00
406.58	223.52
406.96	223.62
407.33	224.55
407.70	225.48
408.08	227.81
408.45	228.55
408.83	229.81
409.20	230.24
409.58	229.93
409.95	231.31
410.33	232.50
410.70	232.95
411.08	234.14
411.45	235.43
411.82	236.14
412.20	237.98
412.57	240.81
412.95	240.81
413.32	242.74
413.69	244.43
414.07	246.24
414.44	248.07
414.82	250.64
415.19	253.24
415.56	255.81
415.94	257.33
416.31	260.69
416.68	263.81
417.06	267.57
417.43	271.50
417.81	275.74
418.18	280.12
418.55	284.36
418.93	289.31
419.30	294.05
419.67	299.33
420.04	304.29
420.42	309.00
420.79	316.60
421.16	322.95
421.54	330.57
421.91	338.10
422.28	345.38
422.66	352.95
423.03	362.14
423.40	370.24
423.77	378.74
424.15	387.10
424.52	396.71
424.89	406.60
425.26	415.50
425.64	424.12
426.01	433.90
426.38	444.67
426.75	455.50
427.13	466.83
427.50	478.36
427.87	490.10
428.24	501.86
428.61	511.98
428.99	525.67
429.36	538.12
429.73	551.29
430.10	565.02
430.47	578.71
430.85	591.64
431.22	606.81
431.59	624.14
431.96	639.21
432.33	655.26
432.70	671.17
433.08	690.90
433.45	709.45
433.82	727.50
434.19	747.69
434.56	767.60
434.93	785.74
435.30	805.00
435.68	826.21
436.05	847.00
436.42	867.60
436.79	886.31
437.16	907.07
437.53	929.12
437.90	950.00
438.27	971.79
438.64	993.05
439.01	1013.74
439.38	1030.48
439.75	1048.36
440.13	1068.52
440.50	1087.14
440.87	1102.33
441.24	1118.38
441.61	1136.00
441.98	1148.69
442.35	1163.24
442.72	1179.26
443.09	1195.14
443.46	1205.02
443.83	1210.86
444.20	1216.60
444.57	1223.67
444.94	1227.50
445.31	1231.43
445.68	1238.60
446.05	1240.07
446.42	1239.14
446.79	1237.50
447.16	1235.55
447.53	1233.95
447.90	1226.14
448.27	1219.33
448.64	1209.07
449.01	1201.43
449.37	1188.50
449.74	1175.67
450.11	1162.19
450.48	1144.52
450.85	1126.02
451.22	1110.43
451.59	1096.40
451.96	1082.48
452.33	1063.98
452.70	1047.21
453.07	1027.07
453.43	1003.79
453.80	984.29
454.17	965.00
454.54	946.33
454.91	927.05
455.28	908.31
455.65	891.45
456.02	876.76
456.38	861.43
456.75	843.10
457.12	826.74
457.49	811.93
457.86	795.10
458.23	783.05
458.59	768.38
458.96	754.07
459.33	741.31
459.70	728.95
460.07	719.21
460.43	708.17
460.80	697.50
461.17	688.60
461.54	678.76
461.91	669.26
462.27	659.50
462.64	651.00
463.01	641.98
463.38	633.50
463.74	621.50
464.11	613.81
464.48	606.93
464.85	599.90
465.21	594.14
465.58	588.36
465.95	580.52
466.32	574.64
466.68	568.21
467.05	562.48
467.42	556.64
467.78	549.93
468.15	543.79
468.52	539.40
468.88	532.81
469.25	527.24
469.62	523.33
469.98	518.90
470.35	514.45
470.72	510.57
471.08	505.31
471.45	502.21
471.82	499.36
472.18	495.00
472.55	492.05
472.92	487.50
473.28	483.98
473.65	481.02
474.02	478.02
474.38	475.71
474.75	473.57
475.11	470.86
475.48	469.02
475.85	467.14
476.21	465.00
476.58	463.36
476.94	461.83
477.31	459.95
477.67	458.29
478.04	457.36
478.41	456.52
478.77	458.10
479.14	456.88
479.50	455.74
479.87	455.81
480.23	455.29
480.60	455.26
480.96	454.62
481.33	455.26
481.69	455.40
482.06	455.81
482.42	456.33
482.79	456.81
483.15	457.33
483.52	458.64
483.88	458.93
484.25	460.14
484.61	461.55
484.98	462.79
485.34	464.79
485.71	466.88
486.07	468.38
486.44	468.24
486.80	470.02
487.17	472.05
487.53	474.48
487.90	476.90
488.26	480.31
488.62	484.31
488.99	487.12
489.35	490.57
489.72	494.02
490.08	497.24
490.44	501.05
490.81	505.21
491.17	508.62
491.54	513.52
491.90	518.33
492.26	522.76
492.63	527.43
492.99	531.76
493.36	536.38
493.72	542.10
494.08	547.29
494.45	553.40
494.81	559.98
495.17	565.79
495.54	572.55
495.90	578.69
496.26	584.64
496.63	591.36
496.99	598.48
497.35	605.19
497.72	613.05
498.08	620.21
498.44	628.24
498.80	636.74
499.17	644.67
499.53	652.64
499.89	661.43
500.26	670.43
500.62	679.50
500.98	689.14
501.34	698.05
501.71	707.98
502.07	717.24
502.43	726.14
502.79	735.55
503.16	744.60
503.52	754.02
503.88	763.12
504.24	773.21
504.60	783.40
504.97	793.93
505.33	803.33
505.69	814.83
506.05	824.79
506.41	834.52
506.78	844.79
507.14	854.67
507.50	864.88
507.86	875.88
508.22	886.81
508.59	896.71
508.95	907.45
509.31	918.71
509.67	929.24
510.03	939.55
510.39	950.43
510.75	962.00
511.12	972.45
511.48	984.43
511.84	994.86
512.20	1005.21
512.56	1016.36
512.92	1027.95
513.28	1038.29
513.64	1049.76
514.00	1060.81
514.37	1071.69
514.73	1083.33
515.09	1094.76
515.45	1104.76
515.81	1114.52
516.17	1124.98
516.53	1134.62
516.89	1144.29
517.25	1154.76
517.61	1165.98
517.97	1176.29
518.33	1185.29
518.69	1196.52
519.05	1206.90
519.41	1217.33
519.77	1228.24
520.13	1238.12
520.49	1247.14
520.85	1256.64
521.21	1266.48
521.57	1275.57
521.93	1284.12
522.29	1292.81
522.65	1301.05
523.01	1310.86
523.37	1319.67
523.73	1328.55
524.09	1337.95
524.45	1345.90
524.81	1354.45
525.17	1361.86
525.53	1370.64
525.89	1379.24
526.25	1386.40
526.61	1393.07
526.97	1399.95
527.33	1407.05
527.68	1415.76
528.04	1422.74
528.40	1429.33
528.76	1435.74
529.12	1442.95
529.48	1450.71
529.84	1457.29
530.20	1464.50
530.56	1470.29
530.91	1477.62
531.27	1484.12
531.63	1491.07
531.99	1497.98
532.35	1504.07
532.71	1510.40
533.07	1515.74
533.42	1524.17
533.78	1531.38
534.14	1538.31
534.50	1545.14
534.86	1551.83
535.21	1556.07
535.57	1563.50
535.93	1570.00
536.29	1576.69
536.65	1582.86
537.00	1588.67
537.36	1594.67
537.72	1599.79
538.08	1605.48
538.44	1609.98
538.79	1615.83
539.15	1619.93
539.51	1625.31
539.87	1630.52
540.22	1636.14
540.58	1641.98
540.94	1644.83
541.29	1648.33
541.65	1651.64
542.01	1655.81
542.37	1659.17
542.72	1662.07
543.08	1663.74
543.44	1667.69
543.79	1670.29
544.15	1673.74
544.51	1677.76
544.87	1681.26
545.22	1684.86
545.58	1688.17
545.94	1692.07
546.29	1693.86
546.65	1697.21
547.01	1699.14
547.36	1702.10
547.72	1703.93
548.07	1706.36
548.43	1708.21
548.79	1710.71
549.14	1713.38
549.50	1715.83
549.86	1717.05
550.21	1720.86
550.57	1724.57
550.92	1725.21
551.28	1726.67
551.64	1729.10
551.99	1729.60
552.35	1731.62
552.70	1732.93
553.06	1734.38
553.41	1735.26
553.77	1739.00
554.13	1741.52
554.48	1743.21
554.84	1745.88
555.19	1747.71
555.55	1749.79
555.90	1752.21
556.26	1752.86
556.61	1753.79
556.97	1753.62
557.32	1755.43
557.68	1755.67
558.03	1756.19
558.39	1758.26
558.74	1759.36
559.10	1758.83
559.45	1760.24
559.81	1760.33
560.16	1761.00
560.52	1762.21
560.87	1762.86
561.23	1760.98
561.58	1762.60
561.94	1763.10
562.29	1762.14
562.64	1762.95
563.00	1761.79
563.35	1760.71
563.71	1761.88
564.06	1762.64
564.42	1764.36
564.77	1764.69
565.12	1766.24
565.48	1768.67
565.83	1769.62
566.19	1770.19
566.54	1771.52
566.89	1771.19
567.25	1772.12
567.60	1773.83
567.96	1775.21
568.31	1777.29
568.66	1778.81
569.02	1776.60
569.37	1776.17
569.72	1776.12
570.08	1775.24
570.43	1775.24
570.78	1775.79
571.14	1774.71
571.49	1773.95
571.84	1772.98
572.20	1771.55
572.55	1770.43
572.90	1767.48
573.26	1765.57
573.61	1763.86
573.96	1762.17
574.31	1760.95
574.67	1758.98
575.02	1755.29
575.37	1751.90
575.72	1748.24
576.08	1745.76
576.43	1742.67
576.78	1740.02
577.13	1736.79
577.49	1733.69
577.84	1731.00
578.19	1728.29
578.54	1726.79
578.90	1723.98
579.25	1720.29
579.60	1717.26
579.95	1712.43
580.30	1708.83
580.66	1704.57
581.01	1700.43
581.36	1696.24
581.71	1691.90
582.06	1689.12
582.42	1686.17
582.77	1681.40
583.12	1676.86
583.47	1672.50
583.82	1669.17
584.17	1665.62
584.53	1662.31
584.88	1658.17
585.23	1653.79
585.58	1648.17
585.93	1642.10
586.28	1637.26
586.63	1633.67
586.98	1629.21
587.34	1625.33
587.69	1621.02
588.04	1616.55
588.39	1612.12
588.74	1606.69
589.09	1602.74
589.44	1595.45
589.79	1589.83
590.14	1586.07
590.49	1580.50
590.84	1575.24
591.19	1570.29
591.54	1564.69
591.89	1558.40
592.25	1554.60
592.60	1548.83
592.95	1544.24
593.30	1539.14
593.65	1533.10
594.00	1525.81
594.35	1525.98
594.70	1519.93
595.05	1514.17
595.40	1507.90
595.75	1502.21
596.10	1497.60
596.45	1491.33
596.80	1486.64
597.15	1481.62
597.50	1473.98
597.85	1469.19
598.19	1463.02
598.54	1456.57
598.89	1450.43
599.24	1445.93
599.59	1439.00
599.94	1432.81
600.29	1427.21
600.64	1422.00
600.99	1417.29
601.34	1413.14
601.69	1401.60
602.04	1394.93
602.39	1388.07
602.74	1383.45
603.08	1377.76
603.43	1372.64
603.78	1367.29
604.13	1361.69
604.48	1355.21
604.83	1350.55
605.18	1344.71
605.53	1339.05
605.87	1333.10
606.22	1327.43
606.57	1320.83
606.92	1315.17
607.27	1310.14
607.62	1303.62
607.96	1297.17
608.31	1291.62
608.66	1285.19
609.01	1279.31
609.36	1274.64
609.70	1269.69
610.05	1263.76
610.40	1258.12
610.75	1250.60
611.10	1244.48
611.44	1238.07
611.79	1231.60
612.14	1225.57
612.49	1219.43
612.83	1213.52
613.18	1207.52
613.53	1201.48
613.88	1194.79
614.22	1188.52
614.57	1181.57
614.92	1175.52
615.27	1169.98
615.61	1163.29
615.96	1156.69
616.31	1149.81
616.65	1144.55
617.00	1138.60
617.35	1132.00
617.70	1125.55
618.04	1119.98
618.39	1113.98
618.74	1108.57
619.08	1102.83
619.43	1096.81
619.78	1091.12
620.12	1085.52
620.47	1080.19
620.82	1074.38
621.16	1068.67
621.51	1064.36
621.85	1058.57
622.20	1052.57
622.55	1045.88
622.89	1040.21
623.24	1035.21
623.59	1029.86
623.93	1023.60
624.28	1018.29
624.62	1015.10
624.97	1011.29
625.32	1005.19
625.66	999.81
626.01	993.81
626.35	988.57
626.70	983.29
627.04	978.79
627.39	973.43
627.73	968.69
628.08	963.95
628.43	958.81
628.77	952.12
629.12	947.88
629.46	943.21
629.81	938.52
630.15	932.50
630.50	926.40
630.84	921.50
631.19	915.76
631.53	909.76
631.88	901.64
632.22	894.69
632.57	890.55
632.91	884.52
633.26	879.57
633.60	873.74
633.95	867.14
634.29	861.05
634.64	855.76
634.98	850.26
635.32	845.60
635.67	840.57
636.01	835.10
636.36	829.40
636.70	825.00
637.05	820.17
637.39	816.05
637.73	811.40
638.08	806.88
638.42	802.29
638.77	797.79
639.11	793.00
639.45	788.26
639.80	783.17
640.14	779.07
640.49	773.62
640.83	769.50
641.17	765.36
641.52	760.38
641.86	755.67
642.20	751.24
642.55	745.71
642.89	740.57
643.23	736.36
643.58	732.07
643.92	726.38
644.26	720.88
644.61	715.88
644.95	711.24
645.29	705.71
645.64	701.31
645.98	696.10
646.32	692.33
646.66	687.26
647.01	682.52
647.35	677.69
647.69	673.45
648.04	669.10
648.38	665.24
648.72	661.12
649.06	656.26
649.41	651.36
649.75	646.74
650.09	642.69
650.43	637.57
650.78	632.86
651.12	628.88
651.46	624.95
651.80	620.52
652.14	616.21
652.49	612.88
652.83	608.26
653.17	604.40
653.51	599.48
653.85	596.29
654.20	592.19
654.54	587.74
654.88	583.69
655.22	580.43
655.56	575.83
655.90	571.81
656.25	568.31
656.59	564.52
656.93	560.83
657.27	557.95
657.61	554.19
657.95	551.00
658.29	547.10
658.64	544.02
658.98	540.45
659.32	537.07
659.66	533.21
660.00	530.02
660.34	526.69
660.68	523.57
661.02	519.93
661.36	516.43
661.70	513.67
662.05	510.26
662.39	506.76
662.73	504.48
663.07	501.88
663.41	498.40
663.75	495.05
664.09	492.19
664.43	488.24
664.77	485.71
665.11	482.12
665.45	479.26
665.79	476.36
666.13	473.57
666.47	470.52
666.81	467.83
667.15	464.69
667.49	462.02
667.83	460.12
668.17	457.62
668.51	455.07
668.85	452.31
669.19	450.95
669.53	447.45
669.87	444.67
670.21	441.69
670.55	439.40
670.89	437.90
671.23	435.38
671.57	433.12
671.91	430.90
672.25	429.10
672.58	428.21
672.92	425.31
673.26	423.57
673.60	421.71
673.94	419.76
674.28	417.98
674.62	416.14
674.96	413.50
675.30	411.57
675.64	409.57
675.97	407.83
676.31	404.95
676.65	402.90
676.99	401.62
677.33	399.48
677.67	397.76
678.01	395.00
678.34	393.21
678.68	391.83
679.02	389.52
679.36	387.12
679.70	384.07
680.04	382.57
680.37	380.36
680.71	378.33
681.05	376.57
681.39	374.83
681.73	372.67
682.06	371.00
682.40	369.12
682.74	367.81
683.08	366.62
683.42	364.79
683.75	363.64
684.09	361.40
684.43	359.83
684.77	358.12
685.10	356.38
685.44	354.98
685.78	353.17
686.12	352.12
686.45	350.86
686.79	348.88
687.13	347.57
687.46	345.98
687.80	345.24
688.14	343.62
688.48	342.31
688.81	341.21
689.15	340.17
689.49	338.57
689.82	336.98
690.16	334.76
690.50	333.48
690.83	331.81
691.17	330.24
691.51	328.83
691.84	327.79
692.18	326.81
692.52	325.33
692.85	324.36
693.19	323.71
693.52	322.55
693.86	321.69
694.20	320.60
694.53	319.50
694.87	317.74
695.21	316.43
695.54	315.40
695.88	313.57
696.21	311.64
696.55	310.79
696.88	309.83
697.22	308.81
697.56	307.95
697.89	307.00
698.23	306.33
698.56	305.21
698.90	304.45
699.23	303.14
699.57	302.17
699.90	300.90
700.24	299.17
700.58	298.19
700.91	297.52
701.25	297.95
701.58	297.76
701.92	297.31
702.25	296.43
702.59	295.00
702.92	294.43
703.26	293.76
703.59	292.79
703.93	293.64
704.26	293.17
704.60	292.29
704.93	291.45
705.26	290.40
705.60	290.17
705.93	288.52
706.27	288.48
706.60	288.36
706.94	288.33
707.27	287.48
707.61	286.52
707.94	285.62
708.27	283.43
708.61	281.86
708.94	280.86
709.28	280.31
709.61	279.52
709.94	279.17
710.28	278.71
710.61	278.02
710.95	275.10
711.28	275.52
711.61	274.86
711.95	274.40
712.28	273.40
712.61	272.43
712.95	273.17
713.28	273.17
713.61	271.95
713.95	270.62
714.28	270.48
714.61	270.00
714.95	269.24
715.28	268.14
715.61	267.64
715.95	267.12
716.28	266.10
716.61	266.12
716.95	265.21
717.28	264.55
717.61	263.83
717.94	263.71
718.28	261.74
718.61	261.02
718.94	260.29
719.27	260.02
719.61	259.29
719.94	257.93
720.27	256.29
720.60	255.69
720.94	255.29
721.27	254.69
721.60	254.43
721.93	254.05
722.27	254.69
722.60	254.67
722.93	253.98
723.26	253.93
723.59	253.02
723.93	252.93
724.26	252.83
724.59	252.38
724.92	252.10
725.25	252.31
725.59	251.86
725.92	251.81
726.25	251.17
726.58	251.10
726.91	250.71
727.24	250.52
727.57	250.29
727.91	249.55
728.24	249.17
728.57	248.29
728.90	247.93
729.23	246.67
729.56	247.17
729.89	246.95
730.22	246.40
730.55	246.12
730.89	245.81
731.22	245.29
731.55	245.05
731.88	244.86
732.21	243.98
732.54	243.52
732.87	243.24
733.20	243.38
733.53	243.12
733.86	243.05
734.19	242.57
734.52	242.45
734.85	243.81
735.18	243.36
735.51	244.05
735.84	243.95
736.17	244.26
736.50	242.86
736.83	244.98
737.16	244.62
737.49	244.48
737.82	243.90
738.15	243.64
738.48	243.57
738.81	243.17
739.14	242.81
739.47	242.76
739.80	242.07
740.13	242.00
740.46	241.60
740.79	241.12
741.12	240.93
741.45	240.29
741.78	238.83
742.11	239.29
742.44	238.55
742.77	238.52
743.10	237.93
743.43	237.60
743.75	235.17
744.08	237.79
744.41	237.24
744.74	236.95
745.07	236.38
745.40	236.45
745.73	236.95
746.06	236.95
746.39	237.10
746.71	237.02
747.04	236.26
747.37	235.90
747.70	235.93
748.03	235.79
748.36	236.05
748.68	235.76
749.01	234.74
749.34	234.74
749.67	234.50
750.00	234.57
750.33	236.07
750.65	236.14
750.98	233.45
751.31	233.79
751.64	233.76
751.97	235.07
752.29	234.50
752.62	233.40
752.95	233.07
753.28	232.52
753.60	232.21
753.93	232.93
754.26	232.76
754.59	232.14
754.91	231.67
755.24	231.26
755.57	231.00
755.90	230.64
756.22	230.07
756.55	229.64
756.88	229.19
757.20	227.52
757.53	226.69
757.86	226.29
758.19	225.98
758.51	225.74
758.84	224.26
759.17	223.88
759.49	223.74
759.82	224.52
760.15	224.45
760.47	224.48
760.80	223.55
761.13	223.95
761.45	224.05
761.78	223.98
762.11	223.76
762.43	223.55
762.76	223.33
763.08	223.38
763.41	223.40
763.74	223.26
764.06	223.00
764.39	223.05
764.71	223.14
765.04	222.86
765.37	222.71
765.69	223.02
766.02	223.02
766.34	222.76
766.67	221.93
767.00	222.38
767.32	223.50
767.65	224.69
767.97	224.40
768.30	224.43
768.62	224.57
768.95	224.52
769.27	224.48
769.60	224.93
769.92	224.69
770.25	224.36
770.57	224.07
770.90	224.00
771.22	223.81
771.55	223.69
771.87	223.81
772.20	223.67
772.52	224.98
772.85	227.26
773.17	227.43
773.50	227.14
773.82	226.67
774.15	225.48
774.47	224.12
774.80	223.81
775.12	223.55
775.45	223.36
775.77	223.19
776.09	223.62
776.42	223.43
776.74	224.00
777.07	224.00
777.39	224.07
777.72	223.98
778.04	224.12
778.36	223.76
778.69	223.50
779.01	223.57
779.33	221.88
779.66	219.57
779.98	219.21
780.31	219.38
780.63	220.12
780.95	220.43
781.28	220.33
781.60	220.19
781.92	220.12
782.25	219.83
782.57	220.02
782.89	219.55
783.22	219.55
783.54	219.19
783.86	219.33
784.19	219.19
784.51	219.76
784.83	219.33
785.16	219.31
785.48	219.48
785.80	219.57
786.12	219.71
786.45	219.67
786.77	219.98
787.09	219.79
787.42	218.95
787.74	219.05
788.06	218.90
788.38	218.79
788.71	218.55
789.03	218.83
789.35	218.81
789.67	218.76
789.99	218.60
790.32	218.05
790.64	218.10
790.96	219.76
791.28	218.93
791.61	218.98
791.93	219.14
792.25	218.74
792.57	219.98
792.89	219.57
793.21	219.81
793.54	219.57
793.86	219.48
794.18	219.62
794.50	218.93
794.82	219.29
795.14	219.60
795.47	220.02
795.79	220.02
796.11	219.55
796.43	219.24
796.75	219.43
797.07	219.45
797.39	219.24
797.71	217.60
798.04	217.74
798.36	217.93
798.68	218.02
799.00	218.19
799.32	217.05
799.64	217.48
799.96	217.24
800.28	217.48
800.60	217.43
800.92	217.50
801.24	217.43
801.56	217.36
801.89	217.21
802.21	217.33
802.53	216.83
802.85	217.43
803.17	218.55
803.49	218.07
803.81	218.10
804.13	218.07
804.45	217.95
804.77	218.17
805.09	218.19
805.41	218.00
805.73	217.71
806.05	217.38
806.37	217.14
806.69	216.98
807.01	216.83
807.33	216.98
807.65	216.19
807.97	217.33
808.28	217.38
808.60	217.21
808.92	216.74
809.24	218.19
809.56	217.74
809.88	216.74
810.20	217.00
810.52	217.52
810.84	217.26
811.16	217.17
811.48	216.81
811.80	217.43
812.12	217.21
812.43	217.64
812.75	217.76
813.07	217.52
813.39	217.71
813.71	217.38
814.03	217.26
814.35	217.40
814.67	216.38
814.98	215.95
815.30	215.98
815.62	215.67
815.94	214.29
816.26	214.40
816.58	214.24
816.89	214.21
817.21	213.64
817.53	213.62
817.85	213.69
818.17	213.64
818.48	212.93
818.80	213.36
819.12	213.24
819.44	212.88
819.76	212.69
820.07	212.76
820.39	212.79
820.71	212.74
821.03	212.67
821.34	212.55
821.66	213.02
821.98	213.17
822.30	213.33
822.61	214.62
822.93	214.38
823.25	214.21
823.57	214.05
823.88	214.19
824.20	214.33
824.52	214.69
824.83	214.79
825.15	214.43
825.47	214.43
825.79	214.40
826.10	214.40
826.42	214.43
826.74	214.50
827.05	214.50
827.37	214.64
827.69	214.71
828.00	214.76
828.32	214.33
828.64	214.00
828.95	215.07
829.27	214.10
829.58	214.31
829.90	214.79
830.22	214.93
830.53	214.45
830.85	214.00
831.17	213.43
831.48	213.26
831.80	213.40
832.11	213.05
832.43	212.81
832.75	212.95
833.06	214.40
833.38	213.86
833.69	213.86
834.01	214.00
834.32	213.90
834.64	213.95
834.96	214.21
835.27	214.21
835.59	213.50
835.90	213.36
836.22	213.31
836.53	213.00
836.85	213.05
837.16	215.26
837.48	215.36
837.79	216.02
838.11	216.21
838.42	216.17
838.74	216.50
839.05	216.19
839.37	215.95
839.68	214.33
840.00	214.07
840.31	214.36
840.63	214.14
840.94	214.00
841.26	213.55
841.57	213.29
841.88	213.36
842.20	213.17
842.51	212.98
842.83	212.71
843.14	214.40
843.46	214.17
843.77	213.17
844.08	213.38
844.40	212.83
844.71	212.79
845.03	212.74
845.34	212.71
845.65	212.86
845.97	212.93
846.28	213.33
846.60	213.64
846.91	213.36
847.22	213.14
847.54	213.86
847.85	214.14
848.16	214.05
848.48	214.00
848.79	214.98
849.10	215.43
849.42	215.95
849.73	214.24
850.04	214.24
850.36	213.45
850.67	213.81
850.98	214.00
851.30	214.10
851.61	214.02
851.92	213.95
852.23	214.76
852.55	214.79
852.86	214.67
853.17	214.88
853.49	215.33
853.80	215.81
854.11	215.69
854.42	215.93
854.74	215.76
855.05	215.98
855.36	214.64
855.67	214.64
855.99	214.29
856.30	216.52
856.61	216.43
856.92	216.50
857.23	216.26
857.55	216.05
857.86	215.86
858.17	216.12
858.48	215.76
858.79	215.29
859.11	215.67
859.42	215.57
859.73	215.36
860.04	215.19
860.35	214.81
860.66	214.26
860.98	214.19
861.29	214.64
861.60	214.07
861.91	214.57
862.22	214.31
862.53	214.14
862.84	211.79
863.16	212.43
863.47	211.98
863.78	211.67
864.09	211.69
864.40	212.19
864.71	212.26
865.02	212.67
865.33	212.38
865.64	211.90
865.95	211.74
866.27	213.07
866.58	212.71
866.89	212.76
867.20	212.76
867.51	212.43
867.82	212.31
868.13	213.38
868.44	212.90
868.75	213.33
869.06	213.52
869.37	213.90
869.68	213.07
869.99	213.67
870.30	214.00
870.61	214.31
870.92	213.74
871.23	213.48
871.54	213.48
871.85	213.93
872.16	214.12
872.47	214.19
872.78	212.83
873.09	213.12
873.40	213.02
873.71	213.12
874.02	213.48
874.33	213.19
874.64	212.50
874.95	212.93
875.26	212.50
875.56	212.38
875.87	212.29
876.18	212.52
876.49	214.48
876.80	214.29
877.11	213.64
877.42	213.81
877.73	213.93
878.04	213.71
878.35	213.57
878.66	213.79
878.96	213.55
879.27	213.69
879.58	213.67
879.89	213.62
880.20	214.19
880.51	213.98
880.82	214.02
881.12	214.14
881.43	213.74
881.74	213.52
882.05	213.24
882.36	213.21
882.67	213.48
882.97	211.33
883.28	211.10
883.59	211.19
883.90	211.26
884.21	211.55
884.51	211.48
884.82	211.24
885.13	210.95
885.44	211.10
885.74	211.02
886.05	210.93
886.36	211.05
886.67	210.45
886.98	211.36
887.28	211.71
887.59	211.81
887.90	211.90
888.20	211.88
888.51	212.48
888.82	212.07
889.13	212.14
889.43	213.62
889.74	213.55
890.05	213.50
890.35	213.55
890.66	213.17
890.97	212.95
891.28	212.93
891.58	213.12
891.89	213.10
892.20	212.79
892.50	212.52
892.81	212.26
893.12	212.24
893.42	211.52
893.73	211.71
894.04	211.64
894.34	211.86
894.65	211.76
894.95	211.57
895.26	211.71
895.57	212.76
895.87	210.86
896.18	211.38
896.48	211.81
896.79	211.52
897.10	211.76
897.40	211.93
897.71	212.14
898.01	211.83
898.32	212.21
898.63	212.36
898.93	212.74
899.24	213.02
899.54	212.93
899.85	212.83
900.15	212.45
900.46	212.33
900.76	212.38
901.07	212.36
901.38	212.33
901.68	212.93
901.99	211.52
902.29	211.76
902.60	211.60
902.90	211.05
903.21	211.17
903.51	211.10
903.82	211.64
904.12	211.57
904.43	211.93
904.73	211.60
905.03	211.62
905.34	213.33
905.64	213.12
905.95	213.29
906.25	213.14
906.56	213.17
906.86	213.17
907.17	213.14
907.47	213.24
907.77	213.19
908.08	212.64
908.38	212.81
908.69	213.24
908.99	213.29
909.30	213.64
909.60	213.74
909.90	213.74
910.21	213.14
910.51	212.67
910.81	212.45
911.12	212.60
911.42	212.79
911.73	210.81
912.03	210.98
912.33	211.45
912.64	211.52
912.94	211.40
913.24	211.02
913.55	210.71
913.85	210.74
914.15	210.90
914.46	211.07
914.76	211.14
915.06	210.71
915.37	210.48
915.67	210.50
915.97	210.50
916.27	210.29
916.58	210.43
916.88	210.57
917.18	210.50
917.49	211.90
917.79	211.76
918.09	212.07
918.39	212.21
918.70	211.93
919.00	211.69
919.30	212.55
919.60	212.69
919.91	212.40
920.21	212.33
920.51	212.00
920.81	211.81
921.12	211.86
921.42	212.00
921.72	212.43
922.02	212.38
922.32	212.88
922.63	213.12
922.93	214.17
923.23	214.40
923.53	214.36
923.83	213.10
924.13	213.19
924.44	213.26
924.74	213.67
925.04	214.10
925.34	214.10
925.64	213.29
925.94	213.07
926.24	214.48
926.55	214.40
926.85	214.79
927.15	214.90
927.45	215.07
927.75	214.93
928.05	214.76
928.35	214.62
928.65	214.71
928.95	214.62
929.26	213.69
929.56	213.86
929.86	214.00
930.16	213.88
930.46	213.79
930.76	213.69
931.06	212.86
931.36	212.19
931.66	212.69
931.96	212.76
932.26	213.07
932.56	211.95
932.86	212.10
933.16	212.07
933.46	211.74
933.76	211.33
934.06	212.07
934.36	212.83
934.66	212.83
934.96	212.33
935.26	212.38
935.56	212.71
935.86	212.17
936.16	212.19
936.46	211.90
936.76	211.79
937.06	211.31
937.36	211.71
937.66	211.83
937.96	211.74
938.26	211.40
938.56	211.33
938.86	211.67
939.16	212.21
939.46	212.24
939.76	212.36
940.06	212.43
940.35	211.52
940.65	210.43
940.95	210.55
941.25	210.14
941.55	209.90
941.85	209.76
942.15	210.48
942.45	210.95
942.75	211.10
943.04	211.33
943.34	211.74
943.64	211.50
943.94	211.21
944.24	211.26
944.54	211.55
944.84	211.60
945.13	211.19
945.43	210.86
945.73	210.71
946.03	211.05
946.33	210.90
946.62	210.86
946.92	210.81
947.22	211.00
947.52	211.19
947.82	211.79
948.11	211.43
948.41	210.86
948.71	210.14
949.01	209.90
949.31	209.76
949.60	209.67
949.90	209.98
950.20	210.26
950.50	210.26
950.79	210.02
951.09	210.21
951.39	210.19
951.69	209.86
951.98	210.38
952.28	210.21
952.58	210.00
952.87	210.05
953.17	210.31
953.47	210.10
953.76	210.17
954.06	209.64
954.36	209.52
954.66	209.62
954.95	210.17
955.25	210.64
955.55	210.64
955.84	210.38
956.14	210.36
956.44	210.17
956.73	209.67
957.03	209.93
957.32	209.83
957.62	210.07
957.92	210.60
958.21	210.29
958.51	212.57
958.81	212.90
959.10	213.26
959.40	213.79
959.69	213.64
959.99	213.90
960.29	214.00
960.58	213.81
960.88	214.74
961.17	214.52
961.47	214.74
961.76	214.64
962.06	215.21
962.36	214.93
962.65	215.05
962.95	215.26
963.24	215.19
963.54	215.38
963.83	215.45
964.13	215.00
964.42	214.52
964.72	212.88
965.01	213.07
965.31	212.83
965.60	212.31
965.90	213.62
966.19	213.12
966.49	213.17
966.78	213.19
967.08	212.95
967.37	212.95
967.67	212.52
967.96	212.93
968.26	212.64
968.55	213.10
968.85	213.05
969.14	212.98
969.43	212.88
969.73	212.38
970.02	212.19
970.32	212.24
970.61	212.38
970.91	211.67
971.20	211.26
971.49	211.07
971.79	211.38
972.08	210.05
972.38	210.33
972.67	210.43
972.96	210.88
973.26	210.26
973.55	210.86
973.85	210.88
974.14	210.88
974.43	210.93
974.73	210.62
975.02	210.40
975.31	210.55
975.61	210.52
975.90	210.62
976.19	210.64
976.49	210.69
976.78	210.74
977.07	210.90
977.37	211.12
977.66	211.43
977.95	211.00
978.24	211.05
978.54	211.45
978.83	210.98
979.12	210.76
979.42	210.93
979.71	210.40
980.00	210.17
980.29	209.98
980.59	209.76
980.88	210.14
981.17	210.24
981.46	210.05
981.76	209.90
982.05	210.48
982.34	210.52
982.63	210.60
982.93	210.60
983.22	211.12
983.51	211.21
983.80	211.62
984.09	212.05
984.39	212.07
984.68	211.60
984.97	212.07
985.26	211.93
985.55	212.05
985.85	211.74
986.14	212.12
986.43	212.43
986.72	212.24
987.01	211.48
987.30	211.33
987.59	211.19
987.89	211.29
988.18	210.71
988.47	210.48
988.76	210.14
989.05	209.98
989.34	209.48
989.63	209.81
989.92	209.43
990.22	209.00
990.51	209.07
990.80	209.19
991.09	208.95
991.38	209.07
991.67	208.90
991.96	208.83
992.25	208.86
992.54	208.45
992.83	208.55
993.12	208.81
993.41	209.19
993.70	210.24
993.99	210.62
994.28	211.10
994.58	211.57
994.87	211.48
995.16	211.33
995.45	211.21
995.74	210.33
996.03	210.57
996.32	210.88
996.61	211.33
996.90	210.98
997.19	210.98
997.48	211.45
997.77	211.14
998.06	211.60
998.34	211.62
998.63	211.79
998.92	211.88
999.21	212.17
999.50	212.38
999.79	211.43
1000.08	211.52
1000.37	211.31
1000.66	210.93
1000.95	211.57
1001.24	211.88
1001.53	212.17
1001.82	212.40
1002.11	211.83
1002.40	211.95
1002.68	212.29
1002.97	213.95
1003.26	213.81
1003.55	213.14
1003.84	213.29
1004.13	213.88
1004.42	213.60
1004.71	213.57
1004.99	213.52
1005.28	213.81
1005.57	213.67
1005.86	213.79
1006.15	213.57
1006.44	213.33
1006.72	213.43
1007.01	213.02
1007.30	212.93
1007.59	212.69
1007.88	212.79
1008.17	213.14
1008.45	212.95
1008.74	211.93
1009.03	211.19
1009.32	211.17
1009.60	211.12
1009.89	210.88
1010.18	209.83
1010.47	209.71
1010.76	209.48
1011.04	209.52
1011.33	209.52
1011.62	209.50
1011.91	209.57
1012.19	209.52
1012.48	209.64
1012.77	209.67
1013.05	210.67
1013.34	210.88
1013.63	210.86
1013.92	210.98
1014.20	210.83
1014.49	210.76
1014.78	211.05
1015.06	210.07
1015.35	210.24
1015.64	210.64
1015.92	211.10
1016.21	211.14
1016.50	211.07
1016.78	211.45
1017.07	211.43
1017.36	211.02
1017.64	210.95
1017.93	211.05
1018.22	210.93
1018.50	210.74
1018.79	210.62
1019.08	209.90
1019.36	209.90
1019.65	209.83
1019.93	210.14
1020.22	210.43
1020.51	211.57
1020.79	211.24
1021.08	208.50
1021.36	205.50
1021.65	208.00
1021.94	214.00
1022.22	213.00
1022.51	208.50
1022.79	217.00
1023.08	214.50
1023.36	235.50
1023.65	202.50
>>>>>End Processed Spectral Data<<<<<
