SpectraSuite Data File
++++++++++++++++++++++++++++++++++++
Date: Tue Apr 02 18:38:07 EDT 2013
User: group
Dark Spectrum Present: No
Reference Spectrum Present: No
Number of Sampled Component Spectra: 1
Spectrometers: USB2E7196
Integration Time (usec): 580000 (USB2E7196)
Spectra Averaged: 2 (USB2E7196)
Boxcar Smoothing: 10 (USB2E7196)
Correct for Electrical Dark: No (USB2E7196)
Strobe/Lamp Enabled: No (USB2E7196)
Correct for Detector Non-linearity: No (USB2E7196)
Correct for Stray Light: No (USB2E7196)
Number of Pixels in Processed Spectrum: 2048
>>>>>Begin Processed Spectral Data<<<<<
339.09	0.00
339.48	188.00
339.86	194.50
340.24	194.00
340.63	196.00
341.01	224.50
341.39	200.00
341.78	200.50
342.16	211.50
342.54	204.00
342.93	195.74
343.31	205.57
343.69	206.45
344.07	206.98
344.46	207.88
344.84	208.52
345.22	207.52
345.60	207.95
345.99	208.26
346.37	208.10
346.75	208.21
347.13	208.38
347.52	208.26
347.90	209.14
348.28	209.29
348.66	209.81
349.05	209.29
349.43	209.88
349.81	210.07
350.19	210.29
350.57	210.50
350.96	210.48
351.34	210.71
351.72	210.79
352.10	211.02
352.48	210.79
352.87	210.95
353.25	211.07
353.63	210.98
354.01	211.29
354.39	211.36
354.77	211.67
355.15	212.60
355.54	212.71
355.92	212.05
356.30	212.05
356.68	213.52
357.06	213.98
357.44	213.64
357.82	213.67
358.20	214.64
358.58	214.62
358.97	214.95
359.35	215.48
359.73	216.05
360.11	216.05
360.49	216.31
360.87	216.19
361.25	216.62
361.63	217.60
362.01	217.55
362.39	217.81
362.77	218.02
363.15	217.62
363.53	217.71
363.91	218.14
364.29	218.19
364.67	216.17
365.05	215.95
365.43	216.07
365.81	216.50
366.19	216.64
366.57	217.57
366.95	217.43
367.33	216.86
367.71	216.81
368.09	217.36
368.47	217.33
368.85	217.19
369.23	217.88
369.61	217.02
369.99	217.60
370.37	217.79
370.75	218.71
371.13	218.45
371.51	218.07
371.89	217.98
372.27	218.26
372.65	218.29
373.03	218.36
373.41	218.52
373.78	218.24
374.16	217.19
374.54	216.33
374.92	216.02
375.30	216.02
375.68	215.60
376.06	215.57
376.44	215.50
376.82	215.76
377.19	215.33
377.57	215.48
377.95	214.98
378.33	214.69
378.71	213.36
379.09	213.62
379.47	213.83
379.84	213.79
380.22	213.29
380.60	213.26
380.98	212.90
381.36	212.50
381.73	212.24
382.11	212.45
382.49	212.40
382.87	212.21
383.25	212.24
383.62	214.52
384.00	213.81
384.38	213.98
384.76	214.36
385.13	215.12
385.51	215.10
385.89	214.74
386.27	214.81
386.64	215.07
387.02	214.79
387.40	214.69
387.78	214.67
388.15	215.02
388.53	214.86
388.91	215.05
389.29	215.17
389.66	215.45
390.04	215.29
390.42	215.79
390.79	216.36
391.17	216.50
391.55	214.52
391.92	214.88
392.30	214.98
392.68	214.50
393.05	214.17
393.43	214.21
393.81	214.60
394.18	214.40
394.56	214.64
394.94	215.07
395.31	214.95
395.69	215.67
396.06	215.86
396.44	215.95
396.82	215.90
397.19	216.90
397.57	216.52
397.95	216.93
398.32	216.38
398.70	216.29
399.07	216.79
399.45	216.52
399.82	216.43
400.20	216.19
400.58	216.19
400.95	215.52
401.33	216.02
401.70	217.48
402.08	217.48
402.45	217.36
402.83	217.81
403.20	218.19
403.58	218.02
403.95	218.50
404.33	219.14
404.71	219.45
405.08	220.60
405.46	221.02
405.83	221.64
406.21	222.24
406.58	222.86
406.96	222.98
407.33	223.64
407.70	224.67
408.08	227.10
408.45	228.17
408.83	229.31
409.20	229.36
409.58	229.02
409.95	230.55
410.33	231.79
410.70	232.12
411.08	233.62
411.45	234.57
411.82	235.33
412.20	237.10
412.57	239.50
412.95	239.29
413.32	241.62
413.69	243.17
414.07	245.00
414.44	246.95
414.82	249.43
415.19	252.31
415.56	254.74
415.94	256.19
416.31	259.67
416.68	262.98
417.06	267.05
417.43	270.81
417.81	274.69
418.18	278.90
418.55	283.55
418.93	288.19
419.30	293.10
419.67	298.71
420.04	303.60
420.42	308.93
420.79	317.10
421.16	323.43
421.54	331.00
421.91	338.05
422.28	345.45
422.66	353.05
423.03	361.76
423.40	370.05
423.77	378.64
424.15	386.81
424.52	395.29
424.89	405.36
425.26	414.52
425.64	423.29
426.01	432.93
426.38	443.00
426.75	453.83
427.13	465.07
427.50	476.45
427.87	488.52
428.24	500.74
428.61	510.93
428.99	523.88
429.36	536.50
429.73	550.10
430.10	563.45
430.47	577.40
430.85	590.52
431.22	604.93
431.59	622.45
431.96	637.50
432.33	654.76
432.70	670.21
433.08	689.43
433.45	708.36
433.82	726.60
434.19	747.67
434.56	767.71
434.93	786.64
435.30	805.50
435.68	826.74
436.05	846.60
436.42	867.83
436.79	887.07
437.16	908.10
437.53	929.71
437.90	951.14
438.27	972.31
438.64	994.64
439.01	1015.36
439.38	1032.50
439.75	1050.71
440.13	1071.02
440.50	1090.95
440.87	1106.57
441.24	1122.21
441.61	1139.93
441.98	1152.57
442.35	1167.33
442.72	1183.19
443.09	1198.98
443.46	1208.21
443.83	1215.21
444.20	1220.57
444.57	1228.60
444.94	1232.36
445.31	1236.95
445.68	1244.26
446.05	1246.40
446.42	1244.67
446.79	1243.31
447.16	1241.24
447.53	1240.45
447.90	1232.88
448.27	1225.88
448.64	1216.02
449.01	1209.07
449.37	1195.50
449.74	1182.71
450.11	1168.76
450.48	1151.43
450.85	1132.55
451.22	1117.26
451.59	1103.36
451.96	1089.62
452.33	1070.50
452.70	1054.33
453.07	1033.64
453.43	1010.24
453.80	990.83
454.17	971.98
454.54	953.81
454.91	934.38
455.28	915.19
455.65	897.74
456.02	882.83
456.38	867.57
456.75	848.64
457.12	833.05
457.49	817.67
457.86	801.48
458.23	789.36
458.59	776.02
458.96	762.26
459.33	749.24
459.70	736.43
460.07	726.38
460.43	714.60
460.80	704.31
461.17	695.81
461.54	685.69
461.91	675.79
462.27	666.12
462.64	657.50
463.01	648.52
463.38	640.43
463.74	628.55
464.11	620.93
464.48	614.24
464.85	607.07
465.21	602.14
465.58	596.14
465.95	588.10
466.32	582.43
466.68	576.12
467.05	570.19
467.42	564.45
467.78	558.12
468.15	552.24
468.52	547.76
468.88	540.64
469.25	535.17
469.62	531.57
469.98	527.12
470.35	523.00
470.72	518.69
471.08	513.55
471.45	510.14
471.82	506.45
472.18	502.00
472.55	499.07
472.92	494.60
473.28	491.02
473.65	487.81
474.02	484.24
474.38	481.57
474.75	479.74
475.11	476.95
475.48	475.36
475.85	473.19
476.21	470.74
476.58	469.60
476.94	468.48
477.31	466.43
477.67	465.05
478.04	463.76
478.41	462.88
478.77	464.29
479.14	463.12
479.50	462.45
479.87	462.64
480.23	462.29
480.60	462.17
480.96	462.10
481.33	462.98
481.69	463.33
482.06	463.64
482.42	463.81
482.79	464.50
483.15	465.19
483.52	466.98
483.88	468.62
484.25	469.43
484.61	470.60
484.98	471.88
485.34	473.83
485.71	475.71
486.07	477.52
486.44	477.60
486.80	480.05
487.17	482.19
487.53	484.93
487.90	488.05
488.26	491.95
488.62	495.67
488.99	498.43
489.35	502.07
489.72	506.12
490.08	509.74
490.44	513.45
490.81	518.00
491.17	521.52
491.54	525.71
491.90	530.55
492.26	535.29
492.63	540.43
492.99	545.14
493.36	550.40
493.72	556.57
494.08	562.52
494.45	568.76
494.81	575.64
495.17	581.90
495.54	588.88
495.90	594.74
496.26	601.12
496.63	608.26
496.99	615.05
497.35	622.40
497.72	630.07
498.08	637.83
498.44	645.67
498.80	654.48
499.17	662.62
499.53	670.62
499.89	679.71
500.26	688.71
500.62	698.10
500.98	707.21
501.34	716.29
501.71	725.98
502.07	735.00
502.43	744.02
502.79	753.12
503.16	761.88
503.52	771.33
503.88	780.69
504.24	790.69
504.60	801.19
504.97	811.26
505.33	821.19
505.69	832.52
506.05	842.07
506.41	851.95
506.78	862.38
507.14	872.86
507.50	882.48
507.86	892.62
508.22	902.17
508.59	911.31
508.95	921.57
509.31	932.00
509.67	941.98
510.03	951.62
510.39	962.64
510.75	972.43
511.12	982.36
511.48	992.90
511.84	1002.50
512.20	1012.10
512.56	1022.07
512.92	1032.19
513.28	1041.69
513.64	1051.76
514.00	1061.24
514.37	1070.50
514.73	1080.45
515.09	1090.36
515.45	1099.24
515.81	1108.67
516.17	1117.95
516.53	1126.07
516.89	1133.90
517.25	1143.38
517.61	1152.57
517.97	1160.48
518.33	1170.00
518.69	1179.02
519.05	1186.76
519.41	1194.31
519.77	1202.74
520.13	1209.93
520.49	1216.69
520.85	1222.81
521.21	1230.12
521.57	1237.12
521.93	1243.40
522.29	1250.43
522.65	1255.86
523.01	1262.83
523.37	1269.33
523.73	1276.31
524.09	1281.98
524.45	1287.31
524.81	1292.43
525.17	1298.07
525.53	1303.40
525.89	1307.67
526.25	1312.43
526.61	1317.50
526.97	1322.71
527.33	1326.83
527.68	1333.31
528.04	1338.24
528.40	1343.26
528.76	1347.69
529.12	1352.05
529.48	1357.33
529.84	1360.21
530.20	1364.55
530.56	1368.43
530.91	1371.74
531.27	1375.76
531.63	1380.45
531.99	1384.29
532.35	1387.55
532.71	1391.10
533.07	1394.31
533.42	1400.40
533.78	1403.90
534.14	1407.00
534.50	1409.62
534.86	1413.24
535.21	1413.83
535.57	1417.07
535.93	1419.02
536.29	1422.50
536.65	1424.71
537.00	1426.40
537.36	1428.98
537.72	1431.52
538.08	1433.21
538.44	1435.67
538.79	1437.74
539.15	1439.31
539.51	1442.86
539.87	1444.38
540.22	1445.52
540.58	1447.21
540.94	1446.33
541.29	1447.55
541.65	1448.26
542.01	1449.83
542.37	1449.88
542.72	1450.12
543.08	1449.74
543.44	1451.29
543.79	1449.50
544.15	1450.21
544.51	1451.07
544.87	1451.76
545.22	1452.29
545.58	1453.31
545.94	1452.38
546.29	1451.57
546.65	1451.00
547.01	1449.05
547.36	1448.60
547.72	1447.74
548.07	1447.00
548.43	1446.19
548.79	1445.07
549.14	1443.86
549.50	1443.26
549.86	1441.43
550.21	1441.07
550.57	1440.60
550.92	1438.31
551.28	1438.33
551.64	1436.88
551.99	1435.57
552.35	1433.55
552.70	1430.76
553.06	1429.21
553.41	1428.62
553.77	1427.86
554.13	1426.40
554.48	1424.98
554.84	1424.43
555.19	1423.36
555.55	1423.05
555.90	1421.52
556.26	1419.67
556.61	1417.95
556.97	1415.55
557.32	1415.10
557.68	1412.98
558.03	1411.10
558.39	1409.74
558.74	1407.88
559.10	1406.43
559.45	1404.98
559.81	1403.98
560.16	1402.62
560.52	1400.71
560.87	1398.93
561.23	1396.88
561.58	1396.55
561.94	1395.21
562.29	1392.76
562.64	1391.45
563.00	1387.98
563.35	1385.79
563.71	1384.14
564.06	1383.31
564.42	1381.93
564.77	1381.07
565.12	1380.36
565.48	1381.02
565.83	1380.95
566.19	1379.48
566.54	1378.19
566.89	1375.64
567.25	1374.69
567.60	1374.69
567.96	1374.50
568.31	1373.88
568.66	1372.95
569.02	1369.40
569.37	1366.79
569.72	1364.67
570.08	1361.95
570.43	1360.21
570.78	1359.31
571.14	1357.50
571.49	1355.50
571.84	1353.67
572.20	1351.12
572.55	1349.12
572.90	1344.29
573.26	1340.98
573.61	1338.17
573.96	1335.40
574.31	1333.10
574.67	1329.14
575.02	1325.45
575.37	1320.74
575.72	1316.14
576.08	1313.00
576.43	1310.40
576.78	1307.50
577.13	1304.33
577.49	1300.64
577.84	1298.48
578.19	1294.81
578.54	1291.50
578.90	1287.71
579.25	1284.10
579.60	1279.19
579.95	1274.86
580.30	1271.14
580.66	1267.81
581.01	1264.48
581.36	1260.17
581.71	1256.24
582.06	1253.86
582.42	1250.02
582.77	1245.93
583.12	1242.31
583.47	1237.36
583.82	1233.36
584.17	1229.29
584.53	1226.40
584.88	1223.00
585.23	1219.21
585.58	1214.05
585.93	1209.60
586.28	1205.60
586.63	1201.71
586.98	1198.52
587.34	1195.29
587.69	1190.93
588.04	1186.29
588.39	1181.60
588.74	1176.88
589.09	1173.00
589.44	1166.76
589.79	1162.76
590.14	1159.38
590.49	1154.50
590.84	1149.83
591.19	1145.31
591.54	1141.45
591.89	1135.83
592.25	1133.93
592.60	1127.71
592.95	1124.14
593.30	1120.00
593.65	1115.36
594.00	1109.93
594.35	1111.12
594.70	1105.90
595.05	1102.52
595.40	1097.98
595.75	1093.26
596.10	1089.67
596.45	1084.86
596.80	1081.14
597.15	1076.07
597.50	1070.67
597.85	1067.38
598.19	1063.50
598.54	1058.90
598.89	1053.95
599.24	1050.24
599.59	1043.50
599.94	1039.81
600.29	1035.33
600.64	1031.07
600.99	1027.29
601.34	1023.55
601.69	1013.48
602.04	1009.07
602.39	1004.67
602.74	1000.38
603.08	996.19
603.43	992.07
603.78	988.29
604.13	983.50
604.48	978.95
604.83	975.05
605.18	969.93
605.53	965.55
605.87	961.52
606.22	957.62
606.57	953.07
606.92	948.29
607.27	943.90
607.62	939.40
607.96	934.67
608.31	929.90
608.66	925.83
609.01	921.10
609.36	917.10
609.70	912.50
610.05	908.52
610.40	904.60
610.75	900.02
611.10	895.36
611.44	890.88
611.79	887.07
612.14	882.88
612.49	878.02
612.83	873.21
613.18	868.48
613.53	863.67
613.88	858.55
614.22	854.00
614.57	849.52
614.92	844.12
615.27	839.83
615.61	835.29
615.96	830.52
616.31	826.29
616.65	822.14
617.00	817.79
617.35	812.67
617.70	807.88
618.04	803.79
618.39	799.40
618.74	795.76
619.08	791.12
619.43	786.55
619.78	783.00
620.12	779.19
620.47	775.05
620.82	770.52
621.16	766.64
621.51	764.43
621.85	760.33
622.20	757.67
622.55	753.36
622.89	749.43
623.24	746.36
623.59	742.62
623.93	738.93
624.28	735.52
624.62	734.24
624.97	732.00
625.32	728.33
625.66	724.48
626.01	720.33
626.35	717.05
626.70	713.24
627.04	710.31
627.39	706.90
627.73	704.81
628.08	701.98
628.43	698.21
628.77	693.12
629.12	689.86
629.46	686.50
629.81	683.79
630.15	680.36
630.50	676.31
630.84	672.86
631.19	668.74
631.53	664.76
631.88	658.86
632.22	654.02
632.57	650.40
632.91	647.17
633.26	643.98
633.60	640.00
633.95	636.48
634.29	632.74
634.64	629.38
634.98	625.10
635.32	622.52
635.67	620.00
636.01	617.33
636.36	613.98
636.70	611.14
637.05	607.62
637.39	604.29
637.73	601.31
638.08	599.10
638.42	596.10
638.77	593.52
639.11	590.52
639.45	587.79
639.80	584.31
640.14	581.76
640.49	579.36
640.83	576.74
641.17	574.21
641.52	570.93
641.86	568.19
642.20	566.17
642.55	562.19
642.89	559.02
643.23	555.86
643.58	553.40
643.92	549.43
644.26	546.36
644.61	543.79
644.95	540.93
645.29	537.10
645.64	534.88
645.98	531.50
646.32	529.26
646.66	526.14
647.01	523.07
647.35	519.98
647.69	517.02
648.04	514.50
648.38	511.93
648.72	509.05
649.06	505.71
649.41	502.07
649.75	499.52
650.09	497.43
650.43	494.48
650.78	491.21
651.12	488.74
651.46	486.36
651.80	483.60
652.14	480.60
652.49	478.57
652.83	475.90
653.17	473.14
653.51	470.21
653.85	467.67
654.20	465.60
654.54	462.86
654.88	459.88
655.22	458.05
655.56	455.26
655.90	453.31
656.25	451.21
656.59	449.07
656.93	446.93
657.27	444.81
657.61	442.48
657.95	441.05
658.29	438.90
658.64	437.00
658.98	435.02
659.32	432.76
659.66	430.40
660.00	428.36
660.34	426.81
660.68	425.17
661.02	423.74
661.36	421.67
661.70	419.76
662.05	418.07
662.39	415.98
662.73	414.88
663.07	414.24
663.41	412.76
663.75	410.48
664.09	408.62
664.43	406.14
664.77	404.69
665.11	402.40
665.45	400.95
665.79	399.55
666.13	397.76
666.47	396.17
666.81	394.62
667.15	392.48
667.49	390.74
667.83	389.57
668.17	388.05
668.51	386.50
668.85	385.26
669.19	384.55
669.53	382.67
669.87	380.52
670.21	377.95
670.55	376.21
670.89	376.31
671.23	375.14
671.57	373.98
671.91	372.71
672.25	371.52
672.58	370.86
672.92	368.52
673.26	367.48
673.60	366.31
673.94	364.83
674.28	363.48
674.62	362.69
674.96	360.62
675.30	358.98
675.64	357.71
675.97	356.43
676.31	354.67
676.65	353.38
676.99	352.88
677.33	351.31
677.67	350.07
678.01	347.67
678.34	346.48
678.68	345.38
679.02	343.71
679.36	342.38
679.70	340.50
680.04	339.74
680.37	338.60
680.71	337.29
681.05	336.43
681.39	335.40
681.73	333.57
682.06	332.64
682.40	331.76
682.74	331.02
683.08	330.48
683.42	328.93
683.75	328.02
684.09	326.60
684.43	325.67
684.77	324.52
685.10	323.40
685.44	322.26
685.78	320.98
686.12	320.24
686.45	319.12
686.79	317.52
687.13	316.69
687.46	315.17
687.80	314.50
688.14	313.40
688.48	312.26
688.81	311.69
689.15	310.88
689.49	309.40
689.82	308.24
690.16	306.62
690.50	305.76
690.83	304.55
691.17	302.93
691.51	302.12
691.84	301.38
692.18	300.31
692.52	299.26
692.85	298.64
693.19	298.48
693.52	297.79
693.86	297.21
694.20	296.26
694.53	295.62
694.87	294.71
695.21	293.55
695.54	292.76
695.88	291.50
696.21	290.24
696.55	289.74
696.88	288.90
697.22	288.00
697.56	287.79
697.89	286.83
698.23	286.81
698.56	285.83
698.90	285.33
699.23	284.48
699.57	284.12
699.90	282.90
700.24	281.38
700.58	280.76
700.91	280.52
701.25	281.40
701.58	281.40
701.92	280.88
702.25	280.07
702.59	279.48
702.92	279.10
703.26	278.57
703.59	277.76
703.93	278.71
704.26	278.29
704.60	277.69
704.93	277.19
705.26	276.12
705.60	275.90
705.93	274.88
706.27	274.93
706.60	274.45
706.94	275.17
707.27	274.50
707.61	273.81
707.94	272.90
708.27	270.52
708.61	269.36
708.94	268.64
709.28	268.38
709.61	267.48
709.94	266.93
710.28	266.50
710.61	266.12
710.95	263.62
711.28	264.45
711.61	263.57
711.95	263.43
712.28	262.76
712.61	262.07
712.95	262.81
713.28	263.05
713.61	262.17
713.95	260.74
714.28	260.60
714.61	260.26
714.95	259.64
715.28	258.95
715.61	258.36
715.95	258.17
716.28	257.31
716.61	257.50
716.95	256.76
717.28	256.40
717.61	255.88
717.94	255.95
718.28	253.98
718.61	253.43
718.94	252.93
719.27	252.62
719.61	252.12
719.94	250.83
720.27	249.43
720.60	248.98
720.94	248.50
721.27	247.83
721.60	247.50
721.93	247.24
722.27	247.81
722.60	247.79
722.93	247.07
723.26	247.05
723.59	246.19
723.93	246.17
724.26	245.98
724.59	245.62
724.92	245.02
725.25	245.38
725.59	245.33
725.92	245.19
726.25	244.76
726.58	244.90
726.91	244.64
727.24	244.50
727.57	244.19
727.91	243.79
728.24	243.90
728.57	243.21
728.90	243.07
729.23	242.07
729.56	242.60
729.89	242.38
730.22	241.93
730.55	241.79
730.89	241.64
731.22	241.10
731.55	240.57
731.88	240.38
732.21	239.55
732.54	238.90
732.87	238.33
733.20	238.36
733.53	237.79
733.86	237.79
734.19	237.40
734.52	237.45
734.85	238.79
735.18	238.24
735.51	238.79
735.84	238.60
736.17	238.98
736.50	237.64
736.83	239.81
737.16	239.69
737.49	239.71
737.82	239.17
738.15	239.24
738.48	239.24
738.81	238.95
739.14	238.60
739.47	238.36
739.80	238.12
740.13	238.14
740.46	237.76
740.79	237.07
741.12	236.90
741.45	236.33
741.78	234.83
742.11	235.38
742.44	234.62
742.77	234.71
743.10	234.12
743.43	233.83
743.75	231.48
744.08	234.17
744.41	233.76
744.74	233.38
745.07	232.71
745.40	232.55
745.73	233.26
746.06	233.45
746.39	233.40
746.71	233.05
747.04	232.64
747.37	232.55
747.70	232.83
748.03	232.83
748.36	232.86
748.68	232.48
749.01	231.33
749.34	231.10
749.67	230.88
750.00	231.38
750.33	232.79
750.65	232.81
750.98	230.00
751.31	229.79
751.64	229.79
751.97	231.00
752.29	231.00
752.62	229.90
752.95	229.57
753.28	229.40
753.60	229.45
753.93	229.67
754.26	229.50
754.59	228.90
754.91	228.43
755.24	228.17
755.57	228.29
755.90	228.24
756.22	228.24
756.55	227.88
756.88	226.83
757.20	225.48
757.53	224.74
757.86	224.57
758.19	224.64
758.51	224.69
758.84	223.33
759.17	223.10
759.49	223.33
759.82	224.24
760.15	224.55
760.47	224.45
760.80	224.02
761.13	224.38
761.45	224.24
761.78	224.19
762.11	224.29
762.43	224.07
762.76	224.17
763.08	224.33
763.41	224.31
763.74	224.57
764.06	224.45
764.39	224.60
764.71	224.29
765.04	224.02
765.37	223.71
765.69	223.81
766.02	223.79
766.34	223.48
766.67	222.52
767.00	222.38
767.32	223.36
767.65	224.33
767.97	223.95
768.30	224.02
768.62	223.90
768.95	223.76
769.27	223.67
769.60	223.67
769.92	223.36
770.25	222.81
770.57	222.45
770.90	222.26
771.22	221.90
771.55	222.00
771.87	222.24
772.20	222.31
772.52	223.86
772.85	226.26
773.17	226.12
773.50	225.79
773.82	225.48
774.15	224.31
774.47	222.90
774.80	222.76
775.12	222.45
775.45	222.52
775.77	222.38
776.09	222.38
776.42	222.38
776.74	222.81
777.07	222.76
777.39	222.83
777.72	222.57
778.04	223.07
778.36	222.76
778.69	222.48
779.01	222.43
779.33	220.52
779.66	218.05
779.98	218.05
780.31	218.14
780.63	219.05
780.95	219.36
781.28	219.31
781.60	219.21
781.92	219.19
782.25	219.14
782.57	219.19
782.89	218.88
783.22	218.81
783.54	218.26
783.86	218.57
784.19	218.29
784.51	219.00
784.83	218.55
785.16	218.50
785.48	218.64
785.80	218.64
786.12	219.02
786.45	218.90
786.77	218.98
787.09	218.90
787.42	218.14
787.74	218.10
788.06	218.31
788.38	218.02
788.71	217.93
789.03	218.00
789.35	218.12
789.67	218.07
789.99	217.98
790.32	217.76
790.64	217.79
790.96	219.69
791.28	219.00
791.61	218.76
791.93	219.05
792.25	219.05
792.57	220.33
792.89	219.60
793.21	219.60
793.54	219.45
793.86	219.38
794.18	219.38
794.50	219.10
794.82	218.93
795.14	219.07
795.47	219.55
795.79	219.50
796.11	219.21
796.43	219.10
796.75	219.12
797.07	219.19
797.39	219.14
797.71	217.67
798.04	217.81
798.36	218.21
798.68	218.02
799.00	217.90
799.32	216.98
799.64	217.64
799.96	217.74
800.28	217.98
800.60	217.81
800.92	218.00
801.24	217.98
801.56	218.17
801.89	218.02
802.21	218.00
802.53	217.64
802.85	218.00
803.17	219.00
803.49	218.67
803.81	218.29
804.13	218.07
804.45	217.62
804.77	217.62
805.09	217.48
805.41	217.26
805.73	216.93
806.05	216.38
806.37	216.05
806.69	215.81
807.01	215.69
807.33	215.74
807.65	214.88
807.97	215.62
808.28	215.31
808.60	215.48
808.92	215.26
809.24	216.55
809.56	215.93
809.88	215.21
810.20	215.52
810.52	216.21
810.84	216.00
811.16	215.90
811.48	215.88
811.80	216.64
812.12	216.62
812.43	216.90
812.75	217.43
813.07	217.33
813.39	217.45
813.71	216.95
814.03	216.93
814.35	217.00
814.67	216.33
814.98	216.12
815.30	216.02
815.62	215.50
815.94	214.19
816.26	214.60
816.58	214.33
816.89	214.50
817.21	214.05
817.53	214.26
817.85	214.19
818.17	214.24
818.48	213.36
818.80	213.67
819.12	213.43
819.44	212.71
819.76	212.45
820.07	212.60
820.39	212.86
820.71	212.98
821.03	213.02
821.34	212.69
821.66	213.12
821.98	213.38
822.30	213.40
822.61	214.62
822.93	214.21
823.25	214.07
823.57	213.67
823.88	214.05
824.20	214.07
824.52	214.52
824.83	214.36
825.15	214.12
825.47	214.29
825.79	214.55
826.10	214.60
826.42	214.74
826.74	214.86
827.05	214.76
827.37	214.83
827.69	214.88
828.00	215.02
828.32	214.71
828.64	214.52
828.95	215.62
829.27	214.98
829.58	214.93
829.90	215.21
830.22	215.29
830.53	214.79
830.85	214.33
831.17	213.98
831.48	213.79
831.80	214.07
832.11	213.55
832.43	213.19
832.75	212.95
833.06	214.14
833.38	213.36
833.69	213.24
834.01	213.40
834.32	213.26
834.64	213.10
834.96	213.36
835.27	213.24
835.59	212.62
835.90	212.12
836.22	212.31
836.53	212.14
836.85	211.93
837.16	214.07
837.48	214.40
837.79	215.07
838.11	215.24
838.42	214.95
838.74	215.36
839.05	215.21
839.37	215.40
839.68	214.05
840.00	214.17
840.31	214.45
840.63	214.26
840.94	214.19
841.26	214.12
841.57	214.07
841.88	214.48
842.20	214.29
842.51	214.38
842.83	214.29
843.14	215.95
843.46	216.36
843.77	215.31
844.08	215.31
844.40	214.64
844.71	214.71
845.03	214.71
845.34	214.71
845.65	214.95
845.97	214.98
846.28	215.21
846.60	215.50
846.91	215.10
847.22	214.81
847.54	215.05
847.85	215.14
848.16	214.76
848.48	214.12
848.79	214.74
849.10	214.95
849.42	215.26
849.73	213.29
850.04	213.02
850.36	212.12
850.67	212.31
850.98	212.43
851.30	212.52
851.61	212.48
851.92	212.40
852.23	213.00
852.55	213.31
852.86	213.29
853.17	213.36
853.49	213.98
853.80	214.95
854.11	215.50
854.42	215.69
854.74	215.88
855.05	216.00
855.36	215.05
855.67	214.98
855.99	214.83
856.30	217.57
856.61	217.38
856.92	217.40
857.23	217.43
857.55	217.19
857.86	216.79
858.17	217.19
858.48	216.90
858.79	216.36
859.11	216.26
859.42	216.07
859.73	216.00
860.04	215.81
860.35	214.62
860.66	213.86
860.98	214.00
861.29	214.19
861.60	214.05
861.91	214.64
862.22	214.24
862.53	213.93
862.84	211.33
863.16	211.95
863.47	211.71
863.78	211.40
864.09	211.48
864.40	211.81
864.71	211.62
865.02	211.79
865.33	211.64
865.64	211.24
865.95	211.24
866.27	212.38
866.58	212.17
866.89	212.71
867.20	212.74
867.51	212.26
867.82	212.05
868.13	212.71
868.44	212.00
868.75	212.38
869.06	212.67
869.37	212.86
869.68	212.17
869.99	212.43
870.30	212.67
870.61	213.24
870.92	213.00
871.23	212.86
871.54	213.17
871.85	213.50
872.16	213.81
872.47	213.64
872.78	212.38
873.09	212.62
873.40	212.50
873.71	212.55
874.02	212.71
874.33	212.48
874.64	211.98
874.95	212.50
875.26	212.17
875.56	211.88
875.87	212.02
876.18	212.05
876.49	214.21
876.80	214.00
877.11	213.26
877.42	213.48
877.73	213.50
878.04	213.17
878.35	213.33
878.66	213.55
878.96	213.74
879.27	213.88
879.58	213.88
879.89	213.74
880.20	214.31
880.51	214.36
880.82	214.64
881.12	214.86
881.43	214.60
881.74	214.45
882.05	214.29
882.36	214.40
882.67	214.74
882.97	212.67
883.28	212.64
883.59	212.93
883.90	212.95
884.21	213.29
884.51	213.36
884.82	213.07
885.13	212.93
885.44	212.88
885.74	212.88
886.05	212.48
886.36	212.33
886.67	211.90
886.98	212.98
887.28	212.95
887.59	212.83
887.90	212.74
888.20	212.86
888.51	213.57
888.82	213.00
889.13	213.07
889.43	214.60
889.74	214.45
890.05	214.19
890.35	213.93
890.66	213.64
890.97	213.36
891.28	213.31
891.58	213.26
891.89	213.33
892.20	212.90
892.50	212.86
892.81	212.69
893.12	212.36
893.42	211.14
893.73	211.24
894.04	211.29
894.34	211.57
894.65	211.19
894.95	210.88
895.26	211.12
895.57	211.83
895.87	209.76
896.18	210.19
896.48	210.43
896.79	210.67
897.10	211.17
897.40	211.45
897.71	211.43
898.01	211.55
898.32	211.74
898.63	211.67
898.93	211.98
899.24	212.12
899.54	212.21
899.85	212.07
900.15	212.05
900.46	212.10
900.76	212.24
901.07	212.33
901.38	212.31
901.68	212.50
901.99	211.52
902.29	211.76
902.60	211.52
902.90	211.31
903.21	211.24
903.51	210.86
903.82	211.14
904.12	211.19
904.43	211.12
904.73	211.07
905.03	211.31
905.34	213.33
905.64	213.26
905.95	213.17
906.25	213.38
906.56	213.48
906.86	213.38
907.17	213.02
907.47	213.36
907.77	213.29
908.08	212.90
908.38	213.14
908.69	213.21
908.99	213.64
909.30	213.93
909.60	213.98
909.90	214.31
910.21	213.79
910.51	213.45
910.81	213.67
911.12	213.74
911.42	213.90
911.73	211.76
912.03	211.90
912.33	212.50
912.64	212.45
912.94	211.95
913.24	211.60
913.55	211.57
913.85	211.17
914.15	211.40
914.46	211.71
914.76	211.45
915.06	211.24
915.37	210.74
915.67	210.40
915.97	210.17
916.27	209.45
916.58	209.43
916.88	209.45
917.18	209.14
917.49	210.52
917.79	210.57
918.09	210.64
918.39	211.07
918.70	210.62
919.00	210.45
919.30	211.67
919.60	211.67
919.91	211.57
920.21	211.79
920.51	211.31
920.81	211.31
921.12	211.52
921.42	211.64
921.72	211.76
922.02	211.95
922.32	212.38
922.63	212.60
922.93	213.67
923.23	213.90
923.53	213.60
923.83	212.33
924.13	212.45
924.44	212.52
924.74	212.74
925.04	213.29
925.34	213.62
925.64	212.74
925.94	212.83
926.24	213.98
926.55	213.88
926.85	214.55
927.15	214.36
927.45	214.31
927.75	214.40
928.05	214.48
928.35	214.29
928.65	214.50
928.95	214.55
929.26	213.69
929.56	214.07
929.86	214.45
930.16	214.24
930.46	214.14
930.76	214.29
931.06	213.50
931.36	213.00
931.66	213.24
931.96	213.45
932.26	213.48
932.56	212.50
932.86	212.52
933.16	212.05
933.46	211.81
933.76	211.57
934.06	211.98
934.36	212.74
934.66	212.57
934.96	212.24
935.26	212.40
935.56	212.81
935.86	212.07
936.16	211.76
936.46	211.50
936.76	211.31
937.06	211.00
937.36	211.05
937.66	211.45
937.96	211.12
938.26	210.76
938.56	210.50
938.86	210.74
939.16	211.21
939.46	211.55
939.76	211.93
940.06	212.07
940.35	211.62
940.65	210.36
940.95	210.69
941.25	210.33
941.55	210.10
941.85	209.86
942.15	210.48
942.45	211.10
942.75	211.14
943.04	211.19
943.34	211.57
943.64	211.45
943.94	210.83
944.24	210.79
944.54	210.76
944.84	210.98
945.13	210.57
945.43	210.36
945.73	210.29
946.03	209.95
946.33	209.86
946.62	209.62
946.92	209.74
947.22	209.74
947.52	210.00
947.82	210.36
948.11	210.14
948.41	209.64
948.71	209.07
949.01	209.17
949.31	208.93
949.60	208.79
949.90	209.07
950.20	209.14
950.50	209.26
950.79	209.21
951.09	209.50
951.39	209.74
951.69	209.48
951.98	209.74
952.28	209.71
952.58	209.55
952.87	209.98
953.17	210.36
953.47	210.10
953.76	210.05
954.06	209.64
954.36	209.60
954.66	209.67
954.95	210.36
955.25	210.60
955.55	210.95
955.84	210.60
956.14	210.86
956.44	210.93
956.73	210.69
957.03	210.90
957.32	210.95
957.62	210.74
957.92	211.19
958.21	211.02
958.51	213.76
958.81	214.00
959.10	214.07
959.40	214.55
959.69	214.74
959.99	215.02
960.29	215.05
960.58	215.00
960.88	215.86
961.17	215.45
961.47	215.52
961.76	215.45
962.06	215.81
962.36	215.60
962.65	215.69
962.95	215.52
963.24	215.38
963.54	215.40
963.83	215.60
964.13	215.43
964.42	215.17
964.72	213.14
965.01	213.17
965.31	212.71
965.60	212.05
965.90	213.64
966.19	213.21
966.49	213.33
966.78	213.21
967.08	212.79
967.37	212.95
967.67	212.71
967.96	213.17
968.26	213.12
968.55	213.48
968.85	213.50
969.14	213.64
969.43	213.57
969.73	213.45
970.02	213.21
970.32	212.98
970.61	212.71
970.91	212.43
971.20	212.26
971.49	212.26
971.79	212.64
972.08	210.79
972.38	210.90
972.67	210.93
972.96	211.12
973.26	210.67
973.55	211.31
973.85	211.00
974.14	210.69
974.43	211.12
974.73	210.74
975.02	210.55
975.31	210.50
975.61	210.60
975.90	210.45
976.19	210.38
976.49	210.79
976.78	211.00
977.07	210.86
977.37	210.98
977.66	211.14
977.95	210.93
978.24	211.21
978.54	211.93
978.83	211.81
979.12	211.64
979.42	211.88
979.71	211.29
980.00	211.33
980.29	211.45
980.59	210.74
980.88	211.26
981.17	211.12
981.46	211.29
981.76	211.31
982.05	211.95
982.34	212.17
982.63	212.00
982.93	212.14
983.22	212.71
983.51	212.55
983.80	212.98
984.09	213.14
984.39	213.14
984.68	212.50
984.97	212.43
985.26	212.26
985.55	212.33
985.85	212.02
986.14	212.48
986.43	212.71
986.72	212.67
987.01	211.83
987.30	211.98
987.59	211.79
987.89	211.52
988.18	210.74
988.47	210.71
988.76	210.50
989.05	210.14
989.34	209.76
989.63	210.55
989.92	210.14
990.22	209.76
990.51	209.50
990.80	209.40
991.09	209.79
991.38	210.33
991.67	210.29
991.96	210.12
992.25	209.86
992.54	209.40
992.83	209.43
993.12	209.38
993.41	209.71
993.70	210.62
993.99	211.21
994.28	211.62
994.58	211.95
994.87	211.76
995.16	212.00
995.45	211.79
995.74	210.95
996.03	211.21
996.32	211.57
996.61	212.24
996.90	212.07
997.19	211.95
997.48	211.88
997.77	211.69
998.06	211.83
998.34	211.93
998.63	211.64
998.92	211.93
999.21	212.33
999.50	212.12
999.79	211.48
1000.08	211.29
1000.37	211.10
1000.66	210.52
1000.95	211.31
1001.24	211.29
1001.53	211.62
1001.82	211.76
1002.11	211.38
1002.40	211.57
1002.68	212.00
1002.97	213.76
1003.26	213.38
1003.55	213.14
1003.84	212.83
1004.13	213.55
1004.42	213.57
1004.71	213.81
1004.99	213.48
1005.28	214.17
1005.57	214.29
1005.86	213.95
1006.15	213.90
1006.44	213.71
1006.72	214.26
1007.01	213.81
1007.30	213.79
1007.59	213.52
1007.88	213.50
1008.17	213.74
1008.45	213.10
1008.74	212.00
1009.03	210.95
1009.32	211.05
1009.60	210.98
1009.89	211.26
1010.18	210.52
1010.47	210.38
1010.76	210.31
1011.04	210.40
1011.33	210.24
1011.62	210.31
1011.91	210.62
1012.19	210.88
1012.48	211.12
1012.77	210.88
1013.05	211.64
1013.34	211.83
1013.63	211.76
1013.92	212.00
1014.20	211.64
1014.49	211.93
1014.78	212.38
1015.06	211.76
1015.35	211.64
1015.64	211.90
1015.92	212.21
1016.21	212.40
1016.50	212.43
1016.78	212.64
1017.07	212.64
1017.36	212.19
1017.64	211.95
1017.93	212.00
1018.22	211.57
1018.50	211.43
1018.79	211.33
1019.08	210.60
1019.36	210.36
1019.65	210.02
1019.93	210.36
1020.22	210.62
1020.51	211.67
1020.79	211.52
1021.08	207.50
1021.36	207.50
1021.65	209.00
1021.94	211.00
1022.22	208.50
1022.51	203.50
1022.79	220.00
1023.08	210.50
1023.36	234.50
1023.65	210.00
>>>>>End Processed Spectral Data<<<<<
