SpectraSuite Data File
++++++++++++++++++++++++++++++++++++
Date: Tue Apr 02 18:43:02 EDT 2013
User: group
Dark Spectrum Present: No
Reference Spectrum Present: No
Number of Sampled Component Spectra: 1
Spectrometers: USB2E7196
Integration Time (usec): 580000 (USB2E7196)
Spectra Averaged: 2 (USB2E7196)
Boxcar Smoothing: 10 (USB2E7196)
Correct for Electrical Dark: No (USB2E7196)
Strobe/Lamp Enabled: No (USB2E7196)
Correct for Detector Non-linearity: No (USB2E7196)
Correct for Stray Light: No (USB2E7196)
Number of Pixels in Processed Spectrum: 2048
>>>>>Begin Processed Spectral Data<<<<<
339.09	0.00
339.48	193.50
339.86	195.00
340.24	199.50
340.63	198.00
341.01	234.00
341.39	205.00
341.78	209.00
342.16	209.50
342.54	203.50
342.93	197.33
343.31	207.14
343.69	207.95
344.07	208.40
344.46	208.98
344.84	209.50
345.22	208.17
345.60	208.38
345.99	208.33
346.37	208.36
346.75	208.52
347.13	208.38
347.52	208.64
347.90	209.55
348.28	209.50
348.66	209.52
349.05	209.10
349.43	209.57
349.81	209.76
350.19	209.76
350.57	210.05
350.96	210.24
351.34	210.52
351.72	210.31
352.10	210.55
352.48	210.43
352.87	210.26
353.25	210.17
353.63	210.05
354.01	210.24
354.39	210.14
354.77	210.17
355.15	210.74
355.54	210.43
355.92	209.71
356.30	209.88
356.68	211.33
357.06	211.43
357.44	211.17
357.82	211.07
358.20	211.95
358.58	211.79
358.97	212.07
359.35	212.55
359.73	213.12
360.11	213.00
360.49	213.05
360.87	213.24
361.25	213.74
361.63	214.57
362.01	214.38
362.39	214.69
362.77	214.93
363.15	214.90
363.53	214.98
363.91	215.24
364.29	215.36
364.67	213.57
365.05	213.55
365.43	213.64
365.81	214.12
366.19	214.40
366.57	215.33
366.95	215.21
367.33	214.48
367.71	214.36
368.09	214.95
368.47	214.95
368.85	215.10
369.23	215.64
369.61	214.95
369.99	215.90
370.37	215.86
370.75	216.81
371.13	216.43
371.51	216.26
371.89	216.38
372.27	216.40
372.65	216.60
373.03	216.67
373.41	216.93
373.78	216.67
374.16	215.69
374.54	215.07
374.92	214.95
375.30	215.12
375.68	214.90
376.06	214.81
376.44	214.86
376.82	214.95
377.19	214.60
377.57	214.62
377.95	213.83
378.33	213.69
378.71	212.36
379.09	212.74
379.47	213.10
379.84	212.98
380.22	212.71
380.60	212.50
380.98	212.33
381.36	212.12
381.73	211.83
382.11	212.19
382.49	212.19
382.87	211.95
383.25	212.14
383.62	214.36
384.00	213.95
384.38	214.00
384.76	214.19
385.13	215.19
385.51	215.02
385.89	214.83
386.27	215.07
386.64	215.62
387.02	215.36
387.40	215.43
387.78	215.50
388.15	215.93
388.53	215.90
388.91	216.31
389.29	215.98
389.66	216.21
390.04	215.76
390.42	216.05
390.79	216.17
391.17	215.86
391.55	213.79
391.92	214.02
392.30	214.07
392.68	213.79
393.05	213.43
393.43	213.57
393.81	213.83
394.18	213.50
394.56	213.33
394.94	214.10
395.31	213.74
395.69	214.31
396.06	214.38
396.44	214.55
396.82	213.95
397.19	215.40
397.57	215.36
397.95	216.00
398.32	215.43
398.70	215.48
399.07	216.21
399.45	215.95
399.82	215.88
400.20	215.76
400.58	215.64
400.95	214.88
401.33	215.33
401.70	216.81
402.08	216.95
402.45	217.21
402.83	217.43
403.20	217.69
403.58	217.43
403.95	217.98
404.33	218.52
404.71	219.07
405.08	220.07
405.46	220.60
405.83	220.52
406.21	221.12
406.58	221.81
406.96	221.93
407.33	222.64
407.70	223.33
408.08	225.60
408.45	226.52
408.83	227.50
409.20	227.81
409.58	227.12
409.95	228.21
410.33	229.12
410.70	229.48
411.08	230.57
411.45	231.81
411.82	232.55
412.20	233.98
412.57	236.40
412.95	235.86
413.32	237.31
413.69	238.90
414.07	240.48
414.44	242.12
414.82	243.95
415.19	246.48
415.56	248.98
415.94	250.19
416.31	253.12
416.68	255.90
417.06	259.29
417.43	263.02
417.81	266.43
418.18	269.98
418.55	273.67
418.93	277.71
419.30	281.67
419.67	286.05
420.04	290.57
420.42	294.81
420.79	302.02
421.16	307.95
421.54	315.05
421.91	321.05
422.28	327.31
422.66	333.83
423.03	341.62
423.40	348.36
423.77	355.38
424.15	362.48
424.52	370.33
424.89	378.88
425.26	386.40
425.64	394.21
426.01	402.67
426.38	411.60
426.75	421.33
427.13	430.76
427.50	440.69
427.87	450.33
428.24	460.29
428.61	469.14
428.99	479.98
429.36	490.17
429.73	501.43
430.10	513.10
430.47	525.21
430.85	535.43
431.22	547.71
431.59	562.93
431.96	576.12
432.33	589.76
432.70	603.52
433.08	619.60
433.45	635.10
433.82	650.45
434.19	667.43
434.56	684.38
434.93	700.40
435.30	715.98
435.68	734.38
436.05	751.71
436.42	768.05
436.79	784.24
437.16	802.10
437.53	820.50
437.90	838.17
438.27	855.76
438.64	874.52
439.01	892.05
439.38	905.43
439.75	919.71
440.13	936.40
440.50	951.90
440.87	965.26
441.24	978.02
441.61	993.17
441.98	1004.31
442.35	1016.14
442.72	1028.81
443.09	1042.40
443.46	1049.45
443.83	1054.67
444.20	1060.21
444.57	1066.40
444.94	1068.57
445.31	1072.02
445.68	1077.71
446.05	1079.07
446.42	1078.02
446.79	1077.17
447.16	1075.86
447.53	1074.69
447.90	1068.60
448.27	1062.26
448.64	1053.31
449.01	1047.45
449.37	1036.40
449.74	1025.24
450.11	1013.90
450.48	998.93
450.85	983.10
451.22	970.60
451.59	958.95
451.96	946.95
452.33	930.79
452.70	917.36
453.07	899.95
453.43	880.50
453.80	864.24
454.17	848.02
454.54	831.86
454.91	815.60
455.28	799.64
455.65	784.98
456.02	774.02
456.38	761.21
456.75	745.48
457.12	731.60
457.49	718.55
457.86	704.31
458.23	694.83
458.59	683.36
458.96	671.55
459.33	660.40
459.70	649.76
460.07	641.62
460.43	631.52
460.80	623.24
461.17	616.24
461.54	607.88
461.91	599.55
462.27	591.52
462.64	584.10
463.01	576.57
463.38	570.14
463.74	559.12
464.11	552.21
464.48	546.62
464.85	540.43
465.21	536.05
465.58	530.93
465.95	523.93
466.32	518.38
466.68	512.98
467.05	508.29
467.42	503.24
467.78	497.64
468.15	493.14
468.52	489.33
468.88	483.02
469.25	478.26
469.62	475.33
469.98	471.14
470.35	467.79
470.72	464.45
471.08	459.93
471.45	456.83
471.82	454.55
472.18	451.36
472.55	448.45
472.92	444.74
473.28	442.17
473.65	439.79
474.02	437.52
474.38	435.62
474.75	433.57
475.11	431.48
475.48	430.05
475.85	428.02
476.21	425.88
476.58	425.19
476.94	424.02
477.31	422.40
477.67	421.71
478.04	420.45
478.41	419.71
478.77	420.93
479.14	419.76
479.50	419.02
479.87	418.45
480.23	418.36
480.60	418.26
480.96	417.88
481.33	418.40
481.69	418.26
482.06	418.31
482.42	418.64
482.79	419.05
483.15	419.31
483.52	420.10
483.88	420.57
484.25	420.55
484.61	421.29
484.98	422.14
485.34	423.79
485.71	425.55
486.07	426.79
486.44	425.95
486.80	427.76
487.17	429.24
487.53	431.74
487.90	433.95
488.26	436.62
488.62	439.14
488.99	440.69
489.35	443.21
489.72	445.88
490.08	448.36
490.44	450.93
490.81	453.98
491.17	456.83
491.54	460.40
491.90	464.14
492.26	467.95
492.63	471.64
492.99	474.62
493.36	478.45
493.72	483.07
494.08	487.67
494.45	492.21
494.81	497.17
495.17	501.45
495.54	506.79
495.90	511.21
496.26	515.81
496.63	521.24
496.99	526.95
497.35	531.83
497.72	537.62
498.08	543.62
498.44	549.62
498.80	556.05
499.17	562.52
499.53	569.10
499.89	576.36
500.26	582.98
500.62	589.86
500.98	597.05
501.34	603.50
501.71	610.88
502.07	617.76
502.43	625.02
502.79	632.29
503.16	638.88
503.52	646.33
503.88	653.21
504.24	661.10
504.60	668.60
504.97	676.74
505.33	684.38
505.69	693.45
506.05	701.45
506.41	709.00
506.78	716.60
507.14	724.02
507.50	731.38
507.86	739.07
508.22	746.98
508.59	753.71
508.95	761.74
509.31	770.40
509.67	778.43
510.03	785.74
510.39	793.38
510.75	801.02
511.12	808.67
511.48	817.17
511.84	824.76
512.20	832.38
512.56	840.36
512.92	848.43
513.28	854.83
513.64	862.10
514.00	870.02
514.37	877.29
514.73	885.12
515.09	892.24
515.45	899.07
515.81	906.26
516.17	913.74
516.53	920.17
516.89	925.81
517.25	932.71
517.61	940.12
517.97	946.60
518.33	953.12
518.69	960.07
519.05	965.93
519.41	972.38
519.77	979.64
520.13	985.38
520.49	990.81
520.85	997.10
521.21	1004.48
521.57	1010.64
521.93	1015.81
522.29	1020.93
522.65	1025.38
523.01	1030.88
523.37	1035.93
523.73	1041.24
524.09	1047.21
524.45	1052.40
524.81	1057.07
525.17	1061.57
525.53	1066.45
525.89	1071.14
526.25	1075.79
526.61	1080.81
526.97	1084.38
527.33	1088.71
527.68	1094.95
528.04	1099.10
528.40	1102.60
528.76	1105.31
529.12	1108.88
529.48	1113.95
529.84	1117.76
530.20	1122.71
530.56	1127.62
530.91	1131.93
531.27	1135.95
531.63	1139.86
531.99	1144.00
532.35	1148.76
532.71	1152.81
533.07	1157.60
533.42	1164.43
533.78	1167.98
534.14	1172.74
534.50	1177.81
534.86	1182.05
535.21	1184.45
535.57	1189.12
535.93	1193.31
536.29	1198.40
536.65	1203.07
537.00	1205.79
537.36	1210.26
537.72	1213.48
538.08	1216.88
538.44	1220.12
538.79	1224.14
539.15	1226.55
539.51	1229.71
539.87	1233.71
540.22	1237.05
540.58	1239.98
540.94	1241.52
541.29	1245.14
541.65	1247.21
542.01	1250.10
542.37	1251.67
542.72	1254.33
543.08	1256.55
543.44	1259.83
543.79	1260.95
544.15	1263.86
544.51	1267.74
544.87	1271.48
545.22	1274.95
545.58	1278.33
545.94	1281.10
546.29	1283.02
546.65	1286.79
547.01	1289.52
547.36	1291.33
547.72	1294.36
548.07	1296.76
548.43	1299.17
548.79	1302.21
549.14	1304.38
549.50	1307.43
549.86	1310.48
550.21	1312.86
550.57	1316.62
550.92	1318.71
551.28	1322.60
551.64	1325.43
551.99	1328.57
552.35	1330.45
552.70	1333.81
553.06	1336.17
553.41	1339.81
553.77	1344.67
554.13	1347.93
554.48	1352.43
554.84	1356.60
555.19	1360.02
555.55	1365.31
555.90	1369.02
556.26	1372.31
556.61	1376.40
556.97	1379.02
557.32	1383.00
557.68	1387.24
558.03	1390.95
558.39	1395.07
558.74	1398.83
559.10	1402.21
559.45	1406.50
559.81	1410.50
560.16	1414.05
560.52	1418.45
560.87	1422.81
561.23	1426.36
561.58	1431.48
561.94	1435.48
562.29	1440.00
562.64	1445.38
563.00	1448.62
563.35	1453.88
563.71	1458.95
564.06	1464.45
564.42	1470.02
564.77	1475.81
565.12	1481.98
565.48	1488.95
565.83	1495.83
566.19	1501.62
566.54	1508.02
566.89	1513.17
567.25	1519.90
567.60	1527.52
567.96	1535.81
568.31	1542.12
568.66	1548.64
569.02	1553.76
569.37	1558.86
569.72	1564.14
570.08	1568.43
570.43	1573.57
570.78	1578.62
571.14	1584.19
571.49	1589.33
571.84	1595.45
572.20	1600.10
572.55	1604.12
572.90	1607.38
573.26	1611.86
573.61	1616.31
573.96	1620.67
574.31	1624.74
574.67	1628.40
575.02	1630.07
575.37	1632.43
575.72	1635.55
576.08	1639.43
576.43	1642.95
576.78	1647.36
577.13	1650.26
577.49	1653.76
577.84	1658.98
578.19	1663.17
578.54	1666.38
578.90	1671.17
579.25	1673.55
579.60	1676.69
579.95	1680.29
580.30	1684.00
580.66	1686.10
581.01	1689.69
581.36	1692.71
581.71	1695.83
582.06	1700.21
582.42	1705.36
582.77	1707.48
583.12	1710.12
583.47	1712.36
583.82	1715.50
584.17	1718.21
584.53	1722.69
584.88	1727.00
585.23	1728.88
585.58	1731.10
585.93	1733.86
586.28	1735.74
586.63	1738.79
586.98	1741.45
587.34	1745.43
587.69	1747.19
588.04	1750.50
588.39	1753.07
588.74	1754.88
589.09	1757.10
589.44	1757.14
589.79	1758.29
590.14	1760.71
590.49	1763.17
590.84	1764.62
591.19	1766.88
591.54	1768.29
591.89	1768.33
592.25	1770.26
592.60	1771.21
592.95	1772.19
593.30	1773.67
593.65	1774.48
594.00	1775.12
594.35	1782.50
594.70	1780.95
595.05	1782.67
595.40	1782.76
595.75	1782.05
596.10	1782.07
596.45	1782.62
596.80	1784.17
597.15	1785.45
597.50	1785.57
597.85	1786.57
598.19	1786.74
598.54	1786.33
598.89	1786.19
599.24	1786.86
599.59	1786.05
599.94	1785.69
600.29	1785.64
600.64	1784.95
600.99	1783.71
601.34	1784.21
601.69	1778.33
602.04	1778.76
602.39	1777.83
602.74	1778.67
603.08	1779.64
603.43	1780.40
603.78	1780.07
604.13	1779.12
604.48	1778.02
604.83	1778.24
605.18	1778.05
605.53	1777.79
605.87	1777.31
606.22	1776.21
606.57	1775.07
606.92	1773.74
607.27	1773.43
607.62	1772.55
607.96	1772.57
608.31	1773.67
608.66	1772.86
609.01	1770.83
609.36	1769.67
609.70	1768.00
610.05	1765.71
610.40	1763.12
610.75	1760.67
611.10	1759.50
611.44	1757.60
611.79	1754.17
612.14	1751.83
612.49	1747.38
612.83	1743.64
613.18	1740.45
613.53	1738.02
613.88	1734.14
614.22	1731.05
614.57	1727.43
614.92	1723.57
615.27	1718.90
615.61	1713.83
615.96	1708.81
616.31	1704.88
616.65	1702.57
617.00	1699.31
617.35	1695.14
617.70	1691.98
618.04	1687.50
618.39	1683.17
618.74	1678.57
619.08	1674.98
619.43	1670.69
619.78	1668.33
620.12	1665.81
620.47	1661.55
620.82	1657.19
621.16	1653.26
621.51	1650.19
621.85	1646.24
622.20	1642.86
622.55	1638.69
622.89	1635.00
623.24	1632.43
623.59	1628.62
623.93	1624.14
624.28	1619.98
624.62	1617.88
624.97	1615.36
625.32	1611.83
625.66	1608.00
626.01	1604.48
626.35	1601.45
626.70	1597.17
627.04	1593.64
627.39	1589.14
627.73	1585.88
628.08	1582.71
628.43	1579.40
628.77	1575.05
629.12	1570.67
629.46	1566.31
629.81	1563.12
630.15	1557.90
630.50	1553.21
630.84	1548.45
631.19	1542.95
631.53	1538.12
631.88	1530.10
632.22	1523.19
632.57	1519.90
632.91	1514.33
633.26	1509.93
633.60	1504.02
633.95	1498.83
634.29	1492.45
634.64	1488.64
634.98	1483.17
635.32	1478.29
635.67	1474.17
636.01	1468.40
636.36	1463.71
636.70	1458.74
637.05	1453.12
637.39	1448.48
637.73	1442.93
638.08	1438.64
638.42	1433.43
638.77	1428.55
639.11	1424.55
639.45	1419.52
639.80	1412.83
640.14	1407.88
640.49	1402.64
640.83	1397.60
641.17	1392.38
641.52	1387.10
641.86	1380.81
642.20	1376.62
642.55	1369.88
642.89	1363.40
643.23	1357.29
643.58	1351.52
643.92	1344.76
644.26	1339.31
644.61	1333.88
644.95	1327.98
645.29	1321.07
645.64	1315.60
645.98	1310.05
646.32	1304.93
646.66	1298.52
647.01	1291.81
647.35	1286.29
647.69	1280.38
648.04	1274.50
648.38	1268.24
648.72	1261.71
649.06	1255.95
649.41	1248.40
649.75	1241.98
650.09	1235.07
650.43	1229.90
650.78	1223.62
651.12	1217.57
651.46	1210.43
651.80	1204.57
652.14	1198.29
652.49	1192.74
652.83	1185.69
653.17	1178.10
653.51	1170.90
653.85	1164.24
654.20	1158.74
654.54	1151.19
654.88	1143.40
655.22	1137.43
655.56	1130.60
655.90	1124.55
656.25	1117.31
656.59	1111.29
656.93	1105.81
657.27	1101.21
657.61	1093.64
657.95	1087.57
658.29	1081.33
658.64	1075.81
658.98	1068.79
659.32	1061.88
659.66	1055.21
660.00	1049.48
660.34	1042.64
660.68	1035.86
661.02	1029.86
661.36	1023.02
661.70	1017.40
662.05	1011.52
662.39	1005.24
662.73	999.55
663.07	994.43
663.41	988.36
663.75	982.52
664.09	975.71
664.43	968.71
664.77	963.00
665.11	956.36
665.45	950.83
665.79	944.12
666.13	938.05
666.47	932.40
666.81	926.45
667.15	920.57
667.49	916.02
667.83	911.50
668.17	906.12
668.51	900.52
668.85	894.88
669.19	890.33
669.53	883.90
669.87	878.26
670.21	871.95
670.55	865.76
670.89	861.05
671.23	855.86
671.57	849.93
671.91	845.02
672.25	839.81
672.58	834.79
672.92	829.10
673.26	823.69
673.60	818.14
673.94	812.79
674.28	806.71
674.62	801.38
674.96	796.17
675.30	791.83
675.64	787.36
675.97	782.02
676.31	776.38
676.65	770.81
676.99	767.10
677.33	761.10
677.67	756.86
678.01	750.45
678.34	745.83
678.68	741.64
679.02	735.60
679.36	730.43
679.70	725.36
680.04	720.83
680.37	716.02
680.71	711.36
681.05	706.74
681.39	702.57
681.73	697.52
682.06	692.10
682.40	686.81
682.74	682.31
683.08	678.36
683.42	673.26
683.75	669.60
684.09	663.45
684.43	659.69
684.77	654.57
685.10	650.29
685.44	645.50
685.78	640.48
686.12	636.43
686.45	631.95
686.79	626.79
687.13	623.21
687.46	619.14
687.80	615.40
688.14	610.93
688.48	606.93
688.81	602.62
689.15	599.14
689.49	595.02
689.82	590.19
690.16	585.05
690.50	581.00
690.83	576.79
691.17	572.57
691.51	568.62
691.84	565.00
692.18	560.76
692.52	557.10
692.85	553.52
693.19	550.55
693.52	547.24
693.86	543.40
694.20	539.33
694.53	535.36
694.87	531.52
695.21	527.36
695.54	523.52
695.88	519.83
696.21	515.17
696.55	511.29
696.88	507.81
697.22	504.50
697.56	501.52
697.89	497.88
698.23	494.71
698.56	490.71
698.90	487.29
699.23	483.71
699.57	480.69
699.90	477.05
700.24	473.33
700.58	469.79
700.91	467.17
701.25	465.67
701.58	463.50
701.92	460.79
702.25	458.40
702.59	455.10
702.92	452.33
703.26	449.98
703.59	447.14
703.93	445.83
704.26	443.40
704.60	440.43
704.93	438.00
705.26	435.24
705.60	433.45
705.93	430.57
706.27	429.17
706.60	426.55
706.94	425.07
707.27	422.14
707.61	419.50
707.94	416.40
708.27	412.07
708.61	408.83
708.94	406.17
709.28	403.79
709.61	401.64
709.94	399.52
710.28	397.17
710.61	394.86
710.95	391.07
711.28	390.33
711.61	388.21
711.95	386.24
712.28	384.21
712.61	381.52
712.95	380.76
713.28	379.21
713.61	376.64
713.95	373.74
714.28	372.24
714.61	370.62
714.95	368.74
715.28	366.69
715.61	364.76
715.95	362.90
716.28	360.90
716.61	359.57
716.95	356.90
717.28	355.17
717.61	353.48
717.94	351.71
718.28	348.33
718.61	346.62
718.94	344.33
719.27	342.40
719.61	340.69
719.94	338.31
720.27	335.45
720.60	333.86
720.94	332.60
721.27	330.95
721.60	329.64
721.93	328.55
722.27	328.07
722.60	327.02
722.93	325.38
723.26	324.12
723.59	322.26
723.93	321.76
724.26	320.67
724.59	319.14
724.92	318.00
725.25	317.33
725.59	316.05
725.92	314.93
726.25	313.83
726.58	312.71
726.91	311.64
727.24	311.17
727.57	310.02
727.91	308.52
728.24	307.48
728.57	305.90
728.90	304.98
729.23	303.05
729.56	302.74
729.89	301.88
730.22	300.95
730.55	299.83
730.89	298.79
731.22	297.50
731.55	296.52
731.88	295.43
732.21	293.95
732.54	292.81
732.87	291.86
733.20	291.00
733.53	290.24
733.86	289.26
734.19	287.71
734.52	287.57
734.85	287.86
735.18	286.71
735.51	287.00
735.84	286.21
736.17	286.07
736.50	284.31
736.83	286.10
737.16	285.07
737.49	284.29
737.82	283.29
738.15	282.74
738.48	281.88
738.81	281.24
739.14	280.43
739.47	279.52
739.80	278.90
740.13	278.24
740.46	277.07
740.79	276.21
741.12	275.43
741.45	274.12
741.78	272.62
742.11	272.19
742.44	270.88
742.77	270.48
743.10	269.19
743.43	268.21
743.75	265.05
744.08	267.17
744.41	266.21
744.74	265.57
745.07	264.43
745.40	264.10
745.73	264.38
746.06	263.90
746.39	263.64
746.71	263.02
747.04	262.14
747.37	261.71
747.70	261.52
748.03	261.17
748.36	261.05
748.68	260.52
749.01	259.50
749.34	258.83
749.67	258.21
750.00	258.24
750.33	259.57
750.65	259.14
750.98	255.90
751.31	255.71
751.64	255.12
751.97	256.14
752.29	255.62
752.62	254.24
752.95	253.36
753.28	252.55
753.60	252.14
753.93	252.57
754.26	252.02
754.59	250.93
754.91	250.38
755.24	249.79
755.57	248.98
755.90	248.76
756.22	248.02
756.55	247.26
756.88	246.26
757.20	244.19
757.53	243.31
757.86	243.05
758.19	242.86
758.51	242.52
758.84	240.88
759.17	240.14
759.49	239.74
759.82	240.57
760.15	240.52
760.47	240.00
760.80	238.86
761.13	239.00
761.45	238.60
761.78	238.10
762.11	237.71
762.43	237.38
762.76	237.02
763.08	237.26
763.41	237.12
763.74	236.93
764.06	236.90
764.39	236.60
764.71	236.21
765.04	235.67
765.37	235.29
765.69	235.10
766.02	235.12
766.34	234.79
766.67	233.81
767.00	233.90
767.32	234.60
767.65	235.69
767.97	235.24
768.30	235.19
768.62	235.19
768.95	234.76
769.27	234.76
769.60	234.81
769.92	233.93
770.25	233.29
770.57	232.83
770.90	232.55
771.22	232.19
771.55	231.90
771.87	231.98
772.20	231.67
772.52	233.21
772.85	235.19
773.17	234.95
773.50	234.57
773.82	234.12
774.15	233.05
774.47	231.67
774.80	231.55
775.12	231.33
775.45	230.86
775.77	230.83
776.09	230.74
776.42	230.52
776.74	231.02
777.07	230.90
777.39	230.86
777.72	230.55
778.04	230.64
778.36	230.36
778.69	230.05
779.01	230.19
779.33	228.14
779.66	225.79
779.98	225.57
780.31	225.57
780.63	226.14
780.95	226.45
781.28	226.48
781.60	226.14
781.92	225.93
782.25	225.88
782.57	225.69
782.89	225.31
783.22	224.83
783.54	224.38
783.86	224.48
784.19	224.24
784.51	224.71
784.83	224.31
785.16	224.12
785.48	223.95
785.80	223.79
786.12	223.86
786.45	223.79
786.77	223.90
787.09	223.62
787.42	222.86
787.74	222.79
788.06	222.43
788.38	222.24
788.71	222.24
789.03	222.14
789.35	222.26
789.67	222.00
789.99	222.24
790.32	221.90
790.64	221.90
790.96	223.45
791.28	222.64
791.61	222.57
791.93	222.62
792.25	222.52
792.57	223.93
792.89	223.50
793.21	223.64
793.54	223.26
793.86	222.98
794.18	222.90
794.50	222.29
794.82	222.17
795.14	222.38
795.47	222.60
795.79	222.76
796.11	222.40
796.43	222.33
796.75	222.36
797.07	222.31
797.39	222.05
797.71	220.60
798.04	220.62
798.36	220.71
798.68	220.57
799.00	220.64
799.32	219.19
799.64	219.60
799.96	219.52
800.28	220.02
800.60	219.93
800.92	219.95
801.24	219.98
801.56	220.07
801.89	219.71
802.21	219.69
802.53	219.26
802.85	219.57
803.17	220.52
803.49	219.88
803.81	219.71
804.13	219.52
804.45	219.19
804.77	219.33
805.09	219.26
805.41	219.00
805.73	218.57
806.05	218.38
806.37	218.02
806.69	217.71
807.01	217.45
807.33	217.52
807.65	216.88
807.97	217.60
808.28	217.40
808.60	217.31
808.92	217.14
809.24	218.67
809.56	218.19
809.88	217.21
810.20	217.40
810.52	217.83
810.84	217.69
811.16	217.45
811.48	217.36
811.80	217.98
812.12	217.98
812.43	218.48
812.75	218.60
813.07	218.40
813.39	218.71
813.71	218.40
814.03	218.14
814.35	218.19
814.67	217.43
814.98	217.21
815.30	217.48
815.62	216.81
815.94	215.00
816.26	215.02
816.58	214.67
816.89	214.76
817.21	214.36
817.53	214.36
817.85	214.60
818.17	214.26
818.48	213.74
818.80	214.17
819.12	213.74
819.44	213.33
819.76	213.00
820.07	212.71
820.39	212.60
820.71	212.95
821.03	213.14
821.34	213.12
821.66	213.55
821.98	213.60
822.30	213.62
822.61	215.00
822.93	214.69
823.25	214.88
823.57	214.74
823.88	215.00
824.20	215.05
824.52	215.29
824.83	215.45
825.15	214.90
825.47	214.86
825.79	215.12
826.10	214.88
826.42	214.88
826.74	215.31
827.05	215.48
827.37	215.48
827.69	215.26
828.00	215.31
828.32	215.19
828.64	214.79
828.95	216.26
829.27	215.74
829.58	215.83
829.90	216.10
830.22	216.31
830.53	216.00
830.85	215.79
831.17	215.33
831.48	215.17
831.80	215.33
832.11	215.19
832.43	215.00
832.75	215.05
833.06	216.48
833.38	215.57
833.69	215.24
834.01	215.17
834.32	215.00
834.64	214.86
834.96	214.98
835.27	215.10
835.59	214.10
835.90	213.62
836.22	213.69
836.53	213.31
836.85	213.26
837.16	215.33
837.48	215.50
837.79	216.38
838.11	216.64
838.42	216.69
838.74	216.93
839.05	216.64
839.37	216.64
839.68	215.19
840.00	215.19
840.31	215.67
840.63	215.45
840.94	215.21
841.26	215.12
841.57	214.98
841.88	215.14
842.20	214.95
842.51	214.69
842.83	214.57
843.14	216.48
843.46	216.14
843.77	215.00
844.08	214.67
844.40	213.67
844.71	213.45
845.03	213.19
845.34	212.95
845.65	213.02
845.97	213.17
846.28	213.31
846.60	213.67
846.91	213.26
847.22	213.40
847.54	214.21
847.85	214.14
848.16	214.02
848.48	213.57
848.79	214.26
849.10	214.38
849.42	214.45
849.73	212.45
850.04	212.50
850.36	211.67
850.67	212.29
850.98	212.36
851.30	212.64
851.61	212.55
851.92	212.50
852.23	213.12
852.55	213.36
852.86	213.43
853.17	213.40
853.49	213.71
853.80	213.98
854.11	214.00
854.42	214.10
854.74	213.71
855.05	213.88
855.36	212.81
855.67	213.10
855.99	213.36
856.30	215.62
856.61	215.36
856.92	215.38
857.23	215.17
857.55	214.98
857.86	214.60
858.17	215.10
858.48	214.95
858.79	214.48
859.11	214.36
859.42	214.21
859.73	214.05
860.04	214.17
860.35	213.48
860.66	212.62
860.98	212.71
861.29	213.19
861.60	213.33
861.91	213.88
862.22	213.48
862.53	212.98
862.84	210.76
863.16	211.36
863.47	211.07
863.78	211.19
864.09	211.40
864.40	211.67
864.71	211.45
865.02	211.69
865.33	211.64
865.64	211.24
865.95	211.48
866.27	212.60
866.58	212.50
866.89	212.86
867.20	212.90
867.51	212.45
867.82	212.21
868.13	212.74
868.44	212.14
868.75	212.76
869.06	213.07
869.37	213.31
869.68	212.69
869.99	213.07
870.30	212.95
870.61	213.21
870.92	212.93
871.23	212.86
871.54	212.95
871.85	213.24
872.16	213.50
872.47	213.24
872.78	212.02
873.09	212.14
873.40	211.90
873.71	212.26
874.02	212.76
874.33	212.83
874.64	212.10
874.95	212.57
875.26	211.93
875.56	211.62
875.87	211.43
876.18	211.64
876.49	213.62
876.80	213.38
877.11	212.93
877.42	213.07
877.73	213.26
878.04	213.00
878.35	212.83
878.66	212.88
878.96	212.81
879.27	212.95
879.58	212.64
879.89	212.62
880.20	213.07
880.51	212.81
880.82	212.67
881.12	212.86
881.43	212.38
881.74	212.26
882.05	212.55
882.36	212.60
882.67	212.71
882.97	210.43
883.28	210.38
883.59	210.50
883.90	210.55
884.21	210.71
884.51	210.55
884.82	210.67
885.13	210.90
885.44	211.07
885.74	210.90
886.05	211.05
886.36	211.36
886.67	210.67
886.98	211.76
887.28	212.07
887.59	212.26
887.90	212.57
888.20	212.71
888.51	213.02
888.82	212.86
889.13	212.88
889.43	214.76
889.74	214.71
890.05	214.64
890.35	214.48
890.66	214.21
890.97	214.12
891.28	213.79
891.58	213.67
891.89	213.64
892.20	213.48
892.50	213.10
892.81	212.83
893.12	212.76
893.42	211.74
893.73	211.60
894.04	211.29
894.34	211.33
894.65	211.33
894.95	210.98
895.26	211.12
895.57	212.29
895.87	210.36
896.18	210.64
896.48	210.81
896.79	210.62
897.10	210.83
897.40	210.81
897.71	211.02
898.01	210.90
898.32	211.05
898.63	211.31
898.93	211.40
899.24	211.50
899.54	211.48
899.85	211.29
900.15	211.29
900.46	211.31
900.76	211.64
901.07	211.40
901.38	211.55
901.68	211.81
901.99	210.62
902.29	210.83
902.60	210.62
902.90	210.29
903.21	210.26
903.51	210.14
903.82	210.60
904.12	210.62
904.43	210.95
904.73	210.79
905.03	210.81
905.34	213.02
905.64	212.86
905.95	212.98
906.25	213.24
906.56	213.00
906.86	212.90
907.17	212.67
907.47	212.95
907.77	212.48
908.08	212.05
908.38	212.12
908.69	211.88
908.99	212.33
909.30	212.60
909.60	212.81
909.90	213.05
910.21	212.62
910.51	212.40
910.81	212.17
911.12	212.29
911.42	212.45
911.73	210.07
912.03	210.12
912.33	210.40
912.64	210.21
912.94	210.31
913.24	210.10
913.55	209.83
913.85	209.60
914.15	210.33
914.46	210.76
914.76	210.64
915.06	210.74
915.37	210.21
915.67	210.07
915.97	210.14
916.27	209.50
916.58	209.71
916.88	209.55
917.18	209.43
917.49	210.88
917.79	210.76
918.09	211.26
918.39	211.62
918.70	211.62
919.00	211.55
919.30	212.43
919.60	212.48
919.91	212.33
920.21	212.38
920.51	211.79
920.81	211.33
921.12	211.48
921.42	211.48
921.72	211.81
922.02	211.93
922.32	212.21
922.63	212.50
922.93	213.43
923.23	213.62
923.53	213.55
923.83	212.24
924.13	212.43
924.44	212.33
924.74	212.81
925.04	213.26
925.34	213.31
925.64	212.52
925.94	212.69
926.24	213.83
926.55	213.90
926.85	214.31
927.15	214.55
927.45	214.40
927.75	214.55
928.05	214.43
928.35	214.33
928.65	214.71
928.95	214.74
929.26	213.69
929.56	214.12
929.86	214.33
930.16	214.24
930.46	213.95
930.76	214.05
931.06	213.40
931.36	212.81
931.66	213.00
931.96	213.14
932.26	213.21
932.56	212.40
932.86	212.48
933.16	212.26
933.46	211.90
933.76	211.67
934.06	211.95
934.36	212.98
934.66	213.00
934.96	212.52
935.26	212.86
935.56	213.40
935.86	212.86
936.16	212.60
936.46	212.43
936.76	212.48
937.06	212.21
937.36	212.07
937.66	212.14
937.96	212.19
938.26	211.90
938.56	211.79
938.86	211.98
939.16	212.45
939.46	212.76
939.76	213.14
940.06	213.29
940.35	212.64
940.65	211.31
940.95	211.52
941.25	211.19
941.55	210.69
941.85	210.50
942.15	211.21
942.45	211.52
942.75	211.43
943.04	211.33
943.34	211.71
943.64	211.55
943.94	211.14
944.24	211.26
944.54	211.31
944.84	211.31
945.13	210.95
945.43	210.52
945.73	210.26
946.03	210.05
946.33	210.07
946.62	210.29
946.92	210.36
947.22	210.43
947.52	210.67
947.82	211.02
948.11	210.88
948.41	210.19
948.71	209.86
949.01	209.81
949.31	209.67
949.60	209.55
949.90	209.98
950.20	210.19
950.50	210.00
950.79	209.74
951.09	209.95
951.39	209.81
951.69	209.69
951.98	210.17
952.28	210.36
952.58	210.10
952.87	210.00
953.17	210.31
953.47	210.14
953.76	209.79
954.06	209.43
954.36	209.17
954.66	209.29
954.95	209.86
955.25	210.10
955.55	210.45
955.84	210.14
956.14	210.31
956.44	210.24
956.73	209.83
957.03	210.19
957.32	210.10
957.62	210.02
957.92	210.26
958.21	210.10
958.51	212.38
958.81	212.98
959.10	213.24
959.40	213.69
959.69	213.69
959.99	214.26
960.29	214.43
960.58	214.43
960.88	215.12
961.17	214.83
961.47	215.02
961.76	214.93
962.06	215.40
962.36	214.95
962.65	215.19
962.95	215.64
963.24	215.38
963.54	215.45
963.83	215.83
964.13	215.86
964.42	215.31
964.72	213.57
965.01	213.33
965.31	213.36
965.60	212.90
965.90	214.17
966.19	213.62
966.49	213.55
966.78	213.74
967.08	213.45
967.37	213.52
967.67	213.24
967.96	213.50
968.26	213.38
968.55	213.86
968.85	213.88
969.14	213.57
969.43	213.52
969.73	213.50
970.02	213.43
970.32	213.33
970.61	213.21
970.91	212.64
971.20	212.31
971.49	212.00
971.79	212.31
972.08	210.95
972.38	211.12
972.67	211.24
972.96	211.31
973.26	211.19
973.55	211.74
973.85	211.86
974.14	211.67
974.43	211.76
974.73	211.50
975.02	211.12
975.31	211.17
975.61	211.45
975.90	211.14
976.19	210.98
976.49	211.12
976.78	211.36
977.07	211.31
977.37	211.50
977.66	211.79
977.95	211.52
978.24	211.45
978.54	212.00
978.83	211.76
979.12	211.67
979.42	211.19
979.71	210.86
980.00	210.74
980.29	210.79
980.59	210.38
980.88	210.81
981.17	210.95
981.46	211.12
981.76	210.95
982.05	211.79
982.34	211.81
982.63	211.67
982.93	211.90
983.22	212.50
983.51	212.69
983.80	213.02
984.09	213.17
984.39	213.29
984.68	212.79
984.97	213.07
985.26	212.81
985.55	213.19
985.85	212.81
986.14	213.05
986.43	213.24
986.72	213.26
987.01	212.50
987.30	212.43
987.59	212.24
987.89	212.33
988.18	211.55
988.47	211.57
988.76	211.38
989.05	210.98
989.34	210.79
989.63	210.98
989.92	210.33
990.22	209.90
990.51	209.90
990.80	209.93
991.09	210.10
991.38	210.50
991.67	210.31
991.96	210.21
992.25	210.19
992.54	209.79
992.83	209.57
993.12	209.71
993.41	209.95
993.70	211.02
993.99	211.36
994.28	211.71
994.58	211.86
994.87	211.71
995.16	211.69
995.45	211.17
995.74	210.74
996.03	211.33
996.32	211.83
996.61	212.38
996.90	212.21
997.19	212.00
997.48	211.88
997.77	211.81
998.06	211.95
998.34	211.76
998.63	211.74
998.92	211.98
999.21	212.24
999.50	212.21
999.79	211.14
1000.08	211.17
1000.37	211.12
1000.66	210.88
1000.95	211.40
1001.24	211.60
1001.53	212.00
1001.82	211.90
1002.11	211.33
1002.40	211.55
1002.68	211.57
1002.97	212.86
1003.26	212.48
1003.55	212.43
1003.84	212.57
1004.13	213.33
1004.42	213.36
1004.71	213.31
1004.99	213.10
1005.28	213.57
1005.57	213.62
1005.86	213.48
1006.15	213.21
1006.44	212.86
1006.72	213.29
1007.01	212.81
1007.30	212.74
1007.59	212.55
1007.88	212.62
1008.17	212.57
1008.45	211.98
1008.74	211.43
1009.03	210.88
1009.32	211.07
1009.60	210.88
1009.89	210.79
1010.18	209.93
1010.47	209.62
1010.76	209.55
1011.04	209.69
1011.33	209.57
1011.62	209.74
1011.91	210.07
1012.19	210.19
1012.48	210.60
1012.77	210.36
1013.05	211.55
1013.34	211.69
1013.63	211.48
1013.92	211.62
1014.20	211.69
1014.49	212.02
1014.78	211.93
1015.06	211.02
1015.35	211.12
1015.64	211.36
1015.92	211.69
1016.21	211.62
1016.50	211.81
1016.78	212.45
1017.07	212.29
1017.36	212.00
1017.64	211.60
1017.93	211.88
1018.22	211.60
1018.50	211.24
1018.79	211.17
1019.08	210.17
1019.36	210.26
1019.65	210.40
1019.93	210.93
1020.22	211.26
1020.51	212.14
1020.79	212.07
1021.08	208.00
1021.36	205.50
1021.65	210.50
1021.94	210.00
1022.22	213.00
1022.51	210.50
1022.79	222.00
1023.08	214.50
1023.36	235.50
1023.65	204.50
>>>>>End Processed Spectral Data<<<<<
