SpectraSuite Data File
++++++++++++++++++++++++++++++++++++
Date: Tue Apr 02 18:45:49 EDT 2013
User: group
Dark Spectrum Present: No
Reference Spectrum Present: No
Number of Sampled Component Spectra: 1
Spectrometers: USB2E7196
Integration Time (usec): 580000 (USB2E7196)
Spectra Averaged: 2 (USB2E7196)
Boxcar Smoothing: 10 (USB2E7196)
Correct for Electrical Dark: No (USB2E7196)
Strobe/Lamp Enabled: No (USB2E7196)
Correct for Detector Non-linearity: No (USB2E7196)
Correct for Stray Light: No (USB2E7196)
Number of Pixels in Processed Spectrum: 2048
>>>>>Begin Processed Spectral Data<<<<<
339.09	0.00
339.48	188.50
339.86	194.50
340.24	192.00
340.63	200.00
341.01	229.00
341.39	203.00
341.78	206.00
342.16	208.00
342.54	205.00
342.93	196.86
343.31	206.74
343.69	207.45
344.07	208.19
344.46	209.19
344.84	209.71
345.22	208.69
345.60	208.83
345.99	209.14
346.37	209.17
346.75	209.45
347.13	209.90
347.52	210.02
347.90	210.71
348.28	210.69
348.66	211.07
349.05	210.60
349.43	210.76
349.81	210.93
350.19	211.33
350.57	211.64
350.96	211.79
351.34	212.17
351.72	212.60
352.10	212.64
352.48	212.40
352.87	212.43
353.25	212.57
353.63	212.81
354.01	212.69
354.39	212.83
354.77	212.64
355.15	213.14
355.54	212.95
355.92	212.55
356.30	212.50
356.68	213.93
357.06	213.86
357.44	213.69
357.82	213.64
358.20	214.50
358.58	214.33
358.97	214.52
359.35	214.88
359.73	215.40
360.11	215.57
360.49	215.81
360.87	215.86
361.25	216.00
361.63	216.45
362.01	216.64
362.39	216.67
362.77	217.21
363.15	216.95
363.53	217.02
363.91	216.98
364.29	217.19
364.67	215.17
365.05	215.26
365.43	215.60
365.81	215.95
366.19	216.05
366.57	217.02
366.95	216.95
367.33	216.26
367.71	215.90
368.09	215.93
368.47	215.86
368.85	215.74
369.23	216.45
369.61	215.93
369.99	216.52
370.37	216.76
370.75	217.43
371.13	217.26
371.51	216.93
371.89	217.17
372.27	217.19
372.65	217.62
373.03	217.62
373.41	217.55
373.78	217.12
374.16	216.10
374.54	215.40
374.92	215.26
375.30	215.40
375.68	215.02
376.06	215.21
376.44	215.17
376.82	215.24
377.19	214.71
377.57	214.71
377.95	214.00
378.33	213.90
378.71	212.69
379.09	212.62
379.47	213.07
379.84	212.95
380.22	212.62
380.60	211.95
380.98	211.83
381.36	211.64
381.73	211.33
382.11	211.38
382.49	211.40
382.87	211.10
383.25	210.95
383.62	213.33
384.00	212.95
384.38	213.14
384.76	213.45
385.13	214.45
385.51	214.50
385.89	214.29
386.27	214.29
386.64	214.69
387.02	214.57
387.40	214.40
387.78	214.57
388.15	214.98
388.53	215.07
388.91	215.21
389.29	215.17
389.66	215.81
390.04	215.67
390.42	216.05
390.79	216.31
391.17	216.50
391.55	214.36
391.92	214.40
392.30	214.31
392.68	213.95
393.05	213.50
393.43	213.60
393.81	213.79
394.18	213.60
394.56	213.71
394.94	214.50
395.31	214.24
395.69	214.88
396.06	215.00
396.44	215.26
396.82	215.05
397.19	216.12
397.57	215.88
397.95	216.48
398.32	216.00
398.70	216.21
399.07	216.71
399.45	216.48
399.82	216.24
400.20	216.21
400.58	216.26
400.95	215.55
401.33	216.07
401.70	217.64
402.08	217.74
402.45	217.60
402.83	217.88
403.20	217.83
403.58	217.62
403.95	218.29
404.33	218.62
404.71	218.98
405.08	220.17
405.46	220.57
405.83	220.95
406.21	221.05
406.58	221.40
406.96	221.48
407.33	222.36
407.70	223.29
408.08	225.43
408.45	226.31
408.83	227.48
409.20	227.71
409.58	227.26
409.95	228.57
410.33	229.57
410.70	229.93
411.08	231.57
411.45	232.48
411.82	232.90
412.20	234.38
412.57	236.74
412.95	236.48
413.32	238.10
413.69	239.24
414.07	240.88
414.44	242.50
414.82	244.55
415.19	246.81
415.56	248.88
415.94	250.14
416.31	253.02
416.68	255.62
417.06	258.88
417.43	262.31
417.81	265.67
418.18	269.31
418.55	272.86
418.93	276.48
419.30	280.79
419.67	285.26
420.04	289.79
420.42	293.88
420.79	300.95
421.16	306.40
421.54	313.19
421.91	319.21
422.28	325.33
422.66	331.83
423.03	339.55
423.40	346.69
423.77	354.02
424.15	361.07
424.52	368.71
424.89	377.50
425.26	385.19
425.64	392.43
426.01	400.69
426.38	409.57
426.75	419.24
427.13	428.19
427.50	437.60
427.87	447.86
428.24	457.55
428.61	465.62
428.99	477.05
429.36	487.62
429.73	499.24
430.10	510.71
430.47	522.31
430.85	533.07
431.22	544.93
431.59	559.62
431.96	571.71
432.33	585.26
432.70	598.19
433.08	613.86
433.45	629.33
433.82	644.48
434.19	661.19
434.56	677.55
434.93	693.79
435.30	709.90
435.68	727.05
436.05	744.00
436.42	760.90
436.79	776.74
437.16	794.14
437.53	811.67
437.90	829.45
438.27	847.14
438.64	864.81
439.01	882.17
439.38	895.90
439.75	911.26
440.13	928.48
440.50	944.48
440.87	957.33
441.24	970.17
441.61	984.64
441.98	995.36
442.35	1007.62
442.72	1020.31
443.09	1033.88
443.46	1041.43
443.83	1047.07
444.20	1051.52
444.57	1057.33
444.94	1060.38
445.31	1063.76
445.68	1068.81
446.05	1070.55
446.42	1069.48
446.79	1068.31
447.16	1066.07
447.53	1064.74
447.90	1058.71
448.27	1052.12
448.64	1043.88
449.01	1038.29
449.37	1027.43
449.74	1016.55
450.11	1005.19
450.48	990.21
450.85	973.48
451.22	960.76
451.59	948.52
451.96	937.31
452.33	921.67
452.70	907.67
453.07	890.95
453.43	871.64
453.80	854.86
454.17	839.24
454.54	823.88
454.91	807.81
455.28	791.90
455.65	776.76
456.02	765.83
456.38	753.24
456.75	737.64
457.12	724.55
457.49	711.64
457.86	697.88
458.23	687.81
458.59	676.79
458.96	665.38
459.33	655.36
459.70	645.02
460.07	636.79
460.43	627.07
460.80	618.83
461.17	612.07
461.54	604.17
461.91	596.00
462.27	587.86
462.64	580.90
463.01	574.05
463.38	567.67
463.74	556.81
464.11	549.52
464.48	543.62
464.85	537.00
465.21	533.21
465.58	527.90
465.95	521.69
466.32	516.57
466.68	510.98
467.05	506.14
467.42	501.31
467.78	496.17
468.15	490.62
468.52	486.57
468.88	481.14
469.25	476.21
469.62	472.76
469.98	468.86
470.35	465.50
470.72	461.33
471.08	456.48
471.45	453.57
471.82	451.48
472.18	448.02
472.55	445.90
472.92	441.79
473.28	438.74
473.65	435.81
474.02	433.24
474.38	431.29
474.75	429.12
475.11	426.36
475.48	424.62
475.85	423.40
476.21	421.33
476.58	419.71
476.94	418.74
477.31	417.50
477.67	416.40
478.04	415.05
478.41	414.52
478.77	415.95
479.14	414.67
479.50	414.00
479.87	413.79
480.23	413.07
480.60	413.12
480.96	412.86
481.33	413.74
481.69	413.74
482.06	413.90
482.42	414.21
482.79	415.17
483.15	415.67
483.52	416.14
483.88	416.67
484.25	417.40
484.61	417.98
484.98	418.71
485.34	420.07
485.71	421.98
486.07	423.12
486.44	422.67
486.80	424.21
487.17	425.48
487.53	427.93
487.90	430.33
488.26	433.07
488.62	436.26
488.99	438.02
489.35	440.98
489.72	443.55
490.08	446.17
490.44	448.81
490.81	451.93
491.17	455.40
491.54	458.76
491.90	462.88
492.26	466.79
492.63	470.74
492.99	474.52
493.36	478.43
493.72	482.69
494.08	487.45
494.45	492.43
494.81	497.02
495.17	501.21
495.54	506.38
495.90	510.76
496.26	515.52
496.63	521.14
496.99	526.19
497.35	532.00
497.72	537.88
498.08	544.14
498.44	549.79
498.80	556.29
499.17	562.52
499.53	568.12
499.89	574.69
500.26	580.76
500.62	587.21
500.98	594.05
501.34	601.12
501.71	608.98
502.07	616.12
502.43	623.14
502.79	630.38
503.16	637.36
503.52	644.74
503.88	651.71
504.24	659.36
504.60	667.07
504.97	674.67
505.33	681.83
505.69	689.76
506.05	697.95
506.41	705.38
506.78	713.21
507.14	721.55
507.50	729.33
507.86	737.38
508.22	745.86
508.59	753.81
508.95	761.81
509.31	769.95
509.67	777.64
510.03	785.90
510.39	793.88
510.75	801.57
511.12	808.86
511.48	816.64
511.84	823.93
512.20	831.95
512.56	839.38
512.92	846.95
513.28	854.12
513.64	861.17
514.00	868.69
514.37	876.21
514.73	883.31
515.09	891.07
515.45	898.14
515.81	904.40
516.17	910.83
516.53	917.02
516.89	922.36
517.25	929.60
517.61	936.24
517.97	942.67
518.33	949.14
518.69	956.69
519.05	963.24
519.41	969.62
519.77	976.40
520.13	982.29
520.49	987.98
520.85	993.74
521.21	1000.57
521.57	1006.38
521.93	1011.48
522.29	1016.71
522.65	1020.98
523.01	1027.05
523.37	1032.33
523.73	1038.02
524.09	1043.43
524.45	1048.67
524.81	1051.74
525.17	1056.43
525.53	1060.95
525.89	1064.88
526.25	1069.21
526.61	1073.57
526.97	1077.55
527.33	1080.69
527.68	1086.95
528.04	1091.50
528.40	1096.05
528.76	1099.24
529.12	1103.17
529.48	1107.71
529.84	1111.98
530.20	1116.74
530.56	1120.43
530.91	1125.00
531.27	1128.45
531.63	1132.48
531.99	1136.07
532.35	1141.60
532.71	1145.33
533.07	1150.05
533.42	1157.17
533.78	1160.71
534.14	1164.86
534.50	1168.52
534.86	1173.90
535.21	1175.74
535.57	1180.02
535.93	1183.19
536.29	1188.31
536.65	1192.48
537.00	1195.71
537.36	1198.79
537.72	1202.00
538.08	1205.90
538.44	1208.36
538.79	1211.76
539.15	1214.74
539.51	1218.40
539.87	1221.79
540.22	1225.67
540.58	1228.52
540.94	1229.48
541.29	1232.64
541.65	1234.90
542.01	1238.69
542.37	1240.33
542.72	1242.57
543.08	1245.07
543.44	1247.81
543.79	1248.90
544.15	1251.31
544.51	1254.79
544.87	1258.02
545.22	1260.88
545.58	1263.55
545.94	1267.00
546.29	1269.83
546.65	1272.88
547.01	1275.40
547.36	1277.31
547.72	1279.55
548.07	1282.55
548.43	1284.57
548.79	1286.43
549.14	1288.69
549.50	1290.86
549.86	1292.76
550.21	1296.45
550.57	1299.48
550.92	1303.21
551.28	1306.79
551.64	1309.86
551.99	1312.67
552.35	1315.02
552.70	1317.24
553.06	1319.93
553.41	1322.69
553.77	1326.88
554.13	1330.14
554.48	1334.43
554.84	1339.19
555.19	1343.31
555.55	1347.38
555.90	1350.60
556.26	1354.55
556.61	1358.31
556.97	1361.67
557.32	1365.90
557.68	1369.17
558.03	1372.98
558.39	1375.93
558.74	1379.24
559.10	1382.88
559.45	1386.17
559.81	1390.71
560.16	1395.40
560.52	1399.62
560.87	1403.81
561.23	1407.43
561.58	1412.98
561.94	1415.52
562.29	1419.14
562.64	1423.69
563.00	1426.62
563.35	1431.86
563.71	1437.02
564.06	1442.50
564.42	1448.21
564.77	1453.93
565.12	1460.17
565.48	1467.45
565.83	1473.05
566.19	1478.69
566.54	1483.86
566.89	1489.45
567.25	1495.62
567.60	1502.29
567.96	1509.71
568.31	1516.29
568.66	1522.31
569.02	1526.62
569.37	1533.10
569.72	1538.55
570.08	1543.33
570.43	1549.00
570.78	1554.55
571.14	1560.40
571.49	1565.79
571.84	1571.12
572.20	1575.50
572.55	1580.38
572.90	1582.90
573.26	1587.48
573.61	1591.71
573.96	1597.17
574.31	1601.81
574.67	1605.10
575.02	1608.48
575.37	1610.12
575.72	1613.74
576.08	1617.17
576.43	1621.00
576.78	1624.29
577.13	1627.64
577.49	1631.36
577.84	1635.43
578.19	1639.19
578.54	1642.64
578.90	1646.93
579.25	1649.45
579.60	1652.60
579.95	1655.24
580.30	1658.98
580.66	1662.98
581.01	1667.05
581.36	1669.83
581.71	1673.05
582.06	1678.88
582.42	1682.48
582.77	1686.02
583.12	1689.12
583.47	1693.21
583.82	1696.36
584.17	1699.60
584.53	1704.05
584.88	1706.62
585.23	1709.88
585.58	1712.38
585.93	1714.79
586.28	1717.40
586.63	1721.19
586.98	1724.43
587.34	1728.83
587.69	1731.07
588.04	1733.33
588.39	1736.43
588.74	1737.90
589.09	1740.86
589.44	1740.83
589.79	1742.71
590.14	1745.21
590.49	1746.71
590.84	1746.98
591.19	1749.43
591.54	1751.05
591.89	1750.98
592.25	1755.98
592.60	1757.36
592.95	1759.90
593.30	1762.14
593.65	1762.95
594.00	1763.83
594.35	1770.64
594.70	1769.95
595.05	1770.98
595.40	1772.69
595.75	1772.98
596.10	1775.21
596.45	1776.36
596.80	1777.81
597.15	1779.95
597.50	1780.17
597.85	1782.12
598.19	1783.36
598.54	1783.71
598.89	1784.69
599.24	1786.83
599.59	1785.29
599.94	1785.90
600.29	1785.62
600.64	1785.67
600.99	1786.55
601.34	1787.12
601.69	1782.38
602.04	1781.83
602.39	1781.93
602.74	1781.76
603.08	1781.19
603.43	1781.31
603.78	1780.48
604.13	1780.14
604.48	1778.60
604.83	1779.24
605.18	1779.05
605.53	1778.33
605.87	1777.33
606.22	1776.36
606.57	1774.81
606.92	1773.07
607.27	1772.07
607.62	1772.21
607.96	1771.60
608.31	1770.21
608.66	1769.12
609.01	1768.14
609.36	1768.69
609.70	1767.40
610.05	1765.14
610.40	1763.86
610.75	1761.12
611.10	1760.19
611.44	1757.07
611.79	1755.10
612.14	1752.36
612.49	1747.62
612.83	1745.62
613.18	1742.76
613.53	1740.67
613.88	1737.36
614.22	1734.57
614.57	1730.86
614.92	1726.26
615.27	1722.52
615.61	1718.55
615.96	1714.07
616.31	1709.98
616.65	1707.07
617.00	1704.40
617.35	1701.29
617.70	1698.38
618.04	1695.31
618.39	1690.67
618.74	1688.62
619.08	1684.76
619.43	1681.83
619.78	1679.57
620.12	1676.69
620.47	1673.98
620.82	1669.14
621.16	1665.52
621.51	1662.38
621.85	1658.67
622.20	1655.21
622.55	1651.07
622.89	1648.17
623.24	1646.60
623.59	1642.55
623.93	1638.05
624.28	1633.98
624.62	1631.98
624.97	1628.57
625.32	1624.26
625.66	1621.02
626.01	1616.93
626.35	1613.31
626.70	1609.10
627.04	1606.14
627.39	1601.10
627.73	1597.10
628.08	1595.00
628.43	1591.12
628.77	1587.19
629.12	1583.05
629.46	1579.64
629.81	1576.24
630.15	1571.33
630.50	1565.93
630.84	1561.83
631.19	1556.67
631.53	1552.43
631.88	1545.48
632.22	1538.93
632.57	1535.38
632.91	1529.83
633.26	1524.76
633.60	1519.76
633.95	1514.62
634.29	1508.90
634.64	1504.29
634.98	1499.40
635.32	1495.19
635.67	1491.69
636.01	1487.74
636.36	1483.48
636.70	1479.48
637.05	1474.62
637.39	1470.83
637.73	1466.17
638.08	1462.36
638.42	1457.98
638.77	1453.71
639.11	1449.12
639.45	1444.19
639.80	1438.43
640.14	1434.29
640.49	1429.07
640.83	1423.10
641.17	1418.62
641.52	1413.83
641.86	1409.45
642.20	1405.14
642.55	1399.02
642.89	1393.45
643.23	1386.67
643.58	1382.19
643.92	1375.45
644.26	1369.38
644.61	1363.57
644.95	1358.33
645.29	1351.48
645.64	1346.79
645.98	1340.76
646.32	1335.83
646.66	1331.07
647.01	1325.26
647.35	1319.90
647.69	1315.05
648.04	1310.98
648.38	1305.33
648.72	1299.52
649.06	1293.19
649.41	1286.40
649.75	1279.07
650.09	1272.50
650.43	1266.43
650.78	1259.81
651.12	1253.76
651.46	1248.07
651.80	1242.02
652.14	1235.45
652.49	1230.60
652.83	1223.57
653.17	1216.52
653.51	1210.07
653.85	1204.50
654.20	1198.43
654.54	1191.21
654.88	1184.83
655.22	1178.88
655.56	1172.60
655.90	1166.48
656.25	1160.31
656.59	1154.95
656.93	1149.95
657.27	1144.71
657.61	1139.00
657.95	1133.31
658.29	1127.33
658.64	1121.14
658.98	1114.79
659.32	1108.62
659.66	1102.02
660.00	1096.38
660.34	1091.45
660.68	1085.83
661.02	1079.02
661.36	1073.55
661.70	1068.05
662.05	1061.60
662.39	1055.29
662.73	1049.31
663.07	1044.76
663.41	1039.02
663.75	1032.79
664.09	1026.88
664.43	1020.62
664.77	1015.07
665.11	1008.48
665.45	1003.33
665.79	997.98
666.13	992.55
666.47	987.05
666.81	981.29
667.15	975.48
667.49	969.69
667.83	963.98
668.17	959.05
668.51	953.17
668.85	947.31
669.19	943.10
669.53	936.64
669.87	930.90
670.21	924.57
670.55	918.81
670.89	914.36
671.23	909.55
671.57	904.17
671.91	898.90
672.25	893.93
672.58	888.81
672.92	883.19
673.26	878.26
673.60	873.14
673.94	867.67
674.28	862.81
674.62	858.26
674.96	852.95
675.30	847.62
675.64	842.40
675.97	837.93
676.31	831.98
676.65	827.17
676.99	823.43
677.33	818.17
677.67	813.26
678.01	807.60
678.34	802.43
678.68	797.60
679.02	792.10
679.36	787.02
679.70	781.31
680.04	776.64
680.37	771.12
680.71	766.10
681.05	761.81
681.39	757.12
681.73	751.52
682.06	746.79
682.40	742.55
682.74	738.14
683.08	734.07
683.42	729.14
683.75	724.76
684.09	719.26
684.43	714.64
684.77	709.81
685.10	705.05
685.44	700.38
685.78	695.33
686.12	690.83
686.45	686.64
686.79	682.05
687.13	677.69
687.46	672.93
687.80	668.83
688.14	663.81
688.48	658.95
688.81	654.31
689.15	650.10
689.49	645.00
689.82	640.67
690.16	635.33
690.50	631.00
690.83	626.29
691.17	621.69
691.51	616.76
691.84	613.10
692.18	608.95
692.52	604.55
692.85	601.24
693.19	597.76
693.52	593.05
693.86	588.83
694.20	584.62
694.53	580.62
694.87	576.57
695.21	572.52
695.54	568.71
695.88	564.50
696.21	559.95
696.55	556.10
696.88	551.90
697.22	548.07
697.56	544.45
697.89	541.60
698.23	538.19
698.56	534.40
698.90	530.69
699.23	526.29
699.57	522.69
699.90	518.36
700.24	514.76
700.58	511.79
700.91	508.74
701.25	507.14
701.58	504.67
701.92	501.38
702.25	498.52
702.59	494.57
702.92	491.48
703.26	488.45
703.59	485.40
703.93	484.45
704.26	481.36
704.60	478.02
704.93	474.29
705.26	470.64
705.60	468.29
705.93	464.67
706.27	462.14
706.60	459.55
706.94	457.48
707.27	453.69
707.61	450.76
707.94	447.76
708.27	443.14
708.61	439.71
708.94	436.69
709.28	434.10
709.61	431.76
709.94	429.43
710.28	427.12
710.61	424.57
710.95	419.86
711.28	418.83
711.61	416.79
711.95	414.90
712.28	412.33
712.61	409.50
712.95	408.33
713.28	406.95
713.61	404.02
713.95	400.93
714.28	399.02
714.61	396.69
714.95	394.12
715.28	391.71
715.61	389.31
715.95	387.31
716.28	384.50
716.61	382.50
716.95	379.76
717.28	377.36
717.61	375.29
717.94	373.55
718.28	370.21
718.61	367.88
718.94	365.83
719.27	363.83
719.61	362.24
719.94	359.79
720.27	357.07
720.60	355.21
720.94	353.45
721.27	351.81
721.60	350.55
721.93	348.95
722.27	348.07
722.60	346.69
722.93	344.48
723.26	343.02
723.59	341.07
723.93	339.93
724.26	338.62
724.59	337.07
724.92	335.74
725.25	334.90
725.59	333.76
725.92	332.43
726.25	331.19
726.58	329.64
726.91	328.48
727.24	327.40
727.57	326.19
727.91	324.71
728.24	323.33
728.57	321.64
728.90	320.60
729.23	318.62
729.56	318.40
729.89	317.60
730.22	316.67
730.55	315.38
730.89	314.05
731.22	312.69
731.55	311.31
731.88	309.83
732.21	308.21
732.54	306.81
732.87	305.50
733.20	304.55
733.53	303.86
733.86	302.76
734.19	301.29
734.52	300.57
734.85	301.24
735.18	299.93
735.51	299.62
735.84	298.86
736.17	298.48
736.50	296.64
736.83	298.02
737.16	297.19
737.49	296.74
737.82	295.93
738.15	295.19
738.48	294.62
738.81	293.81
739.14	292.71
739.47	291.48
739.80	290.71
740.13	289.88
740.46	288.55
740.79	287.26
741.12	286.52
741.45	285.48
741.78	283.24
742.11	283.24
742.44	281.79
742.77	281.38
743.10	280.31
743.43	279.12
743.75	276.17
744.08	277.74
744.41	276.64
744.74	275.83
745.07	274.76
745.40	274.24
745.73	274.29
746.06	273.71
746.39	273.50
746.71	272.36
747.04	271.64
747.37	270.90
747.70	270.76
748.03	270.12
748.36	269.67
748.68	269.26
749.01	267.74
749.34	267.07
749.67	266.29
750.00	265.93
750.33	266.86
750.65	266.62
750.98	263.74
751.31	263.43
751.64	263.00
751.97	263.64
752.29	262.83
752.62	261.48
752.95	261.00
753.28	260.07
753.60	259.76
753.93	259.48
754.26	259.10
754.59	257.90
754.91	257.33
755.24	256.57
755.57	255.90
755.90	255.62
756.22	255.07
756.55	253.86
756.88	252.62
757.20	250.86
757.53	249.48
757.86	248.74
758.19	248.21
758.51	247.83
758.84	246.38
759.17	245.74
759.49	245.38
759.82	245.57
760.15	245.60
760.47	244.81
760.80	243.88
761.13	243.88
761.45	243.50
761.78	242.98
762.11	242.67
762.43	242.12
762.76	241.90
763.08	241.62
763.41	241.76
763.74	241.90
764.06	241.95
764.39	241.79
764.71	241.29
765.04	240.79
765.37	240.05
765.69	239.57
766.02	239.05
766.34	238.45
766.67	237.36
767.00	237.31
767.32	238.21
767.65	239.17
767.97	238.76
768.30	238.45
768.62	238.31
768.95	237.76
769.27	237.43
769.60	237.14
769.92	236.67
770.25	236.17
770.57	235.36
770.90	234.76
771.22	234.36
771.55	234.38
771.87	234.21
772.20	233.90
772.52	235.33
772.85	237.67
773.17	237.62
773.50	237.60
773.82	236.83
774.15	235.62
774.47	234.00
774.80	233.62
775.12	233.55
775.45	233.12
775.77	232.95
776.09	232.90
776.42	232.83
776.74	233.36
777.07	233.12
777.39	233.19
777.72	232.83
778.04	232.86
778.36	232.48
778.69	232.17
779.01	232.12
779.33	230.26
779.66	227.69
779.98	227.29
780.31	227.14
780.63	227.98
780.95	228.19
781.28	228.17
781.60	227.60
781.92	227.29
782.25	227.05
782.57	227.12
782.89	226.79
783.22	226.52
783.54	225.86
783.86	225.81
784.19	225.45
784.51	225.95
784.83	225.69
785.16	225.52
785.48	225.60
785.80	225.74
786.12	225.74
786.45	225.64
786.77	225.74
787.09	225.31
787.42	224.38
787.74	224.36
788.06	224.48
788.38	224.60
788.71	224.33
789.03	224.52
789.35	224.62
789.67	224.19
789.99	224.05
790.32	223.76
790.64	223.83
790.96	225.55
791.28	224.71
791.61	224.40
791.93	224.40
792.25	224.14
792.57	225.43
792.89	224.86
793.21	224.95
793.54	224.55
793.86	224.10
794.18	224.26
794.50	223.93
794.82	223.79
795.14	223.88
795.47	224.40
795.79	224.26
796.11	223.69
796.43	223.69
796.75	223.79
797.07	223.67
797.39	223.21
797.71	221.40
798.04	221.55
798.36	221.67
798.68	221.52
799.00	221.62
799.32	220.21
799.64	220.83
799.96	220.81
800.28	221.29
800.60	221.50
800.92	221.52
801.24	221.10
801.56	221.17
801.89	220.81
802.21	220.67
802.53	220.21
802.85	220.52
803.17	221.33
803.49	220.79
803.81	220.67
804.13	220.69
804.45	220.57
804.77	220.57
805.09	220.45
805.41	220.21
805.73	219.76
806.05	219.33
806.37	218.83
806.69	218.55
807.01	218.38
807.33	218.31
807.65	217.33
807.97	218.45
808.28	218.38
808.60	218.45
808.92	218.19
809.24	219.50
809.56	219.33
809.88	218.69
810.20	218.86
810.52	219.05
810.84	218.88
811.16	219.05
811.48	218.81
811.80	219.52
812.12	219.52
812.43	220.14
812.75	220.48
813.07	220.29
813.39	220.45
813.71	220.02
814.03	219.90
814.35	220.12
814.67	219.21
814.98	218.81
815.30	218.55
815.62	218.26
815.94	216.90
816.26	217.00
816.58	216.60
816.89	216.55
817.21	216.24
817.53	216.19
817.85	216.00
818.17	216.10
818.48	215.29
818.80	215.57
819.12	215.05
819.44	214.60
819.76	214.45
820.07	214.31
820.39	214.52
820.71	214.74
821.03	214.79
821.34	214.62
821.66	214.86
821.98	215.21
822.30	215.10
822.61	216.43
822.93	215.98
823.25	215.88
823.57	215.69
823.88	215.93
824.20	215.98
824.52	216.24
824.83	216.10
825.15	215.88
825.47	215.74
825.79	215.88
826.10	215.60
826.42	215.62
826.74	215.86
827.05	215.55
827.37	215.64
827.69	215.60
828.00	215.69
828.32	215.76
828.64	215.33
828.95	216.48
829.27	215.95
829.58	216.12
829.90	216.52
830.22	216.67
830.53	216.45
830.85	216.14
831.17	215.64
831.48	215.45
831.80	215.57
832.11	215.33
832.43	215.00
832.75	215.14
833.06	216.45
833.38	215.81
833.69	215.81
834.01	215.60
834.32	215.52
834.64	215.14
834.96	215.17
835.27	215.43
835.59	214.48
835.90	213.83
836.22	213.83
836.53	213.36
836.85	213.19
837.16	215.17
837.48	215.19
837.79	215.90
838.11	216.10
838.42	216.02
838.74	216.40
839.05	216.14
839.37	216.02
839.68	214.60
840.00	214.36
840.31	214.57
840.63	214.50
840.94	214.36
841.26	214.17
841.57	214.00
841.88	214.00
842.20	213.79
842.51	213.55
842.83	213.33
843.14	215.17
843.46	215.17
843.77	213.98
844.08	214.07
844.40	213.33
844.71	213.26
845.03	213.36
845.34	213.33
845.65	213.24
845.97	213.40
846.28	213.71
846.60	214.14
846.91	213.79
847.22	213.74
847.54	214.00
847.85	214.10
848.16	213.95
848.48	213.57
848.79	214.50
849.10	214.95
849.42	215.29
849.73	213.45
850.04	213.40
850.36	212.64
850.67	212.95
850.98	213.12
851.30	213.00
851.61	212.88
851.92	212.71
852.23	213.50
852.55	213.67
852.86	213.55
853.17	213.43
853.49	213.95
853.80	214.31
854.11	214.45
854.42	214.86
854.74	214.60
855.05	214.71
855.36	213.60
855.67	213.67
855.99	213.67
856.30	216.14
856.61	216.00
856.92	216.02
857.23	215.86
857.55	215.43
857.86	215.45
858.17	215.52
858.48	215.26
858.79	214.95
859.11	215.05
859.42	214.83
859.73	214.88
860.04	214.57
860.35	213.95
860.66	213.57
860.98	213.43
861.29	213.81
861.60	213.60
861.91	214.02
862.22	213.31
862.53	212.79
862.84	210.31
863.16	210.98
863.47	210.76
863.78	210.50
864.09	210.86
864.40	211.10
864.71	211.21
865.02	211.31
865.33	210.88
865.64	210.29
865.95	210.57
866.27	211.71
866.58	211.62
866.89	212.07
867.20	211.90
867.51	211.50
867.82	211.19
868.13	211.86
868.44	211.55
868.75	211.95
869.06	212.21
869.37	212.48
869.68	211.95
869.99	212.26
870.30	212.43
870.61	212.38
870.92	211.95
871.23	211.76
871.54	212.21
871.85	212.83
872.16	213.40
872.47	212.95
872.78	211.57
873.09	211.74
873.40	211.57
873.71	211.76
874.02	211.95
874.33	211.81
874.64	211.36
874.95	211.76
875.26	211.55
875.56	211.52
875.87	211.33
876.18	211.12
876.49	213.19
876.80	213.29
877.11	213.14
877.42	213.26
877.73	213.19
878.04	212.69
878.35	212.83
878.66	212.62
878.96	212.83
879.27	213.02
879.58	213.14
879.89	213.00
880.20	213.52
880.51	213.40
880.82	213.55
881.12	213.69
881.43	212.88
881.74	212.69
882.05	212.62
882.36	212.88
882.67	213.07
882.97	210.76
883.28	210.43
883.59	210.43
883.90	210.57
884.21	210.71
884.51	210.79
884.82	210.24
885.13	210.38
885.44	210.31
885.74	210.55
886.05	210.48
886.36	210.45
886.67	209.83
886.98	211.05
887.28	211.33
887.59	211.21
887.90	211.71
888.20	211.69
888.51	212.07
888.82	211.60
889.13	211.76
889.43	213.45
889.74	213.43
890.05	213.29
890.35	213.31
890.66	213.26
890.97	213.21
891.28	213.02
891.58	213.00
891.89	212.86
892.20	212.52
892.50	212.19
892.81	212.12
893.12	212.05
893.42	210.90
893.73	210.86
894.04	210.86
894.34	210.79
894.65	210.86
894.95	210.36
895.26	210.62
895.57	211.52
895.87	209.55
896.18	209.98
896.48	210.36
896.79	210.14
897.10	210.43
897.40	210.40
897.71	210.79
898.01	210.64
898.32	211.17
898.63	210.98
898.93	211.33
899.24	211.21
899.54	211.17
899.85	211.31
900.15	211.33
900.46	211.33
900.76	211.71
901.07	211.76
901.38	212.02
901.68	212.17
901.99	211.00
902.29	211.17
902.60	211.02
902.90	210.64
903.21	210.71
903.51	210.40
903.82	210.83
904.12	210.86
904.43	211.19
904.73	211.12
905.03	211.48
905.34	213.21
905.64	213.21
905.95	213.21
906.25	213.33
906.56	213.31
906.86	213.36
907.17	213.21
907.47	213.19
907.77	213.10
908.08	212.74
908.38	212.90
908.69	213.26
908.99	213.69
909.30	213.88
909.60	213.81
909.90	214.12
910.21	213.48
910.51	213.19
910.81	212.93
911.12	212.79
911.42	212.60
911.73	210.50
912.03	210.79
912.33	211.21
912.64	211.07
912.94	210.95
913.24	210.67
913.55	210.52
913.85	210.43
914.15	210.69
914.46	211.21
914.76	211.10
915.06	210.86
915.37	210.21
915.67	210.05
915.97	210.02
916.27	209.55
916.58	209.81
916.88	209.69
917.18	209.69
917.49	211.07
917.79	211.24
918.09	211.55
918.39	211.88
918.70	211.62
919.00	211.55
919.30	212.19
919.60	212.24
919.91	212.07
920.21	212.26
920.51	211.86
920.81	211.36
921.12	211.76
921.42	211.69
921.72	212.07
922.02	212.33
922.32	212.81
922.63	212.81
922.93	213.79
923.23	213.98
923.53	213.83
923.83	212.69
924.13	212.69
924.44	212.79
924.74	213.29
925.04	213.88
925.34	214.07
925.64	213.52
925.94	213.69
926.24	214.98
926.55	214.79
926.85	214.93
927.15	215.02
927.45	215.02
927.75	214.98
928.05	214.86
928.35	214.64
928.65	215.14
928.95	215.24
929.26	214.43
929.56	214.95
929.86	215.12
930.16	214.88
930.46	215.05
930.76	214.95
931.06	213.88
931.36	213.48
931.66	213.71
931.96	213.90
932.26	213.86
932.56	212.98
932.86	213.26
933.16	213.43
933.46	213.31
933.76	212.81
934.06	213.31
934.36	213.98
934.66	213.79
934.96	213.33
935.26	213.69
935.56	213.83
935.86	213.00
936.16	212.81
936.46	212.76
936.76	212.38
937.06	212.17
937.36	212.62
937.66	212.62
937.96	212.52
938.26	212.10
938.56	212.10
938.86	212.17
939.16	212.40
939.46	212.52
939.76	212.79
940.06	212.95
940.35	212.45
940.65	211.60
940.95	211.86
941.25	211.12
941.55	210.76
941.85	210.67
942.15	211.33
942.45	211.76
942.75	211.79
943.04	211.93
943.34	212.31
943.64	211.83
943.94	211.36
944.24	211.29
944.54	211.29
944.84	211.07
945.13	210.62
945.43	210.29
945.73	210.14
946.03	209.83
946.33	209.55
946.62	209.57
946.92	209.57
947.22	209.90
947.52	210.14
947.82	210.52
948.11	210.26
948.41	209.79
948.71	209.19
949.01	209.17
949.31	208.90
949.60	208.74
949.90	209.21
950.20	209.24
950.50	209.26
950.79	209.17
951.09	209.50
951.39	209.52
951.69	209.31
951.98	209.81
952.28	210.02
952.58	210.05
952.87	210.02
953.17	210.17
953.47	209.90
953.76	209.83
954.06	209.48
954.36	209.43
954.66	209.64
954.95	210.40
955.25	210.60
955.55	210.74
955.84	210.33
956.14	210.40
956.44	210.67
956.73	210.48
957.03	210.64
957.32	210.50
957.62	210.43
957.92	210.76
958.21	210.45
958.51	212.71
958.81	213.07
959.10	213.31
959.40	214.00
959.69	214.02
959.99	214.40
960.29	214.26
960.58	214.19
960.88	214.83
961.17	214.60
961.47	214.98
961.76	215.07
962.06	215.52
962.36	215.17
962.65	215.38
962.95	215.40
963.24	215.45
963.54	215.69
963.83	215.90
964.13	215.81
964.42	215.31
964.72	213.55
965.01	213.52
965.31	213.31
965.60	212.48
965.90	213.71
966.19	213.31
966.49	213.45
966.78	213.29
967.08	213.00
967.37	212.98
967.67	212.21
967.96	212.43
968.26	212.40
968.55	212.93
968.85	212.62
969.14	212.48
969.43	212.24
969.73	212.10
970.02	211.88
970.32	211.88
970.61	212.05
970.91	211.67
971.20	211.33
971.49	211.29
971.79	211.79
972.08	210.31
972.38	210.60
972.67	210.45
972.96	210.83
973.26	210.50
973.55	211.07
973.85	210.98
974.14	210.81
974.43	210.90
974.73	210.21
975.02	210.07
975.31	210.31
975.61	210.40
975.90	210.00
976.19	210.07
976.49	210.14
976.78	210.21
977.07	210.12
977.37	210.29
977.66	210.40
977.95	209.90
978.24	210.12
978.54	210.33
978.83	210.26
979.12	210.12
979.42	210.02
979.71	209.31
980.00	209.45
980.29	209.55
980.59	209.14
980.88	209.74
981.17	209.69
981.46	209.48
981.76	209.43
982.05	210.05
982.34	209.98
982.63	210.24
982.93	210.14
983.22	210.69
983.51	210.67
983.80	210.88
984.09	211.05
984.39	210.74
984.68	210.64
984.97	210.76
985.26	210.81
985.55	210.88
985.85	210.71
986.14	211.02
986.43	211.12
986.72	211.10
987.01	210.60
987.30	210.69
987.59	210.40
987.89	210.74
988.18	210.33
988.47	210.21
988.76	209.95
989.05	209.69
989.34	209.36
989.63	210.10
989.92	209.79
990.22	209.79
990.51	210.02
990.80	209.98
991.09	210.21
991.38	210.40
991.67	210.19
991.96	210.17
992.25	210.19
992.54	209.98
992.83	210.10
993.12	209.90
993.41	210.40
993.70	211.55
993.99	211.69
994.28	212.12
994.58	212.55
994.87	212.29
995.16	212.38
995.45	211.95
995.74	211.14
996.03	211.69
996.32	211.93
996.61	212.31
996.90	212.02
997.19	211.98
997.48	211.90
997.77	211.69
998.06	211.83
998.34	211.67
998.63	211.79
998.92	211.74
999.21	212.10
999.50	211.95
999.79	211.33
1000.08	211.31
1000.37	211.21
1000.66	210.83
1000.95	211.50
1001.24	211.48
1001.53	211.90
1001.82	211.90
1002.11	211.29
1002.40	211.48
1002.68	211.79
1002.97	213.31
1003.26	213.02
1003.55	212.86
1003.84	213.19
1004.13	213.79
1004.42	213.60
1004.71	213.45
1004.99	213.29
1005.28	213.95
1005.57	213.69
1005.86	213.26
1006.15	212.93
1006.44	212.69
1006.72	213.14
1007.01	212.50
1007.30	212.67
1007.59	212.60
1007.88	212.50
1008.17	212.48
1008.45	211.98
1008.74	211.14
1009.03	210.36
1009.32	210.48
1009.60	210.19
1009.89	209.88
1010.18	209.19
1010.47	209.17
1010.76	209.19
1011.04	209.26
1011.33	209.02
1011.62	209.26
1011.91	209.43
1012.19	209.69
1012.48	209.62
1012.77	209.48
1013.05	210.48
1013.34	210.45
1013.63	210.26
1013.92	210.43
1014.20	210.60
1014.49	210.98
1014.78	211.29
1015.06	210.43
1015.35	210.38
1015.64	210.95
1015.92	211.48
1016.21	211.45
1016.50	211.43
1016.78	211.50
1017.07	211.64
1017.36	211.50
1017.64	211.21
1017.93	211.64
1018.22	211.24
1018.50	211.26
1018.79	211.24
1019.08	210.24
1019.36	210.40
1019.65	210.14
1019.93	210.64
1020.22	211.00
1020.51	211.90
1020.79	211.60
1021.08	205.50
1021.36	208.50
1021.65	212.00
1021.94	207.00
1022.22	212.50
1022.51	204.00
1022.79	219.00
1023.08	217.00
1023.36	237.00
1023.65	205.00
>>>>>End Processed Spectral Data<<<<<
