SpectraSuite Data File
++++++++++++++++++++++++++++++++++++
Date: Tue Apr 02 18:44:39 EDT 2013
User: group
Dark Spectrum Present: No
Reference Spectrum Present: No
Number of Sampled Component Spectra: 1
Spectrometers: USB2E7196
Integration Time (usec): 580000 (USB2E7196)
Spectra Averaged: 2 (USB2E7196)
Boxcar Smoothing: 10 (USB2E7196)
Correct for Electrical Dark: No (USB2E7196)
Strobe/Lamp Enabled: No (USB2E7196)
Correct for Detector Non-linearity: No (USB2E7196)
Correct for Stray Light: No (USB2E7196)
Number of Pixels in Processed Spectrum: 2048
>>>>>Begin Processed Spectral Data<<<<<
339.09	0.00
339.48	194.50
339.86	195.50
340.24	197.00
340.63	197.50
341.01	229.50
341.39	198.50
341.78	205.50
342.16	210.00
342.54	203.00
342.93	197.48
343.31	207.36
343.69	207.93
344.07	208.29
344.46	209.19
344.84	209.93
345.22	208.90
345.60	209.60
345.99	209.67
346.37	209.57
346.75	209.76
347.13	209.71
347.52	209.79
347.90	210.38
348.28	210.21
348.66	210.71
349.05	210.21
349.43	210.43
349.81	210.48
350.19	210.55
350.57	210.50
350.96	210.86
351.34	211.14
351.72	211.05
352.10	211.26
352.48	210.83
352.87	210.55
353.25	210.86
353.63	210.60
354.01	210.74
354.39	210.95
354.77	211.14
355.15	211.83
355.54	211.95
355.92	211.31
356.30	211.33
356.68	212.62
357.06	212.79
357.44	212.62
357.82	212.57
358.20	213.36
358.58	213.60
358.97	213.60
359.35	213.86
359.73	214.31
360.11	214.29
360.49	214.52
360.87	214.74
361.25	214.43
361.63	215.10
362.01	215.21
362.39	215.19
362.77	215.33
363.15	215.33
363.53	215.19
363.91	215.40
364.29	215.43
364.67	213.71
365.05	213.88
365.43	214.12
365.81	214.36
366.19	214.60
366.57	215.40
366.95	215.40
367.33	214.81
367.71	215.00
368.09	215.45
368.47	215.45
368.85	215.38
369.23	216.19
369.61	215.43
369.99	216.00
370.37	216.26
370.75	217.19
371.13	216.71
371.51	216.67
371.89	216.90
372.27	217.21
372.65	217.19
373.03	217.19
373.41	216.95
373.78	216.86
374.16	215.81
374.54	215.21
374.92	215.12
375.30	215.33
375.68	215.02
376.06	215.17
376.44	215.07
376.82	215.31
377.19	215.00
377.57	215.10
377.95	214.62
378.33	214.43
378.71	213.21
379.09	213.55
379.47	213.74
379.84	213.43
380.22	213.24
380.60	213.21
380.98	212.81
381.36	212.81
381.73	212.62
382.11	213.02
382.49	212.95
382.87	212.64
383.25	212.69
383.62	215.29
384.00	214.79
384.38	214.88
384.76	215.24
385.13	216.05
385.51	216.07
385.89	215.81
386.27	215.71
386.64	216.14
387.02	215.90
387.40	215.64
387.78	215.71
388.15	215.83
388.53	215.62
388.91	216.05
389.29	215.98
389.66	216.43
390.04	216.14
390.42	216.76
390.79	217.00
391.17	217.12
391.55	214.57
391.92	214.64
392.30	214.76
392.68	214.38
393.05	214.10
393.43	214.31
393.81	214.26
394.18	214.07
394.56	214.12
394.94	214.55
395.31	214.45
395.69	215.14
396.06	215.45
396.44	215.67
396.82	215.45
397.19	216.50
397.57	216.17
397.95	216.38
398.32	215.57
398.70	215.76
399.07	216.31
399.45	216.26
399.82	216.40
400.20	216.21
400.58	216.07
400.95	215.52
401.33	215.90
401.70	217.45
402.08	217.76
402.45	217.76
402.83	218.17
403.20	218.24
403.58	218.07
403.95	218.43
404.33	219.00
404.71	219.33
405.08	220.38
405.46	220.71
405.83	221.43
406.21	221.74
406.58	222.21
406.96	222.17
407.33	222.86
407.70	223.45
408.08	225.57
408.45	226.48
408.83	227.48
409.20	227.79
409.58	227.40
409.95	228.62
410.33	229.43
410.70	230.07
411.08	231.48
411.45	232.40
411.82	233.17
412.20	234.60
412.57	237.21
412.95	236.90
413.32	238.67
413.69	239.81
414.07	241.60
414.44	243.38
414.82	245.50
415.19	247.64
415.56	250.05
415.94	251.26
416.31	254.07
416.68	256.69
417.06	259.88
417.43	263.55
417.81	266.88
418.18	270.48
418.55	274.05
418.93	277.93
419.30	282.19
419.67	286.55
420.04	290.67
420.42	294.36
420.79	301.36
421.16	306.81
421.54	313.57
421.91	319.62
422.28	325.69
422.66	332.17
423.03	340.10
423.40	346.71
423.77	354.10
424.15	361.17
424.52	369.00
424.89	377.64
425.26	385.21
425.64	393.00
426.01	401.14
426.38	409.83
426.75	419.38
427.13	428.43
427.50	438.12
427.87	448.21
428.24	458.81
428.61	467.12
428.99	478.55
429.36	489.14
429.73	500.43
430.10	511.86
430.47	523.55
430.85	533.88
431.22	546.55
431.59	561.19
431.96	573.71
432.33	587.52
432.70	600.83
433.08	616.48
433.45	631.19
433.82	646.88
434.19	663.71
434.56	680.40
434.93	695.90
435.30	711.88
435.68	729.62
436.05	746.14
436.42	763.36
436.79	779.05
437.16	795.76
437.53	813.76
437.90	831.50
438.27	849.40
438.64	867.74
439.01	884.52
439.38	898.40
439.75	913.38
440.13	930.33
440.50	945.93
440.87	958.48
441.24	971.93
441.61	986.26
441.98	997.24
442.35	1009.52
442.72	1022.86
443.09	1036.26
443.46	1042.79
443.83	1048.33
444.20	1053.19
444.57	1059.62
444.94	1062.79
445.31	1065.98
445.68	1071.90
446.05	1073.24
446.42	1071.93
446.79	1070.76
447.16	1067.95
447.53	1067.26
447.90	1061.05
448.27	1054.90
448.64	1046.83
449.01	1040.69
449.37	1029.71
449.74	1018.88
450.11	1007.36
450.48	992.19
450.85	975.83
451.22	963.98
451.59	951.86
451.96	939.31
452.33	923.26
452.70	909.79
453.07	893.07
453.43	873.05
453.80	856.29
454.17	840.79
454.54	825.45
454.91	809.98
455.28	793.50
455.65	778.52
456.02	767.52
456.38	755.29
456.75	739.90
457.12	726.83
457.49	713.83
457.86	699.07
458.23	689.50
458.59	678.10
458.96	666.12
459.33	655.69
459.70	646.02
460.07	638.00
460.43	628.17
460.80	619.31
461.17	612.12
461.54	603.95
461.91	595.60
462.27	587.40
462.64	580.14
463.01	572.81
463.38	566.05
463.74	554.83
464.11	548.21
464.48	542.24
464.85	535.74
465.21	531.71
465.58	526.88
465.95	520.02
466.32	514.90
466.68	509.62
467.05	504.52
467.42	499.38
467.78	493.81
468.15	488.83
468.52	485.05
468.88	479.52
469.25	474.40
469.62	471.33
469.98	467.29
470.35	463.83
470.72	460.10
471.08	455.40
471.45	452.95
471.82	449.93
472.18	446.67
472.55	444.33
472.92	440.36
473.28	437.83
473.65	435.50
474.02	432.67
474.38	430.67
474.75	428.76
475.11	426.90
475.48	425.19
475.85	423.71
476.21	421.88
476.58	420.76
476.94	420.17
477.31	418.74
477.67	417.64
478.04	416.74
478.41	416.17
478.77	418.07
479.14	416.83
479.50	416.07
479.87	415.83
480.23	415.38
480.60	414.88
480.96	414.62
481.33	415.14
481.69	415.64
482.06	415.81
482.42	415.86
482.79	415.69
483.15	415.69
483.52	416.19
483.88	416.64
484.25	417.05
484.61	417.86
484.98	418.38
485.34	420.52
485.71	422.33
486.07	423.71
486.44	422.95
486.80	424.43
487.17	425.76
487.53	428.10
487.90	430.48
488.26	433.50
488.62	436.43
488.99	438.00
489.35	440.64
489.72	443.52
490.08	446.07
490.44	449.21
490.81	452.74
491.17	455.71
491.54	459.19
491.90	463.24
492.26	466.90
492.63	471.00
492.99	474.17
493.36	477.83
493.72	482.43
494.08	486.86
494.45	491.67
494.81	496.90
495.17	501.07
495.54	506.14
495.90	511.00
496.26	515.50
496.63	521.83
496.99	527.05
497.35	533.10
497.72	539.12
498.08	544.74
498.44	550.69
498.80	557.40
499.17	563.81
499.53	569.71
499.89	576.62
500.26	583.29
500.62	589.98
500.98	597.33
501.34	604.12
501.71	611.67
502.07	618.60
502.43	625.21
502.79	632.24
503.16	639.05
503.52	646.43
503.88	653.29
504.24	660.12
504.60	667.60
504.97	674.67
505.33	682.60
505.69	691.45
506.05	699.05
506.41	707.14
506.78	714.40
507.14	722.24
507.50	729.86
507.86	737.29
508.22	745.26
508.59	752.17
508.95	760.10
509.31	768.40
509.67	776.45
510.03	784.31
510.39	792.38
510.75	799.93
511.12	807.45
511.48	815.60
511.84	823.12
512.20	830.57
512.56	838.74
512.92	846.14
513.28	853.43
513.64	860.90
514.00	867.17
514.37	874.38
514.73	881.76
515.09	889.10
515.45	895.64
515.81	902.29
516.17	909.83
516.53	915.86
516.89	921.52
517.25	928.07
517.61	935.26
517.97	941.69
518.33	948.50
518.69	954.79
519.05	961.00
519.41	967.10
519.77	974.29
520.13	979.98
520.49	984.81
520.85	989.52
521.21	996.17
521.57	1002.60
521.93	1008.33
522.29	1013.43
522.65	1018.43
523.01	1025.29
523.37	1030.45
523.73	1035.24
524.09	1039.98
524.45	1045.00
524.81	1049.48
525.17	1053.64
525.53	1057.83
525.89	1062.69
526.25	1067.48
526.61	1071.55
526.97	1075.98
527.33	1079.98
527.68	1085.83
528.04	1090.79
528.40	1095.29
528.76	1098.40
529.12	1102.52
529.48	1107.07
529.84	1111.00
530.20	1115.83
530.56	1119.55
530.91	1123.36
531.27	1127.55
531.63	1132.71
531.99	1137.00
532.35	1140.50
532.71	1144.24
533.07	1149.45
533.42	1155.17
533.78	1159.10
534.14	1163.21
534.50	1166.90
534.86	1171.24
535.21	1173.19
535.57	1178.24
535.93	1182.43
536.29	1187.71
536.65	1191.76
537.00	1195.50
537.36	1199.93
537.72	1202.24
538.08	1205.79
538.44	1209.57
538.79	1212.95
539.15	1215.43
539.51	1218.74
539.87	1222.67
540.22	1226.50
540.58	1229.40
540.94	1230.76
541.29	1233.95
541.65	1236.50
542.01	1240.10
542.37	1243.10
542.72	1245.76
543.08	1247.48
543.44	1249.86
543.79	1250.48
544.15	1253.00
544.51	1256.05
544.87	1258.48
545.22	1262.64
545.58	1264.93
545.94	1267.83
546.29	1270.83
546.65	1273.64
547.01	1275.86
547.36	1278.57
547.72	1280.79
548.07	1283.79
548.43	1286.17
548.79	1289.17
549.14	1292.29
549.50	1294.79
549.86	1295.81
550.21	1298.48
550.57	1301.50
550.92	1304.02
551.28	1308.40
551.64	1311.45
551.99	1313.79
552.35	1316.40
552.70	1318.69
553.06	1321.62
553.41	1324.10
553.77	1327.64
554.13	1331.52
554.48	1335.48
554.84	1339.76
555.19	1343.50
555.55	1347.71
555.90	1351.00
556.26	1353.90
556.61	1357.57
556.97	1360.71
557.32	1365.50
557.68	1369.74
558.03	1373.45
558.39	1377.07
558.74	1380.88
559.10	1384.93
559.45	1389.57
559.81	1394.17
560.16	1397.98
560.52	1402.26
560.87	1407.57
561.23	1411.05
561.58	1416.98
561.94	1421.67
562.29	1426.38
562.64	1430.83
563.00	1434.26
563.35	1439.88
563.71	1445.60
564.06	1451.36
564.42	1456.69
564.77	1462.21
565.12	1467.98
565.48	1475.24
565.83	1481.60
566.19	1487.33
566.54	1492.62
566.89	1497.74
567.25	1504.52
567.60	1512.12
567.96	1520.31
568.31	1526.90
568.66	1533.90
569.02	1537.86
569.37	1542.60
569.72	1547.31
570.08	1552.19
570.43	1558.02
570.78	1563.69
571.14	1568.83
571.49	1574.64
571.84	1580.74
572.20	1586.10
572.55	1591.21
572.90	1594.17
573.26	1598.86
573.61	1603.14
573.96	1608.26
574.31	1613.21
574.67	1616.05
575.02	1618.74
575.37	1620.45
575.72	1623.19
576.08	1627.38
576.43	1631.55
576.78	1635.95
577.13	1639.79
577.49	1644.67
577.84	1648.45
578.19	1651.48
578.54	1655.71
578.90	1659.12
579.25	1663.71
579.60	1667.02
579.95	1669.64
580.30	1674.33
580.66	1678.14
581.01	1681.90
581.36	1684.98
581.71	1687.81
582.06	1693.67
582.42	1697.26
582.77	1700.95
583.12	1703.93
583.47	1706.64
583.82	1709.86
584.17	1712.14
584.53	1716.12
584.88	1719.67
585.23	1723.76
585.58	1727.12
585.93	1728.50
586.28	1731.45
586.63	1732.69
586.98	1735.02
587.34	1737.86
587.69	1739.38
588.04	1741.86
588.39	1743.93
588.74	1745.71
589.09	1748.43
589.44	1748.10
589.79	1750.26
590.14	1752.62
590.49	1754.40
590.84	1755.10
591.19	1756.88
591.54	1759.38
591.89	1759.60
592.25	1762.76
592.60	1763.05
592.95	1764.29
593.30	1767.24
593.65	1767.17
594.00	1767.60
594.35	1774.50
594.70	1775.57
595.05	1777.17
595.40	1777.76
595.75	1778.81
596.10	1780.24
596.45	1780.79
596.80	1781.40
597.15	1783.07
597.50	1782.31
597.85	1784.29
598.19	1785.10
598.54	1784.98
598.89	1784.52
599.24	1786.36
599.59	1784.76
599.94	1785.14
600.29	1784.52
600.64	1783.62
600.99	1783.86
601.34	1785.07
601.69	1779.31
602.04	1778.93
602.39	1777.76
602.74	1778.76
603.08	1777.29
603.43	1777.07
603.78	1776.31
604.13	1776.43
604.48	1774.57
604.83	1775.17
605.18	1774.38
605.53	1773.79
605.87	1772.33
606.22	1772.31
606.57	1769.55
606.92	1768.52
607.27	1767.19
607.62	1767.24
607.96	1766.02
608.31	1765.81
608.66	1764.67
609.01	1762.52
609.36	1761.45
609.70	1760.19
610.05	1756.38
610.40	1755.69
610.75	1753.40
611.10	1751.98
611.44	1748.57
611.79	1746.52
612.14	1744.26
612.49	1741.45
612.83	1738.33
613.18	1736.26
613.53	1733.43
613.88	1731.31
614.22	1727.86
614.57	1724.17
614.92	1719.57
615.27	1716.24
615.61	1711.52
615.96	1707.00
616.31	1703.86
616.65	1701.67
617.00	1698.36
617.35	1695.64
617.70	1691.43
618.04	1687.76
618.39	1683.98
618.74	1681.33
619.08	1677.21
619.43	1673.86
619.78	1669.88
620.12	1667.43
620.47	1664.48
620.82	1659.38
621.16	1654.93
621.51	1651.31
621.85	1648.14
622.20	1644.90
622.55	1641.05
622.89	1639.12
623.24	1636.55
623.59	1632.52
623.93	1627.21
624.28	1623.48
624.62	1621.52
624.97	1619.31
625.32	1615.29
625.66	1611.60
626.01	1607.33
626.35	1603.95
626.70	1599.69
627.04	1595.60
627.39	1590.52
627.73	1587.31
628.08	1584.45
628.43	1581.45
628.77	1577.31
629.12	1573.10
629.46	1569.98
629.81	1565.33
630.15	1559.33
630.50	1554.05
630.84	1550.21
631.19	1545.95
631.53	1541.24
631.88	1534.40
632.22	1528.21
632.57	1524.29
632.91	1518.90
633.26	1515.14
633.60	1510.31
633.95	1504.21
634.29	1499.62
634.64	1496.57
634.98	1491.07
635.32	1487.00
635.67	1482.50
636.01	1478.79
636.36	1474.24
636.70	1469.38
637.05	1465.83
637.39	1461.57
637.73	1458.02
638.08	1453.86
638.42	1449.52
638.77	1445.57
639.11	1441.69
639.45	1436.67
639.80	1430.93
640.14	1426.33
640.49	1421.00
640.83	1415.64
641.17	1411.95
641.52	1406.74
641.86	1400.67
642.20	1396.31
642.55	1390.24
642.89	1384.10
643.23	1378.12
643.58	1373.93
643.92	1367.36
644.26	1361.43
644.61	1357.05
644.95	1350.64
645.29	1344.71
645.64	1339.48
645.98	1334.05
646.32	1327.95
646.66	1322.38
647.01	1317.07
647.35	1311.62
647.69	1306.79
648.04	1301.40
648.38	1295.40
648.72	1289.48
649.06	1283.48
649.41	1276.36
649.75	1270.67
650.09	1265.48
650.43	1259.12
650.78	1251.40
651.12	1245.17
651.46	1238.40
651.80	1230.93
652.14	1225.00
652.49	1218.90
652.83	1212.00
653.17	1204.48
653.51	1199.07
653.85	1192.90
654.20	1185.62
654.54	1178.88
654.88	1171.10
655.22	1165.24
655.56	1158.69
655.90	1152.21
656.25	1145.48
656.59	1140.10
656.93	1133.57
657.27	1127.81
657.61	1121.38
657.95	1115.50
658.29	1109.88
658.64	1104.36
658.98	1097.83
659.32	1091.00
659.66	1084.69
660.00	1078.69
660.34	1072.74
660.68	1065.31
661.02	1059.21
661.36	1053.40
661.70	1047.90
662.05	1042.60
662.39	1036.40
662.73	1031.17
663.07	1026.24
663.41	1020.83
663.75	1013.79
664.09	1008.21
664.43	1001.79
664.77	996.00
665.11	989.64
665.45	983.60
665.79	977.79
666.13	972.52
666.47	967.31
666.81	961.50
667.15	955.17
667.49	949.48
667.83	944.55
668.17	939.17
668.51	934.19
668.85	928.36
669.19	923.36
669.53	917.00
669.87	910.24
670.21	904.14
670.55	898.17
670.89	893.98
671.23	888.71
671.57	883.10
671.91	877.33
672.25	871.52
672.58	867.05
672.92	860.95
673.26	856.00
673.60	850.05
673.94	844.31
674.28	839.67
674.62	834.55
674.96	829.81
675.30	825.07
675.64	819.29
675.97	814.19
676.31	808.45
676.65	803.21
676.99	799.62
677.33	794.64
677.67	790.14
678.01	784.48
678.34	779.38
678.68	774.95
679.02	770.14
679.36	765.88
679.70	760.02
680.04	755.33
680.37	749.81
680.71	745.21
681.05	740.93
681.39	736.26
681.73	731.81
682.06	726.33
682.40	721.40
682.74	717.67
683.08	713.40
683.42	708.26
683.75	704.52
684.09	698.81
684.43	694.00
684.77	689.00
685.10	684.43
685.44	680.02
685.78	674.81
686.12	670.57
686.45	665.69
686.79	661.21
687.13	657.26
687.46	652.79
687.80	648.86
688.14	644.12
688.48	639.95
688.81	635.29
689.15	631.33
689.49	626.21
689.82	621.90
690.16	616.88
690.50	612.90
690.83	608.00
691.17	603.19
691.51	599.05
691.84	595.14
692.18	590.79
692.52	586.67
692.85	582.88
693.19	579.69
693.52	576.24
693.86	571.83
694.20	567.86
694.53	563.98
694.87	559.55
695.21	555.76
695.54	551.26
695.88	546.81
696.21	542.24
696.55	538.90
696.88	534.45
697.22	530.26
697.56	526.50
697.89	522.64
698.23	520.19
698.56	516.52
698.90	512.95
699.23	509.19
699.57	505.12
699.90	501.24
700.24	497.21
700.58	493.19
700.91	490.45
701.25	488.60
701.58	486.38
701.92	483.74
702.25	480.64
702.59	477.29
702.92	474.90
703.26	472.24
703.59	469.17
703.93	468.21
704.26	466.07
704.60	463.26
704.93	460.29
705.26	456.86
705.60	454.10
705.93	450.86
706.27	448.38
706.60	446.40
706.94	444.57
707.27	441.48
707.61	439.48
707.94	436.38
708.27	432.19
708.61	428.33
708.94	425.52
709.28	422.83
709.61	420.55
709.94	418.29
710.28	415.52
710.61	412.93
710.95	408.50
711.28	407.48
711.61	405.21
711.95	403.86
712.28	401.62
712.61	399.26
712.95	398.02
713.28	396.55
713.61	393.74
713.95	390.88
714.28	388.86
714.61	386.10
714.95	384.40
715.28	382.05
715.61	380.10
715.95	377.88
716.28	375.52
716.61	373.88
716.95	371.14
717.28	369.33
717.61	367.48
717.94	365.55
718.28	361.88
718.61	360.00
718.94	357.40
719.27	355.36
719.61	353.43
719.94	351.14
720.27	348.43
720.60	346.60
720.94	344.76
721.27	343.31
721.60	342.07
721.93	340.17
722.27	339.60
722.60	338.74
722.93	337.26
723.26	336.14
723.59	334.14
723.93	333.38
724.26	332.24
724.59	330.38
724.92	329.00
725.25	328.81
725.59	327.10
725.92	325.83
726.25	324.43
726.58	323.12
726.91	321.57
727.24	320.29
727.57	319.14
727.91	318.00
728.24	316.57
728.57	315.50
728.90	314.74
729.23	312.64
729.56	312.07
729.89	310.88
730.22	309.43
730.55	308.52
730.89	307.12
731.22	305.48
731.55	304.79
731.88	304.00
732.21	301.83
732.54	300.93
732.87	300.24
733.20	299.26
733.53	298.55
733.86	297.93
734.19	297.12
734.52	296.29
734.85	296.67
735.18	295.79
735.51	295.45
735.84	294.55
736.17	294.14
736.50	292.52
736.83	293.93
737.16	293.33
737.49	292.50
737.82	291.71
738.15	291.52
738.48	290.86
738.81	289.57
739.14	289.00
739.47	287.93
739.80	286.98
740.13	286.57
740.46	285.12
740.79	284.07
741.12	282.88
741.45	281.79
741.78	279.71
742.11	279.29
742.44	278.00
742.77	277.52
743.10	276.67
743.43	275.52
743.75	272.81
744.08	274.57
744.41	273.90
744.74	273.19
745.07	271.95
745.40	271.38
745.73	271.86
746.06	271.43
746.39	271.14
746.71	270.12
747.04	269.14
747.37	268.86
747.70	268.29
748.03	268.14
748.36	267.81
748.68	267.38
749.01	266.07
749.34	265.19
749.67	264.69
750.00	264.19
750.33	264.93
750.65	264.45
750.98	261.62
751.31	260.95
751.64	260.24
751.97	260.95
752.29	260.05
752.62	258.60
752.95	257.74
753.28	256.74
753.60	256.52
753.93	256.57
754.26	256.17
754.59	255.12
754.91	254.31
755.24	253.71
755.57	253.12
755.90	252.76
756.22	252.40
756.55	251.40
756.88	250.67
757.20	249.29
757.53	248.45
757.86	247.62
758.19	247.26
758.51	246.81
758.84	245.26
759.17	244.79
759.49	244.40
759.82	244.76
760.15	244.81
760.47	244.19
760.80	243.38
761.13	243.24
761.45	242.98
761.78	242.67
762.11	242.38
762.43	241.81
762.76	241.19
763.08	240.98
763.41	240.88
763.74	240.67
764.06	240.31
764.39	239.81
764.71	239.62
765.04	238.93
765.37	238.40
765.69	238.00
766.02	237.64
766.34	237.24
766.67	236.29
767.00	236.43
767.32	237.24
767.65	238.02
767.97	237.62
768.30	237.62
768.62	237.38
768.95	236.86
769.27	236.50
769.60	236.93
769.92	236.14
770.25	235.48
770.57	234.67
770.90	234.26
771.22	233.98
771.55	233.74
771.87	233.71
772.20	233.48
772.52	235.14
772.85	237.43
773.17	237.24
773.50	236.88
773.82	236.17
774.15	234.83
774.47	233.12
774.80	232.52
775.12	232.36
775.45	231.93
775.77	231.90
776.09	231.93
776.42	231.50
776.74	232.02
777.07	231.81
777.39	232.07
777.72	231.64
778.04	231.48
778.36	231.26
778.69	231.31
779.01	231.33
779.33	229.17
779.66	226.76
779.98	226.48
780.31	226.38
780.63	227.00
780.95	227.19
781.28	227.14
781.60	227.02
781.92	226.67
782.25	226.74
782.57	226.43
782.89	226.12
783.22	225.60
783.54	225.00
783.86	224.93
784.19	224.55
784.51	224.95
784.83	224.64
785.16	224.26
785.48	224.00
785.80	223.74
786.12	224.00
786.45	223.81
786.77	223.88
787.09	223.62
787.42	222.64
787.74	222.52
788.06	222.55
788.38	222.24
788.71	222.00
789.03	221.90
789.35	222.12
789.67	221.50
789.99	221.83
790.32	221.67
790.64	221.81
790.96	223.21
791.28	222.45
791.61	222.29
791.93	222.40
792.25	222.05
792.57	223.69
792.89	222.98
793.21	223.05
793.54	222.67
793.86	222.55
794.18	222.71
794.50	222.38
794.82	222.36
795.14	222.69
795.47	223.00
795.79	223.00
796.11	222.48
796.43	222.69
796.75	222.43
797.07	222.52
797.39	222.50
797.71	220.93
798.04	221.05
798.36	221.17
798.68	220.86
799.00	221.02
799.32	219.76
799.64	220.38
799.96	220.14
800.28	220.40
800.60	219.95
800.92	219.95
801.24	219.76
801.56	219.69
801.89	219.40
802.21	219.50
802.53	218.88
802.85	219.21
803.17	220.21
803.49	220.05
803.81	219.81
804.13	219.60
804.45	219.55
804.77	219.71
805.09	219.67
805.41	219.64
805.73	219.17
806.05	218.62
806.37	218.24
806.69	218.26
807.01	218.05
807.33	218.40
807.65	217.71
807.97	218.71
808.28	218.71
808.60	218.45
808.92	218.21
809.24	219.83
809.56	219.57
809.88	218.86
810.20	218.88
810.52	219.33
810.84	218.83
811.16	218.62
811.48	218.38
811.80	218.93
812.12	218.86
812.43	219.17
812.75	219.29
813.07	219.26
813.39	219.36
813.71	219.00
814.03	218.76
814.35	219.02
814.67	218.00
814.98	217.76
815.30	217.86
815.62	217.33
815.94	215.74
816.26	215.76
816.58	215.26
816.89	215.19
817.21	214.62
817.53	214.79
817.85	214.64
818.17	214.74
818.48	214.00
818.80	214.60
819.12	214.45
819.44	214.10
819.76	213.81
820.07	213.60
820.39	213.71
820.71	214.00
821.03	213.74
821.34	213.79
821.66	214.02
821.98	214.36
822.30	214.38
822.61	215.45
822.93	215.38
823.25	215.52
823.57	215.36
823.88	215.76
824.20	215.90
824.52	216.57
824.83	216.36
825.15	216.33
825.47	215.93
825.79	215.86
826.10	215.83
826.42	215.74
826.74	215.98
827.05	216.05
827.37	215.93
827.69	215.95
828.00	216.00
828.32	215.86
828.64	215.60
828.95	216.64
829.27	216.12
829.58	215.95
829.90	216.26
830.22	216.57
830.53	216.07
830.85	215.60
831.17	214.81
831.48	214.88
831.80	214.90
832.11	214.76
832.43	214.62
832.75	214.69
833.06	215.86
833.38	215.19
833.69	214.98
834.01	215.21
834.32	214.95
834.64	214.76
834.96	214.79
835.27	214.74
835.59	214.17
835.90	213.67
836.22	213.60
836.53	213.10
836.85	212.69
837.16	214.74
837.48	215.02
837.79	215.79
838.11	215.83
838.42	215.95
838.74	216.24
839.05	216.24
839.37	216.14
839.68	214.83
840.00	214.98
840.31	215.24
840.63	214.86
840.94	215.05
841.26	214.76
841.57	214.79
841.88	214.86
842.20	214.62
842.51	214.36
842.83	214.55
843.14	216.57
843.46	216.43
843.77	215.17
844.08	215.00
844.40	214.38
844.71	213.90
845.03	213.40
845.34	213.40
845.65	213.21
845.97	213.21
846.28	213.52
846.60	213.57
846.91	213.31
847.22	213.26
847.54	213.74
847.85	214.02
848.16	213.74
848.48	213.31
848.79	214.00
849.10	214.40
849.42	214.29
849.73	212.19
850.04	212.29
850.36	211.62
850.67	211.88
850.98	211.93
851.30	212.48
851.61	212.62
851.92	212.55
852.23	213.21
852.55	213.40
852.86	213.40
853.17	213.43
853.49	213.90
853.80	214.24
854.11	214.24
854.42	214.45
854.74	214.31
855.05	214.38
855.36	213.21
855.67	213.45
855.99	213.69
856.30	216.29
856.61	216.21
856.92	216.40
857.23	216.33
857.55	216.07
857.86	215.95
858.17	216.33
858.48	215.93
858.79	215.64
859.11	215.83
859.42	215.67
859.73	215.50
860.04	215.24
860.35	214.88
860.66	214.29
860.98	214.17
861.29	214.43
861.60	214.36
861.91	214.88
862.22	214.40
862.53	213.83
862.84	211.29
863.16	212.00
863.47	211.48
863.78	211.48
864.09	211.69
864.40	211.76
864.71	211.71
865.02	212.05
865.33	211.69
865.64	211.14
865.95	211.10
866.27	212.45
866.58	212.29
866.89	212.43
867.20	212.43
867.51	212.10
867.82	212.14
868.13	212.93
868.44	212.43
868.75	212.93
869.06	213.17
869.37	213.48
869.68	212.79
869.99	213.31
870.30	213.26
870.61	213.48
870.92	213.19
871.23	212.86
871.54	213.17
871.85	213.50
872.16	214.00
872.47	213.81
872.78	212.40
873.09	212.52
873.40	212.24
873.71	212.14
874.02	212.33
874.33	211.88
874.64	211.31
874.95	212.00
875.26	211.48
875.56	211.38
875.87	211.02
876.18	211.00
876.49	212.98
876.80	212.98
877.11	212.64
877.42	212.67
877.73	212.90
878.04	212.52
878.35	212.88
878.66	212.67
878.96	212.81
879.27	212.98
879.58	213.10
879.89	213.36
880.20	214.14
880.51	213.98
880.82	214.00
881.12	214.05
881.43	213.50
881.74	213.24
882.05	213.14
882.36	213.57
882.67	213.95
882.97	211.71
883.28	211.55
883.59	211.55
883.90	211.60
884.21	211.81
884.51	211.67
884.82	211.10
885.13	211.07
885.44	211.05
885.74	211.02
886.05	210.90
886.36	210.76
886.67	210.02
886.98	211.17
887.28	211.64
887.59	211.98
887.90	211.88
888.20	212.00
888.51	212.45
888.82	212.10
889.13	212.07
889.43	213.64
889.74	213.48
890.05	213.48
890.35	213.40
890.66	213.10
890.97	212.95
891.28	212.83
891.58	212.93
891.89	212.86
892.20	212.69
892.50	212.43
892.81	212.33
893.12	212.36
893.42	211.33
893.73	211.26
894.04	210.98
894.34	211.24
894.65	211.21
894.95	211.07
895.26	211.21
895.57	211.93
895.87	210.19
896.18	210.64
896.48	210.60
896.79	210.57
897.10	211.07
897.40	211.24
897.71	211.67
898.01	211.38
898.32	211.86
898.63	211.67
898.93	211.81
899.24	211.69
899.54	211.76
899.85	211.71
900.15	211.64
900.46	211.60
900.76	211.88
901.07	211.86
901.38	211.95
901.68	212.12
901.99	211.40
902.29	211.76
902.60	211.48
902.90	211.62
903.21	211.74
903.51	211.45
903.82	211.74
904.12	211.40
904.43	211.81
904.73	211.45
905.03	211.88
905.34	213.69
905.64	213.90
905.95	213.81
906.25	213.86
906.56	213.67
906.86	213.64
907.17	213.29
907.47	213.43
907.77	213.19
908.08	212.81
908.38	212.69
908.69	212.62
908.99	213.14
909.30	213.12
909.60	213.10
909.90	213.00
910.21	212.57
910.51	212.57
910.81	212.64
911.12	213.02
911.42	213.00
911.73	211.24
912.03	211.24
912.33	211.48
912.64	211.38
912.94	211.05
913.24	210.74
913.55	210.69
913.85	210.40
914.15	210.81
914.46	211.12
914.76	210.83
915.06	210.69
915.37	210.33
915.67	210.43
915.97	210.50
916.27	210.19
916.58	210.40
916.88	210.33
917.18	209.93
917.49	211.07
917.79	210.93
918.09	210.95
918.39	211.64
918.70	211.83
919.00	212.07
919.30	213.45
919.60	213.64
919.91	213.60
920.21	213.98
920.51	213.43
920.81	213.26
921.12	213.76
921.42	213.52
921.72	213.83
922.02	213.71
922.32	213.86
922.63	214.05
922.93	215.02
923.23	215.14
923.53	215.05
923.83	213.98
924.13	214.14
924.44	214.33
924.74	214.36
925.04	214.67
925.34	214.40
925.64	213.29
925.94	213.33
926.24	214.45
926.55	214.14
926.85	214.50
927.15	214.38
927.45	214.29
927.75	214.45
928.05	214.43
928.35	214.43
928.65	214.86
928.95	214.95
929.26	213.93
929.56	214.19
929.86	214.40
930.16	214.10
930.46	213.86
930.76	213.76
931.06	212.98
931.36	212.50
931.66	212.95
931.96	213.38
932.26	213.38
932.56	212.38
932.86	212.79
933.16	212.86
933.46	212.88
933.76	212.64
934.06	213.26
934.36	213.86
934.66	213.67
934.96	213.19
935.26	213.29
935.56	213.81
935.86	213.33
936.16	213.05
936.46	212.76
936.76	212.76
937.06	212.52
937.36	212.57
937.66	212.38
937.96	211.98
938.26	211.62
938.56	211.74
938.86	211.95
939.16	212.12
939.46	212.14
939.76	212.45
940.06	212.62
940.35	211.93
940.65	210.71
940.95	211.00
941.25	210.57
941.55	210.29
941.85	210.14
942.15	210.55
942.45	211.21
942.75	211.17
943.04	211.33
943.34	211.74
943.64	211.57
943.94	211.38
944.24	211.67
944.54	211.76
944.84	211.48
945.13	211.14
945.43	210.81
945.73	210.76
946.03	210.38
946.33	209.90
946.62	209.95
946.92	210.05
947.22	210.10
947.52	210.36
947.82	210.67
948.11	210.45
948.41	210.12
948.71	209.83
949.01	210.05
949.31	209.88
949.60	209.74
949.90	210.00
950.20	210.26
950.50	210.24
950.79	210.07
951.09	210.21
951.39	210.26
951.69	210.17
951.98	210.52
952.28	210.67
952.58	210.67
952.87	210.62
953.17	210.95
953.47	210.64
953.76	210.55
954.06	210.29
954.36	209.69
954.66	209.67
954.95	210.10
955.25	210.17
955.55	210.33
955.84	210.29
956.14	210.60
956.44	210.79
956.73	210.50
957.03	210.86
957.32	210.95
957.62	211.00
957.92	211.14
958.21	210.90
958.51	213.40
958.81	213.83
959.10	214.14
959.40	214.74
959.69	214.76
959.99	215.29
960.29	215.38
960.58	215.57
960.88	216.38
961.17	216.05
961.47	216.31
961.76	216.02
962.06	216.38
962.36	216.00
962.65	215.81
962.95	215.74
963.24	215.52
963.54	215.64
963.83	215.69
964.13	215.74
964.42	215.00
964.72	213.00
965.01	213.05
965.31	212.88
965.60	212.29
965.90	213.57
966.19	212.98
966.49	213.02
966.78	213.14
967.08	212.93
967.37	213.02
967.67	212.64
967.96	213.24
968.26	212.83
968.55	213.24
968.85	213.14
969.14	213.24
969.43	213.02
969.73	212.98
970.02	212.88
970.32	212.64
970.61	213.02
970.91	212.33
971.20	211.86
971.49	211.64
971.79	211.76
972.08	210.55
972.38	210.76
972.67	210.74
972.96	211.12
973.26	210.81
973.55	211.38
973.85	211.29
974.14	210.95
974.43	211.10
974.73	210.57
975.02	210.50
975.31	210.57
975.61	210.57
975.90	210.38
976.19	210.14
976.49	210.36
976.78	210.36
977.07	210.38
977.37	210.64
977.66	210.86
977.95	210.57
978.24	210.71
978.54	211.21
978.83	211.00
979.12	210.50
979.42	210.55
979.71	209.90
980.00	210.02
980.29	210.07
980.59	209.95
980.88	210.74
981.17	210.38
981.46	210.45
981.76	210.52
982.05	210.95
982.34	210.88
982.63	210.81
982.93	210.83
983.22	211.60
983.51	211.55
983.80	212.05
984.09	212.31
984.39	212.05
984.68	211.48
984.97	211.60
985.26	211.69
985.55	211.86
985.85	211.40
986.14	211.57
986.43	212.00
986.72	211.74
987.01	210.79
987.30	211.00
987.59	210.71
987.89	210.45
988.18	209.83
988.47	210.05
988.76	210.02
989.05	209.93
989.34	209.43
989.63	209.88
989.92	209.36
990.22	209.36
990.51	209.38
990.80	209.48
991.09	209.52
991.38	209.62
991.67	209.43
991.96	209.43
992.25	209.60
992.54	208.93
992.83	208.95
993.12	209.05
993.41	209.71
993.70	210.50
993.99	211.14
994.28	211.55
994.58	211.76
994.87	211.55
995.16	211.45
995.45	211.29
995.74	210.76
996.03	211.10
996.32	211.10
996.61	211.69
996.90	211.48
997.19	211.29
997.48	211.21
997.77	210.81
998.06	210.83
998.34	210.48
998.63	210.52
998.92	210.52
999.21	210.64
999.50	210.50
999.79	209.83
1000.08	209.69
1000.37	209.60
1000.66	209.36
1000.95	209.81
1001.24	209.86
1001.53	210.24
1001.82	210.24
1002.11	209.74
1002.40	209.93
1002.68	210.07
1002.97	211.69
1003.26	211.50
1003.55	211.40
1003.84	211.64
1004.13	212.40
1004.42	212.31
1004.71	212.60
1004.99	212.62
1005.28	213.24
1005.57	212.95
1005.86	213.05
1006.15	213.02
1006.44	212.93
1006.72	213.29
1007.01	213.17
1007.30	213.12
1007.59	213.02
1007.88	212.95
1008.17	213.19
1008.45	212.76
1008.74	212.19
1009.03	211.14
1009.32	211.19
1009.60	211.19
1009.89	210.88
1010.18	210.14
1010.47	210.07
1010.76	209.98
1011.04	209.95
1011.33	212.33
1011.62	212.43
1011.91	212.52
1012.19	212.67
1012.48	212.69
1012.77	212.45
1013.05	213.29
1013.34	213.48
1013.63	213.26
1013.92	213.50
1014.20	213.21
1014.49	213.14
1014.78	213.17
1015.06	212.50
1015.35	212.62
1015.64	212.88
1015.92	213.31
1016.21	213.38
1016.50	213.43
1016.78	213.43
1017.07	213.64
1017.36	210.79
1017.64	210.60
1017.93	210.74
1018.22	210.26
1018.50	210.19
1018.79	210.21
1019.08	209.26
1019.36	209.26
1019.65	209.07
1019.93	209.64
1020.22	210.05
1020.51	211.31
1020.79	211.17
1021.08	204.50
1021.36	208.00
1021.65	210.50
1021.94	210.00
1022.22	210.50
1022.51	206.00
1022.79	222.00
1023.08	214.00
1023.36	235.00
1023.65	206.50
>>>>>End Processed Spectral Data<<<<<
