SpectraSuite Data File
++++++++++++++++++++++++++++++++++++
Date: Tue Apr 02 18:44:09 EDT 2013
User: group
Dark Spectrum Present: No
Reference Spectrum Present: No
Number of Sampled Component Spectra: 1
Spectrometers: USB2E7196
Integration Time (usec): 580000 (USB2E7196)
Spectra Averaged: 2 (USB2E7196)
Boxcar Smoothing: 10 (USB2E7196)
Correct for Electrical Dark: No (USB2E7196)
Strobe/Lamp Enabled: No (USB2E7196)
Correct for Detector Non-linearity: No (USB2E7196)
Correct for Stray Light: No (USB2E7196)
Number of Pixels in Processed Spectrum: 2048
>>>>>Begin Processed Spectral Data<<<<<
339.09	0.00
339.48	194.50
339.86	190.00
340.24	194.00
340.63	198.00
341.01	234.50
341.39	204.50
341.78	209.50
342.16	211.00
342.54	203.50
342.93	197.19
343.31	206.88
343.69	207.50
344.07	208.31
344.46	209.48
344.84	210.21
345.22	208.90
345.60	209.29
345.99	209.40
346.37	209.45
346.75	209.79
347.13	209.81
347.52	210.24
347.90	211.10
348.28	211.05
348.66	211.50
349.05	211.05
349.43	211.10
349.81	211.71
350.19	211.83
350.57	212.29
350.96	212.69
351.34	213.21
351.72	213.40
352.10	213.62
352.48	213.24
352.87	212.95
353.25	213.36
353.63	213.12
354.01	213.29
354.39	213.33
354.77	213.45
355.15	214.10
355.54	213.79
355.92	213.12
356.30	213.26
356.68	214.74
357.06	215.02
357.44	215.00
357.82	214.88
358.20	215.88
358.58	216.12
358.97	215.93
359.35	216.31
359.73	216.74
360.11	216.79
360.49	216.93
360.87	217.00
361.25	216.83
361.63	217.64
362.01	217.55
362.39	217.43
362.77	217.69
363.15	217.48
363.53	217.60
363.91	217.93
364.29	218.00
364.67	215.90
365.05	215.83
365.43	216.14
365.81	216.21
366.19	216.14
366.57	216.71
366.95	216.74
367.33	216.10
367.71	215.88
368.09	215.90
368.47	215.76
368.85	215.74
369.23	216.26
369.61	215.67
369.99	216.40
370.37	216.64
370.75	217.62
371.13	217.29
371.51	217.02
371.89	217.02
372.27	217.02
372.65	217.17
373.03	217.29
373.41	216.83
373.78	216.81
374.16	215.79
374.54	215.05
374.92	214.95
375.30	214.88
375.68	214.48
376.06	214.71
376.44	214.45
376.82	214.57
377.19	214.52
377.57	214.40
377.95	213.57
378.33	213.36
378.71	211.81
379.09	212.07
379.47	212.40
379.84	212.26
380.22	211.86
380.60	211.60
380.98	211.38
381.36	211.52
381.73	211.05
382.11	211.43
382.49	211.45
382.87	211.19
383.25	211.29
383.62	213.69
384.00	213.33
384.38	213.67
384.76	214.17
385.13	214.71
385.51	214.76
385.89	214.67
386.27	214.67
386.64	215.07
387.02	214.90
387.40	214.64
387.78	214.67
388.15	214.88
388.53	214.93
388.91	215.05
389.29	215.07
389.66	215.36
390.04	215.14
390.42	215.43
390.79	215.67
391.17	215.79
391.55	213.60
391.92	213.67
392.30	214.14
392.68	213.57
393.05	213.55
393.43	213.74
393.81	213.88
394.18	213.69
394.56	213.60
394.94	214.12
395.31	213.90
395.69	214.55
396.06	215.07
396.44	215.29
396.82	215.31
397.19	216.19
397.57	215.88
397.95	216.10
398.32	215.74
398.70	215.83
399.07	216.26
399.45	216.26
399.82	216.24
400.20	215.76
400.58	215.98
400.95	215.19
401.33	215.50
401.70	216.79
402.08	217.07
402.45	217.17
402.83	217.55
403.20	217.93
403.58	217.98
403.95	218.29
404.33	218.64
404.71	218.79
405.08	220.05
405.46	220.60
405.83	221.17
406.21	221.52
406.58	221.98
406.96	222.40
407.33	222.79
407.70	223.40
408.08	225.48
408.45	226.26
408.83	227.14
409.20	227.45
409.58	227.38
409.95	228.48
410.33	229.69
410.70	230.14
411.08	231.26
411.45	232.19
411.82	232.93
412.20	234.55
412.57	236.81
412.95	236.36
413.32	238.02
413.69	239.14
414.07	241.00
414.44	243.00
414.82	245.02
415.19	247.74
415.56	249.98
415.94	251.26
416.31	253.98
416.68	256.83
417.06	260.29
417.43	263.45
417.81	266.74
418.18	270.05
418.55	273.57
418.93	277.62
419.30	281.71
419.67	286.17
420.04	290.36
420.42	294.50
420.79	301.36
421.16	307.05
421.54	313.88
421.91	319.93
422.28	326.00
422.66	332.26
423.03	340.07
423.40	346.93
423.77	354.17
424.15	361.29
424.52	369.07
424.89	377.31
425.26	385.00
425.64	393.00
426.01	401.17
426.38	409.98
426.75	419.05
427.13	428.14
427.50	438.10
427.87	448.14
428.24	458.52
428.61	467.40
428.99	478.55
429.36	489.52
429.73	501.05
430.10	512.50
430.47	524.33
430.85	534.95
431.22	547.45
431.59	562.31
431.96	575.17
432.33	589.19
432.70	603.10
433.08	619.57
433.45	634.55
433.82	650.21
434.19	667.36
434.56	684.17
434.93	699.79
435.30	715.24
435.68	732.50
436.05	748.90
436.42	765.50
436.79	781.21
437.16	798.00
437.53	815.45
437.90	832.81
438.27	850.86
438.64	868.60
439.01	885.93
439.38	899.60
439.75	913.93
440.13	930.02
440.50	945.64
440.87	958.55
441.24	971.76
441.61	986.00
441.98	996.55
442.35	1009.02
442.72	1022.00
443.09	1035.93
443.46	1044.31
443.83	1050.21
444.20	1055.10
444.57	1060.86
444.94	1063.69
445.31	1067.14
445.68	1072.90
446.05	1073.79
446.42	1072.67
446.79	1071.36
447.16	1068.90
447.53	1068.48
447.90	1062.95
448.27	1056.45
448.64	1047.64
449.01	1041.71
449.37	1031.33
449.74	1020.79
450.11	1009.55
450.48	995.31
450.85	979.12
451.22	966.00
451.59	954.07
451.96	941.88
452.33	926.71
452.70	912.93
453.07	895.57
453.43	876.38
453.80	860.14
454.17	844.76
454.54	829.29
454.91	813.71
455.28	797.12
455.65	781.71
456.02	770.36
456.38	757.90
456.75	742.14
457.12	728.10
457.49	715.05
457.86	700.60
458.23	690.67
458.59	679.36
458.96	667.55
459.33	656.98
459.70	647.29
460.07	638.98
460.43	629.71
460.80	621.62
461.17	614.24
461.54	606.26
461.91	598.19
462.27	590.00
462.64	582.90
463.01	575.55
463.38	569.07
463.74	558.10
464.11	550.81
464.48	545.31
464.85	539.17
465.21	534.90
465.58	529.69
465.95	522.36
466.32	517.21
466.68	511.50
467.05	506.17
467.42	500.86
467.78	495.55
468.15	490.29
468.52	486.62
468.88	480.62
469.25	475.60
469.62	472.17
469.98	468.17
470.35	464.81
470.72	461.83
471.08	457.48
471.45	454.95
471.82	452.43
472.18	448.71
472.55	446.50
472.92	443.07
473.28	440.38
473.65	437.74
474.02	434.88
474.38	433.45
474.75	431.57
475.11	429.60
475.48	427.90
475.85	426.14
476.21	424.00
476.58	423.19
476.94	422.31
477.31	421.00
477.67	420.24
478.04	418.83
478.41	417.71
478.77	419.02
479.14	417.79
479.50	416.98
479.87	416.79
480.23	416.17
480.60	415.69
480.96	415.60
481.33	416.52
481.69	416.52
482.06	416.26
482.42	417.05
482.79	416.86
483.15	417.00
483.52	417.95
483.88	418.43
484.25	418.40
484.61	419.10
484.98	419.26
485.34	420.69
485.71	422.26
486.07	423.69
486.44	423.24
486.80	424.95
487.17	426.43
487.53	428.67
487.90	431.17
488.26	433.95
488.62	436.45
488.99	438.71
489.35	441.43
489.72	444.33
490.08	446.55
490.44	449.64
490.81	453.00
491.17	455.69
491.54	459.64
491.90	464.10
492.26	467.45
492.63	471.24
492.99	474.79
493.36	478.93
493.72	483.19
494.08	487.74
494.45	492.52
494.81	497.45
495.17	501.57
495.54	506.86
495.90	511.38
496.26	516.69
496.63	521.81
496.99	527.02
497.35	532.88
497.72	538.83
498.08	544.93
498.44	550.69
498.80	557.38
499.17	563.43
499.53	569.14
499.89	576.48
500.26	583.69
500.62	590.19
500.98	596.83
501.34	603.48
501.71	611.10
502.07	618.26
502.43	625.21
502.79	632.76
503.16	639.69
503.52	646.26
503.88	653.05
504.24	660.71
504.60	668.14
504.97	675.50
505.33	683.10
505.69	691.74
506.05	699.48
506.41	707.45
506.78	714.90
507.14	722.69
507.50	730.19
507.86	737.83
508.22	745.95
508.59	753.43
508.95	761.69
509.31	770.48
509.67	778.29
510.03	786.02
510.39	794.24
510.75	801.50
511.12	809.79
511.48	817.90
511.84	825.71
512.20	833.48
512.56	840.62
512.92	847.90
513.28	854.93
513.64	862.50
514.00	869.71
514.37	877.36
514.73	885.14
515.09	892.33
515.45	898.71
515.81	905.50
516.17	912.86
516.53	919.33
516.89	924.55
517.25	931.43
517.61	939.19
517.97	945.12
518.33	951.62
518.69	957.69
519.05	964.02
519.41	969.74
519.77	977.12
520.13	983.93
520.49	989.74
520.85	995.98
521.21	1003.38
521.57	1008.64
521.93	1013.90
522.29	1018.88
522.65	1023.74
523.01	1029.69
523.37	1034.52
523.73	1039.40
524.09	1044.05
524.45	1048.69
524.81	1052.90
525.17	1057.02
525.53	1061.48
525.89	1066.52
526.25	1071.50
526.61	1075.10
526.97	1079.81
527.33	1083.62
527.68	1090.05
528.04	1094.74
528.40	1098.12
528.76	1101.07
529.12	1106.26
529.48	1111.36
529.84	1115.88
530.20	1119.76
530.56	1124.64
530.91	1128.93
531.27	1132.93
531.63	1137.52
531.99	1141.02
532.35	1145.07
532.71	1148.69
533.07	1153.57
533.42	1159.81
533.78	1164.48
534.14	1169.79
534.50	1173.31
534.86	1177.60
535.21	1179.29
535.57	1183.71
535.93	1187.62
536.29	1192.29
536.65	1195.71
537.00	1198.12
537.36	1201.40
537.72	1205.50
538.08	1208.86
538.44	1212.29
538.79	1216.26
539.15	1218.98
539.51	1223.48
539.87	1227.10
540.22	1230.71
540.58	1233.38
540.94	1234.00
541.29	1237.31
541.65	1239.24
542.01	1242.07
542.37	1244.50
542.72	1245.45
543.08	1246.93
543.44	1249.88
543.79	1250.57
544.15	1252.64
544.51	1256.29
544.87	1259.17
545.22	1262.10
545.58	1264.57
545.94	1267.29
546.29	1269.67
546.65	1272.62
547.01	1274.48
547.36	1277.24
547.72	1279.38
548.07	1282.43
548.43	1284.45
548.79	1286.33
549.14	1288.86
549.50	1291.69
549.86	1294.33
550.21	1298.55
550.57	1301.81
550.92	1304.10
551.28	1307.95
551.64	1311.07
551.99	1314.19
552.35	1316.71
552.70	1319.14
553.06	1322.21
553.41	1325.10
553.77	1329.71
554.13	1333.12
554.48	1338.60
554.84	1342.17
555.19	1345.95
555.55	1349.64
555.90	1353.93
556.26	1357.98
556.61	1361.95
556.97	1365.21
557.32	1369.50
557.68	1373.24
558.03	1377.12
558.39	1381.07
558.74	1384.71
559.10	1388.83
559.45	1392.14
559.81	1396.62
560.16	1401.50
560.52	1405.74
560.87	1410.76
561.23	1414.29
561.58	1421.50
561.94	1423.90
562.29	1428.48
562.64	1433.64
563.00	1438.45
563.35	1443.48
563.71	1448.21
564.06	1454.24
564.42	1459.79
564.77	1465.31
565.12	1472.81
565.48	1479.45
565.83	1485.36
566.19	1491.81
566.54	1497.52
566.89	1503.76
567.25	1510.12
567.60	1516.45
567.96	1524.14
568.31	1530.76
568.66	1536.81
569.02	1540.02
569.37	1546.05
569.72	1551.36
570.08	1557.12
570.43	1562.55
570.78	1568.24
571.14	1573.83
571.49	1578.64
571.84	1584.90
572.20	1588.86
572.55	1592.79
572.90	1596.71
573.26	1601.36
573.61	1605.24
573.96	1610.36
574.31	1614.79
574.67	1618.74
575.02	1623.07
575.37	1625.00
575.72	1628.26
576.08	1631.74
576.43	1635.57
576.78	1639.17
577.13	1643.50
577.49	1645.48
577.84	1649.74
578.19	1653.05
578.54	1656.86
578.90	1660.19
579.25	1663.40
579.60	1666.19
579.95	1668.57
580.30	1672.45
580.66	1676.05
581.01	1679.48
581.36	1681.71
581.71	1684.93
582.06	1689.83
582.42	1692.81
582.77	1695.07
583.12	1698.43
583.47	1702.45
583.82	1705.50
584.17	1708.67
584.53	1711.71
584.88	1714.86
585.23	1718.19
585.58	1720.83
585.93	1721.95
586.28	1724.93
586.63	1728.19
586.98	1732.69
587.34	1736.31
587.69	1738.40
588.04	1741.33
588.39	1744.81
588.74	1745.74
589.09	1748.10
589.44	1747.45
589.79	1749.00
590.14	1752.48
590.49	1753.19
590.84	1754.02
591.19	1756.07
591.54	1757.50
591.89	1758.33
592.25	1762.19
592.60	1762.19
592.95	1764.05
593.30	1766.88
593.65	1767.29
594.00	1767.02
594.35	1773.21
594.70	1772.48
595.05	1774.33
595.40	1774.31
595.75	1773.64
596.10	1775.98
596.45	1776.29
596.80	1779.40
597.15	1780.50
597.50	1780.81
597.85	1782.36
598.19	1781.79
598.54	1781.86
598.89	1783.31
599.24	1783.90
599.59	1783.21
599.94	1784.02
600.29	1784.48
600.64	1784.48
600.99	1785.48
601.34	1785.93
601.69	1780.14
602.04	1780.88
602.39	1779.81
602.74	1780.62
603.08	1780.81
603.43	1781.29
603.78	1781.21
604.13	1779.05
604.48	1777.81
604.83	1777.36
605.18	1776.88
605.53	1777.12
605.87	1776.19
606.22	1774.43
606.57	1773.19
606.92	1771.90
607.27	1770.36
607.62	1769.88
607.96	1768.95
608.31	1768.07
608.66	1767.60
609.01	1765.79
609.36	1764.74
609.70	1763.71
610.05	1760.24
610.40	1758.33
610.75	1755.55
611.10	1753.83
611.44	1752.52
611.79	1750.10
612.14	1747.00
612.49	1743.43
612.83	1740.24
613.18	1737.07
613.53	1734.19
613.88	1731.43
614.22	1727.64
614.57	1723.79
614.92	1718.86
615.27	1714.81
615.61	1710.50
615.96	1706.26
616.31	1702.64
616.65	1700.48
617.00	1697.36
617.35	1695.45
617.70	1692.48
618.04	1690.00
618.39	1685.60
618.74	1681.86
619.08	1678.17
619.43	1675.60
619.78	1672.64
620.12	1670.33
620.47	1667.98
620.82	1664.21
621.16	1659.71
621.51	1657.10
621.85	1653.62
622.20	1650.12
622.55	1646.31
622.89	1642.88
623.24	1639.40
623.59	1636.26
623.93	1631.14
624.28	1626.31
624.62	1623.62
624.97	1620.81
625.32	1616.38
625.66	1613.26
626.01	1609.00
626.35	1605.43
626.70	1601.43
627.04	1598.40
627.39	1593.38
627.73	1589.40
628.08	1586.71
628.43	1583.62
628.77	1579.19
629.12	1575.98
629.46	1572.88
629.81	1569.81
630.15	1565.12
630.50	1560.21
630.84	1555.19
631.19	1549.79
631.53	1545.00
631.88	1538.19
632.22	1530.98
632.57	1526.95
632.91	1521.48
633.26	1517.19
633.60	1512.05
633.95	1505.71
634.29	1500.10
634.64	1495.71
634.98	1490.43
635.32	1485.90
635.67	1482.10
636.01	1477.57
636.36	1472.64
636.70	1468.10
637.05	1463.62
637.39	1460.07
637.73	1455.52
638.08	1451.86
638.42	1448.24
638.77	1444.50
639.11	1440.26
639.45	1436.12
639.80	1430.33
640.14	1425.57
640.49	1419.81
640.83	1414.71
641.17	1411.17
641.52	1405.45
641.86	1400.14
642.20	1396.40
642.55	1389.64
642.89	1383.24
643.23	1377.98
643.58	1373.05
643.92	1366.00
644.26	1359.71
644.61	1354.17
644.95	1348.31
645.29	1341.76
645.64	1336.52
645.98	1330.07
646.32	1324.74
646.66	1319.07
647.01	1313.00
647.35	1307.52
647.69	1302.52
648.04	1297.07
648.38	1290.95
648.72	1286.60
649.06	1281.86
649.41	1274.31
649.75	1268.48
650.09	1262.36
650.43	1255.40
650.78	1248.88
651.12	1243.00
651.46	1236.07
651.80	1229.02
652.14	1223.45
652.49	1217.19
652.83	1210.64
653.17	1204.31
653.51	1196.81
653.85	1191.14
654.20	1185.29
654.54	1177.55
654.88	1170.17
655.22	1164.29
655.56	1157.71
655.90	1150.19
656.25	1142.33
656.59	1136.57
656.93	1130.55
657.27	1125.05
657.61	1118.76
657.95	1112.38
658.29	1105.95
658.64	1100.33
658.98	1093.74
659.32	1086.69
659.66	1080.19
660.00	1073.38
660.34	1067.17
660.68	1061.95
661.02	1055.31
661.36	1048.67
661.70	1043.74
662.05	1038.29
662.39	1032.33
662.73	1027.17
663.07	1022.79
663.41	1017.10
663.75	1010.57
664.09	1004.19
664.43	997.21
664.77	991.67
665.11	985.26
665.45	979.86
665.79	973.79
666.13	967.90
666.47	962.10
666.81	956.40
667.15	950.14
667.49	944.33
667.83	938.60
668.17	932.64
668.51	927.05
668.85	921.10
669.19	915.95
669.53	909.86
669.87	903.81
670.21	896.74
670.55	891.38
670.89	887.10
671.23	881.64
671.57	876.50
671.91	870.62
672.25	865.64
672.58	860.76
672.92	855.17
673.26	849.69
673.60	844.60
673.94	839.17
674.28	834.43
674.62	829.45
674.96	824.17
675.30	819.14
675.64	813.86
675.97	808.76
676.31	802.93
676.65	797.86
676.99	792.95
677.33	787.67
677.67	782.64
678.01	776.26
678.34	772.12
678.68	767.45
679.02	762.48
679.36	757.05
679.70	751.57
680.04	746.79
680.37	741.83
680.71	736.67
681.05	732.19
681.39	727.24
681.73	722.36
682.06	717.62
682.40	713.60
682.74	709.02
683.08	705.05
683.42	700.21
683.75	694.93
684.09	689.55
684.43	684.71
684.77	679.62
685.10	675.10
685.44	669.43
685.78	664.45
686.12	660.36
686.45	655.90
686.79	651.36
687.13	647.31
687.46	643.00
687.80	639.50
688.14	635.38
688.48	631.19
688.81	626.90
689.15	623.21
689.49	618.31
689.82	613.95
690.16	608.69
690.50	604.52
690.83	600.74
691.17	596.19
691.51	591.95
691.84	588.36
692.18	584.52
692.52	580.69
692.85	576.83
693.19	573.69
693.52	569.83
693.86	565.62
694.20	561.45
694.53	557.50
694.87	553.19
695.21	548.48
695.54	544.21
695.88	540.19
696.21	535.05
696.55	531.14
696.88	527.71
697.22	524.05
697.56	521.05
697.89	517.36
698.23	514.40
698.56	510.93
698.90	507.31
699.23	503.67
699.57	500.60
699.90	497.10
700.24	492.57
700.58	489.29
700.91	486.24
701.25	484.17
701.58	481.55
701.92	478.86
702.25	476.14
702.59	473.38
702.92	470.19
703.26	467.48
703.59	464.38
703.93	462.81
704.26	460.36
704.60	457.21
704.93	454.26
705.26	451.71
705.60	449.67
705.93	446.48
706.27	444.26
706.60	441.36
706.94	439.40
707.27	436.62
707.61	433.98
707.94	431.26
708.27	426.95
708.61	423.71
708.94	420.81
709.28	418.33
709.61	415.31
709.94	413.31
710.28	411.02
710.61	408.55
710.95	403.79
711.28	402.43
711.61	400.02
711.95	398.24
712.28	394.79
712.61	392.00
712.95	390.88
713.28	389.19
713.61	387.10
713.95	384.52
714.28	383.07
714.61	380.48
714.95	378.40
715.28	376.33
715.61	374.48
715.95	372.48
716.28	370.02
716.61	368.76
716.95	366.48
717.28	364.43
717.61	362.38
717.94	361.26
718.28	357.95
718.61	355.57
718.94	353.64
719.27	352.31
719.61	350.62
719.94	348.43
720.27	345.71
720.60	343.98
720.94	342.31
721.27	340.50
721.60	339.55
721.93	337.93
722.27	337.38
722.60	336.45
722.93	334.74
723.26	333.43
723.59	331.33
723.93	330.00
724.26	328.88
724.59	327.93
724.92	326.76
725.25	326.36
725.59	325.64
725.92	324.21
726.25	323.10
726.58	321.88
726.91	320.26
727.24	319.43
727.57	318.21
727.91	316.50
728.24	315.24
728.57	313.67
728.90	312.74
729.23	310.74
729.56	310.10
729.89	309.00
730.22	307.90
730.55	307.00
730.89	306.14
731.22	305.19
731.55	303.76
731.88	302.76
732.21	301.26
732.54	299.86
732.87	298.45
733.20	297.50
733.53	296.69
733.86	295.93
734.19	294.38
734.52	293.62
734.85	294.12
735.18	292.90
735.51	292.76
735.84	292.05
736.17	291.76
736.50	289.90
736.83	291.43
737.16	290.86
737.49	290.07
737.82	288.83
738.15	287.98
738.48	287.26
738.81	286.33
739.14	285.21
739.47	284.43
739.80	283.76
740.13	283.14
740.46	281.98
740.79	280.95
741.12	280.21
741.45	279.29
741.78	277.10
742.11	277.17
742.44	275.93
742.77	275.38
743.10	274.45
743.43	273.57
743.75	270.67
744.08	272.76
744.41	272.10
744.74	271.31
745.07	270.45
745.40	270.36
745.73	270.33
746.06	269.95
746.39	269.62
746.71	268.93
747.04	267.60
747.37	266.71
747.70	266.38
748.03	266.19
748.36	265.52
748.68	265.31
749.01	264.12
749.34	263.64
749.67	263.07
750.00	262.88
750.33	263.98
750.65	263.88
750.98	260.64
751.31	259.95
751.64	259.67
751.97	260.17
752.29	259.43
752.62	257.93
752.95	257.12
753.28	256.36
753.60	255.79
753.93	256.19
754.26	256.12
754.59	254.95
754.91	254.12
755.24	253.52
755.57	253.05
755.90	252.45
756.22	251.64
756.55	250.74
756.88	249.74
757.20	247.98
757.53	246.81
757.86	246.07
758.19	245.93
758.51	245.57
758.84	243.93
759.17	243.29
759.49	243.05
759.82	243.76
760.15	243.50
760.47	243.10
760.80	241.88
761.13	241.98
761.45	241.67
761.78	241.12
762.11	240.69
762.43	240.05
762.76	239.57
763.08	239.55
763.41	239.36
763.74	238.98
764.06	238.45
764.39	238.00
764.71	237.74
765.04	237.31
765.37	236.67
765.69	236.43
766.02	235.79
766.34	235.57
766.67	234.40
767.00	234.31
767.32	235.10
767.65	236.36
767.97	235.69
768.30	235.64
768.62	235.55
768.95	235.29
769.27	235.07
769.60	235.21
769.92	234.64
770.25	234.02
770.57	233.38
770.90	233.36
771.22	233.00
771.55	232.90
771.87	232.74
772.20	232.60
772.52	234.10
772.85	236.36
773.17	236.21
773.50	235.93
773.82	235.45
774.15	234.48
774.47	232.74
774.80	232.38
775.12	232.40
775.45	231.95
775.77	231.88
776.09	231.83
776.42	231.50
776.74	231.90
777.07	231.64
777.39	231.62
777.72	231.14
778.04	231.24
778.36	230.81
778.69	230.45
779.01	230.45
779.33	228.50
779.66	226.21
779.98	225.90
780.31	225.79
780.63	226.50
780.95	226.62
781.28	226.43
781.60	226.12
781.92	225.76
782.25	225.83
782.57	225.79
782.89	225.45
783.22	225.29
783.54	224.57
783.86	224.74
784.19	224.57
784.51	225.02
784.83	224.64
785.16	224.62
785.48	224.48
785.80	224.07
786.12	224.43
786.45	224.29
786.77	224.19
787.09	224.05
787.42	223.05
787.74	222.81
788.06	222.83
788.38	222.57
788.71	222.40
789.03	222.38
789.35	222.60
789.67	222.12
789.99	222.05
790.32	222.00
790.64	221.95
790.96	223.74
791.28	222.88
791.61	222.76
791.93	222.86
792.25	222.76
792.57	224.21
792.89	223.60
793.21	223.74
793.54	223.57
793.86	223.24
794.18	223.45
794.50	223.02
794.82	222.95
795.14	223.40
795.47	223.62
795.79	223.67
796.11	222.88
796.43	222.93
796.75	222.93
797.07	222.74
797.39	222.74
797.71	221.10
798.04	221.21
798.36	221.24
798.68	220.81
799.00	221.02
799.32	219.95
799.64	220.10
799.96	219.81
800.28	219.95
800.60	219.81
800.92	219.69
801.24	219.83
801.56	219.93
801.89	219.62
802.21	219.83
802.53	219.43
802.85	219.79
803.17	220.86
803.49	220.57
803.81	220.60
804.13	220.36
804.45	220.02
804.77	220.05
805.09	219.98
805.41	219.74
805.73	219.24
806.05	218.83
806.37	218.83
806.69	218.69
807.01	218.60
807.33	218.83
807.65	218.29
807.97	219.31
808.28	218.95
808.60	218.83
808.92	218.55
809.24	219.83
809.56	219.60
809.88	218.74
810.20	218.79
810.52	219.10
810.84	218.71
811.16	218.48
811.48	218.36
811.80	219.10
812.12	219.21
812.43	219.43
812.75	219.74
813.07	219.31
813.39	219.43
813.71	219.10
814.03	218.95
814.35	219.02
814.67	217.90
814.98	217.90
815.30	218.02
815.62	217.40
815.94	215.88
816.26	216.00
816.58	215.81
816.89	215.93
817.21	215.57
817.53	215.88
817.85	216.14
818.17	216.17
818.48	215.60
818.80	216.10
819.12	216.10
819.44	215.38
819.76	215.24
820.07	215.21
820.39	215.14
820.71	215.17
821.03	215.19
821.34	215.10
821.66	215.50
821.98	215.79
822.30	215.83
822.61	217.07
822.93	216.76
823.25	216.71
823.57	216.55
823.88	216.81
824.20	216.76
824.52	217.07
824.83	216.81
825.15	216.24
825.47	216.33
825.79	216.52
826.10	216.64
826.42	216.74
826.74	216.95
827.05	217.10
827.37	217.14
827.69	217.19
828.00	217.05
828.32	216.86
828.64	216.40
828.95	217.67
829.27	217.19
829.58	217.24
829.90	217.36
830.22	217.52
830.53	217.05
830.85	216.79
831.17	216.21
831.48	216.48
831.80	216.93
832.11	216.33
832.43	216.07
832.75	215.98
833.06	217.12
833.38	216.43
833.69	216.31
834.01	216.17
834.32	215.86
834.64	215.81
834.96	215.83
835.27	215.79
835.59	214.83
835.90	214.40
836.22	214.36
836.53	214.14
836.85	213.76
837.16	216.05
837.48	216.14
837.79	216.81
838.11	216.88
838.42	216.69
838.74	217.07
839.05	216.79
839.37	216.81
839.68	215.67
840.00	215.55
840.31	215.79
840.63	215.79
840.94	215.69
841.26	215.45
841.57	215.55
841.88	215.76
842.20	215.43
842.51	215.19
842.83	215.26
843.14	216.95
843.46	217.07
843.77	215.69
844.08	215.69
844.40	215.07
844.71	214.83
845.03	214.57
845.34	214.26
845.65	214.12
845.97	214.21
846.28	214.33
846.60	214.48
846.91	214.24
847.22	214.14
847.54	214.74
847.85	214.95
848.16	214.52
848.48	214.12
848.79	215.12
849.10	215.48
849.42	215.38
849.73	213.60
850.04	213.38
850.36	212.71
850.67	212.90
850.98	213.12
851.30	213.29
851.61	213.31
851.92	213.60
852.23	214.33
852.55	214.36
852.86	214.45
853.17	214.74
853.49	215.00
853.80	215.40
854.11	215.36
854.42	215.79
854.74	215.83
855.05	215.86
855.36	214.83
855.67	214.88
855.99	214.88
856.30	217.31
856.61	217.33
856.92	217.33
857.23	217.26
857.55	217.10
857.86	216.95
858.17	217.21
858.48	216.55
858.79	216.14
859.11	216.21
859.42	215.83
859.73	215.60
860.04	215.64
860.35	214.98
860.66	214.38
860.98	214.14
861.29	214.36
861.60	214.33
861.91	214.71
862.22	214.33
862.53	214.21
862.84	211.69
863.16	212.21
863.47	212.10
863.78	211.95
864.09	212.02
864.40	212.24
864.71	212.24
865.02	212.62
865.33	212.24
865.64	211.95
865.95	212.21
866.27	213.38
866.58	213.33
866.89	213.86
867.20	213.90
867.51	213.67
867.82	213.57
868.13	214.17
868.44	213.69
868.75	214.24
869.06	214.50
869.37	214.71
869.68	214.07
869.99	214.29
870.30	214.43
870.61	214.60
870.92	214.05
871.23	213.81
871.54	214.07
871.85	214.76
872.16	215.12
872.47	214.83
872.78	213.74
873.09	213.74
873.40	213.36
873.71	213.50
874.02	213.31
874.33	213.00
874.64	212.64
874.95	212.95
875.26	212.29
875.56	211.93
875.87	211.95
876.18	212.00
876.49	213.81
876.80	213.67
877.11	213.26
877.42	213.31
877.73	213.45
878.04	213.14
878.35	213.12
878.66	213.12
878.96	212.95
879.27	212.83
879.58	212.57
879.89	212.50
880.20	212.95
880.51	213.21
880.82	213.33
881.12	213.45
881.43	213.17
881.74	213.19
882.05	213.40
882.36	213.52
882.67	213.60
882.97	211.57
883.28	211.29
883.59	211.19
883.90	211.38
884.21	211.67
884.51	211.62
884.82	211.24
885.13	210.95
885.44	211.00
885.74	210.98
886.05	211.00
886.36	211.14
886.67	210.45
886.98	211.38
887.28	211.55
887.59	211.29
887.90	211.40
888.20	211.21
888.51	211.38
888.82	210.95
889.13	211.05
889.43	212.62
889.74	212.48
890.05	212.55
890.35	212.36
890.66	212.10
890.97	211.86
891.28	211.76
891.58	212.05
891.89	212.10
892.20	211.88
892.50	211.67
892.81	211.50
893.12	211.60
893.42	210.62
893.73	210.67
894.04	210.69
894.34	210.71
894.65	210.76
894.95	210.67
895.26	210.93
895.57	211.90
895.87	209.98
896.18	210.52
896.48	210.52
896.79	210.64
897.10	211.00
897.40	210.93
897.71	211.12
898.01	210.81
898.32	211.17
898.63	211.24
898.93	211.62
899.24	211.62
899.54	211.57
899.85	211.36
900.15	211.07
900.46	211.29
900.76	211.38
901.07	211.29
901.38	211.26
901.68	211.45
901.99	210.45
902.29	210.64
902.60	210.33
902.90	210.31
903.21	210.45
903.51	210.26
903.82	210.86
904.12	210.74
904.43	210.86
904.73	210.55
905.03	210.90
905.34	212.52
905.64	212.48
905.95	212.50
906.25	212.83
906.56	213.02
906.86	212.93
907.17	212.98
907.47	213.38
907.77	213.17
908.08	212.55
908.38	212.45
908.69	212.55
908.99	213.07
909.30	213.33
909.60	213.38
909.90	213.43
910.21	212.90
910.51	212.83
910.81	212.86
911.12	213.12
911.42	213.07
911.73	211.29
912.03	211.50
912.33	212.02
912.64	211.79
912.94	211.67
913.24	211.21
913.55	210.93
913.85	210.60
914.15	211.24
914.46	211.62
914.76	211.79
915.06	211.81
915.37	211.29
915.67	210.98
915.97	210.83
916.27	210.43
916.58	210.62
916.88	210.55
917.18	210.48
917.49	211.90
917.79	211.60
918.09	211.62
918.39	212.12
918.70	211.71
919.00	211.98
919.30	213.07
919.60	213.17
919.91	213.21
920.21	213.45
920.51	212.79
920.81	212.74
921.12	212.88
921.42	212.74
921.72	213.05
922.02	213.55
922.32	213.69
922.63	213.98
922.93	215.00
923.23	214.95
923.53	214.57
923.83	213.19
924.13	213.45
924.44	213.64
924.74	213.83
925.04	214.40
925.34	214.10
925.64	213.17
925.94	213.21
926.24	214.10
926.55	213.90
926.85	214.29
927.15	214.48
927.45	214.55
927.75	214.64
928.05	214.69
928.35	214.14
928.65	214.76
928.95	214.69
929.26	213.86
929.56	214.40
929.86	214.95
930.16	214.79
930.46	214.69
930.76	214.74
931.06	214.10
931.36	213.38
931.66	213.81
931.96	214.00
932.26	214.19
932.56	213.48
932.86	213.81
933.16	213.71
933.46	213.24
933.76	212.76
934.06	213.69
934.36	214.12
934.66	214.21
934.96	213.52
935.26	213.62
935.56	213.95
935.86	213.40
936.16	213.19
936.46	212.98
936.76	212.81
937.06	212.45
937.36	212.50
937.66	212.67
937.96	212.50
938.26	212.17
938.56	211.93
938.86	212.07
939.16	212.10
939.46	212.33
939.76	212.55
940.06	212.64
940.35	211.81
940.65	211.07
940.95	211.14
941.25	211.00
941.55	210.76
941.85	210.50
942.15	210.95
942.45	211.45
942.75	211.57
943.04	211.83
943.34	212.14
943.64	211.83
943.94	211.67
944.24	211.64
944.54	211.67
944.84	211.57
945.13	211.36
945.43	211.10
945.73	210.95
946.03	210.79
946.33	210.55
946.62	210.19
946.92	210.10
947.22	210.31
947.52	210.50
947.82	210.88
948.11	210.57
948.41	210.33
948.71	209.60
949.01	209.57
949.31	209.52
949.60	209.48
949.90	209.98
950.20	209.95
950.50	210.02
950.79	209.88
951.09	210.36
951.39	210.33
951.69	210.12
951.98	210.24
952.28	210.40
952.58	210.52
952.87	210.67
953.17	210.98
953.47	210.76
953.76	210.69
954.06	210.31
954.36	210.17
954.66	210.05
954.95	210.62
955.25	210.76
955.55	210.79
955.84	210.50
956.14	210.45
956.44	210.55
956.73	210.33
957.03	210.36
957.32	210.26
957.62	210.36
957.92	210.88
958.21	210.81
958.51	213.38
958.81	213.52
959.10	214.02
959.40	214.45
959.69	214.57
959.99	214.90
960.29	215.07
960.58	214.98
960.88	215.76
961.17	215.48
961.47	215.76
961.76	215.67
962.06	216.05
962.36	215.83
962.65	216.02
962.95	216.05
963.24	216.02
963.54	216.12
963.83	216.19
964.13	216.24
964.42	215.67
964.72	213.79
965.01	213.88
965.31	213.57
965.60	213.02
965.90	214.36
966.19	213.95
966.49	213.95
966.78	214.29
967.08	213.88
967.37	214.10
967.67	213.50
967.96	213.71
968.26	213.40
968.55	213.86
968.85	213.74
969.14	213.86
969.43	214.10
969.73	213.69
970.02	213.33
970.32	212.90
970.61	212.95
970.91	212.24
971.20	212.05
971.49	211.81
971.79	212.14
972.08	210.71
972.38	210.67
972.67	210.74
972.96	210.86
973.26	210.40
973.55	210.93
973.85	210.98
974.14	210.95
974.43	211.31
974.73	210.86
975.02	210.67
975.31	210.50
975.61	210.31
975.90	210.33
976.19	210.38
976.49	210.67
976.78	210.95
977.07	210.90
977.37	210.93
977.66	211.07
977.95	210.67
978.24	210.50
978.54	211.12
978.83	210.74
979.12	210.55
979.42	210.90
979.71	210.45
980.00	210.33
980.29	210.36
980.59	209.95
980.88	210.38
981.17	210.33
981.46	210.26
981.76	210.26
982.05	210.76
982.34	210.88
982.63	210.88
982.93	210.86
983.22	211.55
983.51	211.50
983.80	212.00
984.09	212.43
984.39	212.50
984.68	212.10
984.97	212.26
985.26	212.07
985.55	212.12
985.85	211.62
986.14	212.24
986.43	212.19
986.72	212.02
987.01	211.19
987.30	211.29
987.59	211.17
987.89	211.19
988.18	210.79
988.47	210.52
988.76	210.48
989.05	210.31
989.34	210.02
989.63	210.50
989.92	209.98
990.22	209.55
990.51	209.57
990.80	209.57
991.09	209.76
991.38	210.10
991.67	209.76
991.96	209.69
992.25	209.48
992.54	209.24
992.83	209.26
993.12	209.57
993.41	209.86
993.70	211.05
993.99	211.57
994.28	211.79
994.58	211.95
994.87	211.62
995.16	211.48
995.45	211.19
995.74	210.57
996.03	210.86
996.32	211.26
996.61	211.64
996.90	211.62
997.19	211.57
997.48	211.76
997.77	211.57
998.06	211.93
998.34	211.86
998.63	212.05
998.92	212.31
999.21	212.43
999.50	212.31
999.79	211.19
1000.08	210.88
1000.37	210.90
1000.66	210.74
1000.95	211.31
1001.24	211.38
1001.53	211.76
1001.82	212.00
1002.11	211.60
1002.40	211.86
1002.68	212.17
1002.97	213.45
1003.26	213.14
1003.55	212.64
1003.84	213.02
1004.13	213.55
1004.42	213.64
1004.71	213.45
1004.99	213.17
1005.28	214.00
1005.57	214.00
1005.86	213.95
1006.15	213.95
1006.44	213.48
1006.72	213.88
1007.01	213.36
1007.30	213.24
1007.59	212.95
1007.88	212.93
1008.17	213.10
1008.45	212.50
1008.74	211.79
1009.03	210.67
1009.32	210.79
1009.60	210.86
1009.89	210.62
1010.18	209.79
1010.47	209.60
1010.76	209.67
1011.04	209.81
1011.33	209.60
1011.62	209.48
1011.91	209.76
1012.19	209.71
1012.48	209.88
1012.77	209.67
1013.05	210.71
1013.34	211.05
1013.63	211.05
1013.92	211.10
1014.20	211.05
1014.49	211.19
1014.78	211.36
1015.06	210.98
1015.35	210.93
1015.64	211.10
1015.92	211.45
1016.21	211.57
1016.50	211.60
1016.78	211.90
1017.07	212.21
1017.36	211.69
1017.64	211.60
1017.93	211.60
1018.22	211.50
1018.50	211.40
1018.79	211.31
1019.08	210.52
1019.36	210.31
1019.65	210.00
1019.93	210.29
1020.22	210.48
1020.51	211.45
1020.79	211.14
1021.08	209.50
1021.36	205.50
1021.65	207.50
1021.94	212.50
1022.22	206.50
1022.51	205.00
1022.79	216.50
1023.08	213.00
1023.36	233.50
1023.65	204.00
>>>>>End Processed Spectral Data<<<<<
