SpectraSuite Data File
++++++++++++++++++++++++++++++++++++
Date: Tue Apr 02 18:46:51 EDT 2013
User: group
Dark Spectrum Present: No
Reference Spectrum Present: No
Number of Sampled Component Spectra: 1
Spectrometers: USB2E7196
Integration Time (usec): 580000 (USB2E7196)
Spectra Averaged: 2 (USB2E7196)
Boxcar Smoothing: 10 (USB2E7196)
Correct for Electrical Dark: No (USB2E7196)
Strobe/Lamp Enabled: No (USB2E7196)
Correct for Detector Non-linearity: No (USB2E7196)
Correct for Stray Light: No (USB2E7196)
Number of Pixels in Processed Spectrum: 2048
>>>>>Begin Processed Spectral Data<<<<<
339.09	0.00
339.48	192.00
339.86	195.50
340.24	195.00
340.63	198.50
341.01	226.50
341.39	200.50
341.78	205.00
342.16	214.00
342.54	207.00
342.93	197.50
343.31	207.33
343.69	207.71
344.07	208.02
344.46	208.74
344.84	209.33
345.22	208.31
345.60	208.83
345.99	209.07
346.37	208.79
346.75	208.64
347.13	208.57
347.52	208.93
347.90	209.69
348.28	209.69
348.66	209.93
349.05	209.31
349.43	209.67
349.81	209.88
350.19	210.10
350.57	209.93
350.96	209.98
351.34	210.14
351.72	210.38
352.10	210.81
352.48	210.69
352.87	210.64
353.25	210.64
353.63	210.71
354.01	210.55
354.39	210.74
354.77	211.07
355.15	211.52
355.54	211.29
355.92	210.52
356.30	210.55
356.68	211.79
357.06	212.10
357.44	211.74
357.82	211.64
358.20	212.67
358.58	212.71
358.97	212.93
359.35	213.45
359.73	213.90
360.11	213.60
360.49	213.88
360.87	213.81
361.25	214.24
361.63	214.79
362.01	215.00
362.39	214.95
362.77	215.14
363.15	215.24
363.53	215.12
363.91	215.40
364.29	215.57
364.67	213.90
365.05	213.79
365.43	214.19
365.81	214.50
366.19	214.45
366.57	215.24
366.95	215.17
367.33	214.60
367.71	214.57
368.09	215.43
368.47	215.43
368.85	215.52
369.23	215.95
369.61	215.21
369.99	215.93
370.37	216.12
370.75	216.95
371.13	216.52
371.51	216.26
371.89	216.52
372.27	216.74
372.65	216.79
373.03	217.02
373.41	216.76
373.78	216.50
374.16	215.45
374.54	214.83
374.92	214.88
375.30	214.98
375.68	214.79
376.06	214.69
376.44	214.52
376.82	214.81
377.19	214.62
377.57	214.52
377.95	213.81
378.33	213.64
378.71	212.52
379.09	212.83
379.47	213.21
379.84	213.07
380.22	212.81
380.60	212.64
380.98	212.50
381.36	212.48
381.73	212.48
382.11	212.90
382.49	212.98
382.87	212.57
383.25	212.69
383.62	214.98
384.00	214.76
384.38	214.64
384.76	214.81
385.13	215.64
385.51	215.86
385.89	215.64
386.27	215.86
386.64	216.05
387.02	215.88
387.40	215.76
387.78	215.83
388.15	215.93
388.53	215.71
388.91	215.71
389.29	215.57
389.66	215.79
390.04	215.33
390.42	215.62
390.79	215.81
391.17	215.86
391.55	213.62
391.92	213.38
392.30	213.71
392.68	213.29
393.05	213.00
393.43	212.90
393.81	213.05
394.18	212.67
394.56	212.76
394.94	213.26
395.31	213.14
395.69	213.74
396.06	213.88
396.44	214.10
396.82	214.05
397.19	215.02
397.57	214.83
397.95	215.17
398.32	214.76
398.70	214.98
399.07	215.17
399.45	215.12
399.82	215.00
400.20	214.81
400.58	214.74
400.95	213.93
401.33	214.36
401.70	215.88
402.08	216.12
402.45	216.10
402.83	216.36
403.20	216.36
403.58	216.14
403.95	216.55
404.33	217.19
404.71	217.45
405.08	219.07
405.46	219.36
405.83	219.95
406.21	220.21
406.58	220.55
406.96	220.90
407.33	221.55
407.70	222.60
408.08	224.83
408.45	225.83
408.83	226.98
409.20	227.48
409.58	226.98
409.95	228.07
410.33	229.29
410.70	229.67
411.08	230.83
411.45	231.98
411.82	232.86
412.20	234.40
412.57	236.69
412.95	236.05
413.32	237.86
413.69	239.21
414.07	241.00
414.44	242.95
414.82	245.24
415.19	247.64
415.56	249.67
415.94	250.69
416.31	253.60
416.68	256.14
417.06	259.45
417.43	263.10
417.81	266.55
418.18	270.14
418.55	274.24
418.93	278.50
419.30	282.69
419.67	287.14
420.04	291.36
420.42	295.45
420.79	302.26
421.16	307.95
421.54	315.10
421.91	321.48
422.28	327.43
422.66	333.76
423.03	341.69
423.40	348.52
423.77	356.12
424.15	362.95
424.52	370.43
424.89	378.76
425.26	385.95
425.64	393.33
426.01	401.26
426.38	409.71
426.75	419.21
427.13	428.29
427.50	437.74
427.87	447.33
428.24	457.14
428.61	465.93
428.99	476.86
429.36	486.67
429.73	497.55
430.10	509.12
430.47	520.48
430.85	530.98
431.22	543.43
431.59	558.12
431.96	570.88
432.33	585.19
432.70	598.95
433.08	615.57
433.45	630.90
433.82	646.43
434.19	663.31
434.56	679.67
434.93	694.98
435.30	711.12
435.68	728.98
436.05	746.31
436.42	762.64
436.79	778.31
437.16	794.86
437.53	813.38
437.90	831.31
438.27	849.10
438.64	866.93
439.01	883.88
439.38	897.29
439.75	912.33
440.13	928.26
440.50	943.38
440.87	955.38
441.24	968.33
441.61	982.33
441.98	992.90
442.35	1005.33
442.72	1018.62
443.09	1031.60
443.46	1039.07
443.83	1045.05
444.20	1049.81
444.57	1055.79
444.94	1059.50
445.31	1062.24
445.68	1067.95
446.05	1069.17
446.42	1068.26
446.79	1066.93
447.16	1065.17
447.53	1063.79
447.90	1058.24
448.27	1052.29
448.64	1044.05
449.01	1038.26
449.37	1027.95
449.74	1017.05
450.11	1005.29
450.48	990.48
450.85	974.29
451.22	961.52
451.59	949.00
451.96	937.71
452.33	922.21
452.70	908.55
453.07	891.43
453.43	871.26
453.80	854.88
454.17	838.86
454.54	823.26
454.91	807.10
455.28	791.43
455.65	776.43
456.02	764.90
456.38	752.00
456.75	736.81
457.12	723.19
457.49	711.05
457.86	696.52
458.23	686.90
458.59	675.62
458.96	664.12
459.33	653.26
459.70	643.55
460.07	635.48
460.43	625.81
460.80	617.55
461.17	610.55
461.54	602.43
461.91	594.57
462.27	586.64
462.64	579.60
463.01	572.05
463.38	566.10
463.74	555.38
464.11	549.33
464.48	543.24
464.85	536.83
465.21	532.33
465.58	527.88
465.95	521.31
466.32	516.21
466.68	511.19
467.05	506.31
467.42	500.79
467.78	495.38
468.15	490.50
468.52	486.86
468.88	481.43
469.25	476.83
469.62	473.43
469.98	469.74
470.35	466.12
470.72	462.21
471.08	457.48
471.45	455.05
471.82	452.33
472.18	449.17
472.55	446.98
472.92	443.52
473.28	440.45
473.65	437.55
474.02	435.17
474.38	432.88
474.75	431.07
475.11	428.93
475.48	427.21
475.85	425.60
476.21	423.38
476.58	421.98
476.94	421.00
477.31	419.45
477.67	418.10
478.04	417.21
478.41	416.95
478.77	418.10
479.14	416.64
479.50	415.86
479.87	415.33
480.23	414.95
480.60	414.14
480.96	414.02
481.33	414.60
481.69	414.86
482.06	414.88
482.42	415.02
482.79	415.33
483.15	415.79
483.52	416.43
483.88	416.83
484.25	417.57
484.61	418.26
484.98	418.93
485.34	420.86
485.71	422.45
486.07	423.62
486.44	423.17
486.80	424.67
487.17	425.83
487.53	427.90
487.90	430.24
488.26	433.00
488.62	435.95
488.99	437.93
489.35	440.19
489.72	442.71
490.08	445.31
490.44	447.95
490.81	451.21
491.17	454.19
491.54	458.14
491.90	462.19
492.26	466.14
492.63	470.17
492.99	473.26
493.36	477.02
493.72	481.50
494.08	486.00
494.45	491.24
494.81	496.43
495.17	501.10
495.54	505.90
495.90	510.93
496.26	515.76
496.63	521.21
496.99	526.71
497.35	532.95
497.72	539.10
498.08	544.74
498.44	550.83
498.80	557.83
499.17	563.26
499.53	569.31
499.89	576.17
500.26	582.79
500.62	589.62
500.98	596.69
501.34	603.45
501.71	611.05
502.07	617.88
502.43	625.17
502.79	632.29
503.16	639.40
503.52	646.50
503.88	653.21
504.24	661.02
504.60	669.24
504.97	676.81
505.33	684.43
505.69	693.43
506.05	700.98
506.41	708.43
506.78	716.74
507.14	723.64
507.50	730.74
507.86	739.24
508.22	747.24
508.59	754.45
508.95	762.55
509.31	770.60
509.67	778.31
510.03	785.55
510.39	793.24
510.75	800.69
511.12	808.60
511.48	816.40
511.84	823.12
512.20	830.81
512.56	838.45
512.92	846.00
513.28	853.50
513.64	861.14
514.00	868.07
514.37	875.31
514.73	883.24
515.09	890.98
515.45	897.05
515.81	903.83
516.17	911.24
516.53	917.26
516.89	923.24
517.25	930.17
517.61	938.00
517.97	944.21
518.33	950.90
518.69	957.26
519.05	964.10
519.41	971.17
519.77	977.83
520.13	983.55
520.49	989.31
520.85	993.95
521.21	1000.38
521.57	1005.98
521.93	1011.31
522.29	1016.81
522.65	1021.40
523.01	1027.24
523.37	1033.02
523.73	1038.26
524.09	1044.14
524.45	1049.26
524.81	1053.36
525.17	1057.71
525.53	1063.10
525.89	1067.79
526.25	1073.02
526.61	1076.76
526.97	1080.38
527.33	1084.10
527.68	1089.76
528.04	1094.00
528.40	1098.69
528.76	1102.43
529.12	1107.38
529.48	1112.71
529.84	1116.79
530.20	1122.02
530.56	1126.14
530.91	1129.86
531.27	1134.60
531.63	1138.48
531.99	1141.90
532.35	1146.52
532.71	1150.10
533.07	1154.64
533.42	1161.48
533.78	1164.86
534.14	1169.43
534.50	1173.83
534.86	1178.79
535.21	1181.79
535.57	1186.50
535.93	1189.76
536.29	1194.69
536.65	1198.14
537.00	1201.12
537.36	1205.10
537.72	1207.93
538.08	1211.14
538.44	1214.38
538.79	1216.86
539.15	1218.90
539.51	1221.79
539.87	1225.43
540.22	1228.81
540.58	1231.83
540.94	1232.38
541.29	1235.24
541.65	1237.12
542.01	1240.48
542.37	1242.36
542.72	1243.81
543.08	1245.55
543.44	1248.57
543.79	1248.74
544.15	1251.38
544.51	1254.33
544.87	1256.43
545.22	1259.12
545.58	1262.38
545.94	1265.17
546.29	1268.29
546.65	1272.60
547.01	1277.02
547.36	1278.71
547.72	1280.48
548.07	1282.43
548.43	1285.17
548.79	1287.00
549.14	1289.83
549.50	1292.55
549.86	1294.33
550.21	1297.83
550.57	1301.71
550.92	1303.38
551.28	1307.81
551.64	1310.67
551.99	1313.33
552.35	1316.57
552.70	1319.76
553.06	1322.76
553.41	1325.76
553.77	1329.62
554.13	1332.38
554.48	1335.21
554.84	1339.76
555.19	1343.86
555.55	1349.21
555.90	1352.19
556.26	1356.71
556.61	1361.33
556.97	1364.00
557.32	1368.02
557.68	1372.36
558.03	1375.69
558.39	1380.52
558.74	1384.05
559.10	1387.40
559.45	1391.38
559.81	1395.33
560.16	1398.74
560.52	1402.57
560.87	1408.05
561.23	1411.21
561.58	1417.38
561.94	1420.86
562.29	1424.76
562.64	1429.95
563.00	1433.57
563.35	1438.10
563.71	1442.67
564.06	1447.40
564.42	1452.76
564.77	1457.90
565.12	1462.76
565.48	1469.93
565.83	1475.88
566.19	1481.98
566.54	1487.52
566.89	1492.88
567.25	1499.02
567.60	1506.57
567.96	1514.38
568.31	1519.90
568.66	1526.07
569.02	1530.10
569.37	1536.50
569.72	1541.38
570.08	1546.71
570.43	1551.71
570.78	1558.19
571.14	1563.40
571.49	1567.62
571.84	1573.81
572.20	1578.71
572.55	1582.81
572.90	1584.62
573.26	1588.48
573.61	1592.19
573.96	1597.33
574.31	1601.57
574.67	1605.21
575.02	1607.86
575.37	1609.45
575.72	1612.55
576.08	1616.79
576.43	1620.38
576.78	1623.48
577.13	1627.62
577.49	1631.14
577.84	1635.12
578.19	1638.26
578.54	1643.19
578.90	1648.62
579.25	1651.45
579.60	1655.40
579.95	1658.57
580.30	1663.60
580.66	1668.52
581.01	1672.55
581.36	1675.24
581.71	1679.67
582.06	1684.83
582.42	1689.21
582.77	1692.71
583.12	1696.33
583.47	1699.38
583.82	1702.48
584.17	1706.38
584.53	1710.90
584.88	1713.88
585.23	1717.19
585.58	1719.81
585.93	1721.45
586.28	1723.76
586.63	1727.12
586.98	1730.45
587.34	1735.24
587.69	1737.69
588.04	1740.71
588.39	1742.55
588.74	1744.93
589.09	1747.02
589.44	1747.26
589.79	1748.83
590.14	1751.24
590.49	1753.10
590.84	1754.67
591.19	1757.62
591.54	1759.36
591.89	1759.86
592.25	1763.19
592.60	1764.40
592.95	1766.86
593.30	1769.81
593.65	1770.76
594.00	1770.74
594.35	1777.67
594.70	1777.93
595.05	1779.10
595.40	1778.93
595.75	1779.86
596.10	1782.05
596.45	1783.21
596.80	1784.95
597.15	1786.81
597.50	1787.05
597.85	1788.60
598.19	1789.62
598.54	1789.76
598.89	1790.02
599.24	1791.62
599.59	1790.90
599.94	1791.69
600.29	1792.33
600.64	1792.14
600.99	1792.12
601.34	1793.29
601.69	1786.50
602.04	1786.95
602.39	1786.79
602.74	1787.05
603.08	1786.88
603.43	1786.76
603.78	1786.24
604.13	1785.93
604.48	1784.45
604.83	1785.93
605.18	1785.45
605.53	1785.14
605.87	1784.26
606.22	1783.74
606.57	1781.76
606.92	1780.57
607.27	1779.17
607.62	1777.52
607.96	1776.98
608.31	1777.90
608.66	1776.71
609.01	1776.00
609.36	1774.74
609.70	1773.55
610.05	1771.62
610.40	1770.74
610.75	1768.21
611.10	1766.43
611.44	1763.93
611.79	1762.26
612.14	1758.90
612.49	1755.05
612.83	1753.14
613.18	1750.14
613.53	1747.33
613.88	1744.50
614.22	1741.88
614.57	1738.67
614.92	1735.57
615.27	1731.86
615.61	1726.86
615.96	1723.21
616.31	1720.07
616.65	1717.71
617.00	1715.14
617.35	1712.48
617.70	1709.31
618.04	1706.12
618.39	1703.10
618.74	1700.38
619.08	1696.55
619.43	1693.52
619.78	1691.21
620.12	1686.67
620.47	1683.79
620.82	1680.05
621.16	1675.43
621.51	1672.07
621.85	1669.10
622.20	1666.29
622.55	1661.86
622.89	1659.00
623.24	1656.36
623.59	1652.71
623.93	1648.71
624.28	1643.67
624.62	1641.14
624.97	1638.19
625.32	1634.50
625.66	1629.64
626.01	1625.43
626.35	1621.93
626.70	1618.21
627.04	1615.07
627.39	1611.79
627.73	1608.62
628.08	1605.43
628.43	1602.38
628.77	1598.24
629.12	1594.07
629.46	1589.26
629.81	1585.21
630.15	1581.07
630.50	1576.21
630.84	1571.71
631.19	1565.93
631.53	1561.74
631.88	1554.86
632.22	1548.43
632.57	1544.45
632.91	1539.43
633.26	1535.07
633.60	1529.48
633.95	1523.12
634.29	1517.02
634.64	1512.02
634.98	1506.40
635.32	1502.33
635.67	1498.69
636.01	1494.40
636.36	1488.64
636.70	1484.45
637.05	1480.48
637.39	1475.57
637.73	1470.64
638.08	1466.76
638.42	1463.02
638.77	1458.00
639.11	1454.10
639.45	1449.81
639.80	1444.40
640.14	1440.38
640.49	1435.12
640.83	1430.88
641.17	1427.60
641.52	1423.36
641.86	1417.86
642.20	1413.10
642.55	1407.02
642.89	1401.71
643.23	1395.74
643.58	1391.90
643.92	1386.26
644.26	1380.90
644.61	1375.55
644.95	1370.62
645.29	1364.29
645.64	1359.02
645.98	1354.17
646.32	1349.62
646.66	1343.76
647.01	1337.62
647.35	1332.14
647.69	1326.60
648.04	1320.64
648.38	1314.48
648.72	1308.10
649.06	1302.74
649.41	1296.45
649.75	1291.00
650.09	1284.60
650.43	1278.10
650.78	1271.33
651.12	1265.10
651.46	1258.45
651.80	1252.76
652.14	1246.43
652.49	1240.88
652.83	1233.90
653.17	1227.71
653.51	1220.19
653.85	1214.98
654.20	1209.24
654.54	1203.05
654.88	1197.21
655.22	1191.86
655.56	1185.67
655.90	1179.79
656.25	1173.81
656.59	1167.67
656.93	1161.21
657.27	1156.12
657.61	1150.48
657.95	1144.67
658.29	1138.50
658.64	1133.36
658.98	1127.05
659.32	1120.95
659.66	1114.50
660.00	1109.31
660.34	1102.81
660.68	1096.88
661.02	1090.45
661.36	1084.29
661.70	1078.12
662.05	1072.17
662.39	1065.90
662.73	1060.71
663.07	1055.76
663.41	1049.57
663.75	1043.86
664.09	1038.12
664.43	1031.67
664.77	1025.86
665.11	1019.79
665.45	1014.79
665.79	1008.81
666.13	1002.86
666.47	997.64
666.81	992.55
667.15	986.83
667.49	981.76
667.83	977.05
668.17	971.48
668.51	966.36
668.85	961.69
669.19	956.50
669.53	951.02
669.87	944.71
670.21	938.69
670.55	933.36
670.89	929.21
671.23	924.14
671.57	918.71
671.91	913.88
672.25	908.81
672.58	903.55
672.92	897.81
673.26	892.81
673.60	887.48
673.94	881.81
674.28	876.95
674.62	872.60
674.96	867.45
675.30	862.93
675.64	858.02
675.97	852.12
676.31	846.93
676.65	841.64
676.99	838.10
677.33	833.24
677.67	828.83
678.01	823.43
678.34	818.64
678.68	814.48
679.02	809.64
679.36	804.50
679.70	799.45
680.04	794.81
680.37	789.62
680.71	784.83
681.05	780.86
681.39	775.98
681.73	770.40
682.06	764.88
682.40	759.86
682.74	755.02
683.08	751.19
683.42	746.00
683.75	741.45
684.09	735.55
684.43	730.48
684.77	725.48
685.10	720.52
685.44	715.33
685.78	709.62
686.12	704.71
686.45	700.40
686.79	695.52
687.13	690.88
687.46	686.62
687.80	682.40
688.14	677.36
688.48	672.43
688.81	667.86
689.15	664.12
689.49	659.62
689.82	654.52
690.16	648.95
690.50	644.64
690.83	640.43
691.17	635.98
691.51	631.57
691.84	627.17
692.18	622.40
692.52	618.31
692.85	614.83
693.19	611.95
693.52	607.67
693.86	603.07
694.20	599.21
694.53	594.98
694.87	590.17
695.21	585.67
695.54	581.33
695.88	577.07
696.21	572.12
696.55	567.74
696.88	564.24
697.22	560.40
697.56	556.79
697.89	552.79
698.23	549.14
698.56	545.33
698.90	541.50
699.23	537.52
699.57	534.10
699.90	529.95
700.24	524.74
700.58	521.14
700.91	517.88
701.25	515.95
701.58	513.21
701.92	510.33
702.25	507.43
702.59	503.86
702.92	500.76
703.26	497.74
703.59	494.67
703.93	493.10
704.26	490.33
704.60	487.14
704.93	483.57
705.26	480.19
705.60	477.31
705.93	473.83
706.27	471.88
706.60	469.02
706.94	467.17
707.27	464.02
707.61	461.12
707.94	458.52
708.27	454.10
708.61	450.86
708.94	448.05
709.28	445.48
709.61	442.93
709.94	440.36
710.28	438.05
710.61	435.52
710.95	431.00
711.28	429.74
711.61	427.07
711.95	425.40
712.28	422.88
712.61	420.31
712.95	419.26
713.28	417.45
713.61	414.64
713.95	411.48
714.28	409.86
714.61	407.48
714.95	404.79
715.28	401.98
715.61	399.45
715.95	397.24
716.28	394.69
716.61	392.81
716.95	390.21
717.28	387.83
717.61	385.31
717.94	383.55
718.28	379.95
718.61	377.81
718.94	375.19
719.27	373.19
719.61	371.43
719.94	368.79
720.27	365.74
720.60	363.55
720.94	362.00
721.27	360.14
721.60	358.67
721.93	357.00
722.27	356.02
722.60	354.36
722.93	352.14
723.26	350.55
723.59	348.38
723.93	346.98
724.26	345.64
724.59	344.12
724.92	342.79
725.25	342.12
725.59	340.64
725.92	339.83
726.25	338.33
726.58	337.14
726.91	335.55
727.24	334.62
727.57	333.48
727.91	331.55
728.24	330.21
728.57	328.74
728.90	327.81
729.23	325.83
729.56	325.38
729.89	324.38
730.22	322.90
730.55	321.71
730.89	320.43
731.22	318.83
731.55	317.64
731.88	316.40
732.21	314.81
732.54	313.45
732.87	311.95
733.20	311.21
733.53	309.86
733.86	308.90
734.19	307.29
734.52	306.33
734.85	306.57
735.18	305.40
735.51	304.90
735.84	303.95
736.17	303.62
736.50	301.79
736.83	302.90
737.16	302.24
737.49	301.45
737.82	300.29
738.15	299.76
738.48	298.64
738.81	297.67
739.14	296.33
739.47	295.50
739.80	294.62
740.13	293.81
740.46	292.55
740.79	291.48
741.12	290.36
741.45	289.31
741.78	287.48
742.11	287.14
742.44	285.98
742.77	285.48
743.10	284.24
743.43	283.05
743.75	280.24
744.08	281.79
744.41	280.90
744.74	280.02
745.07	278.86
745.40	278.57
745.73	278.57
746.06	277.81
746.39	277.21
746.71	276.17
747.04	274.95
747.37	274.10
747.70	273.71
748.03	273.29
748.36	272.98
748.68	272.07
749.01	270.74
749.34	270.02
749.67	269.12
750.00	268.83
750.33	269.95
750.65	269.83
750.98	266.93
751.31	266.31
751.64	266.02
751.97	266.69
752.29	266.02
752.62	264.33
752.95	263.64
753.28	262.79
753.60	262.17
753.93	261.95
754.26	261.62
754.59	260.52
754.91	259.64
755.24	258.74
755.57	258.45
755.90	257.79
756.22	256.81
756.55	255.67
756.88	254.48
757.20	252.69
757.53	251.33
757.86	250.50
758.19	250.31
758.51	249.69
758.84	248.07
759.17	247.33
759.49	247.14
759.82	247.74
760.15	247.62
760.47	247.10
760.80	246.26
761.13	246.40
761.45	245.83
761.78	245.43
762.11	244.98
762.43	244.45
762.76	243.93
763.08	243.90
763.41	244.12
763.74	244.05
764.06	243.45
764.39	243.14
764.71	242.79
765.04	242.14
765.37	241.55
765.69	241.14
766.02	240.74
766.34	240.33
766.67	239.29
767.00	239.14
767.32	239.98
767.65	240.79
767.97	240.05
768.30	239.81
768.62	239.69
768.95	239.12
769.27	238.79
769.60	238.76
769.92	238.33
770.25	237.43
770.57	236.90
770.90	236.69
771.22	236.14
771.55	235.98
771.87	235.86
772.20	235.67
772.52	237.07
772.85	239.36
773.17	239.07
773.50	238.64
773.82	238.05
774.15	236.76
774.47	235.38
774.80	234.98
775.12	234.67
775.45	234.43
775.77	234.57
776.09	234.19
776.42	234.14
776.74	234.36
777.07	233.93
777.39	233.64
777.72	233.02
778.04	233.21
778.36	232.93
778.69	232.55
779.01	232.48
779.33	230.62
779.66	227.98
779.98	227.57
780.31	227.64
780.63	228.45
780.95	228.62
781.28	228.48
781.60	227.98
781.92	228.00
782.25	227.88
782.57	227.55
782.89	227.45
783.22	227.00
783.54	226.14
783.86	226.48
784.19	226.24
784.51	226.93
784.83	226.57
785.16	226.29
785.48	226.07
785.80	225.86
786.12	225.98
786.45	225.76
786.77	225.88
787.09	225.38
787.42	224.29
787.74	224.10
788.06	223.98
788.38	223.95
788.71	223.57
789.03	223.50
789.35	223.76
789.67	223.21
789.99	223.31
790.32	223.19
790.64	223.31
790.96	225.14
791.28	224.24
791.61	223.86
791.93	224.12
792.25	224.26
792.57	225.71
792.89	225.21
793.21	225.55
793.54	225.21
793.86	225.07
794.18	225.21
794.50	224.95
794.82	224.74
795.14	224.67
795.47	225.05
795.79	224.88
796.11	224.14
796.43	223.98
796.75	223.79
797.07	223.88
797.39	223.43
797.71	221.55
798.04	221.55
798.36	221.62
798.68	221.45
799.00	221.26
799.32	220.05
799.64	220.31
799.96	220.07
800.28	220.31
800.60	220.14
800.92	220.26
801.24	219.98
801.56	219.90
801.89	220.14
802.21	219.86
802.53	219.48
802.85	219.90
803.17	220.95
803.49	220.74
803.81	220.45
804.13	220.21
804.45	220.07
804.77	220.05
805.09	219.98
805.41	219.52
805.73	219.33
806.05	218.76
806.37	218.31
806.69	217.98
807.01	217.83
807.33	218.05
807.65	217.24
807.97	218.26
808.28	218.19
808.60	217.90
808.92	217.81
809.24	219.24
809.56	218.74
809.88	218.17
810.20	218.02
810.52	218.38
810.84	218.19
811.16	217.98
811.48	218.12
811.80	218.90
812.12	218.86
812.43	218.74
812.75	219.07
813.07	219.14
813.39	219.26
813.71	218.64
814.03	218.29
814.35	218.33
814.67	217.24
814.98	217.12
815.30	217.07
815.62	216.69
815.94	215.19
816.26	215.26
816.58	214.90
816.89	214.93
817.21	214.67
817.53	214.74
817.85	214.88
818.17	214.88
818.48	213.98
818.80	214.45
819.12	214.60
819.44	214.07
819.76	213.76
820.07	213.86
820.39	214.29
820.71	214.55
821.03	214.71
821.34	214.67
821.66	215.02
821.98	215.48
822.30	215.40
822.61	216.67
822.93	216.64
823.25	216.29
823.57	216.48
823.88	216.90
824.20	217.02
824.52	217.19
824.83	217.10
825.15	217.05
825.47	216.74
825.79	216.86
826.10	216.83
826.42	216.93
826.74	217.12
827.05	216.95
827.37	217.00
827.69	216.76
828.00	217.05
828.32	216.74
828.64	215.95
828.95	217.36
829.27	216.69
829.58	216.71
829.90	217.40
830.22	217.45
830.53	216.86
830.85	216.57
831.17	215.90
831.48	215.71
831.80	215.67
832.11	215.60
832.43	215.14
832.75	215.05
833.06	216.10
833.38	215.40
833.69	215.36
834.01	215.43
834.32	215.50
834.64	215.21
834.96	215.33
835.27	215.52
835.59	214.48
835.90	214.07
836.22	214.05
836.53	213.62
836.85	213.33
837.16	215.50
837.48	215.55
837.79	216.45
838.11	216.69
838.42	216.79
838.74	217.10
839.05	216.98
839.37	217.00
839.68	215.83
840.00	215.79
840.31	216.05
840.63	215.98
840.94	215.79
841.26	215.52
841.57	215.52
841.88	216.00
842.20	215.86
842.51	215.48
842.83	215.26
843.14	217.24
843.46	217.14
843.77	216.05
844.08	216.10
844.40	215.69
844.71	215.33
845.03	215.26
845.34	215.07
845.65	215.02
845.97	215.12
846.28	215.40
846.60	215.40
846.91	215.10
847.22	214.67
847.54	215.21
847.85	215.43
848.16	215.26
848.48	214.43
848.79	215.29
849.10	215.69
849.42	215.88
849.73	213.67
850.04	213.81
850.36	212.76
850.67	213.02
850.98	212.86
851.30	213.17
851.61	213.07
851.92	213.05
852.23	213.74
852.55	213.74
852.86	213.50
853.17	213.88
853.49	214.17
853.80	214.52
854.11	214.45
854.42	214.83
854.74	214.52
855.05	214.86
855.36	213.60
855.67	213.76
855.99	213.86
856.30	216.33
856.61	215.95
856.92	216.12
857.23	216.17
857.55	215.93
857.86	215.86
858.17	216.12
858.48	215.69
858.79	215.29
859.11	215.43
859.42	215.33
859.73	215.17
860.04	215.00
860.35	214.48
860.66	213.93
860.98	213.57
861.29	213.93
861.60	213.83
861.91	214.36
862.22	213.88
862.53	213.60
862.84	211.21
863.16	211.95
863.47	211.64
863.78	211.55
864.09	211.86
864.40	211.95
864.71	211.90
865.02	212.26
865.33	211.88
865.64	211.62
865.95	211.60
866.27	212.83
866.58	212.76
866.89	213.33
867.20	213.26
867.51	213.02
867.82	213.00
868.13	213.71
868.44	213.26
868.75	213.69
869.06	213.67
869.37	214.00
869.68	213.36
869.99	213.76
870.30	213.67
870.61	213.74
870.92	213.19
871.23	213.00
871.54	213.24
871.85	213.81
872.16	214.19
872.47	214.19
872.78	212.98
873.09	213.19
873.40	212.93
873.71	213.05
874.02	213.40
874.33	213.00
874.64	212.45
874.95	212.90
875.26	212.57
875.56	212.60
875.87	212.45
876.18	212.48
876.49	214.36
876.80	214.14
877.11	213.86
877.42	214.05
877.73	214.07
878.04	213.88
878.35	213.76
878.66	213.48
878.96	213.55
879.27	213.29
879.58	213.10
879.89	212.81
880.20	213.57
880.51	213.62
880.82	213.81
881.12	214.17
881.43	213.74
881.74	213.52
882.05	213.55
882.36	213.38
882.67	213.36
882.97	210.95
883.28	210.95
883.59	210.79
883.90	210.88
884.21	211.19
884.51	210.93
884.82	210.67
885.13	210.67
885.44	210.52
885.74	210.60
886.05	210.45
886.36	210.57
886.67	209.67
886.98	210.17
887.28	210.52
887.59	210.21
887.90	210.19
888.20	210.33
888.51	210.69
888.82	210.33
889.13	210.57
889.43	212.48
889.74	212.40
890.05	212.57
890.35	212.50
890.66	212.45
890.97	212.14
891.28	211.90
891.58	212.10
891.89	212.00
892.20	211.88
892.50	211.81
892.81	211.74
893.12	211.62
893.42	210.83
893.73	210.71
894.04	210.52
894.34	210.95
894.65	210.83
894.95	210.60
895.26	210.90
895.57	211.93
895.87	209.98
896.18	210.29
896.48	210.29
896.79	210.38
897.10	210.33
897.40	210.79
897.71	211.05
898.01	210.81
898.32	211.12
898.63	211.12
898.93	211.36
899.24	211.43
899.54	211.67
899.85	211.60
900.15	211.64
900.46	211.88
900.76	212.05
901.07	211.88
901.38	211.88
901.68	212.21
901.99	211.10
902.29	211.48
902.60	211.07
902.90	210.88
903.21	210.71
903.51	210.57
903.82	210.86
904.12	210.86
904.43	211.07
904.73	210.88
905.03	210.81
905.34	212.43
905.64	212.31
905.95	212.29
906.25	212.21
906.56	211.95
906.86	211.81
907.17	211.57
907.47	211.76
907.77	211.62
908.08	211.12
908.38	211.12
908.69	211.19
908.99	211.67
909.30	211.88
909.60	212.00
909.90	212.21
910.21	211.76
910.51	211.55
910.81	211.57
911.12	211.74
911.42	211.90
911.73	210.12
912.03	210.24
912.33	210.57
912.64	210.69
912.94	210.64
913.24	210.50
913.55	210.36
913.85	210.21
914.15	210.48
914.46	210.74
914.76	210.74
915.06	210.55
915.37	210.24
915.67	210.17
915.97	210.17
916.27	209.62
916.58	209.55
916.88	209.64
917.18	209.48
917.49	210.86
917.79	210.83
918.09	211.07
918.39	211.64
918.70	211.57
919.00	211.71
919.30	212.74
919.60	212.69
919.91	212.52
920.21	212.98
920.51	212.69
920.81	212.62
921.12	212.95
921.42	212.71
921.72	213.12
922.02	213.33
922.32	213.74
922.63	213.88
922.93	214.88
923.23	214.95
923.53	214.79
923.83	213.55
924.13	213.64
924.44	213.62
924.74	214.12
925.04	214.55
925.34	214.57
925.64	213.55
925.94	213.50
926.24	214.67
926.55	214.38
926.85	214.79
927.15	214.64
927.45	214.71
927.75	214.93
928.05	215.00
928.35	214.60
928.65	214.81
928.95	215.00
929.26	214.26
929.56	214.64
929.86	215.02
930.16	214.76
930.46	214.57
930.76	214.55
931.06	213.36
931.36	213.07
931.66	213.07
931.96	213.45
932.26	213.71
932.56	212.86
932.86	213.00
933.16	212.88
933.46	212.93
933.76	212.55
934.06	213.19
934.36	213.43
934.66	213.36
934.96	213.07
935.26	213.24
935.56	213.36
935.86	212.81
936.16	212.45
936.46	212.36
936.76	212.40
937.06	212.29
937.36	212.57
937.66	212.38
937.96	212.26
938.26	211.81
938.56	211.48
938.86	211.52
939.16	211.76
939.46	211.76
939.76	211.81
940.06	211.67
940.35	210.90
940.65	210.17
940.95	210.55
941.25	209.93
941.55	209.62
941.85	209.57
942.15	210.19
942.45	210.74
942.75	210.76
943.04	210.79
943.34	211.24
943.64	211.02
943.94	210.67
944.24	210.95
944.54	211.10
944.84	211.21
945.13	210.76
945.43	210.31
945.73	210.14
946.03	210.12
946.33	210.12
946.62	210.00
946.92	209.86
947.22	210.14
947.52	210.45
947.82	210.60
948.11	210.43
948.41	209.76
948.71	209.19
949.01	209.24
949.31	209.14
949.60	208.62
949.90	208.93
950.20	209.07
950.50	208.98
950.79	208.83
951.09	209.07
951.39	209.31
951.69	209.45
951.98	210.07
952.28	209.90
952.58	209.86
952.87	210.12
953.17	210.57
953.47	210.02
953.76	209.93
954.06	209.74
954.36	209.60
954.66	209.81
954.95	210.38
955.25	210.48
955.55	210.60
955.84	210.50
956.14	210.71
956.44	210.69
956.73	210.31
957.03	210.40
957.32	210.38
957.62	210.36
957.92	210.45
958.21	210.05
958.51	212.55
958.81	213.05
959.10	213.21
959.40	213.62
959.69	213.88
959.99	214.31
960.29	214.26
960.58	214.17
960.88	214.88
961.17	214.50
961.47	214.79
961.76	214.69
962.06	215.05
962.36	214.71
962.65	214.79
962.95	214.81
963.24	214.79
963.54	214.71
963.83	215.00
964.13	215.07
964.42	214.79
964.72	212.95
965.01	212.76
965.31	212.57
965.60	211.95
965.90	213.21
966.19	212.67
966.49	212.86
966.78	212.88
967.08	212.81
967.37	213.00
967.67	212.57
967.96	212.95
968.26	213.00
968.55	213.43
968.85	213.57
969.14	213.71
969.43	213.62
969.73	213.57
970.02	213.38
970.32	213.12
970.61	212.93
970.91	212.48
971.20	212.21
971.49	212.14
971.79	212.40
972.08	210.83
972.38	211.24
972.67	211.17
972.96	211.40
973.26	210.90
973.55	211.38
973.85	211.24
974.14	211.26
974.43	211.26
974.73	210.83
975.02	210.55
975.31	210.45
975.61	210.57
975.90	210.33
976.19	210.05
976.49	210.21
976.78	210.57
977.07	210.62
977.37	210.57
977.66	210.69
977.95	210.17
978.24	210.57
978.54	210.81
978.83	210.76
979.12	210.60
979.42	210.67
979.71	210.52
980.00	210.62
980.29	210.50
980.59	210.00
980.88	210.45
981.17	210.40
981.46	210.55
981.76	210.50
982.05	211.36
982.34	211.69
982.63	211.90
982.93	211.76
983.22	212.45
983.51	212.50
983.80	212.62
984.09	213.12
984.39	212.86
984.68	212.31
984.97	212.38
985.26	212.21
985.55	212.36
985.85	211.50
986.14	211.81
986.43	212.19
986.72	212.26
987.01	211.57
987.30	211.64
987.59	211.50
987.89	211.60
988.18	210.83
988.47	210.36
988.76	210.14
989.05	209.98
989.34	209.64
989.63	210.26
989.92	209.93
990.22	209.64
990.51	209.74
990.80	210.07
991.09	210.12
991.38	210.57
991.67	210.21
991.96	210.43
992.25	210.55
992.54	210.21
992.83	210.38
993.12	210.45
993.41	210.69
993.70	211.48
993.99	212.02
994.28	212.29
994.58	212.69
994.87	212.45
995.16	212.50
995.45	212.21
995.74	211.55
996.03	211.86
996.32	212.10
996.61	212.48
996.90	212.26
997.19	212.24
997.48	211.93
997.77	211.88
998.06	211.95
998.34	211.60
998.63	211.64
998.92	211.52
999.21	211.88
999.50	211.88
999.79	211.10
1000.08	210.74
1000.37	210.74
1000.66	210.50
1000.95	210.90
1001.24	211.07
1001.53	211.31
1001.82	211.29
1002.11	210.83
1002.40	211.00
1002.68	211.29
1002.97	212.76
1003.26	212.40
1003.55	212.24
1003.84	212.45
1004.13	212.98
1004.42	213.02
1004.71	212.86
1004.99	212.93
1005.28	213.48
1005.57	213.50
1005.86	213.31
1006.15	213.31
1006.44	213.07
1006.72	213.38
1007.01	213.29
1007.30	213.24
1007.59	213.05
1007.88	213.14
1008.17	213.48
1008.45	213.33
1008.74	212.50
1009.03	211.50
1009.32	211.69
1009.60	211.67
1009.89	211.31
1010.18	210.62
1010.47	210.55
1010.76	210.38
1011.04	210.24
1011.33	210.17
1011.62	210.26
1011.91	210.48
1012.19	210.64
1012.48	210.74
1012.77	210.57
1013.05	211.31
1013.34	211.31
1013.63	211.17
1013.92	211.29
1014.20	211.07
1014.49	210.83
1014.78	211.05
1015.06	210.31
1015.35	210.24
1015.64	210.69
1015.92	211.02
1016.21	211.17
1016.50	211.24
1016.78	211.52
1017.07	211.57
1017.36	211.00
1017.64	210.48
1017.93	210.57
1018.22	210.12
1018.50	210.29
1018.79	210.40
1019.08	209.40
1019.36	209.67
1019.65	209.67
1019.93	210.10
1020.22	210.55
1020.51	211.67
1020.79	211.43
1021.08	206.50
1021.36	212.50
1021.65	212.00
1021.94	208.00
1022.22	215.50
1022.51	209.00
1022.79	220.00
1023.08	215.50
1023.36	233.50
1023.65	205.00
>>>>>End Processed Spectral Data<<<<<
