SpectraSuite Data File
++++++++++++++++++++++++++++++++++++
Date: Tue Apr 02 18:45:07 EDT 2013
User: group
Dark Spectrum Present: No
Reference Spectrum Present: No
Number of Sampled Component Spectra: 1
Spectrometers: USB2E7196
Integration Time (usec): 580000 (USB2E7196)
Spectra Averaged: 2 (USB2E7196)
Boxcar Smoothing: 10 (USB2E7196)
Correct for Electrical Dark: No (USB2E7196)
Strobe/Lamp Enabled: No (USB2E7196)
Correct for Detector Non-linearity: No (USB2E7196)
Correct for Stray Light: No (USB2E7196)
Number of Pixels in Processed Spectrum: 2048
>>>>>Begin Processed Spectral Data<<<<<
339.09	0.00
339.48	197.50
339.86	195.50
340.24	195.00
340.63	200.50
341.01	236.00
341.39	202.00
341.78	211.00
342.16	210.50
342.54	209.00
342.93	200.57
343.31	210.62
343.69	211.10
344.07	211.57
344.46	212.50
344.84	213.05
345.22	211.74
345.60	212.40
345.99	212.52
346.37	212.62
346.75	212.43
347.13	212.36
347.52	212.40
347.90	213.02
348.28	213.14
348.66	213.55
349.05	212.76
349.43	212.90
349.81	212.86
350.19	212.93
350.57	212.45
350.96	212.50
351.34	212.64
351.72	212.93
352.10	213.02
352.48	212.76
352.87	212.76
353.25	212.71
353.63	212.14
354.01	211.76
354.39	211.81
354.77	211.86
355.15	212.48
355.54	212.19
355.92	211.50
356.30	211.45
356.68	212.81
357.06	213.05
357.44	212.64
357.82	212.76
358.20	213.40
358.58	213.50
358.97	213.57
359.35	213.90
359.73	213.93
360.11	214.00
360.49	214.10
360.87	213.98
361.25	214.38
361.63	215.43
362.01	215.71
362.39	215.40
362.77	215.62
363.15	215.31
363.53	215.36
363.91	215.29
364.29	215.07
364.67	212.88
365.05	212.83
365.43	212.95
365.81	213.12
366.19	213.40
366.57	214.21
366.95	213.93
367.33	213.26
367.71	213.17
368.09	213.55
368.47	213.48
368.85	213.29
369.23	213.62
369.61	212.69
369.99	213.38
370.37	213.69
370.75	214.79
371.13	214.67
371.51	214.24
371.89	214.71
372.27	214.98
372.65	215.02
373.03	215.19
373.41	215.07
373.78	214.90
374.16	213.88
374.54	213.19
374.92	213.02
375.30	212.93
375.68	212.62
376.06	212.76
376.44	212.81
376.82	213.00
377.19	212.86
377.57	212.79
377.95	212.02
378.33	212.05
378.71	210.71
379.09	210.93
379.47	211.31
379.84	211.07
380.22	211.00
380.60	210.83
380.98	210.64
381.36	211.05
381.73	210.74
382.11	211.17
382.49	211.48
382.87	211.45
383.25	211.79
383.62	214.31
384.00	213.90
384.38	214.05
384.76	214.45
385.13	215.21
385.51	215.55
385.89	215.36
386.27	215.24
386.64	215.62
387.02	215.45
387.40	215.48
387.78	215.57
388.15	215.55
388.53	215.67
388.91	215.55
389.29	215.33
389.66	215.76
390.04	215.31
390.42	215.60
390.79	215.74
391.17	215.60
391.55	213.31
391.92	213.17
392.30	213.40
392.68	213.19
393.05	213.00
393.43	212.93
393.81	213.29
394.18	213.10
394.56	213.24
394.94	213.62
395.31	213.36
395.69	213.79
396.06	214.19
396.44	214.36
396.82	214.40
397.19	215.26
397.57	215.07
397.95	215.62
398.32	215.07
398.70	215.07
399.07	215.79
399.45	215.81
399.82	215.98
400.20	215.71
400.58	215.76
400.95	214.83
401.33	215.26
401.70	216.60
402.08	216.62
402.45	216.67
402.83	217.02
403.20	217.29
403.58	217.24
403.95	217.52
404.33	217.88
404.71	218.02
405.08	219.36
405.46	219.55
405.83	219.81
406.21	219.98
406.58	220.62
406.96	220.76
407.33	221.43
407.70	222.38
408.08	224.50
408.45	225.33
408.83	226.67
409.20	227.05
409.58	226.52
409.95	227.95
410.33	228.93
410.70	229.33
411.08	230.48
411.45	231.71
411.82	232.74
412.20	234.48
412.57	237.29
412.95	236.81
413.32	238.67
413.69	240.05
414.07	241.90
414.44	243.81
414.82	245.71
415.19	247.90
415.56	249.86
415.94	251.19
416.31	254.10
416.68	256.69
417.06	260.07
417.43	263.69
417.81	267.02
418.18	270.79
418.55	274.60
418.93	278.52
419.30	282.40
419.67	286.71
420.04	290.86
420.42	294.86
420.79	301.95
421.16	307.31
421.54	314.64
421.91	321.00
422.28	326.88
422.66	333.36
423.03	341.45
423.40	348.40
423.77	355.45
424.15	362.43
424.52	369.83
424.89	378.24
425.26	386.14
425.64	393.90
426.01	402.00
426.38	410.81
426.75	420.36
427.13	429.55
427.50	438.81
427.87	448.83
428.24	458.98
428.61	467.62
428.99	478.86
429.36	488.74
429.73	499.76
430.10	511.26
430.47	523.24
430.85	533.31
431.22	545.74
431.59	560.86
431.96	573.19
432.33	587.00
432.70	600.62
433.08	616.88
433.45	631.33
433.82	646.10
434.19	662.90
434.56	680.00
434.93	695.45
435.30	711.50
435.68	729.14
436.05	745.90
436.42	762.74
436.79	778.71
437.16	796.12
437.53	814.05
437.90	831.62
438.27	849.14
438.64	867.67
439.01	884.60
439.38	897.90
439.75	913.24
440.13	929.90
440.50	945.67
440.87	957.86
441.24	971.52
441.61	986.31
441.98	997.31
442.35	1008.38
442.72	1021.55
443.09	1034.67
443.46	1041.48
443.83	1047.07
444.20	1051.38
444.57	1057.74
444.94	1060.38
445.31	1063.26
445.68	1069.31
446.05	1070.81
446.42	1069.17
446.79	1068.19
447.16	1066.19
447.53	1064.95
447.90	1059.10
448.27	1052.43
448.64	1043.95
449.01	1038.21
449.37	1027.43
449.74	1016.21
450.11	1005.05
450.48	990.26
450.85	975.12
451.22	963.24
451.59	951.67
451.96	940.74
452.33	924.83
452.70	911.05
453.07	894.17
453.43	873.95
453.80	857.64
454.17	841.79
454.54	826.12
454.91	810.24
455.28	794.17
455.65	779.17
456.02	767.83
456.38	754.83
456.75	739.19
457.12	725.60
457.49	712.93
457.86	699.21
458.23	689.57
458.59	677.71
458.96	665.55
459.33	654.12
459.70	643.14
460.07	634.67
460.43	624.98
460.80	616.79
461.17	609.79
461.54	600.90
461.91	592.90
462.27	585.02
462.64	577.81
463.01	570.45
463.38	563.98
463.74	553.29
464.11	546.76
464.48	540.83
464.85	534.76
465.21	530.38
465.58	525.12
465.95	518.29
466.32	513.21
466.68	508.29
467.05	503.69
467.42	498.74
467.78	493.74
468.15	489.17
468.52	485.43
468.88	480.10
469.25	475.86
469.62	472.81
469.98	468.52
470.35	464.95
470.72	461.33
471.08	457.07
471.45	454.48
471.82	452.05
472.18	448.60
472.55	446.29
472.92	442.43
473.28	439.67
473.65	437.00
474.02	434.45
474.38	432.29
474.75	430.52
475.11	428.38
475.48	426.86
475.85	425.00
476.21	423.00
476.58	421.71
476.94	420.74
477.31	419.43
477.67	418.40
478.04	417.48
478.41	416.55
478.77	418.10
479.14	416.55
479.50	415.69
479.87	415.50
480.23	415.19
480.60	415.02
480.96	414.62
481.33	415.48
481.69	415.07
482.06	414.95
482.42	415.14
482.79	415.67
483.15	415.69
483.52	416.52
483.88	417.07
484.25	417.71
484.61	418.26
484.98	418.79
485.34	420.57
485.71	422.07
486.07	423.79
486.44	422.90
486.80	424.74
487.17	426.14
487.53	428.69
487.90	430.98
488.26	434.12
488.62	437.12
488.99	438.93
489.35	441.98
489.72	445.05
490.08	447.50
490.44	450.50
490.81	453.74
491.17	456.81
491.54	460.67
491.90	464.52
492.26	467.86
492.63	471.43
492.99	474.86
493.36	478.67
493.72	482.88
494.08	487.64
494.45	492.60
494.81	497.57
495.17	501.64
495.54	506.33
495.90	511.07
496.26	516.10
496.63	521.31
496.99	526.67
497.35	532.24
497.72	538.07
498.08	543.21
498.44	549.26
498.80	555.74
499.17	561.93
499.53	568.00
499.89	575.48
500.26	582.45
500.62	588.64
500.98	596.10
501.34	603.10
501.71	610.33
502.07	617.50
502.43	624.45
502.79	631.74
503.16	639.02
503.52	646.21
503.88	653.33
504.24	660.79
504.60	667.71
504.97	674.86
505.33	682.05
505.69	691.07
506.05	698.60
506.41	706.14
506.78	713.48
507.14	721.12
507.50	728.50
507.86	736.33
508.22	744.88
508.59	751.67
508.95	759.62
509.31	767.76
509.67	775.38
510.03	783.10
510.39	790.88
510.75	798.50
511.12	805.93
511.48	813.71
511.84	821.81
512.20	829.50
512.56	837.36
512.92	845.36
513.28	852.29
513.64	859.71
514.00	867.29
514.37	874.62
514.73	882.31
515.09	889.93
515.45	896.81
515.81	903.52
516.17	910.62
516.53	916.69
516.89	922.36
517.25	928.76
517.61	935.38
517.97	941.62
518.33	948.19
518.69	954.71
519.05	961.05
519.41	966.88
519.77	974.81
520.13	980.71
520.49	986.43
520.85	991.95
521.21	998.76
521.57	1004.67
521.93	1009.62
522.29	1014.98
522.65	1019.26
523.01	1025.31
523.37	1029.71
523.73	1034.81
524.09	1039.98
524.45	1045.60
524.81	1050.86
525.17	1056.14
525.53	1060.83
525.89	1065.33
526.25	1070.43
526.61	1074.33
526.97	1078.43
527.33	1081.31
527.68	1087.83
528.04	1092.02
528.40	1096.45
528.76	1100.21
529.12	1103.60
529.48	1108.69
529.84	1112.55
530.20	1116.90
530.56	1120.55
530.91	1125.26
531.27	1130.07
531.63	1134.93
531.99	1138.88
532.35	1142.19
532.71	1145.48
533.07	1150.64
533.42	1156.98
533.78	1160.60
534.14	1165.21
534.50	1169.45
534.86	1173.62
535.21	1175.45
535.57	1180.52
535.93	1184.17
536.29	1188.48
536.65	1192.02
537.00	1195.26
537.36	1199.05
537.72	1203.07
538.08	1206.79
538.44	1210.45
538.79	1213.81
539.15	1216.50
539.51	1219.71
539.87	1223.93
540.22	1227.62
540.58	1230.19
540.94	1231.10
541.29	1233.88
541.65	1235.81
542.01	1238.57
542.37	1241.40
542.72	1244.12
543.08	1246.12
543.44	1248.48
543.79	1249.83
544.15	1253.14
544.51	1255.98
544.87	1258.45
545.22	1260.69
545.58	1263.40
545.94	1266.21
546.29	1268.24
546.65	1271.24
547.01	1273.10
547.36	1275.31
547.72	1278.12
548.07	1280.90
548.43	1283.12
548.79	1285.40
549.14	1288.57
549.50	1291.52
549.86	1293.67
550.21	1296.33
550.57	1299.45
550.92	1303.02
551.28	1306.79
551.64	1309.88
551.99	1313.21
552.35	1316.33
552.70	1320.00
553.06	1323.24
553.41	1326.33
553.77	1331.43
554.13	1334.43
554.48	1338.76
554.84	1342.55
555.19	1346.29
555.55	1351.12
555.90	1354.79
556.26	1359.17
556.61	1363.19
556.97	1366.31
557.32	1370.24
557.68	1374.29
558.03	1377.31
558.39	1380.93
558.74	1384.50
559.10	1388.31
559.45	1391.86
559.81	1395.74
560.16	1398.88
560.52	1403.21
560.87	1407.50
561.23	1410.00
561.58	1416.07
561.94	1419.88
562.29	1423.74
562.64	1427.55
563.00	1430.29
563.35	1435.43
563.71	1440.31
564.06	1445.38
564.42	1450.52
564.77	1456.36
565.12	1461.57
565.48	1468.50
565.83	1474.17
566.19	1479.88
566.54	1483.90
566.89	1488.90
567.25	1496.00
567.60	1504.45
567.96	1511.38
568.31	1518.57
568.66	1525.60
569.02	1529.45
569.37	1535.05
569.72	1540.90
570.08	1546.48
570.43	1552.48
570.78	1558.21
571.14	1563.93
571.49	1568.38
571.84	1574.40
572.20	1579.24
572.55	1584.93
572.90	1588.76
573.26	1593.60
573.61	1597.29
573.96	1603.88
574.31	1609.26
574.67	1612.31
575.02	1614.74
575.37	1616.74
575.72	1618.52
576.08	1621.98
576.43	1626.14
576.78	1630.17
577.13	1633.74
577.49	1636.81
577.84	1640.57
578.19	1643.76
578.54	1646.90
578.90	1652.17
579.25	1655.95
579.60	1659.69
579.95	1661.76
580.30	1665.71
580.66	1668.90
581.01	1673.69
581.36	1676.29
581.71	1679.67
582.06	1684.71
582.42	1689.17
582.77	1692.69
583.12	1696.45
583.47	1699.81
583.82	1702.81
584.17	1706.36
584.53	1710.33
584.88	1714.64
585.23	1718.67
585.58	1721.69
585.93	1724.29
586.28	1725.38
586.63	1728.10
586.98	1730.52
587.34	1734.83
587.69	1736.36
588.04	1738.83
588.39	1740.67
588.74	1741.95
589.09	1744.74
589.44	1744.90
589.79	1746.10
590.14	1747.55
590.49	1748.88
590.84	1749.29
591.19	1751.26
591.54	1752.86
591.89	1752.90
592.25	1756.55
592.60	1756.67
592.95	1759.12
593.30	1761.26
593.65	1762.88
594.00	1763.36
594.35	1769.76
594.70	1769.83
595.05	1771.29
595.40	1770.60
595.75	1771.31
596.10	1773.12
596.45	1773.17
596.80	1774.71
597.15	1774.93
597.50	1776.40
597.85	1778.48
598.19	1779.21
598.54	1779.64
598.89	1779.74
599.24	1781.19
599.59	1778.98
599.94	1779.60
600.29	1779.21
600.64	1777.79
600.99	1778.17
601.34	1778.98
601.69	1774.07
602.04	1773.67
602.39	1773.19
602.74	1774.86
603.08	1774.00
603.43	1774.95
603.78	1774.38
604.13	1773.45
604.48	1772.90
604.83	1772.69
605.18	1772.21
605.53	1772.29
605.87	1771.05
606.22	1770.50
606.57	1769.52
606.92	1768.90
607.27	1768.10
607.62	1767.33
607.96	1767.93
608.31	1767.07
608.66	1765.40
609.01	1763.55
609.36	1763.17
609.70	1762.19
610.05	1760.55
610.40	1758.83
610.75	1755.50
611.10	1754.12
611.44	1751.79
611.79	1750.14
612.14	1747.29
612.49	1743.05
612.83	1740.57
613.18	1738.40
613.53	1735.12
613.88	1731.33
614.22	1727.48
614.57	1723.40
614.92	1719.67
615.27	1715.57
615.61	1711.02
615.96	1707.71
616.31	1704.26
616.65	1701.38
617.00	1698.86
617.35	1696.02
617.70	1693.76
618.04	1690.64
618.39	1687.48
618.74	1683.79
619.08	1679.29
619.43	1675.93
619.78	1673.62
620.12	1670.29
620.47	1665.98
620.82	1661.52
621.16	1658.17
621.51	1655.81
621.85	1652.38
622.20	1648.76
622.55	1644.52
622.89	1641.83
623.24	1639.00
623.59	1635.71
623.93	1631.81
624.28	1627.19
624.62	1624.14
624.97	1620.40
625.32	1616.31
625.66	1611.98
626.01	1608.76
626.35	1605.76
626.70	1602.02
627.04	1598.43
627.39	1594.14
627.73	1591.60
628.08	1589.14
628.43	1585.45
628.77	1581.38
629.12	1578.02
629.46	1574.90
629.81	1571.36
630.15	1567.21
630.50	1562.48
630.84	1557.60
631.19	1552.50
631.53	1548.17
631.88	1541.45
632.22	1535.88
632.57	1532.64
632.91	1527.69
633.26	1523.62
633.60	1518.14
633.95	1513.05
634.29	1507.38
634.64	1503.57
634.98	1498.29
635.32	1494.24
635.67	1490.86
636.01	1486.40
636.36	1481.40
636.70	1476.50
637.05	1471.69
637.39	1467.98
637.73	1463.12
638.08	1459.40
638.42	1454.74
638.77	1450.67
639.11	1447.43
639.45	1442.81
639.80	1436.48
640.14	1432.26
640.49	1426.88
640.83	1422.05
641.17	1418.31
641.52	1414.12
641.86	1407.90
642.20	1403.67
642.55	1397.05
642.89	1391.02
643.23	1385.07
643.58	1381.17
643.92	1375.31
644.26	1370.00
644.61	1363.98
644.95	1358.21
645.29	1351.64
645.64	1346.36
645.98	1339.67
646.32	1334.14
646.66	1327.45
647.01	1321.86
647.35	1315.64
647.69	1310.00
648.04	1305.24
648.38	1299.48
648.72	1293.43
649.06	1288.45
649.41	1281.48
649.75	1275.29
650.09	1269.45
650.43	1263.67
650.78	1255.98
651.12	1249.02
651.46	1243.48
651.80	1237.29
652.14	1231.55
652.49	1226.52
652.83	1220.12
653.17	1214.26
653.51	1206.31
653.85	1201.98
654.20	1196.55
654.54	1189.95
654.88	1182.90
655.22	1176.67
655.56	1168.88
655.90	1162.07
656.25	1155.36
656.59	1149.00
656.93	1143.57
657.27	1137.83
657.61	1131.26
657.95	1126.05
658.29	1120.45
658.64	1114.31
658.98	1108.05
659.32	1101.24
659.66	1094.45
660.00	1087.50
660.34	1081.67
660.68	1076.83
661.02	1070.05
661.36	1063.26
661.70	1057.60
662.05	1052.14
662.39	1045.79
662.73	1041.12
663.07	1036.69
663.41	1030.29
663.75	1025.10
664.09	1019.38
664.43	1012.79
664.77	1007.62
665.11	1000.60
665.45	994.79
665.79	988.71
666.13	983.12
666.47	978.02
666.81	972.43
667.15	967.36
667.49	961.55
667.83	956.10
668.17	950.21
668.51	945.05
668.85	940.02
669.19	935.69
669.53	929.64
669.87	923.48
670.21	916.55
670.55	911.40
670.89	906.55
671.23	900.88
671.57	895.19
671.91	889.67
672.25	884.69
672.58	879.83
672.92	873.79
673.26	868.17
673.60	861.64
673.94	856.50
674.28	851.40
674.62	846.57
674.96	840.86
675.30	836.19
675.64	831.24
675.97	825.79
676.31	819.19
676.65	814.14
676.99	809.64
677.33	804.98
677.67	800.24
678.01	794.12
678.34	789.36
678.68	785.10
679.02	779.60
679.36	774.71
679.70	769.31
680.04	764.83
680.37	759.57
680.71	754.98
681.05	749.95
681.39	745.19
681.73	740.10
682.06	735.24
682.40	730.14
682.74	725.33
683.08	721.19
683.42	716.36
683.75	712.31
684.09	707.14
684.43	702.62
684.77	697.62
685.10	693.24
685.44	688.60
685.78	683.79
686.12	679.33
686.45	674.52
686.79	669.93
687.13	666.14
687.46	661.43
687.80	658.10
688.14	653.83
688.48	650.02
688.81	645.00
689.15	641.10
689.49	636.55
689.82	632.12
690.16	626.90
690.50	622.57
690.83	617.43
691.17	612.43
691.51	608.24
691.84	604.14
692.18	600.12
692.52	595.95
692.85	591.98
693.19	588.93
693.52	584.95
693.86	580.62
694.20	576.10
694.53	572.24
694.87	567.57
695.21	563.19
695.54	558.64
695.88	554.57
696.21	549.95
696.55	546.31
696.88	542.31
697.22	538.07
697.56	534.98
697.89	531.43
698.23	528.48
698.56	524.40
698.90	520.98
699.23	517.17
699.57	513.12
699.90	509.40
700.24	505.14
700.58	501.64
700.91	498.81
701.25	497.17
701.58	494.88
701.92	492.14
702.25	489.19
702.59	485.64
702.92	482.67
703.26	479.50
703.59	476.45
703.93	475.26
704.26	473.00
704.60	469.86
704.93	466.64
705.26	463.33
705.60	460.71
705.93	457.52
706.27	455.02
706.60	452.76
706.94	450.69
707.27	447.74
707.61	444.81
707.94	441.48
708.27	436.74
708.61	433.21
708.94	430.24
709.28	428.05
709.61	425.48
709.94	423.02
710.28	420.86
710.61	418.60
710.95	414.24
711.28	413.26
711.61	410.88
711.95	409.19
712.28	406.64
712.61	404.19
712.95	402.81
713.28	401.31
713.61	398.69
713.95	395.57
714.28	393.43
714.61	391.26
714.95	389.26
715.28	387.00
715.61	384.90
715.95	382.93
716.28	380.52
716.61	378.62
716.95	376.00
717.28	373.60
717.61	370.83
717.94	368.93
718.28	365.17
718.61	362.93
718.94	360.57
719.27	358.67
719.61	356.86
719.94	354.62
720.27	351.81
720.60	350.19
720.94	348.55
721.27	346.67
721.60	345.52
721.93	343.86
722.27	343.24
722.60	341.62
722.93	339.86
723.26	338.29
723.59	336.50
723.93	335.69
724.26	334.83
724.59	333.50
724.92	332.07
725.25	331.29
725.59	329.98
725.92	328.95
726.25	327.83
726.58	326.64
726.91	325.02
727.24	324.17
727.57	322.79
727.91	320.93
728.24	320.02
728.57	318.45
728.90	317.36
729.23	315.33
729.56	315.19
729.89	313.98
730.22	312.57
730.55	311.48
730.89	310.33
731.22	308.71
731.55	307.55
731.88	306.29
732.21	304.74
732.54	303.45
732.87	302.24
733.20	301.38
733.53	300.26
733.86	299.50
734.19	297.81
734.52	297.14
734.85	297.95
735.18	296.69
735.51	296.48
735.84	295.93
736.17	295.43
736.50	293.36
736.83	294.98
737.16	294.07
737.49	293.05
737.82	292.14
738.15	291.81
738.48	291.19
738.81	290.40
739.14	289.71
739.47	288.86
739.80	288.10
740.13	287.64
740.46	286.45
740.79	285.12
741.12	284.48
741.45	283.29
741.78	281.33
742.11	281.19
742.44	279.95
742.77	279.12
743.10	277.93
743.43	277.29
743.75	274.26
744.08	275.83
744.41	275.12
744.74	274.29
745.07	273.05
745.40	272.55
745.73	272.74
746.06	272.00
746.39	271.64
746.71	270.67
747.04	269.55
747.37	268.95
747.70	268.71
748.03	267.98
748.36	267.62
748.68	266.98
749.01	265.57
749.34	264.90
749.67	264.45
750.00	264.24
750.33	265.05
750.65	264.52
750.98	261.60
751.31	261.21
751.64	260.74
751.97	261.55
752.29	260.88
752.62	259.43
752.95	258.83
753.28	258.12
753.60	257.64
753.93	257.74
754.26	257.40
754.59	256.19
754.91	255.52
755.24	254.69
755.57	254.31
755.90	253.74
756.22	253.26
756.55	252.26
756.88	251.36
757.20	249.71
757.53	248.69
757.86	248.31
758.19	247.74
758.51	247.17
758.84	245.19
759.17	244.62
759.49	244.40
759.82	244.86
760.15	244.45
760.47	244.24
760.80	243.02
761.13	243.05
761.45	242.81
761.78	242.45
762.11	242.21
762.43	241.64
762.76	241.26
763.08	240.81
763.41	240.52
763.74	240.21
764.06	239.76
764.39	239.43
764.71	239.21
765.04	238.71
765.37	238.14
765.69	238.19
766.02	237.88
766.34	237.12
766.67	236.02
767.00	236.21
767.32	236.69
767.65	237.67
767.97	237.14
768.30	237.02
768.62	236.76
768.95	236.38
769.27	236.00
769.60	236.29
769.92	235.76
770.25	235.29
770.57	234.79
770.90	234.50
771.22	234.05
771.55	233.71
771.87	233.88
772.20	233.79
772.52	235.19
772.85	237.26
773.17	237.24
773.50	236.90
773.82	236.31
774.15	235.38
774.47	233.93
774.80	233.48
775.12	233.24
775.45	232.83
775.77	232.81
776.09	232.71
776.42	232.29
776.74	232.57
777.07	232.52
777.39	232.48
777.72	231.98
778.04	232.26
778.36	231.90
778.69	231.67
779.01	231.55
779.33	229.55
779.66	227.31
779.98	227.07
780.31	226.79
780.63	227.64
780.95	227.50
781.28	227.74
781.60	227.50
781.92	227.29
782.25	227.24
782.57	226.81
782.89	226.57
783.22	226.31
783.54	225.74
783.86	225.55
784.19	225.40
784.51	225.93
784.83	225.50
785.16	225.62
785.48	225.21
785.80	224.98
786.12	225.31
786.45	224.98
786.77	225.17
787.09	225.07
787.42	224.05
787.74	224.10
788.06	223.62
788.38	223.45
788.71	223.40
789.03	223.60
789.35	223.98
789.67	223.86
789.99	223.86
790.32	223.67
790.64	223.71
790.96	225.52
791.28	224.62
791.61	224.48
791.93	224.07
792.25	224.05
792.57	225.38
792.89	224.60
793.21	224.71
793.54	224.33
793.86	224.17
794.18	224.48
794.50	224.10
794.82	224.21
795.14	224.36
795.47	224.57
795.79	224.50
796.11	223.62
796.43	223.21
796.75	223.19
797.07	223.24
797.39	223.14
797.71	221.29
798.04	221.79
798.36	221.86
798.68	222.00
799.00	222.10
799.32	220.95
799.64	221.48
799.96	221.10
800.28	221.17
800.60	221.10
800.92	220.76
801.24	220.48
801.56	220.45
801.89	220.14
802.21	220.07
802.53	219.76
802.85	220.57
803.17	221.62
803.49	221.17
803.81	221.05
804.13	220.95
804.45	220.71
804.77	220.76
805.09	220.62
805.41	220.29
805.73	219.98
806.05	219.48
806.37	219.05
806.69	219.05
807.01	219.14
807.33	219.12
807.65	218.33
807.97	219.38
808.28	219.07
808.60	219.14
808.92	218.79
809.24	219.83
809.56	219.45
809.88	218.48
810.20	218.57
810.52	218.86
810.84	218.67
811.16	218.57
811.48	218.31
811.80	219.00
812.12	218.98
812.43	219.36
812.75	219.67
813.07	219.60
813.39	219.74
813.71	219.36
814.03	219.21
814.35	219.50
814.67	218.55
814.98	218.38
815.30	218.33
815.62	218.02
815.94	216.79
816.26	216.79
816.58	216.52
816.89	216.57
817.21	216.14
817.53	215.90
817.85	215.79
818.17	215.52
818.48	214.79
818.80	215.17
819.12	214.60
819.44	214.19
819.76	214.02
820.07	214.14
820.39	214.21
820.71	214.45
821.03	214.38
821.34	214.26
821.66	214.62
821.98	214.86
822.30	214.69
822.61	215.93
822.93	215.71
823.25	215.55
823.57	215.29
823.88	215.52
824.20	215.60
824.52	216.05
824.83	216.10
825.15	215.81
825.47	215.83
825.79	216.02
826.10	215.98
826.42	215.76
826.74	215.98
827.05	215.83
827.37	215.81
827.69	215.76
828.00	215.90
828.32	215.79
828.64	215.43
828.95	216.64
829.27	216.12
829.58	216.02
829.90	216.43
830.22	216.74
830.53	216.52
830.85	216.60
831.17	216.21
831.48	216.02
831.80	216.05
832.11	215.50
832.43	215.40
832.75	215.31
833.06	216.81
833.38	215.90
833.69	215.74
834.01	215.67
834.32	215.55
834.64	215.12
834.96	215.10
835.27	214.90
835.59	214.17
835.90	213.43
836.22	213.69
836.53	213.33
836.85	213.00
837.16	214.90
837.48	214.74
837.79	215.07
838.11	215.36
838.42	215.36
838.74	215.79
839.05	215.52
839.37	215.67
839.68	214.10
840.00	214.21
840.31	214.64
840.63	214.64
840.94	214.50
841.26	214.43
841.57	214.33
841.88	214.62
842.20	214.29
842.51	214.24
842.83	213.95
843.14	215.95
843.46	216.14
843.77	215.19
844.08	215.19
844.40	214.71
844.71	214.52
845.03	214.43
845.34	214.31
845.65	214.48
845.97	214.52
846.28	214.69
846.60	214.81
846.91	214.26
847.22	213.93
847.54	214.24
847.85	214.43
848.16	214.50
848.48	214.17
848.79	215.14
849.10	215.33
849.42	215.33
849.73	213.33
850.04	213.29
850.36	212.36
850.67	212.57
850.98	212.69
851.30	212.90
851.61	212.76
851.92	212.62
852.23	213.17
852.55	213.10
852.86	213.31
853.17	213.43
853.49	214.10
853.80	214.67
854.11	214.98
854.42	215.19
854.74	214.76
855.05	214.88
855.36	213.76
855.67	213.93
855.99	214.19
856.30	216.69
856.61	216.57
856.92	216.57
857.23	216.76
857.55	216.57
857.86	216.50
858.17	217.00
858.48	216.71
858.79	216.50
859.11	216.83
859.42	216.40
859.73	216.26
860.04	216.05
860.35	215.33
860.66	214.79
860.98	214.55
861.29	214.90
861.60	214.79
861.91	215.38
862.22	215.12
862.53	214.98
862.84	212.50
863.16	213.00
863.47	212.64
863.78	212.24
864.09	212.29
864.40	212.33
864.71	212.17
865.02	212.69
865.33	212.38
865.64	211.95
865.95	212.02
866.27	213.40
866.58	213.10
866.89	213.38
867.20	213.12
867.51	213.12
867.82	213.12
868.13	213.71
868.44	213.14
868.75	213.43
869.06	213.48
869.37	213.76
869.68	212.95
869.99	213.33
870.30	213.50
870.61	213.83
870.92	213.31
871.23	213.29
871.54	213.45
871.85	213.69
872.16	213.83
872.47	213.79
872.78	212.36
873.09	212.71
873.40	212.86
873.71	213.26
874.02	213.17
874.33	212.93
874.64	212.52
874.95	212.71
875.26	212.12
875.56	211.98
875.87	211.81
876.18	211.93
876.49	213.86
876.80	213.86
877.11	213.26
877.42	213.52
877.73	213.74
878.04	213.29
878.35	213.33
878.66	213.48
878.96	213.52
879.27	213.45
879.58	213.19
879.89	213.12
880.20	213.67
880.51	213.81
880.82	213.62
881.12	213.76
881.43	213.55
881.74	213.55
882.05	213.55
882.36	213.76
882.67	213.86
882.97	211.67
883.28	211.33
883.59	211.48
883.90	211.76
884.21	211.98
884.51	211.76
884.82	211.40
885.13	211.17
885.44	211.31
885.74	211.57
886.05	211.71
886.36	211.57
886.67	211.00
886.98	212.00
887.28	212.57
887.59	212.43
887.90	212.64
888.20	212.52
888.51	212.81
888.82	212.26
889.13	212.29
889.43	214.10
889.74	213.98
890.05	214.00
890.35	213.74
890.66	213.29
890.97	213.26
891.28	213.36
891.58	213.40
891.89	213.38
892.20	213.12
892.50	212.88
892.81	212.74
893.12	212.64
893.42	211.86
893.73	211.62
894.04	211.81
894.34	212.02
894.65	212.12
894.95	211.93
895.26	212.40
895.57	213.26
895.87	211.43
896.18	211.88
896.48	212.05
896.79	211.95
897.10	212.33
897.40	212.33
897.71	212.40
898.01	212.40
898.32	212.57
898.63	212.50
898.93	212.62
899.24	212.69
899.54	212.55
899.85	212.19
900.15	212.12
900.46	211.88
900.76	211.81
901.07	211.74
901.38	211.60
901.68	211.86
901.99	210.95
902.29	211.07
902.60	210.93
902.90	210.62
903.21	210.69
903.51	210.26
903.82	210.76
904.12	210.83
904.43	211.00
904.73	210.57
905.03	210.62
905.34	212.48
905.64	212.26
905.95	212.36
906.25	212.50
906.56	212.45
906.86	212.55
907.17	212.40
907.47	212.45
907.77	212.24
908.08	211.71
908.38	212.00
908.69	212.26
908.99	212.69
909.30	212.83
909.60	212.74
909.90	213.19
910.21	212.52
910.51	212.33
910.81	212.36
911.12	212.71
911.42	212.79
911.73	210.62
912.03	210.98
912.33	211.21
912.64	211.17
912.94	211.12
913.24	210.64
913.55	210.60
913.85	210.48
914.15	211.10
914.46	211.38
914.76	211.17
915.06	211.07
915.37	210.79
915.67	210.69
915.97	210.76
916.27	210.36
916.58	210.67
916.88	210.43
917.18	210.38
917.49	211.90
917.79	212.02
918.09	212.36
918.39	212.83
918.70	212.67
919.00	212.71
919.30	213.62
919.60	213.64
919.91	213.50
920.21	213.55
920.51	212.95
920.81	212.67
921.12	213.14
921.42	213.12
921.72	212.86
922.02	213.29
922.32	213.71
922.63	213.60
922.93	214.62
923.23	214.86
923.53	214.50
923.83	213.10
924.13	213.43
924.44	213.57
924.74	213.76
925.04	214.36
925.34	214.40
925.64	213.48
925.94	213.74
926.24	214.81
926.55	214.98
926.85	215.33
927.15	215.43
927.45	215.26
927.75	215.14
928.05	215.48
928.35	215.19
928.65	215.45
928.95	215.60
929.26	214.76
929.56	215.17
929.86	215.45
930.16	215.14
930.46	214.57
930.76	214.60
931.06	213.62
931.36	213.02
931.66	213.26
931.96	213.69
932.26	213.76
932.56	212.86
932.86	213.12
933.16	213.31
933.46	213.14
933.76	212.90
934.06	213.21
934.36	213.71
934.66	213.71
934.96	213.24
935.26	213.29
935.56	213.64
935.86	213.05
936.16	212.64
936.46	212.62
936.76	212.43
937.06	212.12
937.36	212.36
937.66	212.52
937.96	212.31
938.26	211.93
938.56	211.69
938.86	212.00
939.16	212.14
939.46	212.24
939.76	212.33
940.06	212.21
940.35	211.81
940.65	210.83
940.95	210.88
941.25	210.55
941.55	210.33
941.85	210.26
942.15	210.79
942.45	211.40
942.75	211.40
943.04	211.71
943.34	212.07
943.64	211.83
943.94	211.45
944.24	211.52
944.54	211.57
944.84	211.62
945.13	211.26
945.43	210.90
945.73	210.40
946.03	210.33
946.33	209.98
946.62	209.90
946.92	209.98
947.22	210.14
947.52	210.24
947.82	210.50
948.11	210.07
948.41	209.52
948.71	209.02
949.01	209.05
949.31	208.90
949.60	208.69
949.90	209.02
950.20	209.19
950.50	209.02
950.79	208.88
951.09	209.00
951.39	208.88
951.69	208.55
951.98	209.26
952.28	209.26
952.58	209.52
952.87	209.48
953.17	209.69
953.47	209.38
953.76	209.33
954.06	209.24
954.36	208.98
954.66	208.88
954.95	209.50
955.25	209.64
955.55	209.74
955.84	209.57
956.14	209.74
956.44	209.76
956.73	209.74
957.03	209.95
957.32	209.93
957.62	209.95
957.92	210.52
958.21	210.24
958.51	212.76
958.81	212.98
959.10	213.36
959.40	213.71
959.69	213.90
959.99	214.26
960.29	214.14
960.58	214.36
960.88	215.43
961.17	215.19
961.47	215.45
961.76	215.43
962.06	215.57
962.36	215.36
962.65	215.55
962.95	215.52
963.24	215.26
963.54	215.57
963.83	215.64
964.13	215.60
964.42	215.24
964.72	213.36
965.01	213.62
965.31	213.31
965.60	212.86
965.90	214.05
966.19	213.48
966.49	213.55
966.78	213.52
967.08	213.14
967.37	212.90
967.67	212.76
967.96	213.02
968.26	213.19
968.55	213.31
968.85	213.21
969.14	213.31
969.43	213.33
969.73	213.07
970.02	213.14
970.32	213.05
970.61	212.74
970.91	212.12
971.20	211.57
971.49	211.55
971.79	211.79
972.08	210.48
972.38	210.98
972.67	211.00
972.96	211.02
973.26	210.57
973.55	211.26
973.85	211.02
974.14	211.00
974.43	211.10
974.73	210.76
975.02	210.57
975.31	210.45
975.61	210.36
975.90	210.10
976.19	210.10
976.49	210.12
976.78	210.26
977.07	210.19
977.37	210.29
977.66	210.52
977.95	210.55
978.24	210.60
978.54	210.98
978.83	210.71
979.12	210.74
979.42	210.79
979.71	210.45
980.00	210.29
980.29	210.19
980.59	209.76
980.88	210.40
981.17	210.36
981.46	210.52
981.76	210.62
982.05	211.24
982.34	211.00
982.63	210.93
982.93	211.10
983.22	211.81
983.51	211.95
983.80	212.17
984.09	212.05
984.39	211.86
984.68	211.36
984.97	211.60
985.26	211.29
985.55	211.38
985.85	210.86
986.14	211.17
986.43	211.52
986.72	211.57
987.01	211.10
987.30	211.00
987.59	210.71
987.89	210.83
988.18	210.29
988.47	210.24
988.76	210.21
989.05	210.14
989.34	209.90
989.63	210.50
989.92	210.21
990.22	210.17
990.51	210.14
990.80	210.12
991.09	210.14
991.38	210.74
991.67	210.76
991.96	210.74
992.25	210.71
992.54	210.21
992.83	210.26
993.12	210.05
993.41	210.38
993.70	211.24
993.99	211.57
994.28	211.64
994.58	212.00
994.87	211.86
995.16	211.60
995.45	211.36
995.74	210.48
996.03	210.69
996.32	211.12
996.61	211.71
996.90	211.76
997.19	211.79
997.48	211.50
997.77	211.38
998.06	211.38
998.34	211.38
998.63	211.48
998.92	211.40
999.21	211.81
999.50	211.93
999.79	211.31
1000.08	211.26
1000.37	211.48
1000.66	211.36
1000.95	211.69
1001.24	211.83
1001.53	212.19
1001.82	212.21
1002.11	211.83
1002.40	211.90
1002.68	212.26
1002.97	213.81
1003.26	213.62
1003.55	213.31
1003.84	213.14
1004.13	214.10
1004.42	213.86
1004.71	213.90
1004.99	213.95
1005.28	214.26
1005.57	214.14
1005.86	213.98
1006.15	213.88
1006.44	213.76
1006.72	213.93
1007.01	213.79
1007.30	214.00
1007.59	213.86
1007.88	214.24
1008.17	214.36
1008.45	213.88
1008.74	213.02
1009.03	211.79
1009.32	211.86
1009.60	212.10
1009.89	212.21
1010.18	211.24
1010.47	211.36
1010.76	211.38
1011.04	211.45
1011.33	211.48
1011.62	211.71
1011.91	211.76
1012.19	211.76
1012.48	211.71
1012.77	211.50
1013.05	212.55
1013.34	212.60
1013.63	212.24
1013.92	212.12
1014.20	211.88
1014.49	212.07
1014.78	212.24
1015.06	211.52
1015.35	211.48
1015.64	211.74
1015.92	211.98
1016.21	212.31
1016.50	212.17
1016.78	212.33
1017.07	212.50
1017.36	212.12
1017.64	211.81
1017.93	211.93
1018.22	211.74
1018.50	211.74
1018.79	211.74
1019.08	210.52
1019.36	210.69
1019.65	210.67
1019.93	211.07
1020.22	211.57
1020.51	212.45
1020.79	212.26
1021.08	209.00
1021.36	209.00
1021.65	210.00
1021.94	208.00
1022.22	215.50
1022.51	207.50
1022.79	219.50
1023.08	215.50
1023.36	234.00
1023.65	205.50
>>>>>End Processed Spectral Data<<<<<
