SpectraSuite Data File
++++++++++++++++++++++++++++++++++++
Date: Tue Apr 02 18:41:03 EDT 2013
User: group
Dark Spectrum Present: No
Reference Spectrum Present: No
Number of Sampled Component Spectra: 1
Spectrometers: USB2E7196
Integration Time (usec): 580000 (USB2E7196)
Spectra Averaged: 2 (USB2E7196)
Boxcar Smoothing: 10 (USB2E7196)
Correct for Electrical Dark: No (USB2E7196)
Strobe/Lamp Enabled: No (USB2E7196)
Correct for Detector Non-linearity: No (USB2E7196)
Correct for Stray Light: No (USB2E7196)
Number of Pixels in Processed Spectrum: 2048
>>>>>Begin Processed Spectral Data<<<<<
339.09	0.00
339.48	193.50
339.86	192.00
340.24	198.00
340.63	199.50
341.01	235.00
341.39	201.50
341.78	207.50
342.16	210.50
342.54	205.00
342.93	198.76
343.31	208.64
343.69	209.14
344.07	209.67
344.46	210.33
344.84	210.93
345.22	209.57
345.60	209.98
345.99	209.98
346.37	209.93
346.75	210.10
347.13	210.14
347.52	210.33
347.90	210.93
348.28	210.74
348.66	211.24
349.05	210.50
349.43	210.81
349.81	210.95
350.19	210.90
350.57	211.21
350.96	211.29
351.34	211.67
351.72	211.83
352.10	212.10
352.48	212.02
352.87	211.90
353.25	212.02
353.63	211.88
354.01	211.90
354.39	212.10
354.77	212.31
355.15	212.90
355.54	212.64
355.92	212.07
356.30	212.21
356.68	213.45
357.06	213.50
357.44	212.98
357.82	212.83
358.20	214.00
358.58	214.02
358.97	214.07
359.35	214.31
359.73	214.76
360.11	215.02
360.49	214.83
360.87	214.98
361.25	215.19
361.63	216.10
362.01	216.17
362.39	215.93
362.77	216.12
363.15	216.00
363.53	216.00
363.91	216.24
364.29	216.24
364.67	214.38
365.05	214.45
365.43	214.83
365.81	215.07
366.19	214.90
366.57	215.74
366.95	215.52
367.33	215.12
367.71	214.90
368.09	215.29
368.47	215.43
368.85	215.31
369.23	215.81
369.61	215.10
369.99	215.76
370.37	216.21
370.75	217.07
371.13	216.69
371.51	216.52
371.89	216.79
372.27	216.69
372.65	216.98
373.03	217.02
373.41	217.00
373.78	216.79
374.16	215.81
374.54	215.17
374.92	215.31
375.30	215.21
375.68	214.98
376.06	214.74
376.44	214.67
376.82	214.83
377.19	214.90
377.57	214.71
377.95	214.48
378.33	214.14
378.71	212.88
379.09	213.36
379.47	213.57
379.84	213.14
380.22	213.07
380.60	212.55
380.98	212.60
381.36	212.45
381.73	212.29
382.11	212.83
382.49	212.69
382.87	212.43
383.25	212.64
383.62	214.86
384.00	214.55
384.38	214.76
384.76	215.33
385.13	215.69
385.51	215.81
385.89	215.24
386.27	215.48
386.64	215.76
387.02	215.36
387.40	215.17
387.78	215.29
388.15	215.50
388.53	215.36
388.91	215.45
389.29	215.40
389.66	215.69
390.04	215.36
390.42	215.67
390.79	215.95
391.17	215.86
391.55	213.93
391.92	213.98
392.30	214.24
392.68	213.62
393.05	213.67
393.43	213.71
393.81	214.00
394.18	213.64
394.56	213.67
394.94	214.12
395.31	214.02
395.69	214.98
396.06	215.21
396.44	215.60
396.82	215.12
397.19	216.29
397.57	216.19
397.95	216.52
398.32	216.14
398.70	216.43
399.07	216.81
399.45	216.57
399.82	216.67
400.20	216.40
400.58	216.52
400.95	215.60
401.33	216.31
401.70	217.86
402.08	218.07
402.45	218.07
402.83	218.67
403.20	218.86
403.58	218.24
403.95	218.69
404.33	219.33
404.71	219.83
405.08	220.98
405.46	221.31
405.83	221.79
406.21	222.19
406.58	222.45
406.96	222.88
407.33	223.71
407.70	224.55
408.08	226.86
408.45	227.81
408.83	228.83
409.20	228.98
409.58	228.40
409.95	229.55
410.33	230.88
410.70	231.14
411.08	232.52
411.45	233.76
411.82	234.64
412.20	236.33
412.57	238.93
412.95	238.50
413.32	240.45
413.69	241.64
414.07	243.17
414.44	245.00
414.82	246.71
415.19	249.19
415.56	251.62
415.94	252.83
416.31	255.67
416.68	258.83
417.06	262.43
417.43	265.76
417.81	269.48
418.18	272.93
418.55	277.05
418.93	281.17
419.30	285.57
419.67	290.31
420.04	294.76
420.42	299.43
420.79	307.05
421.16	312.67
421.54	319.83
421.91	326.64
422.28	333.48
422.66	340.55
423.03	348.45
423.40	355.17
423.77	362.50
424.15	369.86
424.52	377.71
424.89	386.55
425.26	394.45
425.64	402.45
426.01	410.83
426.38	419.81
426.75	429.95
427.13	439.45
427.50	449.40
427.87	459.36
428.24	469.31
428.61	478.10
428.99	490.05
429.36	500.81
429.73	511.93
430.10	523.71
430.47	536.10
430.85	547.38
431.22	560.79
431.59	576.10
431.96	589.14
432.33	603.38
432.70	617.19
433.08	634.57
433.45	650.45
433.82	666.52
434.19	684.00
434.56	701.02
434.93	717.62
435.30	734.79
435.68	753.21
436.05	770.79
436.42	788.00
436.79	804.26
437.16	822.21
437.53	841.83
437.90	860.02
438.27	877.98
438.64	897.07
439.01	914.38
439.38	928.98
439.75	944.50
440.13	961.64
440.50	977.90
440.87	991.17
441.24	1004.62
441.61	1019.95
441.98	1031.40
442.35	1043.79
442.72	1057.29
443.09	1070.71
443.46	1078.83
443.83	1084.52
444.20	1090.14
444.57	1096.05
444.94	1099.52
445.31	1102.67
445.68	1108.31
446.05	1109.93
446.42	1108.33
446.79	1107.10
447.16	1105.55
447.53	1104.98
447.90	1098.79
448.27	1092.50
448.64	1082.83
449.01	1076.88
449.37	1065.38
449.74	1053.60
450.11	1041.95
450.48	1026.57
450.85	1010.33
451.22	997.45
451.59	985.24
451.96	972.83
452.33	956.95
452.70	942.45
453.07	924.12
453.43	904.12
453.80	886.76
454.17	870.67
454.54	855.38
454.91	838.21
455.28	821.02
455.65	805.95
456.02	794.10
456.38	781.55
456.75	765.02
457.12	751.33
457.49	738.26
457.86	723.67
458.23	713.31
458.59	700.67
458.96	688.12
459.33	677.14
459.70	665.98
460.07	657.17
460.43	646.69
460.80	638.57
461.17	631.10
461.54	623.05
461.91	614.40
462.27	605.31
462.64	597.62
463.01	589.76
463.38	582.74
463.74	571.45
464.11	564.36
464.48	558.69
464.85	552.05
465.21	547.40
465.58	542.21
465.95	535.12
466.32	530.21
466.68	524.48
467.05	519.10
467.42	514.36
467.78	508.93
468.15	503.88
468.52	499.67
468.88	493.40
469.25	488.24
469.62	484.45
469.98	480.33
470.35	476.69
470.72	473.45
471.08	468.55
471.45	465.90
471.82	463.07
472.18	459.07
472.55	456.62
472.92	452.71
473.28	449.45
473.65	446.43
474.02	443.36
474.38	441.24
474.75	439.12
475.11	436.55
475.48	434.88
475.85	433.14
476.21	431.00
476.58	429.83
476.94	428.81
477.31	427.69
477.67	426.81
478.04	425.79
478.41	424.71
478.77	426.38
479.14	424.93
479.50	424.24
479.87	423.86
480.23	423.21
480.60	422.79
480.96	422.62
481.33	423.57
481.69	423.67
482.06	423.95
482.42	424.33
482.79	424.45
483.15	424.52
483.52	425.36
483.88	426.05
484.25	426.74
484.61	427.36
484.98	427.83
485.34	428.93
485.71	430.31
486.07	431.40
486.44	430.74
486.80	432.02
487.17	433.48
487.53	436.00
487.90	438.24
488.26	441.52
488.62	444.29
488.99	446.24
489.35	448.90
489.72	451.57
490.08	454.05
490.44	456.86
490.81	460.40
491.17	463.45
491.54	466.95
491.90	470.90
492.26	474.69
492.63	478.74
492.99	482.60
493.36	486.79
493.72	491.48
494.08	496.07
494.45	501.36
494.81	507.07
495.17	511.45
495.54	517.14
495.90	521.98
496.26	527.52
496.63	533.31
496.99	538.79
497.35	544.40
497.72	551.00
498.08	557.36
498.44	563.40
498.80	570.67
499.17	576.93
499.53	583.69
499.89	590.81
500.26	597.60
500.62	604.33
500.98	611.74
501.34	619.07
501.71	626.76
502.07	634.19
502.43	640.98
502.79	648.31
503.16	654.86
503.52	662.33
503.88	669.14
504.24	676.62
504.60	684.76
504.97	692.98
505.33	700.48
505.69	709.74
506.05	717.60
506.41	724.95
506.78	733.64
507.14	741.14
507.50	749.19
507.86	758.02
508.22	766.71
508.59	774.38
508.95	782.69
509.31	791.83
509.67	799.86
510.03	807.60
510.39	815.95
510.75	825.02
511.12	833.07
511.48	841.36
511.84	849.02
512.20	856.95
512.56	865.29
512.92	873.90
513.28	881.07
513.64	888.86
514.00	896.76
514.37	903.81
514.73	911.81
515.09	919.83
515.45	926.26
515.81	933.29
516.17	940.76
516.53	947.26
516.89	953.55
517.25	960.43
517.61	968.38
517.97	975.52
518.33	981.98
518.69	989.40
519.05	997.07
519.41	1005.05
519.77	1012.76
520.13	1018.76
520.49	1024.74
520.85	1030.88
521.21	1038.12
521.57	1044.52
521.93	1050.07
522.29	1056.17
522.65	1061.21
523.01	1067.62
523.37	1073.24
523.73	1078.55
524.09	1084.52
524.45	1089.71
524.81	1094.81
525.17	1099.83
525.53	1104.95
525.89	1110.14
526.25	1115.19
526.61	1119.38
526.97	1123.24
527.33	1127.38
527.68	1134.83
528.04	1139.71
528.40	1144.33
528.76	1148.52
529.12	1153.79
529.48	1159.98
529.84	1164.21
530.20	1169.62
530.56	1174.93
530.91	1179.48
531.27	1184.38
531.63	1189.69
531.99	1193.57
532.35	1198.71
532.71	1203.00
533.07	1208.26
533.42	1215.50
533.78	1220.33
534.14	1225.14
534.50	1229.50
534.86	1234.38
535.21	1235.90
535.57	1240.86
535.93	1244.88
536.29	1250.52
536.65	1254.76
537.00	1257.76
537.36	1263.00
537.72	1266.74
538.08	1269.76
538.44	1273.67
538.79	1277.45
539.15	1280.81
539.51	1285.98
539.87	1289.67
540.22	1294.38
540.58	1298.07
540.94	1299.19
541.29	1302.69
541.65	1306.17
542.01	1310.79
542.37	1314.52
542.72	1317.93
543.08	1319.67
543.44	1323.74
543.79	1324.95
544.15	1328.38
544.51	1332.38
544.87	1334.60
545.22	1338.64
545.58	1342.10
545.94	1345.55
546.29	1349.69
546.65	1352.69
547.01	1355.26
547.36	1358.33
547.72	1361.10
548.07	1363.95
548.43	1367.26
548.79	1369.95
549.14	1372.33
549.50	1375.40
549.86	1376.62
550.21	1380.52
550.57	1385.26
550.92	1388.02
551.28	1392.79
551.64	1396.24
551.99	1399.60
552.35	1403.67
552.70	1405.81
553.06	1410.02
553.41	1413.86
553.77	1419.26
554.13	1423.76
554.48	1428.29
554.84	1433.81
555.19	1437.57
555.55	1443.76
555.90	1447.79
556.26	1452.31
556.61	1457.38
556.97	1460.45
557.32	1465.62
557.68	1469.26
558.03	1473.40
558.39	1477.60
558.74	1481.83
559.10	1485.60
559.45	1489.95
559.81	1494.79
560.16	1500.45
560.52	1505.19
560.87	1511.14
561.23	1514.12
561.58	1520.69
561.94	1525.40
562.29	1529.19
562.64	1534.50
563.00	1537.60
563.35	1543.05
563.71	1548.76
564.06	1554.29
564.42	1560.48
564.77	1566.74
565.12	1573.48
565.48	1580.95
565.83	1587.45
566.19	1593.07
566.54	1598.38
566.89	1604.64
567.25	1611.17
567.60	1618.12
567.96	1625.71
568.31	1630.76
568.66	1636.76
569.02	1640.12
569.37	1644.81
569.72	1650.71
570.08	1654.83
570.43	1659.98
570.78	1665.10
571.14	1669.64
571.49	1674.43
571.84	1679.19
572.20	1683.48
572.55	1688.79
572.90	1690.93
573.26	1694.86
573.61	1699.36
573.96	1704.48
574.31	1708.98
574.67	1711.60
575.02	1714.57
575.37	1715.26
575.72	1717.60
576.08	1721.52
576.43	1724.57
576.78	1728.40
577.13	1730.90
577.49	1734.48
577.84	1738.12
578.19	1741.48
578.54	1744.76
578.90	1747.76
579.25	1750.14
579.60	1752.88
579.95	1754.33
580.30	1757.36
580.66	1759.98
581.01	1762.69
581.36	1764.33
581.71	1766.12
582.06	1770.50
582.42	1772.50
582.77	1774.62
583.12	1777.88
583.47	1778.93
583.82	1781.57
584.17	1783.64
584.53	1786.45
584.88	1789.14
585.23	1791.52
585.58	1792.64
585.93	1793.69
586.28	1795.33
586.63	1797.69
586.98	1799.19
587.34	1801.71
587.69	1803.19
588.04	1804.45
588.39	1804.67
588.74	1805.05
589.09	1805.48
589.44	1804.24
589.79	1804.10
590.14	1806.55
590.49	1806.24
590.84	1806.31
591.19	1806.29
591.54	1806.40
591.89	1805.64
592.25	1807.62
592.60	1807.00
592.95	1807.24
593.30	1807.90
593.65	1807.88
594.00	1807.02
594.35	1812.90
594.70	1810.57
595.05	1810.12
595.40	1810.33
595.75	1810.69
596.10	1811.48
596.45	1811.67
596.80	1812.07
597.15	1812.62
597.50	1811.05
597.85	1811.74
598.19	1811.62
598.54	1811.14
598.89	1811.29
599.24	1811.50
599.59	1809.19
599.94	1807.88
600.29	1806.31
600.64	1805.71
600.99	1804.52
601.34	1804.38
601.69	1797.48
602.04	1796.90
602.39	1796.17
602.74	1794.88
603.08	1793.55
603.43	1792.31
603.78	1791.19
604.13	1789.19
604.48	1787.12
604.83	1785.67
605.18	1784.24
605.53	1782.21
605.87	1780.02
606.22	1776.62
606.57	1774.14
606.92	1771.40
607.27	1769.07
607.62	1767.95
607.96	1765.31
608.31	1763.05
608.66	1760.48
609.01	1757.81
609.36	1755.05
609.70	1751.71
610.05	1747.79
610.40	1744.33
610.75	1740.24
611.10	1736.55
611.44	1732.81
611.79	1728.45
612.14	1726.05
612.49	1720.81
612.83	1716.95
613.18	1713.17
613.53	1710.07
613.88	1705.02
614.22	1701.05
614.57	1696.62
614.92	1691.43
615.27	1686.26
615.61	1681.69
615.96	1676.26
616.31	1671.69
616.65	1668.50
617.00	1664.45
617.35	1660.74
617.70	1655.81
618.04	1651.10
618.39	1645.79
618.74	1640.81
619.08	1637.00
619.43	1631.50
619.78	1627.17
620.12	1623.19
620.47	1618.38
620.82	1612.81
621.16	1607.90
621.51	1603.38
621.85	1598.26
622.20	1592.93
622.55	1588.02
622.89	1582.90
623.24	1578.55
623.59	1573.02
623.93	1567.31
624.28	1562.48
624.62	1558.88
624.97	1555.64
625.32	1551.83
625.66	1547.24
626.01	1542.64
626.35	1537.81
626.70	1532.29
627.04	1528.19
627.39	1522.90
627.73	1519.57
628.08	1515.12
628.43	1511.10
628.77	1505.79
629.12	1501.45
629.46	1497.07
629.81	1492.43
630.15	1486.10
630.50	1480.45
630.84	1475.26
631.19	1469.67
631.53	1463.43
631.88	1455.17
632.22	1447.83
632.57	1441.62
632.91	1435.79
633.26	1430.02
633.60	1423.62
633.95	1417.93
634.29	1411.36
634.64	1405.83
634.98	1398.02
635.32	1392.95
635.67	1387.55
636.01	1381.83
636.36	1375.52
636.70	1370.26
637.05	1364.67
637.39	1360.33
637.73	1355.36
638.08	1350.36
638.42	1345.02
638.77	1340.19
639.11	1335.19
639.45	1329.00
639.80	1323.57
640.14	1318.40
640.49	1312.43
640.83	1307.05
641.17	1300.69
641.52	1295.29
641.86	1289.12
642.20	1284.71
642.55	1277.45
642.89	1271.12
643.23	1264.48
643.58	1259.07
643.92	1251.67
644.26	1244.55
644.61	1238.21
644.95	1230.71
645.29	1223.90
645.64	1217.74
645.98	1210.93
646.32	1205.14
646.66	1198.76
647.01	1191.36
647.35	1184.29
647.69	1177.98
648.04	1171.98
648.38	1166.19
648.72	1158.62
649.06	1152.33
649.41	1145.31
649.75	1138.86
650.09	1132.19
650.43	1125.90
650.78	1118.88
651.12	1112.69
651.46	1106.02
651.80	1099.76
652.14	1093.71
652.49	1087.26
652.83	1080.10
653.17	1072.90
653.51	1065.38
653.85	1059.52
654.20	1053.19
654.54	1046.69
654.88	1040.14
655.22	1034.29
655.56	1028.00
655.90	1022.45
656.25	1015.60
656.59	1009.55
656.93	1003.62
657.27	997.71
657.61	991.69
657.95	985.71
658.29	979.55
658.64	974.29
658.98	967.24
659.32	961.26
659.66	954.69
660.00	948.45
660.34	942.74
660.68	937.29
661.02	930.86
661.36	925.02
661.70	919.07
662.05	913.60
662.39	907.17
662.73	901.79
663.07	897.07
663.41	890.98
663.75	884.86
664.09	878.71
664.43	872.21
664.77	865.14
665.11	859.24
665.45	854.00
665.79	847.79
666.13	842.26
666.47	836.31
666.81	831.00
667.15	825.43
667.49	819.93
667.83	814.90
668.17	809.76
668.51	804.67
668.85	799.76
669.19	794.67
669.53	788.88
669.87	781.86
670.21	774.93
670.55	769.19
670.89	763.95
671.23	759.10
671.57	753.93
671.91	749.86
672.25	744.60
672.58	739.52
672.92	734.60
673.26	729.86
673.60	725.00
673.94	720.24
674.28	715.55
674.62	711.12
674.96	706.05
675.30	701.40
675.64	696.52
675.97	692.12
676.31	687.45
676.65	682.45
676.99	679.86
677.33	675.81
677.67	672.31
678.01	667.98
678.34	663.86
678.68	660.19
679.02	655.71
679.36	651.33
679.70	646.69
680.04	642.21
680.37	637.88
680.71	633.60
681.05	629.79
681.39	625.40
681.73	620.31
682.06	615.83
682.40	611.38
682.74	607.33
683.08	603.33
683.42	598.14
683.75	594.33
684.09	589.40
684.43	584.76
684.77	580.02
685.10	575.52
685.44	570.90
685.78	566.50
686.12	562.38
686.45	558.43
686.79	554.79
687.13	551.29
687.46	547.29
687.80	544.14
688.14	539.88
688.48	536.57
688.81	533.36
689.15	530.52
689.49	526.57
689.82	522.95
690.16	518.36
690.50	515.02
690.83	511.12
691.17	507.07
691.51	504.07
691.84	500.93
692.18	497.52
692.52	494.17
692.85	491.29
693.19	488.60
693.52	485.07
693.86	481.33
694.20	477.69
694.53	474.48
694.87	470.52
695.21	466.93
695.54	463.55
695.88	459.67
696.21	455.40
696.55	452.36
696.88	448.88
697.22	446.00
697.56	443.14
697.89	440.36
698.23	437.83
698.56	434.88
698.90	432.36
699.23	429.00
699.57	426.12
699.90	422.57
700.24	419.43
700.58	416.71
700.91	414.24
701.25	413.21
701.58	411.43
701.92	409.52
702.25	407.12
702.59	404.43
702.92	402.52
703.26	400.79
703.59	398.69
703.93	398.38
704.26	396.43
704.60	394.21
704.93	391.95
705.26	389.36
705.60	387.14
705.93	384.38
706.27	383.21
706.60	382.17
706.94	381.48
707.27	379.19
707.61	377.81
707.94	375.62
708.27	372.19
708.61	369.33
708.94	367.40
709.28	365.74
709.61	363.90
709.94	362.40
710.28	360.26
710.61	358.64
710.95	354.93
711.28	354.45
711.61	352.48
711.95	351.29
712.28	349.79
712.61	348.12
712.95	347.88
713.28	346.64
713.61	344.14
713.95	341.48
714.28	340.10
714.61	338.21
714.95	336.64
715.28	335.00
715.61	333.64
715.95	331.86
716.28	330.24
716.61	329.07
716.95	327.24
717.28	325.98
717.61	324.24
717.94	322.95
718.28	319.79
718.61	318.64
718.94	316.81
719.27	315.17
719.61	313.86
719.94	311.90
720.27	309.55
720.60	308.14
720.94	306.86
721.27	305.74
721.60	305.24
721.93	304.36
722.27	303.95
722.60	302.79
722.93	301.69
723.26	300.79
723.59	299.55
723.93	299.02
724.26	297.74
724.59	296.45
724.92	295.40
725.25	295.26
725.59	294.17
725.92	293.60
726.25	292.67
726.58	291.93
726.91	290.79
727.24	290.60
727.57	289.81
727.91	288.95
728.24	288.33
728.57	286.57
728.90	286.00
729.23	284.31
729.56	284.43
729.89	283.62
730.22	282.52
730.55	281.57
730.89	280.43
731.22	279.62
731.55	279.19
731.88	278.60
732.21	277.74
732.54	276.71
732.87	275.74
733.20	275.38
733.53	274.50
733.86	274.07
734.19	272.67
734.52	272.31
734.85	272.45
735.18	271.40
735.51	271.86
735.84	271.14
736.17	271.17
736.50	269.67
736.83	271.60
737.16	271.07
737.49	270.45
737.82	269.83
738.15	269.45
738.48	268.67
738.81	268.24
739.14	267.10
739.47	266.79
739.80	266.12
740.13	265.48
740.46	264.81
740.79	263.93
741.12	263.43
741.45	262.43
741.78	261.10
742.11	261.12
742.44	259.88
742.77	259.64
743.10	258.74
743.43	258.07
743.75	255.02
744.08	256.95
744.41	256.33
744.74	255.81
745.07	254.95
745.40	255.10
745.73	255.38
746.06	254.98
746.39	254.69
746.71	254.05
747.04	253.64
747.37	253.36
747.70	253.19
748.03	252.83
748.36	252.79
748.68	252.40
749.01	251.48
749.34	251.02
749.67	250.50
750.00	250.60
750.33	251.64
750.65	251.57
750.98	248.86
751.31	248.83
751.64	248.36
751.97	249.40
752.29	248.71
752.62	247.02
752.95	246.48
753.28	245.83
753.60	245.62
753.93	245.52
754.26	245.02
754.59	243.74
754.91	243.19
755.24	242.60
755.57	242.24
755.90	241.90
756.22	241.38
756.55	240.60
756.88	239.71
757.20	237.95
757.53	237.05
757.86	236.71
758.19	236.36
758.51	236.14
758.84	234.45
759.17	234.07
759.49	234.26
759.82	235.21
760.15	235.17
760.47	234.86
760.80	234.07
761.13	234.24
761.45	234.14
761.78	233.83
762.11	233.71
762.43	233.26
762.76	232.95
763.08	232.69
763.41	232.71
763.74	232.50
764.06	232.36
764.39	232.14
764.71	231.64
765.04	231.10
765.37	230.83
765.69	230.69
766.02	230.36
766.34	229.90
766.67	228.76
767.00	228.69
767.32	229.57
767.65	230.69
767.97	230.33
768.30	230.45
768.62	230.50
768.95	230.12
769.27	229.93
769.60	230.19
769.92	230.02
770.25	229.45
770.57	229.00
770.90	228.95
771.22	228.67
771.55	228.55
771.87	228.43
772.20	228.24
772.52	229.95
772.85	232.14
773.17	232.21
773.50	232.00
773.82	231.64
774.15	230.24
774.47	228.83
774.80	228.29
775.12	227.95
775.45	227.67
775.77	227.69
776.09	227.69
776.42	227.50
776.74	228.07
777.07	227.83
777.39	227.67
777.72	227.26
778.04	227.48
778.36	227.33
778.69	227.36
779.01	227.29
779.33	225.29
779.66	222.88
779.98	222.36
780.31	222.48
780.63	223.24
780.95	223.74
781.28	223.69
781.60	223.62
781.92	223.69
782.25	223.43
782.57	223.14
782.89	222.95
783.22	222.45
783.54	221.57
783.86	221.69
784.19	221.69
784.51	222.26
784.83	221.55
785.16	221.48
785.48	221.24
785.80	221.21
786.12	221.43
786.45	221.43
786.77	221.48
787.09	221.10
787.42	220.24
787.74	220.07
788.06	219.88
788.38	219.74
788.71	219.36
789.03	219.55
789.35	220.00
789.67	219.76
789.99	219.88
790.32	219.48
790.64	219.64
790.96	221.12
791.28	220.19
791.61	220.36
791.93	220.24
792.25	220.21
792.57	221.55
792.89	220.83
793.21	220.88
793.54	220.69
793.86	220.43
794.18	220.60
794.50	220.19
794.82	220.14
795.14	220.38
795.47	220.81
795.79	220.83
796.11	220.14
796.43	219.81
796.75	219.62
797.07	220.14
797.39	220.17
797.71	218.81
798.04	218.98
798.36	219.05
798.68	219.26
799.00	219.40
799.32	218.00
799.64	218.62
799.96	218.36
800.28	218.88
800.60	218.69
800.92	218.74
801.24	218.52
801.56	218.57
801.89	218.24
802.21	218.38
802.53	217.81
802.85	218.33
803.17	219.50
803.49	219.26
803.81	218.83
804.13	218.40
804.45	218.14
804.77	218.31
805.09	218.26
805.41	217.83
805.73	217.26
806.05	216.71
806.37	216.60
806.69	216.57
807.01	216.21
807.33	216.48
807.65	215.79
807.97	216.90
808.28	216.76
808.60	216.76
808.92	216.36
809.24	218.10
809.56	217.83
809.88	217.12
810.20	217.05
810.52	217.57
810.84	217.38
811.16	217.21
811.48	217.14
811.80	217.90
812.12	217.93
812.43	218.36
812.75	219.05
813.07	218.71
813.39	218.81
813.71	218.31
814.03	218.26
814.35	218.24
814.67	217.26
814.98	217.12
815.30	217.07
815.62	216.79
815.94	215.24
816.26	215.36
816.58	214.88
816.89	215.10
817.21	214.71
817.53	214.88
817.85	214.90
818.17	214.95
818.48	214.21
818.80	214.64
819.12	214.45
819.44	213.79
819.76	213.74
820.07	213.71
820.39	214.21
820.71	214.07
821.03	214.17
821.34	213.81
821.66	214.57
821.98	215.10
822.30	215.10
822.61	216.43
822.93	216.14
823.25	216.21
823.57	215.93
823.88	216.31
824.20	216.33
824.52	216.62
824.83	216.52
825.15	216.55
825.47	216.48
825.79	216.57
826.10	216.50
826.42	216.52
826.74	216.60
827.05	216.02
827.37	216.24
827.69	216.17
828.00	216.55
828.32	216.02
828.64	215.57
828.95	216.69
829.27	215.98
829.58	215.69
829.90	215.90
830.22	216.12
830.53	215.57
830.85	215.45
831.17	215.07
831.48	214.88
831.80	214.83
832.11	214.76
832.43	214.33
832.75	214.60
833.06	215.55
833.38	215.00
833.69	215.24
834.01	215.31
834.32	215.33
834.64	215.19
834.96	215.00
835.27	215.14
835.59	214.36
835.90	213.81
836.22	214.02
836.53	213.69
836.85	213.45
837.16	215.60
837.48	215.62
837.79	216.24
838.11	216.40
838.42	216.52
838.74	216.67
839.05	216.67
839.37	216.40
839.68	215.40
840.00	215.64
840.31	215.90
840.63	215.88
840.94	215.60
841.26	215.21
841.57	215.43
841.88	215.31
842.20	214.93
842.51	214.69
842.83	214.45
843.14	216.26
843.46	216.29
843.77	215.05
844.08	214.83
844.40	213.98
844.71	213.60
845.03	213.17
845.34	212.90
845.65	212.93
845.97	213.00
846.28	213.00
846.60	212.90
846.91	212.64
847.22	212.40
847.54	212.79
847.85	212.86
848.16	212.69
848.48	212.17
848.79	213.00
849.10	213.43
849.42	213.88
849.73	212.00
850.04	211.98
850.36	211.26
850.67	211.74
850.98	212.19
851.30	212.52
851.61	212.36
851.92	212.19
852.23	212.81
852.55	213.07
852.86	213.02
853.17	213.05
853.49	213.62
853.80	214.21
854.11	214.50
854.42	214.95
854.74	214.81
855.05	215.21
855.36	214.33
855.67	214.33
855.99	214.38
856.30	216.81
856.61	216.90
856.92	217.00
857.23	216.55
857.55	216.12
857.86	216.02
858.17	216.38
858.48	216.07
858.79	215.74
859.11	215.64
859.42	215.71
859.73	215.52
860.04	215.07
860.35	214.52
860.66	213.83
860.98	213.86
861.29	214.07
861.60	213.81
861.91	214.31
862.22	214.00
862.53	213.69
862.84	211.38
863.16	211.88
863.47	211.52
863.78	211.69
864.09	211.93
864.40	212.05
864.71	212.12
865.02	212.50
865.33	212.29
865.64	212.17
865.95	212.12
866.27	213.62
866.58	213.48
866.89	213.50
867.20	213.69
867.51	213.24
867.82	213.19
868.13	214.19
868.44	213.71
868.75	214.17
869.06	214.26
869.37	214.55
869.68	213.64
869.99	214.05
870.30	213.98
870.61	214.02
870.92	213.52
871.23	213.33
871.54	213.81
871.85	214.24
872.16	214.14
872.47	213.79
872.78	212.31
873.09	212.55
873.40	212.24
873.71	212.21
874.02	212.38
874.33	212.02
874.64	211.19
874.95	211.55
875.26	210.88
875.56	210.71
875.87	210.50
876.18	210.69
876.49	212.76
876.80	212.95
877.11	212.74
877.42	213.05
877.73	213.19
878.04	212.62
878.35	212.71
878.66	212.88
878.96	213.00
879.27	213.38
879.58	213.31
879.89	213.40
880.20	213.76
880.51	213.71
880.82	213.81
881.12	214.10
881.43	213.57
881.74	213.60
882.05	213.55
882.36	213.71
882.67	214.02
882.97	211.55
883.28	211.29
883.59	211.24
883.90	211.45
884.21	211.74
884.51	211.64
884.82	211.14
885.13	210.95
885.44	211.19
885.74	211.05
886.05	210.90
886.36	210.90
886.67	210.55
886.98	211.50
887.28	211.76
887.59	211.62
887.90	211.83
888.20	211.74
888.51	211.95
888.82	211.50
889.13	211.38
889.43	213.24
889.74	212.98
890.05	213.00
890.35	212.79
890.66	212.48
890.97	212.40
891.28	212.29
891.58	212.60
891.89	212.43
892.20	212.12
892.50	212.07
892.81	211.98
893.12	211.95
893.42	211.19
893.73	211.26
894.04	211.36
894.34	211.60
894.65	211.55
894.95	211.36
895.26	211.71
895.57	212.98
895.87	211.02
896.18	211.55
896.48	211.57
896.79	211.69
897.10	211.98
897.40	211.90
897.71	212.17
898.01	211.83
898.32	212.07
898.63	212.33
898.93	212.57
899.24	212.50
899.54	212.14
899.85	211.95
900.15	211.69
900.46	211.52
900.76	211.67
901.07	212.02
901.38	212.00
901.68	212.19
901.99	211.00
902.29	211.33
902.60	211.10
902.90	210.90
903.21	210.90
903.51	210.45
903.82	211.26
904.12	211.24
904.43	211.48
904.73	211.31
905.03	211.38
905.34	213.24
905.64	213.33
905.95	213.62
906.25	213.50
906.56	213.69
906.86	213.60
907.17	213.19
907.47	212.81
907.77	212.74
908.08	212.19
908.38	212.21
908.69	212.12
908.99	212.38
909.30	212.86
909.60	212.71
909.90	213.19
910.21	212.50
910.51	212.43
910.81	212.48
911.12	212.62
911.42	212.50
911.73	210.40
912.03	210.62
912.33	211.17
912.64	211.45
912.94	211.24
913.24	210.90
913.55	210.76
913.85	210.86
914.15	211.17
914.46	211.52
914.76	211.40
915.06	211.50
915.37	211.31
915.67	211.00
915.97	211.14
916.27	210.67
916.58	210.69
916.88	210.62
917.18	210.55
917.49	211.93
917.79	211.88
918.09	212.21
918.39	212.76
918.70	212.50
919.00	212.24
919.30	213.24
919.60	213.29
919.91	213.26
920.21	213.29
920.51	212.93
920.81	212.71
921.12	213.07
921.42	212.95
921.72	213.21
922.02	213.40
922.32	213.67
922.63	213.64
922.93	214.67
923.23	214.71
923.53	214.57
923.83	213.10
924.13	213.38
924.44	213.31
924.74	213.55
925.04	214.14
925.34	214.14
925.64	213.33
925.94	213.50
926.24	214.71
926.55	214.62
926.85	215.14
927.15	215.36
927.45	215.29
927.75	215.33
928.05	215.21
928.35	215.07
928.65	215.38
928.95	215.62
929.26	214.74
929.56	214.98
929.86	215.10
930.16	215.02
930.46	214.93
930.76	214.74
931.06	213.95
931.36	213.43
931.66	213.81
931.96	213.76
932.26	213.93
932.56	213.17
932.86	213.50
933.16	213.33
933.46	213.05
933.76	212.69
934.06	213.14
934.36	213.71
934.66	213.67
934.96	213.26
935.26	213.40
935.56	213.60
935.86	213.14
936.16	212.95
936.46	212.93
936.76	212.86
937.06	212.88
937.36	213.00
937.66	212.95
937.96	212.60
938.26	212.36
938.56	212.31
938.86	212.45
939.16	213.05
939.46	213.12
939.76	213.57
940.06	213.64
940.35	213.19
940.65	212.31
940.95	212.50
941.25	212.05
941.55	211.83
941.85	211.86
942.15	212.43
942.45	212.95
942.75	212.69
943.04	212.64
943.34	212.90
943.64	212.62
943.94	212.24
944.24	212.64
944.54	212.83
944.84	212.62
945.13	212.24
945.43	211.74
945.73	211.76
946.03	211.24
946.33	210.81
946.62	210.60
946.92	210.67
947.22	210.83
947.52	211.00
947.82	211.19
948.11	211.05
948.41	210.60
948.71	210.14
949.01	210.71
949.31	210.52
949.60	210.52
949.90	210.88
950.20	210.86
950.50	210.79
950.79	210.45
951.09	210.93
951.39	210.95
951.69	210.60
951.98	211.12
952.28	211.24
952.58	211.55
952.87	211.79
953.17	211.98
953.47	211.69
953.76	211.57
954.06	211.38
954.36	211.05
954.66	211.14
954.95	211.81
955.25	211.71
955.55	211.90
955.84	211.40
956.14	211.43
956.44	211.67
956.73	211.26
957.03	211.79
957.32	211.71
957.62	211.60
957.92	212.17
958.21	211.57
958.51	214.21
958.81	214.48
959.10	214.62
959.40	215.12
959.69	215.14
959.99	215.64
960.29	215.36
960.58	215.48
960.88	215.90
961.17	215.45
961.47	215.62
961.76	215.43
962.06	216.02
962.36	215.71
962.65	215.86
962.95	216.07
963.24	215.69
963.54	215.71
963.83	215.74
964.13	215.43
964.42	215.10
964.72	213.24
965.01	213.31
965.31	213.05
965.60	212.36
965.90	213.71
966.19	213.05
966.49	213.19
966.78	213.33
967.08	213.17
967.37	213.19
967.67	212.88
967.96	213.19
968.26	212.90
968.55	213.26
968.85	213.00
969.14	212.90
969.43	212.83
969.73	212.67
970.02	212.62
970.32	212.57
970.61	212.57
970.91	211.95
971.20	211.64
971.49	211.57
971.79	211.83
972.08	210.43
972.38	210.83
972.67	210.95
972.96	211.07
973.26	210.93
973.55	211.86
973.85	211.83
974.14	211.50
974.43	211.81
974.73	211.52
975.02	211.43
975.31	211.50
975.61	211.64
975.90	211.17
976.19	211.05
976.49	211.26
976.78	211.48
977.07	211.62
977.37	211.76
977.66	211.83
977.95	211.45
978.24	211.52
978.54	211.79
978.83	211.52
979.12	211.33
979.42	211.31
979.71	210.64
980.00	210.36
980.29	210.74
980.59	210.26
980.88	210.81
981.17	211.00
981.46	210.90
981.76	210.93
982.05	211.90
982.34	212.00
982.63	211.76
982.93	211.45
983.22	211.90
983.51	211.81
983.80	212.12
984.09	212.55
984.39	212.45
984.68	212.21
984.97	212.26
985.26	212.29
985.55	212.31
985.85	211.74
986.14	212.29
986.43	212.64
986.72	212.74
987.01	211.83
987.30	211.55
987.59	211.50
987.89	211.60
988.18	210.90
988.47	210.71
988.76	210.64
989.05	210.69
989.34	210.36
989.63	210.90
989.92	210.57
990.22	210.07
990.51	209.98
990.80	209.74
991.09	209.98
991.38	210.02
991.67	209.88
991.96	209.88
992.25	209.79
992.54	209.26
992.83	209.12
993.12	209.19
993.41	209.60
993.70	210.40
993.99	210.69
994.28	211.05
994.58	211.33
994.87	211.29
995.16	211.40
995.45	211.19
995.74	210.48
996.03	210.79
996.32	211.31
996.61	211.74
996.90	211.69
997.19	211.62
997.48	211.67
997.77	211.48
998.06	211.55
998.34	211.31
998.63	211.24
998.92	211.38
999.21	211.79
999.50	211.64
999.79	210.86
1000.08	210.76
1000.37	210.69
1000.66	210.76
1000.95	211.43
1001.24	211.36
1001.53	211.60
1001.82	211.64
1002.11	211.12
1002.40	211.31
1002.68	211.67
1002.97	213.33
1003.26	212.98
1003.55	212.69
1003.84	212.79
1004.13	213.50
1004.42	213.43
1004.71	213.48
1004.99	213.26
1005.28	213.74
1005.57	213.64
1005.86	213.38
1006.15	213.24
1006.44	212.98
1006.72	213.00
1007.01	212.29
1007.30	212.19
1007.59	211.95
1007.88	211.95
1008.17	212.29
1008.45	211.76
1008.74	211.05
1009.03	209.90
1009.32	210.14
1009.60	210.00
1009.89	209.93
1010.18	209.10
1010.47	209.05
1010.76	209.05
1011.04	209.07
1011.33	209.02
1011.62	209.21
1011.91	209.55
1012.19	209.64
1012.48	209.60
1012.77	209.36
1013.05	210.29
1013.34	210.43
1013.63	210.29
1013.92	210.33
1014.20	210.02
1014.49	210.40
1014.78	210.64
1015.06	210.19
1015.35	210.21
1015.64	210.67
1015.92	211.05
1016.21	211.19
1016.50	211.02
1016.78	211.29
1017.07	211.62
1017.36	211.19
1017.64	210.95
1017.93	211.17
1018.22	211.05
1018.50	211.10
1018.79	211.21
1019.08	210.38
1019.36	210.45
1019.65	210.29
1019.93	210.71
1020.22	211.26
1020.51	211.98
1020.79	211.60
1021.08	211.00
1021.36	207.50
1021.65	210.00
1021.94	208.50
1022.22	210.50
1022.51	205.00
1022.79	217.50
1023.08	216.50
1023.36	232.50
1023.65	204.00
>>>>>End Processed Spectral Data<<<<<
