SpectraSuite Data File
++++++++++++++++++++++++++++++++++++
Date: Tue Apr 02 18:43:05 EDT 2013
User: group
Dark Spectrum Present: No
Reference Spectrum Present: No
Number of Sampled Component Spectra: 1
Spectrometers: USB2E7196
Integration Time (usec): 580000 (USB2E7196)
Spectra Averaged: 2 (USB2E7196)
Boxcar Smoothing: 10 (USB2E7196)
Correct for Electrical Dark: No (USB2E7196)
Strobe/Lamp Enabled: No (USB2E7196)
Correct for Detector Non-linearity: No (USB2E7196)
Correct for Stray Light: No (USB2E7196)
Number of Pixels in Processed Spectrum: 2048
>>>>>Begin Processed Spectral Data<<<<<
339.09	0.00
339.48	191.50
339.86	200.50
340.24	194.00
340.63	197.00
341.01	232.50
341.39	199.00
341.78	204.50
342.16	212.00
342.54	204.00
342.93	197.50
343.31	207.31
343.69	207.88
344.07	208.02
344.46	208.76
344.84	209.31
345.22	208.14
345.60	208.74
345.99	208.95
346.37	208.81
346.75	208.90
347.13	208.88
347.52	208.86
347.90	209.57
348.28	209.40
348.66	209.86
349.05	209.12
349.43	209.43
349.81	209.55
350.19	209.45
350.57	209.26
350.96	209.62
351.34	209.86
351.72	210.02
352.10	210.29
352.48	210.14
352.87	210.14
353.25	210.14
353.63	209.79
354.01	209.79
354.39	209.98
354.77	210.07
355.15	210.55
355.54	210.50
355.92	209.60
356.30	209.60
356.68	210.67
357.06	210.83
357.44	210.21
357.82	210.17
358.20	211.12
358.58	211.45
358.97	211.57
359.35	211.76
359.73	212.31
360.11	212.14
360.49	212.24
360.87	212.31
361.25	212.79
361.63	213.48
362.01	213.83
362.39	213.71
362.77	214.12
363.15	213.90
363.53	213.81
363.91	214.33
364.29	214.43
364.67	212.74
365.05	213.14
365.43	213.43
365.81	213.71
366.19	214.10
366.57	214.93
366.95	214.79
367.33	214.40
367.71	214.45
368.09	215.17
368.47	215.38
368.85	215.36
369.23	215.86
369.61	215.36
369.99	215.90
370.37	216.24
370.75	216.98
371.13	216.67
371.51	216.69
371.89	216.74
372.27	217.02
372.65	217.31
373.03	217.00
373.41	217.17
373.78	217.38
374.16	216.21
374.54	215.52
374.92	215.38
375.30	215.69
375.68	215.17
376.06	215.00
376.44	214.76
376.82	214.90
377.19	214.55
377.57	214.52
377.95	213.74
378.33	213.31
378.71	212.05
379.09	212.48
379.47	212.71
379.84	212.55
380.22	212.50
380.60	212.10
380.98	212.21
381.36	212.24
381.73	211.71
382.11	212.29
382.49	212.36
382.87	212.19
383.25	212.24
383.62	214.81
384.00	214.50
384.38	214.69
384.76	215.07
385.13	216.00
385.51	215.98
385.89	215.86
386.27	216.00
386.64	216.50
387.02	216.21
387.40	215.88
387.78	216.17
388.15	216.12
388.53	216.14
388.91	216.10
389.29	215.79
389.66	216.10
390.04	215.67
390.42	216.10
390.79	216.29
391.17	216.12
391.55	213.67
391.92	213.67
392.30	213.67
392.68	213.36
393.05	212.98
393.43	213.21
393.81	213.14
394.18	213.10
394.56	212.95
394.94	213.33
395.31	213.17
395.69	213.60
396.06	213.81
396.44	214.02
396.82	213.79
397.19	215.02
397.57	214.88
397.95	215.33
398.32	214.76
398.70	214.81
399.07	215.19
399.45	215.21
399.82	215.24
400.20	215.10
400.58	214.95
400.95	214.19
401.33	214.60
401.70	216.33
402.08	216.45
402.45	216.57
402.83	217.07
403.20	217.50
403.58	217.45
403.95	218.05
404.33	218.36
404.71	218.81
405.08	220.12
405.46	220.33
405.83	220.74
406.21	221.26
406.58	221.81
406.96	221.98
407.33	222.76
407.70	223.69
408.08	226.00
408.45	226.88
408.83	227.93
409.20	228.38
409.58	227.69
409.95	228.95
410.33	229.90
410.70	230.36
411.08	231.79
411.45	232.74
411.82	233.52
412.20	234.95
412.57	237.36
412.95	236.83
413.32	238.67
413.69	239.81
414.07	241.45
414.44	243.21
414.82	245.50
415.19	247.83
415.56	249.93
415.94	251.07
416.31	254.24
416.68	257.07
417.06	260.17
417.43	263.86
417.81	267.12
418.18	270.88
418.55	274.38
418.93	278.02
419.30	282.14
419.67	286.33
420.04	290.74
420.42	294.98
420.79	302.07
421.16	307.64
421.54	314.69
421.91	320.57
422.28	326.64
422.66	333.19
423.03	340.74
423.40	347.86
423.77	355.00
424.15	361.95
424.52	369.33
424.89	378.21
425.26	386.02
425.64	393.71
426.01	401.88
426.38	410.64
426.75	420.48
427.13	429.93
427.50	439.83
427.87	450.02
428.24	459.88
428.61	468.12
428.99	479.33
429.36	490.05
429.73	501.57
430.10	513.14
430.47	524.86
430.85	535.93
431.22	548.29
431.59	563.19
431.96	575.90
432.33	590.48
432.70	603.57
433.08	619.40
433.45	634.74
433.82	650.07
434.19	667.07
434.56	683.43
434.93	698.45
435.30	714.26
435.68	731.67
436.05	749.33
436.42	765.88
436.79	782.00
437.16	799.31
437.53	817.17
437.90	834.83
438.27	852.86
438.64	870.60
439.01	887.74
439.38	901.90
439.75	916.69
440.13	933.95
440.50	949.90
440.87	962.67
441.24	976.26
441.61	990.76
441.98	1001.98
442.35	1014.07
442.72	1027.95
443.09	1040.88
443.46	1048.90
443.83	1054.17
444.20	1059.95
444.57	1065.81
444.94	1069.21
445.31	1072.29
445.68	1077.88
446.05	1078.93
446.42	1077.79
446.79	1077.02
447.16	1074.62
447.53	1073.60
447.90	1066.74
448.27	1060.50
448.64	1052.05
449.01	1045.69
449.37	1035.12
449.74	1024.07
450.11	1013.21
450.48	998.36
450.85	982.88
451.22	970.07
451.59	957.95
451.96	945.95
452.33	930.57
452.70	916.33
453.07	899.71
453.43	880.14
453.80	863.93
454.17	847.95
454.54	831.98
454.91	816.14
455.28	800.21
455.65	785.26
456.02	773.57
456.38	760.64
456.75	745.40
457.12	731.76
457.49	718.67
457.86	703.81
458.23	694.12
458.59	682.62
458.96	670.48
459.33	659.88
459.70	649.21
460.07	640.52
460.43	630.50
460.80	621.86
461.17	614.93
461.54	606.12
461.91	598.33
462.27	590.02
462.64	583.12
463.01	575.62
463.38	569.10
463.74	558.60
464.11	552.17
464.48	546.40
464.85	540.26
465.21	536.33
465.58	532.12
465.95	524.88
466.32	519.76
466.68	514.55
467.05	509.40
467.42	504.83
467.78	499.48
468.15	494.43
468.52	490.45
468.88	484.79
469.25	480.74
469.62	477.48
469.98	473.57
470.35	469.62
470.72	466.19
471.08	461.29
471.45	458.21
471.82	455.86
472.18	451.71
472.55	448.88
472.92	444.93
473.28	441.19
473.65	438.74
474.02	435.95
474.38	433.83
474.75	431.67
475.11	429.05
475.48	427.21
475.85	425.38
476.21	423.76
476.58	422.29
476.94	420.71
477.31	418.69
477.67	417.14
478.04	415.81
478.41	415.00
478.77	416.69
479.14	415.55
479.50	414.57
479.87	414.50
480.23	414.45
480.60	414.17
480.96	414.38
481.33	414.93
481.69	414.86
482.06	415.14
482.42	415.64
482.79	416.26
483.15	416.83
483.52	417.64
483.88	417.90
484.25	418.62
484.61	419.17
484.98	420.17
485.34	421.95
485.71	423.83
486.07	424.74
486.44	423.81
486.80	425.76
487.17	426.95
487.53	429.38
487.90	431.60
488.26	434.48
488.62	437.29
488.99	438.76
489.35	441.26
489.72	443.76
490.08	446.31
490.44	448.64
490.81	451.79
491.17	454.71
491.54	458.29
491.90	462.21
492.26	466.29
492.63	470.52
492.99	474.40
493.36	478.50
493.72	483.33
494.08	488.05
494.45	492.52
494.81	497.83
495.17	502.12
495.54	507.02
495.90	511.26
496.26	516.55
496.63	522.33
496.99	528.33
497.35	533.88
497.72	540.02
498.08	545.83
498.44	552.26
498.80	559.21
499.17	565.52
499.53	571.81
499.89	578.69
500.26	585.43
500.62	591.88
500.98	598.69
501.34	605.60
501.71	613.00
502.07	620.14
502.43	626.90
502.79	634.02
503.16	641.29
503.52	649.07
503.88	655.98
504.24	663.60
504.60	671.02
504.97	679.05
505.33	686.24
505.69	695.02
506.05	702.45
506.41	710.07
506.78	717.50
507.14	725.33
507.50	733.29
507.86	740.98
508.22	748.98
508.59	756.21
508.95	763.81
509.31	772.29
509.67	780.31
510.03	788.05
510.39	795.93
510.75	803.64
511.12	811.26
511.48	818.67
511.84	826.24
512.20	833.81
512.56	841.43
512.92	849.02
513.28	856.33
513.64	863.93
514.00	871.02
514.37	878.31
514.73	885.40
515.09	892.93
515.45	899.43
515.81	906.60
516.17	913.67
516.53	919.95
516.89	925.52
517.25	932.21
517.61	939.36
517.97	945.43
518.33	951.64
518.69	958.19
519.05	964.71
519.41	970.67
519.77	977.95
520.13	984.17
520.49	990.48
520.85	995.74
521.21	1002.21
521.57	1008.26
521.93	1013.57
522.29	1019.02
522.65	1023.62
523.01	1029.76
523.37	1034.45
523.73	1040.00
524.09	1045.50
524.45	1050.40
524.81	1054.57
525.17	1059.36
525.53	1064.60
525.89	1069.43
526.25	1074.31
526.61	1078.38
526.97	1082.57
527.33	1086.57
527.68	1092.64
528.04	1096.67
528.40	1101.10
528.76	1104.21
529.12	1108.05
529.48	1113.93
529.84	1118.69
530.20	1123.00
530.56	1127.07
530.91	1132.02
531.27	1136.38
531.63	1140.45
531.99	1144.19
532.35	1148.62
532.71	1152.48
533.07	1156.90
533.42	1163.71
533.78	1167.64
534.14	1172.50
534.50	1176.95
534.86	1181.38
535.21	1183.10
535.57	1187.60
535.93	1191.76
536.29	1196.95
536.65	1200.90
537.00	1203.21
537.36	1206.69
537.72	1210.52
538.08	1214.33
538.44	1216.86
538.79	1219.93
539.15	1223.38
539.51	1228.07
539.87	1231.76
540.22	1235.21
540.58	1238.24
540.94	1239.21
541.29	1242.12
541.65	1244.33
542.01	1248.24
542.37	1250.26
542.72	1252.81
543.08	1254.57
543.44	1258.00
543.79	1259.81
544.15	1263.52
544.51	1267.57
544.87	1270.74
545.22	1273.43
545.58	1276.31
545.94	1279.98
546.29	1282.98
546.65	1285.71
547.01	1288.02
547.36	1290.74
547.72	1293.12
548.07	1295.71
548.43	1298.31
548.79	1300.69
549.14	1303.62
549.50	1306.69
549.86	1309.10
550.21	1311.88
550.57	1315.86
550.92	1317.93
551.28	1321.10
551.64	1323.10
551.99	1325.07
552.35	1327.12
552.70	1329.50
553.06	1332.50
553.41	1335.00
553.77	1339.67
554.13	1343.88
554.48	1347.95
554.84	1352.52
555.19	1356.48
555.55	1362.19
555.90	1365.45
556.26	1369.62
556.61	1374.07
556.97	1376.10
557.32	1380.55
557.68	1384.93
558.03	1388.76
558.39	1392.74
558.74	1396.52
559.10	1400.95
559.45	1405.98
559.81	1410.57
560.16	1415.36
560.52	1419.60
560.87	1425.00
561.23	1427.55
561.58	1433.05
561.94	1436.83
562.29	1440.26
562.64	1445.40
563.00	1448.90
563.35	1454.45
563.71	1459.12
564.06	1463.76
564.42	1469.83
564.77	1475.10
565.12	1481.26
565.48	1488.95
565.83	1494.40
566.19	1500.50
566.54	1506.14
566.89	1510.90
567.25	1517.21
567.60	1524.45
567.96	1532.40
568.31	1538.24
568.66	1544.81
569.02	1548.83
569.37	1554.48
569.72	1560.67
570.08	1565.52
570.43	1570.71
570.78	1575.90
571.14	1582.24
571.49	1587.57
571.84	1592.57
572.20	1597.93
572.55	1603.21
572.90	1605.36
573.26	1610.17
573.61	1614.69
573.96	1619.57
574.31	1624.52
574.67	1628.19
575.02	1631.05
575.37	1632.93
575.72	1636.40
576.08	1640.69
576.43	1644.45
576.78	1648.71
577.13	1652.05
577.49	1655.57
577.84	1659.60
578.19	1662.90
578.54	1667.14
578.90	1671.60
579.25	1675.17
579.60	1677.52
579.95	1679.50
580.30	1683.67
580.66	1687.05
581.01	1691.29
581.36	1693.62
581.71	1696.62
582.06	1701.26
582.42	1705.60
582.77	1708.48
583.12	1711.29
583.47	1713.93
583.82	1716.74
584.17	1718.69
584.53	1722.50
584.88	1725.79
585.23	1728.62
585.58	1730.93
585.93	1731.86
586.28	1734.55
586.63	1737.19
586.98	1741.02
587.34	1745.57
587.69	1747.14
588.04	1750.26
588.39	1751.02
588.74	1752.57
589.09	1755.31
589.44	1755.48
589.79	1757.05
590.14	1758.71
590.49	1760.26
590.84	1761.14
591.19	1763.05
591.54	1765.48
591.89	1765.90
592.25	1769.07
592.60	1769.33
592.95	1771.02
593.30	1773.36
593.65	1773.33
594.00	1772.95
594.35	1778.62
594.70	1777.74
595.05	1779.38
595.40	1779.79
595.75	1780.62
596.10	1782.71
596.45	1782.98
596.80	1784.26
597.15	1784.24
597.50	1785.12
597.85	1786.95
598.19	1787.93
598.54	1788.45
598.89	1788.38
599.24	1788.71
599.59	1787.74
599.94	1788.48
600.29	1789.38
600.64	1788.38
600.99	1788.40
601.34	1789.88
601.69	1784.05
602.04	1783.71
602.39	1782.95
602.74	1783.10
603.08	1782.50
603.43	1782.62
603.78	1781.57
604.13	1781.31
604.48	1780.90
604.83	1780.79
605.18	1779.90
605.53	1779.10
605.87	1777.95
606.22	1776.24
606.57	1775.31
606.92	1773.05
607.27	1771.57
607.62	1770.21
607.96	1770.26
608.31	1769.43
608.66	1767.74
609.01	1766.36
609.36	1765.57
609.70	1763.71
610.05	1760.79
610.40	1760.17
610.75	1757.38
611.10	1757.17
611.44	1754.71
611.79	1752.12
612.14	1749.69
612.49	1747.05
612.83	1744.33
613.18	1741.24
613.53	1738.83
613.88	1735.05
614.22	1732.21
614.57	1728.71
614.92	1724.79
615.27	1721.33
615.61	1717.29
615.96	1714.29
616.31	1711.24
616.65	1708.64
617.00	1705.43
617.35	1702.40
617.70	1698.36
618.04	1694.29
618.39	1688.76
618.74	1684.76
619.08	1680.86
619.43	1677.02
619.78	1673.24
620.12	1669.19
620.47	1666.00
620.82	1662.10
621.16	1657.79
621.51	1654.43
621.85	1650.69
622.20	1646.69
622.55	1641.86
622.89	1638.05
623.24	1634.07
623.59	1629.48
623.93	1624.79
624.28	1620.90
624.62	1618.43
624.97	1614.86
625.32	1610.43
625.66	1606.33
626.01	1602.26
626.35	1599.12
626.70	1594.67
627.04	1591.05
627.39	1587.74
627.73	1584.67
628.08	1580.55
628.43	1577.33
628.77	1572.71
629.12	1569.31
629.46	1565.83
629.81	1561.62
630.15	1557.00
630.50	1552.52
630.84	1547.43
631.19	1541.76
631.53	1535.95
631.88	1528.48
632.22	1521.81
632.57	1518.21
632.91	1513.31
633.26	1507.69
633.60	1501.57
633.95	1495.86
634.29	1489.81
634.64	1484.69
634.98	1478.05
635.32	1473.93
635.67	1470.29
636.01	1465.76
636.36	1459.62
636.70	1455.14
637.05	1450.00
637.39	1444.76
637.73	1438.98
638.08	1436.19
638.42	1431.45
638.77	1427.90
639.11	1423.81
639.45	1419.48
639.80	1412.45
640.14	1407.38
640.49	1402.71
640.83	1397.45
641.17	1392.62
641.52	1387.21
641.86	1381.62
642.20	1377.52
642.55	1371.29
642.89	1364.40
643.23	1358.79
643.58	1354.12
643.92	1346.60
644.26	1340.71
644.61	1335.64
644.95	1329.88
645.29	1322.12
645.64	1316.69
645.98	1310.14
646.32	1304.71
646.66	1298.26
647.01	1293.10
647.35	1287.24
647.69	1281.07
648.04	1275.19
648.38	1269.60
648.72	1263.21
649.06	1257.62
649.41	1250.29
649.75	1243.79
650.09	1237.67
650.43	1230.88
650.78	1223.69
651.12	1217.14
651.46	1210.64
651.80	1204.02
652.14	1197.95
652.49	1192.00
652.83	1185.24
653.17	1178.26
653.51	1170.93
653.85	1164.81
654.20	1158.24
654.54	1150.98
654.88	1143.98
655.22	1138.12
655.56	1131.45
655.90	1124.86
656.25	1117.86
656.59	1111.43
656.93	1105.05
657.27	1098.95
657.61	1093.00
657.95	1086.71
658.29	1080.71
658.64	1074.86
658.98	1068.14
659.32	1060.90
659.66	1055.07
660.00	1048.60
660.34	1042.17
660.68	1036.17
661.02	1029.76
661.36	1023.64
661.70	1018.10
662.05	1012.60
662.39	1006.00
662.73	999.90
663.07	995.19
663.41	988.64
663.75	982.52
664.09	977.02
664.43	970.79
664.77	964.48
665.11	958.29
665.45	953.05
665.79	946.86
666.13	940.38
666.47	934.83
666.81	929.02
667.15	922.76
667.49	918.45
667.83	913.69
668.17	907.98
668.51	902.21
668.85	896.29
669.19	891.21
669.53	884.60
669.87	878.26
670.21	871.57
670.55	865.62
670.89	860.69
671.23	854.67
671.57	849.19
671.91	843.57
672.25	838.38
672.58	833.10
672.92	827.69
673.26	822.95
673.60	817.74
673.94	812.05
674.28	807.40
674.62	801.38
674.96	795.62
675.30	790.50
675.64	785.52
675.97	780.90
676.31	775.02
676.65	770.74
676.99	766.81
677.33	761.67
677.67	757.31
678.01	752.05
678.34	747.31
678.68	743.19
679.02	738.24
679.36	733.36
679.70	727.79
680.04	722.74
680.37	718.05
680.71	713.24
681.05	708.64
681.39	703.93
681.73	698.50
682.06	693.50
682.40	688.83
682.74	684.67
683.08	680.50
683.42	675.83
683.75	671.24
684.09	665.67
684.43	661.33
684.77	656.79
685.10	652.83
685.44	648.36
685.78	642.88
686.12	638.55
686.45	633.62
686.79	629.55
687.13	625.98
687.46	621.81
687.80	618.57
688.14	614.14
688.48	610.10
688.81	606.64
689.15	603.45
689.49	599.24
689.82	594.90
690.16	589.76
690.50	585.88
690.83	581.76
691.17	577.40
691.51	573.31
691.84	569.33
692.18	564.43
692.52	560.57
692.85	557.21
693.19	554.26
693.52	551.02
693.86	546.60
694.20	542.36
694.53	538.60
694.87	534.26
695.21	530.21
695.54	526.24
695.88	522.40
696.21	517.38
696.55	513.43
696.88	509.67
697.22	506.45
697.56	503.38
697.89	499.64
698.23	496.93
698.56	493.17
698.90	489.79
699.23	486.52
699.57	483.33
699.90	479.55
700.24	475.67
700.58	472.07
700.91	469.69
701.25	468.02
701.58	465.76
701.92	462.98
702.25	460.05
702.59	457.21
702.92	454.17
703.26	451.76
703.59	449.21
703.93	447.90
704.26	445.17
704.60	441.98
704.93	439.00
705.26	435.88
705.60	433.93
705.93	430.60
706.27	428.48
706.60	426.43
706.94	424.88
707.27	421.88
707.61	419.62
707.94	416.76
708.27	412.48
708.61	408.74
708.94	406.21
709.28	404.17
709.61	401.55
709.94	399.48
710.28	396.83
710.61	394.52
710.95	390.43
711.28	389.60
711.61	387.45
711.95	385.90
712.28	383.43
712.61	380.81
712.95	380.38
713.28	379.26
713.61	376.40
713.95	373.52
714.28	371.79
714.61	369.67
714.95	367.55
715.28	365.76
715.61	364.10
715.95	362.31
716.28	360.05
716.61	358.55
716.95	356.43
717.28	354.86
717.61	353.38
717.94	351.86
718.28	348.52
718.61	346.86
718.94	345.00
719.27	343.57
719.61	341.90
719.94	339.29
720.27	336.26
720.60	334.60
720.94	333.12
721.27	331.50
721.60	330.29
721.93	328.69
722.27	327.71
722.60	326.29
722.93	324.50
723.26	323.21
723.59	321.40
723.93	320.12
724.26	318.83
724.59	317.40
724.92	316.26
725.25	315.60
725.59	314.29
725.92	313.14
726.25	312.26
726.58	311.38
726.91	310.43
727.24	309.69
727.57	308.98
727.91	307.36
728.24	306.60
728.57	305.29
728.90	304.81
729.23	303.00
729.56	303.07
729.89	302.07
730.22	301.00
730.55	299.88
730.89	298.86
731.22	297.52
731.55	296.24
731.88	295.52
732.21	294.21
732.54	293.17
732.87	292.07
733.20	291.12
733.53	290.19
733.86	289.29
734.19	288.10
734.52	287.07
734.85	287.71
735.18	286.64
735.51	286.45
735.84	285.67
736.17	285.69
736.50	283.64
736.83	285.17
737.16	284.67
737.49	284.12
737.82	283.17
738.15	282.81
738.48	281.90
738.81	280.86
739.14	280.14
739.47	279.26
739.80	278.69
740.13	277.79
740.46	276.71
740.79	275.76
741.12	275.19
741.45	274.14
741.78	272.52
742.11	272.26
742.44	271.21
742.77	270.74
743.10	269.60
743.43	269.02
743.75	266.12
744.08	267.62
744.41	266.64
744.74	266.05
745.07	264.90
745.40	264.67
745.73	264.64
746.06	264.19
746.39	263.71
746.71	262.79
747.04	262.02
747.37	261.33
747.70	260.95
748.03	260.38
748.36	260.29
748.68	259.52
749.01	258.33
749.34	257.81
749.67	257.31
750.00	257.05
750.33	258.00
750.65	257.69
750.98	254.88
751.31	254.86
751.64	254.33
751.97	255.29
752.29	254.71
752.62	253.52
752.95	252.64
753.28	252.05
753.60	251.43
753.93	251.64
754.26	251.26
754.59	250.60
754.91	249.93
755.24	249.29
755.57	248.93
755.90	248.26
756.22	247.71
756.55	246.67
756.88	245.79
757.20	244.05
757.53	243.14
757.86	242.79
758.19	242.14
758.51	241.64
758.84	240.07
759.17	239.64
759.49	239.45
759.82	240.14
760.15	239.79
760.47	239.62
760.80	238.60
761.13	238.90
761.45	238.14
761.78	238.14
762.11	237.83
762.43	237.36
762.76	237.05
763.08	237.00
763.41	237.36
763.74	237.14
764.06	236.76
764.39	236.76
764.71	236.38
765.04	236.07
765.37	235.62
765.69	235.19
766.02	234.88
766.34	234.19
766.67	233.31
767.00	233.62
767.32	234.29
767.65	235.26
767.97	234.31
768.30	234.24
768.62	233.79
768.95	233.31
769.27	233.02
769.60	233.26
769.92	232.62
770.25	231.64
770.57	231.24
770.90	230.93
771.22	230.24
771.55	229.95
771.87	229.83
772.20	229.81
772.52	231.33
772.85	233.50
773.17	233.57
773.50	233.10
773.82	232.48
774.15	231.36
774.47	230.07
774.80	230.17
775.12	230.10
775.45	230.05
775.77	230.10
776.09	230.07
776.42	229.69
776.74	230.14
777.07	229.83
777.39	229.93
777.72	229.81
778.04	230.05
778.36	229.52
778.69	229.43
779.01	229.48
779.33	227.48
779.66	225.33
779.98	225.07
780.31	225.12
780.63	225.79
780.95	226.02
781.28	225.86
781.60	225.43
781.92	225.33
782.25	224.62
782.57	224.12
782.89	223.81
783.22	223.60
783.54	223.10
783.86	223.19
784.19	222.79
784.51	223.19
784.83	222.69
785.16	222.95
785.48	222.67
785.80	222.31
786.12	222.64
786.45	222.31
786.77	222.31
787.09	222.00
787.42	221.36
787.74	221.36
788.06	221.31
788.38	221.21
788.71	220.76
789.03	221.05
789.35	221.31
789.67	221.02
789.99	221.17
790.32	220.86
790.64	220.98
790.96	222.79
791.28	221.95
791.61	221.98
791.93	221.90
792.25	222.00
792.57	223.48
792.89	222.88
793.21	223.12
793.54	222.95
793.86	222.86
794.18	222.83
794.50	222.29
794.82	222.38
795.14	222.43
795.47	222.98
795.79	222.98
796.11	222.40
796.43	222.55
796.75	222.48
797.07	222.45
797.39	222.24
797.71	220.71
798.04	220.93
798.36	220.90
798.68	220.74
799.00	220.81
799.32	219.52
799.64	219.98
799.96	219.55
800.28	219.86
800.60	219.55
800.92	219.52
801.24	219.50
801.56	219.38
801.89	219.48
802.21	219.52
802.53	219.10
802.85	219.74
803.17	220.45
803.49	220.19
803.81	220.12
804.13	219.81
804.45	219.43
804.77	219.45
805.09	219.26
805.41	219.00
805.73	218.71
806.05	218.43
806.37	218.33
806.69	218.26
807.01	218.24
807.33	218.21
807.65	217.60
807.97	218.43
808.28	218.31
808.60	218.05
808.92	217.57
809.24	218.93
809.56	218.60
809.88	217.98
810.20	218.00
810.52	218.43
810.84	218.43
811.16	218.21
811.48	218.14
811.80	219.07
812.12	219.17
812.43	219.36
812.75	219.57
813.07	219.38
813.39	219.69
813.71	219.24
814.03	219.21
814.35	219.36
814.67	218.55
814.98	218.24
815.30	218.24
815.62	218.05
815.94	216.86
816.26	216.90
816.58	216.43
816.89	216.50
817.21	215.98
817.53	216.14
817.85	216.31
818.17	216.17
818.48	215.29
818.80	215.81
819.12	215.55
819.44	215.05
819.76	214.67
820.07	214.55
820.39	214.50
820.71	214.76
821.03	214.64
821.34	214.67
821.66	215.12
821.98	215.36
822.30	215.12
822.61	216.26
822.93	215.79
823.25	215.88
823.57	215.71
823.88	216.05
824.20	216.02
824.52	216.19
824.83	216.17
825.15	216.05
825.47	215.81
825.79	215.83
826.10	216.00
826.42	216.05
826.74	216.00
827.05	215.88
827.37	215.88
827.69	215.62
828.00	215.57
828.32	215.40
828.64	215.00
828.95	216.07
829.27	215.74
829.58	216.10
829.90	216.48
830.22	216.74
830.53	216.29
830.85	215.83
831.17	215.48
831.48	215.43
831.80	215.38
832.11	215.05
832.43	214.64
832.75	214.69
833.06	216.00
833.38	215.55
833.69	215.52
834.01	215.69
834.32	215.83
834.64	215.43
834.96	215.43
835.27	215.33
835.59	214.76
835.90	213.95
836.22	213.86
836.53	213.36
836.85	212.95
837.16	214.90
837.48	215.19
837.79	215.88
838.11	215.86
838.42	215.86
838.74	216.26
839.05	216.17
839.37	215.83
839.68	214.52
840.00	214.64
840.31	214.81
840.63	214.40
840.94	214.24
841.26	214.40
841.57	214.45
841.88	214.60
842.20	214.21
842.51	214.19
842.83	213.98
843.14	215.50
843.46	215.50
843.77	214.45
844.08	214.38
844.40	213.62
844.71	213.33
845.03	213.14
845.34	212.83
845.65	212.88
845.97	213.14
846.28	213.24
846.60	213.17
846.91	212.95
847.22	212.81
847.54	213.12
847.85	213.19
848.16	212.88
848.48	212.74
848.79	213.83
849.10	214.00
849.42	214.38
849.73	212.88
850.04	213.00
850.36	212.12
850.67	212.29
850.98	212.33
851.30	212.95
851.61	212.90
851.92	212.79
852.23	213.52
852.55	213.60
852.86	213.60
853.17	213.76
853.49	214.21
853.80	214.62
854.11	214.83
854.42	215.02
854.74	214.74
855.05	214.79
855.36	213.43
855.67	213.55
855.99	213.26
856.30	215.60
856.61	215.45
856.92	215.69
857.23	215.76
857.55	215.64
857.86	215.14
858.17	215.67
858.48	215.43
858.79	214.86
859.11	214.95
859.42	214.83
859.73	214.71
860.04	214.57
860.35	214.19
860.66	213.62
860.98	213.43
861.29	214.10
861.60	213.90
861.91	214.45
862.22	214.02
862.53	213.76
862.84	211.29
863.16	211.71
863.47	211.31
863.78	211.21
864.09	211.48
864.40	211.98
864.71	211.93
865.02	212.31
865.33	212.21
865.64	211.64
865.95	211.60
866.27	213.00
866.58	212.76
866.89	213.10
867.20	213.14
867.51	212.88
867.82	212.60
868.13	213.36
868.44	213.14
868.75	213.33
869.06	213.67
869.37	213.79
869.68	213.07
869.99	213.52
870.30	213.50
870.61	213.62
870.92	212.88
871.23	212.71
871.54	213.07
871.85	213.62
872.16	214.26
872.47	214.24
872.78	212.71
873.09	213.02
873.40	212.76
873.71	212.93
874.02	213.19
874.33	212.88
874.64	212.36
874.95	212.74
875.26	212.38
875.56	212.43
875.87	212.50
876.18	212.64
876.49	214.60
876.80	214.31
877.11	213.81
877.42	214.31
877.73	214.38
878.04	213.79
878.35	213.55
878.66	213.55
878.96	213.50
879.27	213.57
879.58	213.36
879.89	213.14
880.20	213.52
880.51	213.36
880.82	213.67
881.12	213.81
881.43	213.07
881.74	212.98
882.05	212.71
882.36	213.07
882.67	213.00
882.97	210.74
883.28	211.05
883.59	211.07
883.90	211.33
884.21	211.62
884.51	211.71
884.82	211.50
885.13	211.24
885.44	211.14
885.74	211.12
886.05	211.31
886.36	211.57
886.67	210.71
886.98	211.95
887.28	212.00
887.59	211.88
887.90	212.24
888.20	212.29
888.51	212.74
888.82	212.07
889.13	212.24
889.43	213.95
889.74	213.55
890.05	213.52
890.35	213.02
890.66	212.50
890.97	212.24
891.28	211.86
891.58	211.95
891.89	211.95
892.20	211.90
892.50	211.50
892.81	211.26
893.12	211.43
893.42	210.38
893.73	210.55
894.04	210.74
894.34	210.90
894.65	210.67
894.95	210.45
895.26	210.62
895.57	211.62
895.87	209.52
896.18	210.02
896.48	210.29
896.79	210.64
897.10	210.98
897.40	211.24
897.71	211.90
898.01	211.95
898.32	212.38
898.63	212.45
898.93	212.71
899.24	212.88
899.54	213.02
899.85	212.83
900.15	212.67
900.46	212.62
900.76	212.67
901.07	212.98
901.38	213.05
901.68	213.45
901.99	212.40
902.29	212.62
902.60	212.21
902.90	211.88
903.21	211.67
903.51	211.64
903.82	211.83
904.12	211.55
904.43	211.50
904.73	211.21
905.03	211.48
905.34	213.19
905.64	212.98
905.95	213.00
906.25	213.07
906.56	212.88
906.86	212.95
907.17	212.74
907.47	212.62
907.77	212.29
908.08	211.71
908.38	211.86
908.69	212.21
908.99	212.79
909.30	213.05
909.60	213.07
909.90	213.33
910.21	212.83
910.51	212.81
910.81	212.86
911.12	213.21
911.42	213.05
911.73	211.02
912.03	211.38
912.33	211.71
912.64	211.74
912.94	211.86
913.24	211.67
913.55	211.62
913.85	211.64
914.15	212.19
914.46	212.69
914.76	212.74
915.06	212.48
915.37	212.02
915.67	211.98
915.97	212.05
916.27	211.43
916.58	211.93
916.88	211.79
917.18	211.57
917.49	212.69
917.79	212.60
918.09	212.69
918.39	213.07
918.70	213.00
919.00	213.00
919.30	213.88
919.60	213.60
919.91	213.64
920.21	214.02
920.51	213.50
920.81	213.38
921.12	213.50
921.42	213.67
921.72	214.00
922.02	214.26
922.32	214.43
922.63	214.69
922.93	215.43
923.23	215.67
923.53	215.76
923.83	214.43
924.13	214.64
924.44	215.05
924.74	215.29
925.04	215.69
925.34	215.81
925.64	214.81
925.94	214.95
926.24	216.00
926.55	215.48
926.85	215.86
927.15	215.71
927.45	215.74
927.75	215.57
928.05	215.60
928.35	215.24
928.65	215.40
928.95	215.40
929.26	214.71
929.56	214.86
929.86	215.02
930.16	215.14
930.46	214.83
930.76	214.57
931.06	213.81
931.36	213.14
931.66	213.33
931.96	213.60
932.26	213.71
932.56	212.88
932.86	213.12
933.16	212.95
933.46	212.86
933.76	212.60
934.06	213.07
934.36	213.69
934.66	213.79
934.96	213.64
935.26	213.79
935.56	214.10
935.86	213.71
936.16	213.55
936.46	213.10
936.76	213.24
937.06	213.14
937.36	213.12
937.66	213.29
937.96	213.07
938.26	212.76
938.56	212.52
938.86	212.45
939.16	213.05
939.46	213.12
939.76	213.14
940.06	213.24
940.35	212.67
940.65	211.45
940.95	211.74
941.25	211.26
941.55	210.95
941.85	210.48
942.15	211.14
942.45	211.52
942.75	211.74
943.04	211.79
943.34	212.19
943.64	211.95
943.94	211.71
944.24	211.83
944.54	212.00
944.84	212.05
945.13	211.67
945.43	210.95
945.73	210.86
946.03	210.67
946.33	210.21
946.62	210.48
946.92	210.40
947.22	210.36
947.52	210.62
947.82	210.90
948.11	210.86
948.41	210.19
948.71	209.50
949.01	209.43
949.31	209.21
949.60	209.00
949.90	209.33
950.20	209.24
950.50	209.12
950.79	208.88
951.09	209.21
951.39	209.36
951.69	209.29
951.98	209.69
952.28	209.81
952.58	210.05
952.87	209.83
953.17	210.55
953.47	210.26
953.76	210.10
954.06	209.86
954.36	209.62
954.66	209.76
954.95	210.45
955.25	210.64
955.55	210.69
955.84	210.38
956.14	210.57
956.44	210.74
956.73	210.38
957.03	210.43
957.32	210.29
957.62	210.21
957.92	210.79
958.21	210.48
958.51	212.93
958.81	213.19
959.10	213.48
959.40	213.95
959.69	214.17
959.99	214.48
960.29	214.43
960.58	214.26
960.88	214.93
961.17	214.62
961.47	214.98
961.76	214.95
962.06	215.31
962.36	215.07
962.65	215.05
962.95	215.40
963.24	215.50
963.54	215.45
963.83	215.74
964.13	215.40
964.42	214.93
964.72	213.17
965.01	213.24
965.31	213.02
965.60	212.26
965.90	213.55
966.19	212.98
966.49	213.21
966.78	213.36
967.08	212.93
967.37	213.21
967.67	212.55
967.96	212.71
968.26	212.71
968.55	213.00
968.85	213.07
969.14	212.69
969.43	212.40
969.73	212.38
970.02	212.05
970.32	212.07
970.61	212.19
970.91	211.71
971.20	211.31
971.49	211.14
971.79	211.29
972.08	209.79
972.38	210.10
972.67	209.90
972.96	210.33
973.26	210.02
973.55	210.31
973.85	210.26
974.14	210.07
974.43	210.19
974.73	209.74
975.02	209.50
975.31	209.74
975.61	209.88
975.90	209.74
976.19	209.79
976.49	210.02
976.78	210.26
977.07	209.95
977.37	210.14
977.66	210.36
977.95	210.07
978.24	210.31
978.54	210.60
978.83	210.31
979.12	210.12
979.42	210.21
979.71	209.69
980.00	209.60
980.29	209.95
980.59	209.50
980.88	210.29
981.17	210.17
981.46	210.10
981.76	210.14
982.05	210.93
982.34	211.17
982.63	211.02
982.93	210.95
983.22	211.79
983.51	211.69
983.80	212.10
984.09	212.57
984.39	212.33
984.68	212.10
984.97	212.55
985.26	212.24
985.55	212.45
985.85	212.05
986.14	212.48
986.43	212.50
986.72	212.67
987.01	212.10
987.30	212.29
987.59	212.07
987.89	212.10
988.18	211.19
988.47	210.95
988.76	210.88
989.05	210.81
989.34	210.24
989.63	210.86
989.92	210.24
990.22	209.95
990.51	209.98
990.80	210.02
991.09	210.19
991.38	210.38
991.67	210.21
991.96	210.24
992.25	210.29
992.54	209.88
992.83	209.69
993.12	209.52
993.41	209.74
993.70	210.71
993.99	211.00
994.28	211.33
994.58	211.48
994.87	211.14
995.16	210.93
995.45	210.88
995.74	210.40
996.03	211.00
996.32	211.31
996.61	211.76
996.90	211.43
997.19	211.21
997.48	211.33
997.77	211.21
998.06	211.36
998.34	211.29
998.63	211.50
998.92	211.52
999.21	211.74
999.50	211.67
999.79	210.81
1000.08	210.62
1000.37	210.60
1000.66	210.45
1000.95	211.17
1001.24	211.38
1001.53	211.76
1001.82	211.48
1002.11	210.76
1002.40	211.07
1002.68	211.29
1002.97	212.83
1003.26	212.62
1003.55	212.55
1003.84	212.55
1004.13	213.43
1004.42	213.14
1004.71	213.14
1004.99	213.00
1005.28	213.38
1005.57	213.17
1005.86	213.24
1006.15	213.21
1006.44	212.93
1006.72	212.95
1007.01	212.60
1007.30	212.60
1007.59	212.33
1007.88	212.31
1008.17	212.62
1008.45	211.93
1008.74	211.17
1009.03	210.29
1009.32	210.07
1009.60	209.76
1009.89	209.69
1010.18	208.74
1010.47	209.00
1010.76	208.93
1011.04	209.00
1011.33	209.19
1011.62	209.45
1011.91	209.69
1012.19	209.81
1012.48	209.95
1012.77	210.05
1013.05	210.83
1013.34	211.12
1013.63	210.95
1013.92	211.21
1014.20	211.05
1014.49	211.00
1014.78	211.29
1015.06	210.64
1015.35	210.90
1015.64	211.26
1015.92	211.64
1016.21	211.71
1016.50	211.55
1016.78	211.74
1017.07	211.88
1017.36	211.26
1017.64	211.14
1017.93	211.24
1018.22	211.14
1018.50	211.02
1018.79	211.12
1019.08	210.36
1019.36	210.38
1019.65	210.26
1019.93	210.79
1020.22	211.02
1020.51	212.26
1020.79	212.12
1021.08	210.00
1021.36	206.00
1021.65	212.50
1021.94	212.00
1022.22	214.50
1022.51	206.50
1022.79	221.50
1023.08	212.00
1023.36	236.00
1023.65	208.50
>>>>>End Processed Spectral Data<<<<<
