SpectraSuite Data File
++++++++++++++++++++++++++++++++++++
Date: Tue Apr 02 18:46:31 EDT 2013
User: group
Dark Spectrum Present: No
Reference Spectrum Present: No
Number of Sampled Component Spectra: 1
Spectrometers: USB2E7196
Integration Time (usec): 580000 (USB2E7196)
Spectra Averaged: 2 (USB2E7196)
Boxcar Smoothing: 10 (USB2E7196)
Correct for Electrical Dark: No (USB2E7196)
Strobe/Lamp Enabled: No (USB2E7196)
Correct for Detector Non-linearity: No (USB2E7196)
Correct for Stray Light: No (USB2E7196)
Number of Pixels in Processed Spectrum: 2048
>>>>>Begin Processed Spectral Data<<<<<
339.09	0.00
339.48	191.50
339.86	195.50
340.24	197.00
340.63	199.00
341.01	225.50
341.39	198.50
341.78	206.50
342.16	207.00
342.54	206.00
342.93	196.07
343.31	205.79
343.69	206.40
344.07	206.98
344.46	207.71
344.84	208.29
345.22	207.45
345.60	207.95
345.99	208.17
346.37	208.14
346.75	208.36
347.13	208.55
347.52	208.76
347.90	209.62
348.28	209.83
348.66	210.26
349.05	209.93
349.43	210.14
349.81	210.50
350.19	210.55
350.57	210.74
350.96	210.83
351.34	211.31
351.72	211.43
352.10	211.60
352.48	211.52
352.87	211.52
353.25	211.71
353.63	211.67
354.01	211.52
354.39	211.76
354.77	211.69
355.15	212.29
355.54	212.24
355.92	211.57
356.30	211.60
356.68	213.17
357.06	213.17
357.44	213.02
357.82	213.10
358.20	214.19
358.58	214.40
358.97	214.52
359.35	214.83
359.73	215.36
360.11	215.43
360.49	215.17
360.87	215.05
361.25	215.26
361.63	215.98
362.01	216.38
362.39	216.40
362.77	216.52
363.15	216.33
363.53	216.33
363.91	216.45
364.29	216.60
364.67	214.69
365.05	214.90
365.43	214.93
365.81	215.12
366.19	215.14
366.57	215.95
366.95	216.05
367.33	215.88
367.71	215.69
368.09	216.02
368.47	216.21
368.85	216.26
369.23	216.90
369.61	216.19
369.99	216.60
370.37	216.83
370.75	217.83
371.13	217.43
371.51	217.29
371.89	217.55
372.27	217.48
372.65	217.43
373.03	217.50
373.41	217.38
373.78	217.26
374.16	216.12
374.54	215.33
374.92	215.00
375.30	214.90
375.68	214.60
376.06	214.55
376.44	214.60
376.82	214.93
377.19	214.33
377.57	214.31
377.95	213.67
378.33	213.48
378.71	212.38
379.09	212.50
379.47	212.74
379.84	212.36
380.22	212.05
380.60	211.81
380.98	211.86
381.36	211.71
381.73	211.55
382.11	211.95
382.49	212.14
382.87	211.90
383.25	211.81
383.62	214.45
384.00	214.14
384.38	214.29
384.76	214.67
385.13	215.71
385.51	215.93
385.89	215.71
386.27	215.93
386.64	216.17
387.02	216.14
387.40	216.10
387.78	216.57
388.15	216.86
388.53	216.83
388.91	216.76
389.29	216.98
389.66	217.05
390.04	216.90
390.42	217.07
390.79	217.19
391.17	217.07
391.55	214.57
391.92	214.43
392.30	214.40
392.68	213.74
393.05	213.21
393.43	213.07
393.81	213.19
394.18	212.71
394.56	212.79
394.94	213.19
395.31	212.95
395.69	213.26
396.06	213.74
396.44	213.88
396.82	213.69
397.19	214.95
397.57	214.81
397.95	215.02
398.32	214.36
398.70	214.83
399.07	215.45
399.45	215.48
399.82	215.62
400.20	215.62
400.58	215.62
400.95	214.98
401.33	215.60
401.70	217.12
402.08	217.38
402.45	217.50
402.83	218.19
403.20	218.31
403.58	218.24
403.95	218.24
404.33	218.79
404.71	219.10
405.08	219.93
405.46	220.36
405.83	220.83
406.21	221.38
406.58	221.67
406.96	221.74
407.33	222.62
407.70	223.24
408.08	225.24
408.45	226.14
408.83	227.10
409.20	227.36
409.58	226.81
409.95	227.93
410.33	228.83
410.70	228.95
411.08	230.33
411.45	231.36
411.82	232.38
412.20	234.00
412.57	236.45
412.95	235.95
413.32	237.64
413.69	238.98
414.07	240.67
414.44	242.38
414.82	244.29
415.19	246.45
415.56	248.69
415.94	250.14
416.31	253.07
416.68	255.86
417.06	259.17
417.43	262.76
417.81	266.02
418.18	269.67
418.55	273.12
418.93	277.05
419.30	280.95
419.67	285.31
420.04	289.48
420.42	293.48
420.79	300.71
421.16	306.21
421.54	312.98
421.91	319.17
422.28	325.14
422.66	331.95
423.03	339.64
423.40	346.19
423.77	353.33
424.15	360.43
424.52	368.07
424.89	376.62
425.26	384.40
425.64	391.95
426.01	400.02
426.38	408.95
426.75	418.24
427.13	427.81
427.50	437.38
427.87	447.05
428.24	456.76
428.61	465.19
428.99	476.62
429.36	487.07
429.73	498.24
430.10	509.57
430.47	520.88
430.85	531.12
431.22	544.33
431.59	559.19
431.96	571.93
432.33	585.79
432.70	598.88
433.08	614.90
433.45	630.45
433.82	646.26
434.19	663.02
434.56	679.36
434.93	694.62
435.30	710.69
435.68	728.26
436.05	745.64
436.42	762.57
436.79	777.93
437.16	794.98
437.53	812.26
437.90	830.43
438.27	848.19
438.64	866.64
439.01	883.29
439.38	896.38
439.75	911.29
440.13	927.62
440.50	944.10
440.87	956.98
441.24	969.71
441.61	983.64
441.98	994.21
442.35	1006.55
442.72	1019.95
443.09	1033.31
443.46	1040.88
443.83	1045.93
444.20	1051.00
444.57	1057.21
444.94	1060.33
445.31	1064.48
445.68	1070.14
446.05	1071.50
446.42	1070.02
446.79	1068.31
447.16	1066.33
447.53	1064.79
447.90	1058.69
448.27	1051.55
448.64	1042.57
449.01	1036.83
449.37	1026.12
449.74	1014.83
450.11	1003.79
450.48	988.86
450.85	972.79
451.22	960.21
451.59	948.62
451.96	936.88
452.33	921.81
452.70	907.95
453.07	891.14
453.43	871.24
453.80	854.95
454.17	838.93
454.54	823.95
454.91	807.86
455.28	791.74
455.65	777.45
456.02	766.33
456.38	753.55
456.75	737.90
457.12	724.43
457.49	712.60
457.86	697.90
458.23	688.21
458.59	676.71
458.96	665.10
459.33	654.74
459.70	644.26
460.07	635.31
460.43	625.86
460.80	617.07
461.17	609.81
461.54	602.14
461.91	594.88
462.27	586.76
462.64	579.83
463.01	572.79
463.38	566.40
463.74	556.07
464.11	549.67
464.48	544.12
464.85	537.88
465.21	533.52
465.58	528.95
465.95	521.93
466.32	516.88
466.68	511.81
467.05	506.74
467.42	502.14
467.78	497.24
468.15	491.88
468.52	488.05
468.88	482.76
469.25	477.67
469.62	474.26
469.98	470.36
470.35	467.14
470.72	463.43
471.08	458.48
471.45	455.45
471.82	452.76
472.18	449.17
472.55	446.83
472.92	442.81
473.28	440.12
473.65	437.38
474.02	434.88
474.38	432.55
474.75	430.50
475.11	427.76
475.48	425.40
475.85	423.88
476.21	421.86
476.58	420.79
476.94	419.76
477.31	418.17
477.67	417.00
478.04	415.69
478.41	415.00
478.77	416.21
479.14	415.19
479.50	414.48
479.87	414.36
480.23	413.71
480.60	413.83
480.96	413.43
481.33	414.62
481.69	414.69
482.06	415.02
482.42	415.26
482.79	415.71
483.15	415.98
483.52	417.36
483.88	417.90
484.25	418.55
484.61	418.93
484.98	419.55
485.34	421.81
485.71	423.98
486.07	425.10
486.44	424.76
486.80	426.05
487.17	427.67
487.53	429.93
487.90	432.50
488.26	435.45
488.62	438.21
488.99	440.07
489.35	442.74
489.72	445.60
490.08	448.14
490.44	450.88
490.81	454.67
491.17	457.29
491.54	461.10
491.90	464.64
492.26	468.71
492.63	472.45
492.99	475.36
493.36	479.36
493.72	484.36
494.08	489.02
494.45	493.81
494.81	498.60
495.17	502.95
495.54	508.05
495.90	512.24
496.26	517.29
496.63	522.60
496.99	527.67
497.35	532.93
497.72	539.00
498.08	545.00
498.44	551.29
498.80	557.86
499.17	563.55
499.53	569.57
499.89	576.17
500.26	583.26
500.62	589.79
500.98	596.60
501.34	603.52
501.71	610.67
502.07	617.62
502.43	624.76
502.79	631.71
503.16	638.81
503.52	646.43
503.88	653.17
504.24	660.55
504.60	668.45
504.97	675.93
505.33	683.14
505.69	691.48
506.05	699.10
506.41	706.40
506.78	714.40
507.14	721.86
507.50	729.79
507.86	737.52
508.22	745.48
508.59	752.48
508.95	760.19
509.31	768.86
509.67	776.86
510.03	784.48
510.39	793.05
510.75	800.83
511.12	808.14
511.48	816.29
511.84	823.21
512.20	830.98
512.56	838.93
512.92	847.05
513.28	854.50
513.64	861.98
514.00	868.86
514.37	876.24
514.73	884.26
515.09	891.48
515.45	898.10
515.81	904.93
516.17	912.14
516.53	918.67
516.89	924.17
517.25	931.00
517.61	938.00
517.97	944.17
518.33	950.62
518.69	957.67
519.05	964.10
519.41	970.95
519.77	978.33
520.13	984.62
520.49	989.71
520.85	995.36
521.21	1002.00
521.57	1008.33
521.93	1013.48
522.29	1019.19
522.65	1024.00
523.01	1029.64
523.37	1034.55
523.73	1039.74
524.09	1044.31
524.45	1049.02
524.81	1053.43
525.17	1058.38
525.53	1062.93
525.89	1067.00
526.25	1071.36
526.61	1076.24
526.97	1080.21
527.33	1083.29
527.68	1088.93
528.04	1093.86
528.40	1098.31
528.76	1101.74
529.12	1106.10
529.48	1111.62
529.84	1114.81
530.20	1118.90
530.56	1122.88
530.91	1127.90
531.27	1131.62
531.63	1136.31
531.99	1140.86
532.35	1144.95
532.71	1148.74
533.07	1153.02
533.42	1159.43
533.78	1163.74
534.14	1167.31
534.50	1171.67
534.86	1177.31
535.21	1179.88
535.57	1184.05
535.93	1187.05
536.29	1191.90
536.65	1196.05
537.00	1197.98
537.36	1202.40
537.72	1205.86
538.08	1210.10
538.44	1213.07
538.79	1216.62
539.15	1219.81
539.51	1223.21
539.87	1226.98
540.22	1230.38
540.58	1233.24
540.94	1234.19
541.29	1237.26
541.65	1239.43
542.01	1243.26
542.37	1244.81
542.72	1246.00
543.08	1248.31
543.44	1251.45
543.79	1252.07
544.15	1254.83
544.51	1258.69
544.87	1260.52
545.22	1264.21
545.58	1266.12
545.94	1268.81
546.29	1271.93
546.65	1274.90
547.01	1276.79
547.36	1278.81
547.72	1281.26
548.07	1283.95
548.43	1286.74
548.79	1288.55
549.14	1291.50
549.50	1293.40
549.86	1295.02
550.21	1298.64
550.57	1301.50
550.92	1303.12
551.28	1307.05
551.64	1309.74
551.99	1312.10
552.35	1315.86
552.70	1318.52
553.06	1322.19
553.41	1325.29
553.77	1329.36
554.13	1332.17
554.48	1336.74
554.84	1341.02
555.19	1344.45
555.55	1349.52
555.90	1352.57
556.26	1355.93
556.61	1359.12
556.97	1361.60
557.32	1366.45
557.68	1370.55
558.03	1373.83
558.39	1378.29
558.74	1381.19
559.10	1384.83
559.45	1390.10
559.81	1394.17
560.16	1397.69
560.52	1401.10
560.87	1405.71
561.23	1408.64
561.58	1414.00
561.94	1417.40
562.29	1421.57
562.64	1426.05
563.00	1428.98
563.35	1434.07
563.71	1439.81
564.06	1445.36
564.42	1451.19
564.77	1455.62
565.12	1461.29
565.48	1469.02
565.83	1475.19
566.19	1481.71
566.54	1486.62
566.89	1490.29
567.25	1496.40
567.60	1502.90
567.96	1510.93
568.31	1517.31
568.66	1523.88
569.02	1528.33
569.37	1534.07
569.72	1538.69
570.08	1543.64
570.43	1549.19
570.78	1554.74
571.14	1559.33
571.49	1564.52
571.84	1569.57
572.20	1574.79
572.55	1579.83
572.90	1582.50
573.26	1586.29
573.61	1590.88
573.96	1596.12
574.31	1600.69
574.67	1604.07
575.02	1607.88
575.37	1609.98
575.72	1612.81
576.08	1616.69
576.43	1620.93
576.78	1624.17
577.13	1628.81
577.49	1632.88
577.84	1636.45
578.19	1639.88
578.54	1643.79
578.90	1647.57
579.25	1651.14
579.60	1654.24
579.95	1657.12
580.30	1660.93
580.66	1665.67
581.01	1668.57
581.36	1671.64
581.71	1676.12
582.06	1680.86
582.42	1684.50
582.77	1688.05
583.12	1691.14
583.47	1693.95
583.82	1696.74
584.17	1701.24
584.53	1704.71
584.88	1707.81
585.23	1711.50
585.58	1713.79
585.93	1716.00
586.28	1719.81
586.63	1723.26
586.98	1726.19
587.34	1730.62
587.69	1733.43
588.04	1735.69
588.39	1738.74
588.74	1740.52
589.09	1742.76
589.44	1743.00
589.79	1744.81
590.14	1746.83
590.49	1748.83
590.84	1750.40
591.19	1753.05
591.54	1754.83
591.89	1755.79
592.25	1760.00
592.60	1761.24
592.95	1764.02
593.30	1766.86
593.65	1767.52
594.00	1768.67
594.35	1775.45
594.70	1774.62
595.05	1775.33
595.40	1775.79
595.75	1776.19
596.10	1777.93
596.45	1779.45
596.80	1781.98
597.15	1783.81
597.50	1784.43
597.85	1787.12
598.19	1787.98
598.54	1788.79
598.89	1789.26
599.24	1790.62
599.59	1789.14
599.94	1789.71
600.29	1789.88
600.64	1789.79
600.99	1789.76
601.34	1790.83
601.69	1785.98
602.04	1786.29
602.39	1786.64
602.74	1787.86
603.08	1787.90
603.43	1788.64
603.78	1788.21
604.13	1787.21
604.48	1785.64
604.83	1786.21
605.18	1784.64
605.53	1784.69
605.87	1784.05
606.22	1782.31
606.57	1781.31
606.92	1780.17
607.27	1779.60
607.62	1779.10
607.96	1779.21
608.31	1779.26
608.66	1777.31
609.01	1776.33
609.36	1775.90
609.70	1775.45
610.05	1772.50
610.40	1771.48
610.75	1769.67
611.10	1768.43
611.44	1766.19
611.79	1764.86
612.14	1762.74
612.49	1760.00
612.83	1757.43
613.18	1754.67
613.53	1753.07
613.88	1749.76
614.22	1747.05
614.57	1743.52
614.92	1739.67
615.27	1735.67
615.61	1731.57
615.96	1728.64
616.31	1725.55
616.65	1722.81
617.00	1719.52
617.35	1716.90
617.70	1713.31
618.04	1708.98
618.39	1704.76
618.74	1701.67
619.08	1697.62
619.43	1692.95
619.78	1689.74
620.12	1686.48
620.47	1682.07
620.82	1677.55
621.16	1673.07
621.51	1670.17
621.85	1666.10
622.20	1663.26
622.55	1659.55
622.89	1656.00
623.24	1653.31
623.59	1649.10
623.93	1645.60
624.28	1641.07
624.62	1639.95
624.97	1637.43
625.32	1633.43
625.66	1628.83
626.01	1624.71
626.35	1621.14
626.70	1618.00
627.04	1615.10
627.39	1610.55
627.73	1607.71
628.08	1604.50
628.43	1601.02
628.77	1596.88
629.12	1593.38
629.46	1589.33
629.81	1585.33
630.15	1580.83
630.50	1574.24
630.84	1569.62
631.19	1563.05
631.53	1557.52
631.88	1550.17
632.22	1543.24
632.57	1540.19
632.91	1535.60
633.26	1531.29
633.60	1526.26
633.95	1521.26
634.29	1515.05
634.64	1511.10
634.98	1506.24
635.32	1502.07
635.67	1498.95
636.01	1494.52
636.36	1490.10
636.70	1485.93
637.05	1481.62
637.39	1477.52
637.73	1474.24
638.08	1470.05
638.42	1466.52
638.77	1463.07
639.11	1458.00
639.45	1453.48
639.80	1447.24
640.14	1443.02
640.49	1437.95
640.83	1433.40
641.17	1428.88
641.52	1423.55
641.86	1418.40
642.20	1413.88
642.55	1407.81
642.89	1402.24
643.23	1396.90
643.58	1392.40
643.92	1385.86
644.26	1380.40
644.61	1375.07
644.95	1368.55
645.29	1362.79
645.64	1357.24
645.98	1351.88
646.32	1347.29
646.66	1341.33
647.01	1335.60
647.35	1329.60
647.69	1323.62
648.04	1317.93
648.38	1311.24
648.72	1306.00
649.06	1300.38
649.41	1293.88
649.75	1287.26
650.09	1280.50
650.43	1272.69
650.78	1265.36
651.12	1259.36
651.46	1252.14
651.80	1246.05
652.14	1241.00
652.49	1235.36
652.83	1228.71
653.17	1221.88
653.51	1215.00
653.85	1210.26
654.20	1204.31
654.54	1197.83
654.88	1191.64
655.22	1186.43
655.56	1180.69
655.90	1174.50
656.25	1167.38
656.59	1161.69
656.93	1156.17
657.27	1151.12
657.61	1145.50
657.95	1140.52
658.29	1134.36
658.64	1130.00
658.98	1123.17
659.32	1116.71
659.66	1110.14
660.00	1104.45
660.34	1098.38
660.68	1092.57
661.02	1085.76
661.36	1079.48
661.70	1073.64
662.05	1068.45
662.39	1061.90
662.73	1056.83
663.07	1052.45
663.41	1047.07
663.75	1040.79
664.09	1035.88
664.43	1029.43
664.77	1024.48
665.11	1017.10
665.45	1011.55
665.79	1005.17
666.13	999.76
666.47	993.79
666.81	988.38
667.15	982.19
667.49	977.05
667.83	971.31
668.17	965.81
668.51	960.31
668.85	955.60
669.19	950.52
669.53	944.79
669.87	938.31
670.21	931.95
670.55	926.76
670.89	922.31
671.23	916.14
671.57	910.52
671.91	905.57
672.25	901.71
672.58	897.31
672.92	891.93
673.26	886.24
673.60	882.10
673.94	876.79
674.28	872.33
674.62	867.67
674.96	862.50
675.30	857.95
675.64	853.19
675.97	847.81
676.31	841.86
676.65	836.19
676.99	832.60
677.33	827.71
677.67	822.74
678.01	817.02
678.34	812.38
678.68	808.10
679.02	801.90
679.36	796.12
679.70	790.69
680.04	785.50
680.37	780.57
680.71	775.31
681.05	770.64
681.39	765.55
681.73	760.14
682.06	755.29
682.40	750.95
682.74	747.10
683.08	742.62
683.42	737.88
683.75	733.71
684.09	728.07
684.43	722.83
684.77	717.83
685.10	713.05
685.44	708.38
685.78	703.33
686.12	699.67
686.45	695.19
686.79	690.29
687.13	686.10
687.46	682.38
687.80	678.17
688.14	673.33
688.48	669.14
688.81	665.02
689.15	661.88
689.49	656.60
689.82	651.10
690.16	645.98
690.50	641.36
690.83	636.79
691.17	631.81
691.51	627.79
691.84	623.57
692.18	619.21
692.52	615.05
692.85	611.60
693.19	607.86
693.52	603.55
693.86	598.74
694.20	594.50
694.53	589.71
694.87	584.67
695.21	580.26
695.54	575.76
695.88	571.05
696.21	565.86
696.55	561.48
696.88	557.60
697.22	553.98
697.56	550.74
697.89	546.64
698.23	543.07
698.56	539.31
698.90	535.57
699.23	531.74
699.57	528.05
699.90	523.86
700.24	519.24
700.58	515.79
700.91	513.00
701.25	510.88
701.58	508.60
701.92	505.88
702.25	502.55
702.59	499.29
702.92	495.98
703.26	492.86
703.59	490.19
703.93	489.12
704.26	485.79
704.60	482.33
704.93	479.50
705.26	476.48
705.60	473.88
705.93	470.76
706.27	468.52
706.60	465.86
706.94	463.71
707.27	460.90
707.61	458.19
707.94	455.17
708.27	450.74
708.61	447.12
708.94	444.10
709.28	441.95
709.61	439.64
709.94	437.52
710.28	434.86
710.61	432.26
710.95	427.52
711.28	426.55
711.61	424.19
711.95	422.26
712.28	420.05
712.61	417.02
712.95	415.83
713.28	414.07
713.61	411.69
713.95	408.81
714.28	406.40
714.61	404.05
714.95	401.98
715.28	399.38
715.61	397.14
715.95	395.12
716.28	392.50
716.61	390.36
716.95	387.90
717.28	385.81
717.61	383.33
717.94	381.29
718.28	377.74
718.61	375.43
718.94	372.98
719.27	370.74
719.61	368.90
719.94	366.07
720.27	362.67
720.60	360.21
720.94	358.07
721.27	356.62
721.60	355.10
721.93	353.45
722.27	352.40
722.60	350.71
722.93	348.88
723.26	347.36
723.59	345.29
723.93	343.79
724.26	342.21
724.59	340.95
724.92	339.69
725.25	338.83
725.59	337.52
725.92	336.17
726.25	334.64
726.58	333.24
726.91	331.52
727.24	330.62
727.57	329.43
727.91	327.83
728.24	326.55
728.57	324.93
728.90	323.76
729.23	322.12
729.56	321.81
729.89	320.60
730.22	319.38
730.55	318.52
730.89	317.17
731.22	316.21
731.55	315.02
731.88	313.93
732.21	312.55
732.54	311.19
732.87	310.02
733.20	309.17
733.53	308.12
733.86	307.43
734.19	306.05
734.52	305.52
734.85	306.12
735.18	304.79
735.51	304.33
735.84	303.36
736.17	303.24
736.50	301.40
736.83	302.57
737.16	301.57
737.49	300.71
737.82	299.90
738.15	298.74
738.48	297.76
738.81	296.71
739.14	295.40
739.47	294.48
739.80	293.40
740.13	292.69
740.46	291.33
740.79	290.19
741.12	289.57
741.45	288.29
741.78	286.33
742.11	286.00
742.44	284.83
742.77	283.74
743.10	282.31
743.43	281.24
743.75	278.19
744.08	280.00
744.41	278.90
744.74	277.93
745.07	276.83
745.40	276.36
745.73	276.31
746.06	275.71
746.39	275.17
746.71	274.26
747.04	273.29
747.37	272.81
747.70	272.40
748.03	271.76
748.36	271.40
748.68	270.62
749.01	269.48
749.34	268.90
749.67	268.55
750.00	268.17
750.33	269.05
750.65	268.79
750.98	265.55
751.31	264.90
751.64	264.17
751.97	264.98
752.29	264.29
752.62	262.79
752.95	262.07
753.28	261.19
753.60	260.67
753.93	260.52
754.26	259.98
754.59	259.12
754.91	258.14
755.24	257.50
755.57	256.98
755.90	256.40
756.22	255.57
756.55	254.45
756.88	253.43
757.20	251.55
757.53	250.40
757.86	249.93
758.19	249.62
758.51	249.48
758.84	247.88
759.17	247.00
759.49	246.69
759.82	247.14
760.15	246.93
760.47	246.36
760.80	245.45
761.13	245.31
761.45	244.38
761.78	244.05
762.11	243.40
762.43	242.79
762.76	242.31
763.08	242.14
763.41	242.21
763.74	241.90
764.06	241.48
764.39	241.45
764.71	241.14
765.04	240.60
765.37	239.76
765.69	239.38
766.02	239.17
766.34	238.62
766.67	237.69
767.00	237.81
767.32	238.76
767.65	239.50
767.97	239.02
768.30	238.98
768.62	238.74
768.95	238.19
769.27	237.86
769.60	238.00
769.92	237.48
770.25	236.79
770.57	236.10
770.90	235.88
771.22	235.02
771.55	234.79
771.87	234.50
772.20	234.38
772.52	235.62
772.85	237.79
773.17	237.88
773.50	237.55
773.82	236.83
774.15	235.76
774.47	234.45
774.80	234.07
775.12	233.83
775.45	233.45
775.77	233.50
776.09	233.62
776.42	233.33
776.74	233.60
777.07	233.31
777.39	233.36
777.72	232.93
778.04	233.36
778.36	233.12
778.69	232.88
779.01	232.71
779.33	231.12
779.66	228.71
779.98	228.19
780.31	227.79
780.63	228.55
780.95	228.64
781.28	228.31
781.60	228.10
781.92	228.00
782.25	227.81
782.57	227.48
782.89	227.26
783.22	227.10
783.54	226.69
783.86	226.83
784.19	226.48
784.51	226.83
784.83	226.45
785.16	226.14
785.48	226.19
785.80	226.12
786.12	226.00
786.45	225.69
786.77	225.71
787.09	225.71
787.42	224.62
787.74	224.33
788.06	224.17
788.38	224.02
788.71	223.52
789.03	223.64
789.35	223.81
789.67	223.40
789.99	223.14
790.32	222.79
790.64	222.81
790.96	224.64
791.28	224.14
791.61	224.02
791.93	224.26
792.25	224.05
792.57	225.45
792.89	224.83
793.21	225.14
793.54	224.79
793.86	224.45
794.18	224.57
794.50	224.02
794.82	224.10
795.14	224.12
795.47	224.64
795.79	224.57
796.11	223.93
796.43	223.45
796.75	223.36
797.07	223.48
797.39	223.31
797.71	221.62
798.04	221.45
798.36	221.60
798.68	221.40
799.00	221.55
799.32	220.43
799.64	221.07
799.96	220.86
800.28	221.33
800.60	221.38
800.92	221.67
801.24	221.50
801.56	221.71
801.89	221.48
802.21	221.48
802.53	221.12
802.85	221.86
803.17	223.02
803.49	222.81
803.81	222.45
804.13	222.07
804.45	221.64
804.77	221.81
805.09	221.67
805.41	221.24
805.73	220.81
806.05	220.05
806.37	219.74
806.69	219.45
807.01	219.05
807.33	219.05
807.65	218.21
807.97	219.10
808.28	218.71
808.60	218.67
808.92	218.50
809.24	219.88
809.56	219.26
809.88	218.38
810.20	218.36
810.52	218.83
810.84	218.76
811.16	218.81
811.48	218.62
811.80	219.19
812.12	219.19
812.43	219.52
812.75	219.79
813.07	219.31
813.39	219.40
813.71	219.24
814.03	219.00
814.35	219.02
814.67	218.40
814.98	218.26
815.30	218.07
815.62	217.52
815.94	216.12
816.26	216.29
816.58	216.14
816.89	216.38
817.21	215.57
817.53	215.50
817.85	215.38
818.17	215.29
818.48	214.36
818.80	214.81
819.12	214.71
819.44	214.26
819.76	214.17
820.07	213.98
820.39	213.93
820.71	214.02
821.03	214.21
821.34	213.95
821.66	214.26
821.98	214.45
822.30	214.48
822.61	215.64
822.93	215.57
823.25	215.36
823.57	214.88
823.88	215.36
824.20	215.62
824.52	215.98
824.83	215.95
825.15	216.00
825.47	215.79
825.79	215.71
826.10	215.83
826.42	216.02
826.74	216.36
827.05	216.33
827.37	216.36
827.69	216.12
828.00	216.29
828.32	216.10
828.64	215.95
828.95	216.90
829.27	216.14
829.58	215.93
829.90	216.29
830.22	216.40
830.53	216.21
830.85	215.90
831.17	215.55
831.48	215.45
831.80	215.48
832.11	215.24
832.43	214.90
832.75	214.83
833.06	215.90
833.38	215.26
833.69	215.21
834.01	215.38
834.32	215.38
834.64	214.98
834.96	214.79
835.27	214.71
835.59	214.21
835.90	213.83
836.22	213.95
836.53	213.38
836.85	213.33
837.16	215.12
837.48	215.24
837.79	215.76
838.11	215.90
838.42	215.83
838.74	216.33
839.05	216.21
839.37	216.29
839.68	214.98
840.00	215.07
840.31	215.26
840.63	214.93
840.94	214.64
841.26	214.55
841.57	214.71
841.88	214.95
842.20	214.64
842.51	214.29
842.83	214.21
843.14	216.21
843.46	216.45
843.77	215.26
844.08	215.07
844.40	214.52
844.71	214.21
845.03	214.17
845.34	213.86
845.65	213.71
845.97	213.64
846.28	213.95
846.60	214.05
846.91	213.83
847.22	214.02
847.54	214.55
847.85	214.90
848.16	214.93
848.48	214.67
848.79	215.67
849.10	216.17
849.42	216.26
849.73	214.57
850.04	214.21
850.36	213.57
850.67	213.95
850.98	213.81
851.30	214.14
851.61	213.98
851.92	214.05
852.23	214.79
852.55	214.74
852.86	214.86
853.17	214.90
853.49	215.24
853.80	215.48
854.11	215.60
854.42	215.55
854.74	215.12
855.05	215.07
855.36	213.86
855.67	213.98
855.99	214.05
856.30	216.29
856.61	216.29
856.92	216.43
857.23	216.38
857.55	216.43
857.86	216.02
858.17	216.36
858.48	215.90
858.79	215.43
859.11	215.71
859.42	215.60
859.73	215.52
860.04	215.76
860.35	215.00
860.66	214.43
860.98	214.33
861.29	214.48
861.60	214.19
861.91	214.62
862.22	214.07
862.53	213.60
862.84	211.19
863.16	211.71
863.47	211.26
863.78	211.10
864.09	211.33
864.40	211.62
864.71	211.50
865.02	212.05
865.33	211.83
865.64	211.33
865.95	211.02
866.27	212.19
866.58	211.76
866.89	212.14
867.20	212.02
867.51	211.81
867.82	211.88
868.13	212.69
868.44	212.14
868.75	212.55
869.06	212.76
869.37	212.98
869.68	212.38
869.99	212.90
870.30	213.05
870.61	213.00
870.92	212.88
871.23	212.90
871.54	212.71
871.85	213.29
872.16	213.93
872.47	213.81
872.78	212.83
873.09	212.81
873.40	212.64
873.71	212.74
874.02	213.10
874.33	213.00
874.64	212.40
874.95	212.79
875.26	212.48
875.56	212.64
875.87	212.48
876.18	212.38
876.49	214.31
876.80	214.00
877.11	213.52
877.42	213.62
877.73	213.55
878.04	213.29
878.35	213.17
878.66	213.12
878.96	213.10
879.27	212.86
879.58	213.00
879.89	212.98
880.20	213.62
880.51	213.52
880.82	213.43
881.12	213.62
881.43	213.24
881.74	213.19
882.05	212.76
882.36	212.81
882.67	213.00
882.97	210.83
883.28	210.64
883.59	210.76
883.90	210.90
884.21	210.98
884.51	211.00
884.82	210.62
885.13	210.24
885.44	210.31
885.74	210.26
886.05	210.02
886.36	210.00
886.67	209.19
886.98	210.21
887.28	210.33
887.59	210.45
887.90	210.52
888.20	210.38
888.51	210.71
888.82	210.48
889.13	210.74
889.43	212.45
889.74	212.57
890.05	212.57
890.35	212.38
890.66	212.29
890.97	212.17
891.28	212.17
891.58	212.50
891.89	212.50
892.20	212.43
892.50	212.36
892.81	212.21
893.12	212.19
893.42	211.02
893.73	211.14
894.04	211.07
894.34	211.36
894.65	211.29
894.95	211.29
895.26	211.79
895.57	212.57
895.87	210.74
896.18	211.02
896.48	211.19
896.79	210.93
897.10	211.24
897.40	211.26
897.71	211.60
898.01	211.26
898.32	211.52
898.63	211.45
898.93	211.50
899.24	211.64
899.54	211.81
899.85	211.74
900.15	211.57
900.46	211.43
900.76	211.57
901.07	211.60
901.38	211.62
901.68	211.50
901.99	210.36
902.29	210.33
902.60	210.24
902.90	210.12
903.21	210.33
903.51	210.07
903.82	210.74
904.12	210.62
904.43	210.64
904.73	210.55
905.03	210.64
905.34	212.55
905.64	212.40
905.95	212.26
906.25	212.38
906.56	212.55
906.86	212.71
907.17	212.31
907.47	212.48
907.77	212.12
908.08	211.79
908.38	211.81
908.69	212.10
908.99	212.29
909.30	212.43
909.60	212.36
909.90	212.67
910.21	211.90
910.51	211.83
910.81	212.00
911.12	211.86
911.42	211.86
911.73	209.90
912.03	209.98
912.33	210.60
912.64	210.60
912.94	210.52
913.24	210.10
913.55	210.17
913.85	210.07
914.15	210.62
914.46	210.95
914.76	211.00
915.06	210.81
915.37	210.43
915.67	210.31
915.97	210.38
916.27	209.88
916.58	210.02
916.88	209.64
917.18	209.52
917.49	211.07
917.79	210.98
918.09	211.48
918.39	212.21
918.70	211.90
919.00	211.86
919.30	212.81
919.60	212.76
919.91	212.88
920.21	213.00
920.51	212.62
920.81	212.50
921.12	212.62
921.42	212.67
921.72	212.93
922.02	212.90
922.32	213.24
922.63	213.50
922.93	214.50
923.23	214.79
923.53	214.79
923.83	213.50
924.13	213.71
924.44	213.36
924.74	213.55
925.04	214.19
925.34	213.93
925.64	212.93
925.94	212.95
926.24	213.81
926.55	213.55
926.85	213.86
927.15	213.81
927.45	214.12
927.75	214.02
928.05	214.24
928.35	214.31
928.65	214.52
928.95	214.48
929.26	213.67
929.56	214.10
929.86	214.33
930.16	214.29
930.46	214.19
930.76	214.43
931.06	213.48
931.36	212.95
931.66	213.40
931.96	213.79
932.26	214.05
932.56	213.29
932.86	213.67
933.16	213.71
933.46	213.43
933.76	213.10
934.06	213.74
934.36	214.40
934.66	214.52
934.96	214.31
935.26	214.33
935.56	214.67
935.86	214.17
936.16	213.83
936.46	213.67
936.76	213.52
937.06	213.14
937.36	213.38
937.66	213.52
937.96	213.62
938.26	213.21
938.56	213.14
938.86	213.24
939.16	213.55
939.46	213.55
939.76	213.76
940.06	213.81
940.35	213.26
940.65	212.02
940.95	212.00
941.25	211.48
941.55	211.50
941.85	211.38
942.15	211.86
942.45	212.33
942.75	212.38
943.04	212.43
943.34	212.90
943.64	212.71
943.94	212.12
944.24	212.02
944.54	212.10
944.84	211.88
945.13	211.64
945.43	211.19
945.73	211.29
946.03	211.02
946.33	210.52
946.62	210.43
946.92	210.40
947.22	210.50
947.52	210.83
947.82	210.93
948.11	210.50
948.41	210.19
948.71	209.71
949.01	209.69
949.31	209.67
949.60	209.36
949.90	209.81
950.20	210.02
950.50	210.12
950.79	210.07
951.09	210.55
951.39	210.57
951.69	210.33
951.98	210.60
952.28	210.86
952.58	211.10
952.87	210.95
953.17	211.43
953.47	211.02
953.76	210.86
954.06	210.62
954.36	210.43
954.66	210.05
954.95	210.43
955.25	210.40
955.55	210.55
955.84	210.40
956.14	210.31
956.44	210.43
956.73	210.17
957.03	210.14
957.32	209.93
957.62	209.67
957.92	210.12
958.21	209.86
958.51	212.36
958.81	212.67
959.10	213.07
959.40	213.45
959.69	213.81
959.99	214.05
960.29	214.00
960.58	214.24
960.88	215.29
961.17	215.19
961.47	215.48
961.76	215.26
962.06	215.52
962.36	215.24
962.65	215.33
962.95	215.40
963.24	215.40
963.54	215.43
963.83	215.69
964.13	215.64
964.42	214.95
964.72	213.14
965.01	213.14
965.31	212.88
965.60	212.26
965.90	213.40
966.19	213.05
966.49	213.26
966.78	213.24
967.08	213.05
967.37	213.19
967.67	212.95
967.96	213.40
968.26	213.36
968.55	214.00
968.85	213.88
969.14	213.86
969.43	213.90
969.73	213.74
970.02	213.71
970.32	213.69
970.61	213.79
970.91	213.02
971.20	212.62
971.49	212.64
971.79	213.00
972.08	211.62
972.38	211.83
972.67	211.74
972.96	211.93
973.26	211.31
973.55	211.76
973.85	211.55
974.14	211.43
974.43	211.67
974.73	211.07
975.02	210.62
975.31	210.55
975.61	210.60
975.90	210.45
976.19	210.36
976.49	210.40
976.78	210.60
977.07	210.83
977.37	210.98
977.66	211.10
977.95	210.57
978.24	210.52
978.54	210.81
978.83	210.50
979.12	210.38
979.42	210.48
979.71	210.00
980.00	209.90
980.29	209.90
980.59	209.52
980.88	210.10
981.17	210.21
981.46	210.31
981.76	210.02
982.05	210.69
982.34	210.69
982.63	210.69
982.93	210.79
983.22	211.12
983.51	211.33
983.80	211.45
984.09	211.95
984.39	212.10
984.68	211.79
984.97	211.76
985.26	211.57
985.55	211.76
985.85	211.31
986.14	211.64
986.43	211.69
986.72	211.64
987.01	210.98
987.30	211.14
987.59	210.98
987.89	211.31
988.18	210.76
988.47	210.57
988.76	210.50
989.05	210.36
989.34	209.93
989.63	210.33
989.92	210.05
990.22	209.88
990.51	209.79
990.80	209.62
991.09	210.00
991.38	210.10
991.67	209.88
991.96	209.79
992.25	209.90
992.54	209.64
992.83	209.36
993.12	209.52
993.41	209.62
993.70	210.40
993.99	210.74
994.28	211.07
994.58	211.43
994.87	211.02
995.16	210.90
995.45	210.95
995.74	210.21
996.03	210.60
996.32	210.71
996.61	211.24
996.90	211.33
997.19	211.33
997.48	211.48
997.77	211.45
998.06	211.60
998.34	211.50
998.63	211.50
998.92	211.90
999.21	212.05
999.50	212.33
999.79	211.60
1000.08	211.31
1000.37	211.31
1000.66	210.93
1000.95	211.67
1001.24	211.83
1001.53	212.12
1001.82	212.02
1002.11	211.50
1002.40	211.88
1002.68	212.29
1002.97	213.62
1003.26	213.26
1003.55	213.12
1003.84	213.07
1004.13	213.71
1004.42	213.62
1004.71	213.48
1004.99	213.12
1005.28	213.55
1005.57	213.17
1005.86	213.07
1006.15	213.02
1006.44	212.52
1006.72	212.83
1007.01	212.36
1007.30	212.36
1007.59	211.98
1007.88	212.00
1008.17	212.14
1008.45	211.40
1008.74	210.55
1009.03	209.83
1009.32	209.95
1009.60	209.81
1009.89	209.52
1010.18	208.79
1010.47	208.71
1010.76	208.98
1011.04	209.17
1011.33	209.14
1011.62	209.26
1011.91	209.24
1012.19	209.43
1012.48	209.71
1012.77	209.83
1013.05	210.79
1013.34	210.83
1013.63	210.64
1013.92	210.98
1014.20	210.93
1014.49	211.26
1014.78	211.48
1015.06	210.38
1015.35	210.40
1015.64	210.64
1015.92	211.14
1016.21	211.40
1016.50	211.24
1016.78	211.38
1017.07	211.36
1017.36	210.71
1017.64	210.50
1017.93	210.93
1018.22	210.64
1018.50	210.79
1018.79	210.67
1019.08	209.71
1019.36	209.71
1019.65	209.90
1019.93	210.33
1020.22	210.52
1020.51	211.43
1020.79	211.26
1021.08	209.50
1021.36	212.00
1021.65	211.50
1021.94	209.50
1022.22	210.50
1022.51	209.50
1022.79	220.00
1023.08	212.00
1023.36	234.00
1023.65	208.50
>>>>>End Processed Spectral Data<<<<<
