SpectraSuite Data File
++++++++++++++++++++++++++++++++++++
Date: Tue Apr 02 18:42:46 EDT 2013
User: group
Dark Spectrum Present: No
Reference Spectrum Present: No
Number of Sampled Component Spectra: 1
Spectrometers: USB2E7196
Integration Time (usec): 580000 (USB2E7196)
Spectra Averaged: 2 (USB2E7196)
Boxcar Smoothing: 10 (USB2E7196)
Correct for Electrical Dark: No (USB2E7196)
Strobe/Lamp Enabled: No (USB2E7196)
Correct for Detector Non-linearity: No (USB2E7196)
Correct for Stray Light: No (USB2E7196)
Number of Pixels in Processed Spectrum: 2048
>>>>>Begin Processed Spectral Data<<<<<
339.09	0.00
339.48	194.50
339.86	191.50
340.24	196.50
340.63	200.50
341.01	229.50
341.39	200.00
341.78	204.50
342.16	211.00
342.54	202.00
342.93	197.86
343.31	207.83
343.69	208.45
344.07	209.19
344.46	210.14
344.84	210.69
345.22	209.79
345.60	210.33
345.99	210.76
346.37	210.86
346.75	211.19
347.13	211.21
347.52	211.43
347.90	212.07
348.28	212.00
348.66	212.69
349.05	212.40
349.43	212.62
349.81	213.02
350.19	213.02
350.57	213.31
350.96	213.69
351.34	213.98
351.72	214.12
352.10	214.48
352.48	214.17
352.87	214.33
353.25	214.21
353.63	214.29
354.01	214.26
354.39	214.55
354.77	214.81
355.15	215.36
355.54	215.33
355.92	214.60
356.30	214.74
356.68	215.88
357.06	215.90
357.44	215.64
357.82	215.57
358.20	216.60
358.58	216.48
358.97	216.50
359.35	216.76
359.73	217.24
360.11	217.10
360.49	217.43
360.87	217.38
361.25	217.79
361.63	218.38
362.01	218.38
362.39	218.00
362.77	217.98
363.15	217.64
363.53	217.43
363.91	217.76
364.29	217.60
364.67	215.57
365.05	215.55
365.43	215.74
365.81	216.00
366.19	216.31
366.57	216.90
366.95	216.83
367.33	216.21
367.71	216.07
368.09	216.29
368.47	216.02
368.85	215.64
369.23	215.95
369.61	215.14
369.99	215.74
370.37	216.10
370.75	216.83
371.13	216.55
371.51	216.45
371.89	216.26
372.27	216.38
372.65	216.60
373.03	216.67
373.41	216.43
373.78	216.14
374.16	214.98
374.54	214.33
374.92	214.00
375.30	214.29
375.68	213.74
376.06	213.81
376.44	213.69
376.82	213.95
377.19	213.74
377.57	213.60
377.95	212.93
378.33	212.64
378.71	211.60
379.09	212.00
379.47	212.14
379.84	211.93
380.22	211.79
380.60	211.52
380.98	211.45
381.36	211.40
381.73	211.02
382.11	211.38
382.49	211.50
382.87	211.40
383.25	211.24
383.62	213.79
384.00	213.33
384.38	213.50
384.76	214.05
385.13	214.90
385.51	215.05
385.89	214.86
386.27	214.98
386.64	215.38
387.02	215.21
387.40	214.90
387.78	215.12
388.15	215.17
388.53	215.17
388.91	215.00
389.29	214.98
389.66	215.40
390.04	215.05
390.42	215.38
390.79	215.55
391.17	215.69
391.55	213.62
391.92	213.74
392.30	213.95
392.68	213.55
393.05	213.26
393.43	213.33
393.81	213.31
394.18	213.07
394.56	213.07
394.94	213.52
395.31	213.33
395.69	213.93
396.06	214.31
396.44	214.62
396.82	214.55
397.19	215.71
397.57	215.50
397.95	216.02
398.32	215.55
398.70	215.60
399.07	216.12
399.45	215.86
399.82	215.81
400.20	215.60
400.58	215.31
400.95	214.57
401.33	215.19
401.70	217.00
402.08	217.24
402.45	217.29
402.83	217.86
403.20	218.31
403.58	218.36
403.95	218.86
404.33	218.93
404.71	219.60
405.08	220.67
405.46	220.98
405.83	221.24
406.21	221.50
406.58	221.98
406.96	221.86
407.33	222.67
407.70	223.52
408.08	225.64
408.45	226.76
408.83	227.90
409.20	228.10
409.58	227.64
409.95	228.57
410.33	229.60
410.70	229.64
411.08	230.81
411.45	231.62
411.82	232.38
412.20	234.31
412.57	236.55
412.95	236.02
413.32	238.05
413.69	239.36
414.07	241.17
414.44	243.31
414.82	245.48
415.19	247.86
415.56	249.95
415.94	250.88
416.31	253.48
416.68	256.10
417.06	259.29
417.43	262.74
417.81	266.12
418.18	269.64
418.55	273.31
418.93	277.50
419.30	281.79
419.67	286.17
420.04	290.48
420.42	294.71
420.79	302.10
421.16	307.69
421.54	314.88
421.91	320.88
422.28	326.76
422.66	333.57
423.03	341.10
423.40	348.05
423.77	355.62
424.15	362.95
424.52	370.26
424.89	379.02
425.26	386.81
425.64	394.36
426.01	402.67
426.38	411.48
426.75	420.79
427.13	429.55
427.50	439.21
427.87	449.36
428.24	459.00
428.61	467.43
428.99	478.86
429.36	489.40
429.73	500.62
430.10	512.02
430.47	523.33
430.85	534.40
431.22	546.83
431.59	561.57
431.96	574.17
432.33	589.33
432.70	603.21
433.08	619.29
433.45	635.00
433.82	650.12
434.19	667.62
434.56	684.45
434.93	700.43
435.30	716.48
435.68	733.48
436.05	751.48
436.42	768.71
436.79	784.48
437.16	801.40
437.53	819.69
437.90	837.71
438.27	856.10
438.64	874.31
439.01	892.10
439.38	905.90
439.75	920.90
440.13	937.60
440.50	953.36
440.87	966.24
441.24	979.52
441.61	994.52
441.98	1005.24
442.35	1017.24
442.72	1030.83
443.09	1045.12
443.46	1053.45
443.83	1058.57
444.20	1063.24
444.57	1069.26
444.94	1072.74
445.31	1076.38
445.68	1082.19
446.05	1083.05
446.42	1081.24
446.79	1079.95
447.16	1078.24
447.53	1076.71
447.90	1069.74
448.27	1062.76
448.64	1054.05
449.01	1047.90
449.37	1036.64
449.74	1025.50
450.11	1014.31
450.48	999.48
450.85	982.71
451.22	969.50
451.59	957.29
451.96	945.62
452.33	929.93
452.70	915.64
453.07	898.50
453.43	879.02
453.80	862.14
454.17	846.90
454.54	831.12
454.91	814.52
455.28	798.50
455.65	783.74
456.02	773.05
456.38	760.57
456.75	745.10
457.12	731.86
457.49	719.05
457.86	704.48
458.23	693.95
458.59	682.83
458.96	670.86
459.33	660.21
459.70	649.98
460.07	641.38
460.43	632.14
460.80	623.55
461.17	616.12
461.54	608.48
461.91	600.10
462.27	592.07
462.64	585.45
463.01	578.71
463.38	572.10
463.74	560.60
464.11	553.52
464.48	547.81
464.85	541.76
465.21	537.38
465.58	532.55
465.95	526.19
466.32	520.74
466.68	515.88
467.05	510.95
467.42	505.60
467.78	500.45
468.15	495.19
468.52	491.10
468.88	485.00
469.25	480.24
469.62	476.88
469.98	472.83
470.35	468.95
470.72	465.05
471.08	460.31
471.45	457.48
471.82	455.02
472.18	451.10
472.55	448.17
472.92	444.21
473.28	440.79
473.65	438.10
474.02	435.33
474.38	433.24
474.75	430.93
475.11	428.40
475.48	426.40
475.85	424.31
476.21	422.55
476.58	421.62
476.94	420.55
477.31	419.21
477.67	417.95
478.04	417.17
478.41	416.60
478.77	418.24
479.14	417.14
479.50	416.17
479.87	416.10
480.23	416.14
480.60	416.12
480.96	416.38
481.33	416.55
481.69	416.76
482.06	416.79
482.42	417.40
482.79	417.88
483.15	418.36
483.52	419.50
483.88	419.76
484.25	420.52
484.61	421.36
484.98	422.14
485.34	423.86
485.71	425.29
486.07	426.33
486.44	426.02
486.80	428.07
487.17	429.64
487.53	432.07
487.90	434.10
488.26	436.88
488.62	439.62
488.99	441.93
489.35	444.93
489.72	447.48
490.08	450.17
490.44	452.86
490.81	455.88
491.17	458.64
491.54	462.40
491.90	466.14
492.26	469.86
492.63	473.45
492.99	476.69
493.36	480.57
493.72	485.14
494.08	489.40
494.45	494.36
494.81	499.12
495.17	503.90
495.54	508.81
495.90	513.81
496.26	518.98
496.63	524.05
496.99	529.43
497.35	535.40
497.72	541.36
498.08	547.19
498.44	553.76
498.80	561.00
499.17	567.14
499.53	573.12
499.89	579.76
500.26	586.31
500.62	593.10
500.98	600.60
501.34	607.76
501.71	615.38
502.07	621.45
502.43	628.93
502.79	635.38
503.16	642.40
503.52	648.81
503.88	655.00
504.24	662.98
504.60	670.36
504.97	677.93
505.33	685.38
505.69	694.21
506.05	701.90
506.41	708.57
506.78	716.76
507.14	723.90
507.50	731.74
507.86	740.21
508.22	748.29
508.59	755.21
508.95	763.05
509.31	771.05
509.67	779.62
510.03	786.95
510.39	795.12
510.75	802.83
511.12	811.17
511.48	819.86
511.84	826.90
512.20	834.12
512.56	841.79
512.92	849.33
513.28	856.55
513.64	864.00
514.00	871.57
514.37	878.67
514.73	886.81
515.09	894.31
515.45	901.38
515.81	908.33
516.17	915.38
516.53	922.24
516.89	928.12
517.25	933.57
517.61	940.64
517.97	947.02
518.33	953.86
518.69	960.50
519.05	967.07
519.41	973.76
519.77	980.98
520.13	987.45
520.49	992.74
520.85	998.48
521.21	1005.00
521.57	1010.52
521.93	1015.02
522.29	1021.17
522.65	1026.45
523.01	1032.19
523.37	1036.71
523.73	1041.86
524.09	1047.05
524.45	1051.88
524.81	1057.62
525.17	1062.83
525.53	1067.48
525.89	1072.10
526.25	1076.90
526.61	1080.76
526.97	1085.14
527.33	1089.05
527.68	1094.45
528.04	1099.29
528.40	1102.69
528.76	1106.38
529.12	1111.31
529.48	1116.90
529.84	1120.33
530.20	1124.17
530.56	1127.90
530.91	1132.43
531.27	1136.90
531.63	1141.17
531.99	1144.98
532.35	1149.14
532.71	1152.90
533.07	1157.38
533.42	1163.64
533.78	1167.17
534.14	1172.14
534.50	1176.43
534.86	1181.31
535.21	1183.83
535.57	1188.60
535.93	1193.19
536.29	1198.10
536.65	1201.76
537.00	1205.71
537.36	1209.29
537.72	1213.90
538.08	1217.64
538.44	1221.26
538.79	1224.69
539.15	1227.45
539.51	1231.71
539.87	1235.40
540.22	1238.71
540.58	1242.24
540.94	1243.69
541.29	1246.98
541.65	1248.90
542.01	1252.07
542.37	1253.86
542.72	1256.45
543.08	1258.38
543.44	1261.36
543.79	1262.45
544.15	1265.83
544.51	1268.50
544.87	1272.00
545.22	1274.33
545.58	1276.57
545.94	1279.43
546.29	1282.71
546.65	1286.48
547.01	1288.60
547.36	1291.10
547.72	1293.69
548.07	1296.52
548.43	1298.74
548.79	1301.19
549.14	1304.57
549.50	1307.88
549.86	1310.21
550.21	1313.07
550.57	1316.26
550.92	1318.50
551.28	1322.19
551.64	1324.45
551.99	1326.74
552.35	1329.26
552.70	1332.52
553.06	1335.86
553.41	1339.74
553.77	1343.52
554.13	1345.52
554.48	1350.57
554.84	1355.48
555.19	1359.76
555.55	1364.95
555.90	1369.21
556.26	1373.76
556.61	1377.05
556.97	1379.50
557.32	1384.52
557.68	1388.79
558.03	1392.48
558.39	1396.88
558.74	1400.48
559.10	1404.86
559.45	1409.14
559.81	1413.95
560.16	1417.50
560.52	1421.86
560.87	1426.55
561.23	1430.40
561.58	1436.74
561.94	1439.90
562.29	1443.00
562.64	1447.36
563.00	1450.81
563.35	1455.60
563.71	1460.10
564.06	1466.14
564.42	1471.62
564.77	1476.64
565.12	1482.43
565.48	1489.69
565.83	1496.02
566.19	1502.14
566.54	1507.83
566.89	1513.29
567.25	1518.98
567.60	1526.21
567.96	1534.10
568.31	1540.60
568.66	1546.64
569.02	1551.19
569.37	1557.02
569.72	1562.93
570.08	1567.86
570.43	1572.81
570.78	1578.76
571.14	1585.26
571.49	1590.40
571.84	1596.55
572.20	1601.62
572.55	1606.62
572.90	1609.57
573.26	1613.88
573.61	1618.81
573.96	1623.74
574.31	1629.02
574.67	1633.17
575.02	1637.36
575.37	1639.55
575.72	1641.93
576.08	1646.26
576.43	1649.98
576.78	1653.00
577.13	1656.86
577.49	1660.95
577.84	1664.67
578.19	1668.19
578.54	1671.71
578.90	1675.12
579.25	1677.71
579.60	1680.93
579.95	1683.69
580.30	1687.74
580.66	1691.02
581.01	1694.21
581.36	1697.02
581.71	1699.17
582.06	1703.31
582.42	1705.38
582.77	1707.81
583.12	1711.07
583.47	1713.02
583.82	1716.45
584.17	1719.79
584.53	1722.62
584.88	1725.19
585.23	1728.62
585.58	1731.26
585.93	1732.71
586.28	1735.40
586.63	1738.98
586.98	1741.95
587.34	1745.12
587.69	1746.50
588.04	1748.79
588.39	1751.21
588.74	1751.50
589.09	1754.43
589.44	1754.12
589.79	1755.36
590.14	1757.26
590.49	1758.62
590.84	1760.33
591.19	1761.24
591.54	1763.05
591.89	1764.52
592.25	1768.24
592.60	1767.93
592.95	1768.48
593.30	1770.24
593.65	1770.48
594.00	1769.83
594.35	1775.81
594.70	1775.33
595.05	1776.98
595.40	1777.52
595.75	1778.02
596.10	1780.43
596.45	1781.21
596.80	1783.38
597.15	1784.62
597.50	1785.52
597.85	1787.00
598.19	1786.40
598.54	1786.17
598.89	1786.45
599.24	1787.95
599.59	1786.74
599.94	1787.05
600.29	1787.29
600.64	1786.86
600.99	1787.43
601.34	1788.95
601.69	1783.45
602.04	1782.90
602.39	1782.05
602.74	1782.36
603.08	1780.93
603.43	1781.74
603.78	1781.12
604.13	1779.62
604.48	1778.02
604.83	1777.81
605.18	1776.64
605.53	1776.33
605.87	1776.02
606.22	1774.31
606.57	1772.21
606.92	1769.90
607.27	1769.55
607.62	1769.36
607.96	1768.90
608.31	1768.36
608.66	1766.19
609.01	1763.83
609.36	1763.45
609.70	1762.45
610.05	1759.55
610.40	1758.24
610.75	1754.69
611.10	1752.10
611.44	1749.69
611.79	1747.76
612.14	1745.33
612.49	1742.00
612.83	1739.52
613.18	1735.88
613.53	1733.33
613.88	1729.76
614.22	1726.40
614.57	1721.62
614.92	1716.86
615.27	1712.19
615.61	1707.90
615.96	1704.12
616.31	1701.24
616.65	1697.69
617.00	1693.81
617.35	1691.02
617.70	1687.79
618.04	1683.10
618.39	1679.19
618.74	1675.38
619.08	1670.95
619.43	1667.48
619.78	1663.88
620.12	1660.31
620.47	1657.17
620.82	1652.48
621.16	1647.79
621.51	1644.60
621.85	1641.12
622.20	1637.17
622.55	1633.12
622.89	1628.67
623.24	1625.05
623.59	1620.62
623.93	1616.69
624.28	1612.86
624.62	1610.33
624.97	1606.55
625.32	1603.36
625.66	1599.07
626.01	1594.86
626.35	1591.93
626.70	1586.79
627.04	1584.38
627.39	1579.79
627.73	1576.81
628.08	1573.64
628.43	1569.90
628.77	1565.38
629.12	1561.98
629.46	1557.14
629.81	1552.64
630.15	1547.64
630.50	1542.29
630.84	1538.31
631.19	1532.19
631.53	1527.31
631.88	1519.55
632.22	1513.36
632.57	1508.36
632.91	1503.29
633.26	1498.50
633.60	1493.14
633.95	1487.31
634.29	1480.71
634.64	1476.21
634.98	1470.05
635.32	1465.33
635.67	1460.81
636.01	1456.12
636.36	1450.33
636.70	1446.38
637.05	1442.19
637.39	1438.02
637.73	1433.67
638.08	1428.98
638.42	1424.93
638.77	1420.10
639.11	1415.81
639.45	1410.81
639.80	1404.83
640.14	1400.33
640.49	1394.95
640.83	1389.26
641.17	1384.48
641.52	1378.21
641.86	1372.86
642.20	1368.60
642.55	1362.90
642.89	1356.67
643.23	1350.21
643.58	1345.50
643.92	1339.07
644.26	1332.64
644.61	1326.69
644.95	1319.79
645.29	1312.67
645.64	1306.79
645.98	1300.05
646.32	1294.24
646.66	1287.31
647.01	1281.38
647.35	1274.88
647.69	1269.26
648.04	1263.33
648.38	1257.57
648.72	1252.40
649.06	1245.71
649.41	1238.57
649.75	1231.60
650.09	1225.31
650.43	1219.48
650.78	1212.67
651.12	1205.79
651.46	1199.24
651.80	1192.40
652.14	1187.10
652.49	1181.21
652.83	1174.26
653.17	1167.40
653.51	1160.52
653.85	1154.38
654.20	1148.83
654.54	1142.38
654.88	1134.79
655.22	1129.52
655.56	1122.38
655.90	1115.64
656.25	1109.12
656.59	1102.98
656.93	1096.76
657.27	1091.17
657.61	1083.98
657.95	1077.45
658.29	1071.17
658.64	1065.12
658.98	1058.64
659.32	1051.90
659.66	1044.74
660.00	1038.98
660.34	1033.33
660.68	1027.00
661.02	1020.83
661.36	1014.21
661.70	1008.29
662.05	1003.02
662.39	995.81
662.73	991.07
663.07	985.95
663.41	979.81
663.75	972.60
664.09	967.17
664.43	960.83
664.77	955.21
665.11	948.93
665.45	943.67
665.79	937.98
666.13	931.81
666.47	925.62
666.81	920.00
667.15	913.67
667.49	907.88
667.83	902.86
668.17	897.40
668.51	891.50
668.85	885.74
669.19	880.69
669.53	874.81
669.87	867.71
670.21	861.40
670.55	855.36
670.89	851.14
671.23	845.02
671.57	839.52
671.91	834.55
672.25	829.50
672.58	824.48
672.92	818.62
673.26	813.95
673.60	808.86
673.94	803.71
674.28	798.81
674.62	793.76
674.96	788.36
675.30	783.36
675.64	778.45
675.97	773.43
676.31	767.83
676.65	762.79
676.99	759.48
677.33	754.38
677.67	750.10
678.01	744.45
678.34	739.98
678.68	735.62
679.02	730.29
679.36	724.81
679.70	719.10
680.04	714.62
680.37	709.38
680.71	704.45
681.05	699.98
681.39	694.69
681.73	689.57
682.06	684.69
682.40	680.14
682.74	676.00
683.08	672.00
683.42	667.40
683.75	663.21
684.09	657.24
684.43	652.48
684.77	647.86
685.10	643.10
685.44	638.52
685.78	633.83
686.12	629.24
686.45	625.31
686.79	620.50
687.13	616.36
687.46	612.14
687.80	608.69
688.14	604.62
688.48	601.36
688.81	597.33
689.15	593.79
689.49	589.29
689.82	584.81
690.16	579.76
690.50	575.57
690.83	571.10
691.17	566.95
691.51	562.93
691.84	559.38
692.18	555.52
692.52	551.36
692.85	547.69
693.19	545.00
693.52	541.21
693.86	537.86
694.20	533.60
694.53	530.26
694.87	526.26
695.21	522.12
695.54	518.33
695.88	514.40
696.21	509.93
696.55	506.24
696.88	502.50
697.22	499.00
697.56	496.00
697.89	492.50
698.23	489.60
698.56	485.95
698.90	482.24
699.23	478.86
699.57	475.74
699.90	472.24
700.24	468.57
700.58	465.24
700.91	462.71
701.25	461.45
701.58	458.88
701.92	456.07
702.25	453.19
702.59	449.71
702.92	447.17
703.26	444.36
703.59	441.64
703.93	441.05
704.26	438.64
704.60	435.79
704.93	433.05
705.26	430.52
705.60	428.48
705.93	425.29
706.27	423.45
706.60	421.38
706.94	419.69
707.27	416.74
707.61	414.55
707.94	411.52
708.27	407.50
708.61	404.40
708.94	401.88
709.28	399.79
709.61	397.48
709.94	395.24
710.28	393.29
710.61	391.50
710.95	387.19
711.28	386.29
711.61	384.02
711.95	382.48
712.28	380.10
712.61	377.93
712.95	377.36
713.28	375.93
713.61	373.38
713.95	370.50
714.28	368.60
714.61	366.50
714.95	364.69
715.28	362.81
715.61	361.02
715.95	359.05
716.28	356.79
716.61	355.48
716.95	353.60
717.28	351.71
717.61	349.76
717.94	348.19
718.28	344.83
718.61	342.98
718.94	340.88
719.27	339.02
719.61	337.29
719.94	334.67
720.27	332.00
720.60	330.40
720.94	328.76
721.27	327.71
721.60	326.76
721.93	325.29
722.27	324.43
722.60	323.12
722.93	321.60
723.26	320.50
723.59	318.71
723.93	317.64
724.26	316.67
724.59	315.21
724.92	313.88
725.25	313.33
725.59	311.93
725.92	311.00
726.25	310.17
726.58	309.17
726.91	308.36
727.24	307.67
727.57	306.81
727.91	305.76
728.24	304.60
728.57	303.17
728.90	302.38
729.23	300.79
729.56	300.57
729.89	299.64
730.22	298.79
730.55	297.90
730.89	296.60
731.22	295.38
731.55	294.60
731.88	293.60
732.21	292.33
732.54	291.45
732.87	290.57
733.20	289.74
733.53	288.90
733.86	288.12
734.19	286.79
734.52	285.93
734.85	286.45
735.18	285.55
735.51	285.19
735.84	284.71
736.17	284.38
736.50	282.60
736.83	283.98
737.16	283.00
737.49	282.26
737.82	281.43
738.15	280.74
738.48	280.07
738.81	279.38
739.14	278.36
739.47	277.69
739.80	276.83
740.13	275.98
740.46	275.05
740.79	274.12
741.12	273.38
741.45	272.50
741.78	270.62
742.11	270.40
742.44	269.52
742.77	268.90
743.10	267.90
743.43	267.24
743.75	264.67
744.08	266.69
744.41	265.88
744.74	265.33
745.07	264.38
745.40	264.05
745.73	264.21
746.06	263.69
746.39	263.36
746.71	262.52
747.04	261.98
747.37	261.07
747.70	260.93
748.03	260.64
748.36	260.48
748.68	259.83
749.01	258.64
749.34	257.98
749.67	257.29
750.00	257.21
750.33	258.36
750.65	257.98
750.98	255.00
751.31	254.38
751.64	254.05
751.97	254.76
752.29	253.88
752.62	252.31
752.95	251.74
753.28	250.83
753.60	250.07
753.93	250.02
754.26	249.67
754.59	248.67
754.91	247.83
755.24	247.43
755.57	246.95
755.90	246.62
756.22	245.90
756.55	245.26
756.88	244.31
757.20	242.36
757.53	241.43
757.86	240.95
758.19	240.93
758.51	240.48
758.84	239.00
759.17	238.48
759.49	238.48
759.82	239.43
760.15	239.57
760.47	239.52
760.80	238.55
761.13	238.81
761.45	238.17
761.78	238.05
762.11	237.62
762.43	237.12
762.76	236.50
763.08	236.62
763.41	236.67
763.74	236.55
764.06	236.52
764.39	236.12
764.71	235.74
765.04	235.36
765.37	234.71
765.69	234.45
766.02	234.12
766.34	233.79
766.67	232.52
767.00	232.62
767.32	233.50
767.65	234.45
767.97	233.81
768.30	234.10
768.62	233.50
768.95	232.86
769.27	232.67
769.60	232.79
769.92	231.98
770.25	231.21
770.57	230.55
770.90	230.07
771.22	230.12
771.55	230.12
771.87	229.98
772.20	230.12
772.52	231.55
772.85	234.14
773.17	234.17
773.50	234.02
773.82	233.26
774.15	232.07
774.47	230.50
774.80	230.14
775.12	229.90
775.45	230.07
775.77	230.07
776.09	230.12
776.42	230.00
776.74	230.62
777.07	230.64
777.39	230.86
777.72	230.57
778.04	230.45
778.36	230.02
778.69	229.83
779.01	229.69
779.33	227.95
779.66	225.29
779.98	224.93
780.31	224.86
780.63	225.67
780.95	225.95
781.28	226.02
781.60	225.90
781.92	225.55
782.25	225.29
782.57	225.26
782.89	224.90
783.22	224.62
783.54	223.83
783.86	223.76
784.19	223.50
784.51	224.05
784.83	223.79
785.16	223.50
785.48	223.29
785.80	223.19
786.12	223.33
786.45	223.10
786.77	222.88
787.09	222.50
787.42	221.48
787.74	221.48
788.06	221.38
788.38	221.40
788.71	221.26
789.03	221.55
789.35	221.57
789.67	221.36
789.99	221.40
790.32	221.40
790.64	221.57
790.96	222.90
791.28	221.90
791.61	221.81
791.93	221.83
792.25	221.71
792.57	223.12
792.89	222.57
793.21	222.62
793.54	222.62
793.86	222.64
794.18	222.74
794.50	222.14
794.82	222.14
795.14	222.19
795.47	222.45
795.79	222.24
796.11	221.79
796.43	221.71
796.75	221.62
797.07	221.69
797.39	221.36
797.71	219.88
798.04	220.24
798.36	220.24
798.68	220.31
799.00	220.57
799.32	219.19
799.64	219.64
799.96	219.67
800.28	220.02
800.60	219.74
800.92	219.71
801.24	219.76
801.56	219.76
801.89	219.57
802.21	219.55
802.53	219.05
802.85	219.38
803.17	220.17
803.49	219.98
803.81	219.64
804.13	219.69
804.45	219.81
804.77	219.90
805.09	219.83
805.41	219.50
805.73	219.17
806.05	218.83
806.37	218.48
806.69	218.12
807.01	217.76
807.33	217.95
807.65	217.55
807.97	218.24
808.28	218.26
808.60	218.26
808.92	218.10
809.24	219.36
809.56	218.86
809.88	218.31
810.20	218.33
810.52	218.79
810.84	218.33
811.16	217.81
811.48	217.52
811.80	218.38
812.12	218.45
812.43	218.71
812.75	218.90
813.07	218.81
813.39	219.19
813.71	219.05
814.03	218.79
814.35	218.79
814.67	217.98
814.98	217.50
815.30	217.40
815.62	217.19
815.94	215.88
816.26	216.12
816.58	215.71
816.89	215.90
817.21	215.40
817.53	215.48
817.85	215.55
818.17	215.62
818.48	214.67
818.80	214.95
819.12	214.45
819.44	213.95
819.76	213.60
820.07	213.33
820.39	213.29
820.71	213.33
821.03	213.31
821.34	213.14
821.66	213.83
821.98	214.07
822.30	213.76
822.61	214.90
822.93	214.60
823.25	214.74
823.57	214.38
823.88	214.88
824.20	214.86
824.52	215.12
824.83	215.17
825.15	214.86
825.47	214.50
825.79	214.71
826.10	214.67
826.42	214.71
826.74	215.07
827.05	214.83
827.37	214.79
827.69	214.79
828.00	215.14
828.32	214.52
828.64	214.12
828.95	215.19
829.27	214.62
829.58	214.71
829.90	214.71
830.22	214.79
830.53	214.17
830.85	213.83
831.17	213.36
831.48	213.29
831.80	213.62
832.11	213.71
832.43	213.52
832.75	213.62
833.06	214.81
833.38	214.07
833.69	214.12
834.01	214.12
834.32	213.93
834.64	213.67
834.96	214.10
835.27	214.10
835.59	213.48
835.90	213.07
836.22	213.26
836.53	212.76
836.85	212.83
837.16	214.83
837.48	215.17
837.79	215.79
838.11	215.64
838.42	215.62
838.74	215.88
839.05	215.67
839.37	215.60
839.68	214.29
840.00	214.29
840.31	214.64
840.63	214.52
840.94	214.36
841.26	213.98
841.57	213.86
841.88	213.98
842.20	213.74
842.51	213.57
842.83	213.50
843.14	215.43
843.46	215.21
843.77	214.17
844.08	213.88
844.40	213.29
844.71	213.19
845.03	212.76
845.34	212.45
845.65	212.71
845.97	212.74
846.28	212.88
846.60	213.12
846.91	212.76
847.22	212.86
847.54	213.40
847.85	213.50
848.16	213.29
848.48	213.02
848.79	213.86
849.10	214.12
849.42	214.10
849.73	212.40
850.04	212.36
850.36	211.52
850.67	212.10
850.98	212.29
851.30	212.60
851.61	212.95
851.92	213.10
852.23	213.67
852.55	213.76
852.86	214.00
853.17	214.07
853.49	214.62
853.80	215.12
854.11	215.21
854.42	215.55
854.74	215.31
855.05	215.33
855.36	214.14
855.67	214.31
855.99	214.31
856.30	216.71
856.61	216.83
856.92	217.02
857.23	216.95
857.55	216.74
857.86	216.60
858.17	216.69
858.48	216.36
858.79	215.64
859.11	215.86
859.42	215.55
859.73	215.29
860.04	214.93
860.35	214.19
860.66	213.45
860.98	213.36
861.29	213.76
861.60	213.69
861.91	214.29
862.22	214.02
862.53	213.74
862.84	211.19
863.16	211.50
863.47	211.14
863.78	210.86
864.09	211.00
864.40	211.07
864.71	210.83
865.02	211.21
865.33	211.14
865.64	210.83
865.95	210.90
866.27	212.43
866.58	212.24
866.89	212.45
867.20	212.50
867.51	212.10
867.82	211.95
868.13	212.69
868.44	212.31
868.75	212.86
869.06	213.19
869.37	213.52
869.68	213.19
869.99	213.55
870.30	213.79
870.61	213.88
870.92	213.62
871.23	213.52
871.54	213.86
871.85	214.29
872.16	214.57
872.47	214.50
872.78	212.88
873.09	213.24
873.40	213.19
873.71	213.52
874.02	213.79
874.33	213.62
874.64	213.10
874.95	213.62
875.26	212.83
875.56	212.40
875.87	212.29
876.18	212.38
876.49	214.40
876.80	214.12
877.11	213.90
877.42	213.95
877.73	214.10
878.04	213.40
878.35	213.48
878.66	213.48
878.96	213.45
879.27	213.57
879.58	213.43
879.89	213.33
880.20	213.81
880.51	213.60
880.82	213.50
881.12	213.79
881.43	213.19
881.74	213.33
882.05	213.62
882.36	213.93
882.67	213.67
882.97	211.62
883.28	211.43
883.59	211.31
883.90	211.64
884.21	212.17
884.51	211.98
884.82	211.62
885.13	211.38
885.44	211.38
885.74	211.48
886.05	211.43
886.36	211.69
886.67	210.98
886.98	212.26
887.28	212.45
887.59	212.43
887.90	212.50
888.20	212.36
888.51	212.52
888.82	212.02
889.13	212.19
889.43	213.83
889.74	214.02
890.05	213.93
890.35	213.60
890.66	213.12
890.97	213.19
891.28	213.07
891.58	213.24
891.89	213.17
892.20	213.05
892.50	212.79
892.81	212.45
893.12	212.55
893.42	211.60
893.73	211.76
894.04	211.45
894.34	211.69
894.65	211.60
894.95	211.40
895.26	211.52
895.57	212.45
895.87	210.29
896.18	210.40
896.48	210.74
896.79	210.79
897.10	210.98
897.40	211.02
897.71	211.29
898.01	211.14
898.32	211.64
898.63	211.55
898.93	211.71
899.24	211.79
899.54	211.48
899.85	211.17
900.15	211.05
900.46	211.21
900.76	211.45
901.07	211.26
901.38	211.17
901.68	211.43
901.99	210.31
902.29	210.67
902.60	210.57
902.90	210.24
903.21	210.19
903.51	210.12
903.82	210.62
904.12	210.52
904.43	210.52
904.73	210.33
905.03	210.48
905.34	212.43
905.64	212.38
905.95	212.74
906.25	212.81
906.56	212.62
906.86	212.48
907.17	212.29
907.47	212.50
907.77	212.38
908.08	211.79
908.38	212.00
908.69	212.07
908.99	212.64
909.30	212.88
909.60	213.00
909.90	212.86
910.21	212.31
910.51	212.14
910.81	212.07
911.12	212.05
911.42	212.02
911.73	209.60
912.03	209.86
912.33	210.14
912.64	210.19
912.94	210.21
913.24	209.88
913.55	209.45
913.85	209.31
914.15	209.83
914.46	210.05
914.76	209.88
915.06	209.64
915.37	209.05
915.67	209.00
915.97	208.98
916.27	208.67
916.58	208.76
916.88	208.69
917.18	208.79
917.49	210.17
917.79	210.36
918.09	211.12
918.39	211.48
918.70	211.24
919.00	211.07
919.30	211.98
919.60	212.14
919.91	212.05
920.21	212.14
920.51	211.52
920.81	211.52
921.12	211.95
921.42	212.12
921.72	212.24
922.02	212.24
922.32	212.48
922.63	212.52
922.93	213.52
923.23	213.79
923.53	213.38
923.83	212.17
924.13	212.26
924.44	211.90
924.74	212.12
925.04	212.55
925.34	212.64
925.64	211.98
925.94	211.86
926.24	213.33
926.55	213.10
926.85	213.74
927.15	214.05
927.45	214.12
927.75	214.26
928.05	214.36
928.35	214.19
928.65	214.36
928.95	214.81
929.26	213.90
929.56	214.19
929.86	214.76
930.16	214.45
930.46	214.10
930.76	214.26
931.06	213.40
931.36	212.95
931.66	213.33
931.96	213.40
932.26	213.57
932.56	212.43
932.86	212.74
933.16	212.43
933.46	212.10
933.76	211.64
934.06	211.98
934.36	212.67
934.66	212.60
934.96	212.45
935.26	212.57
935.56	212.90
935.86	212.36
936.16	212.05
936.46	211.90
936.76	211.90
937.06	211.67
937.36	211.69
937.66	211.76
937.96	211.79
938.26	211.45
938.56	211.38
938.86	211.48
939.16	212.17
939.46	212.55
939.76	212.86
940.06	213.00
940.35	212.38
940.65	211.36
940.95	211.86
941.25	211.29
941.55	210.98
941.85	210.95
942.15	211.40
942.45	212.05
942.75	211.95
943.04	212.14
943.34	212.50
943.64	212.57
943.94	212.33
944.24	212.36
944.54	212.14
944.84	211.90
945.13	211.81
945.43	211.38
945.73	211.19
946.03	210.86
946.33	210.43
946.62	210.33
946.92	210.36
947.22	210.36
947.52	210.55
947.82	210.67
948.11	210.45
948.41	209.98
948.71	209.45
949.01	209.67
949.31	209.55
949.60	209.50
949.90	209.69
950.20	209.64
950.50	209.45
950.79	209.64
951.09	210.02
951.39	209.88
951.69	209.60
951.98	210.00
952.28	210.10
952.58	210.14
952.87	210.10
953.17	210.33
953.47	210.05
953.76	210.19
954.06	209.98
954.36	209.62
954.66	209.69
954.95	210.10
955.25	210.36
955.55	210.64
955.84	210.33
956.14	210.60
956.44	210.93
956.73	210.60
957.03	210.71
957.32	210.83
957.62	210.71
957.92	211.24
958.21	211.00
958.51	213.43
958.81	213.81
959.10	214.31
959.40	214.71
959.69	214.71
959.99	214.88
960.29	214.88
960.58	215.07
960.88	215.79
961.17	215.48
961.47	215.64
961.76	215.12
962.06	215.55
962.36	215.36
962.65	215.19
962.95	215.52
963.24	215.17
963.54	214.88
963.83	215.19
964.13	214.93
964.42	214.40
964.72	212.81
965.01	212.83
965.31	212.69
965.60	212.12
965.90	213.64
966.19	213.10
966.49	213.24
966.78	213.17
967.08	212.93
967.37	213.05
967.67	212.60
967.96	212.90
968.26	212.81
968.55	212.88
968.85	212.62
969.14	212.36
969.43	212.57
969.73	212.57
970.02	212.48
970.32	212.40
970.61	212.33
970.91	211.52
971.20	211.12
971.49	210.62
971.79	210.90
972.08	209.17
972.38	209.55
972.67	209.40
972.96	209.86
973.26	209.64
973.55	210.26
973.85	210.38
974.14	210.21
974.43	210.31
974.73	209.86
975.02	209.79
975.31	209.74
975.61	209.81
975.90	209.62
976.19	209.60
976.49	209.69
976.78	209.71
977.07	209.69
977.37	210.00
977.66	210.62
977.95	210.26
978.24	210.50
978.54	210.90
978.83	210.74
979.12	210.57
979.42	210.52
979.71	209.98
980.00	209.90
980.29	210.10
980.59	209.67
980.88	210.21
981.17	210.31
981.46	210.38
981.76	210.45
982.05	211.21
982.34	211.24
982.63	211.19
982.93	211.38
983.22	212.05
983.51	212.02
983.80	212.12
984.09	212.48
984.39	212.43
984.68	212.12
984.97	212.17
985.26	211.93
985.55	212.17
985.85	211.79
986.14	212.02
986.43	212.36
986.72	212.38
987.01	211.93
987.30	211.83
987.59	211.86
987.89	211.90
988.18	211.19
988.47	210.98
988.76	210.86
989.05	210.76
989.34	210.55
989.63	211.21
989.92	210.95
990.22	210.67
990.51	210.52
990.80	210.31
991.09	210.67
991.38	210.69
991.67	210.24
991.96	210.24
992.25	210.21
992.54	209.81
992.83	209.76
993.12	209.69
993.41	210.10
993.70	210.95
993.99	210.95
994.28	211.60
994.58	211.93
994.87	211.81
995.16	211.74
995.45	211.33
995.74	210.50
996.03	210.95
996.32	211.43
996.61	211.86
996.90	211.86
997.19	211.57
997.48	211.79
997.77	211.74
998.06	211.81
998.34	211.62
998.63	211.52
998.92	211.64
999.21	211.93
999.50	212.14
999.79	211.50
1000.08	211.50
1000.37	211.17
1000.66	210.90
1000.95	211.50
1001.24	211.64
1001.53	212.02
1001.82	212.26
1002.11	211.57
1002.40	211.74
1002.68	212.12
1002.97	213.67
1003.26	213.69
1003.55	213.40
1003.84	213.62
1004.13	214.52
1004.42	214.50
1004.71	214.64
1004.99	214.71
1005.28	215.21
1005.57	214.83
1005.86	214.64
1006.15	214.67
1006.44	214.45
1006.72	214.71
1007.01	214.33
1007.30	214.33
1007.59	214.14
1007.88	213.98
1008.17	214.21
1008.45	213.67
1008.74	213.05
1009.03	212.17
1009.32	212.17
1009.60	212.17
1009.89	211.88
1010.18	210.90
1010.47	210.90
1010.76	210.76
1011.04	210.45
1011.33	210.40
1011.62	210.69
1011.91	210.90
1012.19	211.10
1012.48	211.12
1012.77	211.00
1013.05	211.90
1013.34	211.86
1013.63	211.88
1013.92	211.95
1014.20	211.69
1014.49	211.74
1014.78	211.88
1015.06	211.10
1015.35	210.88
1015.64	211.12
1015.92	211.45
1016.21	211.43
1016.50	211.36
1016.78	211.76
1017.07	211.83
1017.36	211.50
1017.64	211.05
1017.93	211.14
1018.22	211.05
1018.50	211.21
1018.79	211.21
1019.08	210.19
1019.36	210.31
1019.65	209.86
1019.93	210.36
1020.22	210.71
1020.51	211.88
1020.79	211.71
1021.08	213.50
1021.36	210.50
1021.65	211.00
1021.94	209.50
1022.22	211.50
1022.51	204.00
1022.79	221.00
1023.08	213.00
1023.36	236.50
1023.65	208.00
>>>>>End Processed Spectral Data<<<<<
