SpectraSuite Data File
++++++++++++++++++++++++++++++++++++
Date: Tue Apr 02 18:41:22 EDT 2013
User: group
Dark Spectrum Present: No
Reference Spectrum Present: No
Number of Sampled Component Spectra: 1
Spectrometers: USB2E7196
Integration Time (usec): 580000 (USB2E7196)
Spectra Averaged: 2 (USB2E7196)
Boxcar Smoothing: 10 (USB2E7196)
Correct for Electrical Dark: No (USB2E7196)
Strobe/Lamp Enabled: No (USB2E7196)
Correct for Detector Non-linearity: No (USB2E7196)
Correct for Stray Light: No (USB2E7196)
Number of Pixels in Processed Spectrum: 2048
>>>>>Begin Processed Spectral Data<<<<<
339.09	0.00
339.48	193.50
339.86	195.00
340.24	197.00
340.63	201.50
341.01	232.50
341.39	200.00
341.78	212.00
342.16	212.00
342.54	206.50
342.93	199.48
343.31	209.48
343.69	210.00
344.07	210.57
344.46	211.26
344.84	211.88
345.22	210.57
345.60	211.21
345.99	211.17
346.37	211.05
346.75	211.26
347.13	211.31
347.52	211.38
347.90	211.98
348.28	211.90
348.66	212.33
349.05	211.64
349.43	211.95
349.81	211.90
350.19	212.05
350.57	212.00
350.96	212.05
351.34	212.10
351.72	212.50
352.10	212.52
352.48	212.36
352.87	212.12
353.25	212.05
353.63	211.76
354.01	211.90
354.39	212.12
354.77	212.17
355.15	212.64
355.54	212.31
355.92	211.62
356.30	211.79
356.68	212.88
357.06	212.76
357.44	212.26
357.82	212.14
358.20	212.90
358.58	213.02
358.97	213.02
359.35	213.48
359.73	213.55
360.11	213.64
360.49	213.74
360.87	213.83
361.25	214.26
361.63	214.83
362.01	214.50
362.39	214.31
362.77	214.31
363.15	213.98
363.53	214.26
363.91	214.50
364.29	214.19
364.67	212.40
365.05	212.55
365.43	213.05
365.81	213.24
366.19	213.33
366.57	213.95
366.95	213.98
367.33	213.43
367.71	213.29
368.09	213.69
368.47	213.67
368.85	213.38
369.23	213.67
369.61	213.00
369.99	213.93
370.37	214.14
370.75	214.90
371.13	214.76
371.51	214.40
371.89	214.50
372.27	214.88
372.65	215.02
373.03	215.14
373.41	214.86
373.78	214.98
374.16	213.95
374.54	213.38
374.92	213.21
375.30	213.29
375.68	213.10
376.06	213.14
376.44	213.31
376.82	213.57
377.19	213.40
377.57	213.62
377.95	212.74
378.33	212.55
378.71	211.48
379.09	211.86
379.47	212.14
379.84	212.10
380.22	211.98
380.60	211.88
380.98	211.67
381.36	211.62
381.73	211.29
382.11	211.86
382.49	211.90
382.87	211.57
383.25	211.62
383.62	214.12
384.00	213.60
384.38	213.57
384.76	214.05
385.13	215.19
385.51	215.26
385.89	215.07
386.27	215.31
386.64	215.83
387.02	215.48
387.40	215.50
387.78	215.67
388.15	215.81
388.53	215.74
388.91	215.90
389.29	215.98
389.66	216.26
390.04	215.93
390.42	216.36
390.79	216.64
391.17	216.79
391.55	214.38
391.92	214.57
392.30	214.81
392.68	214.40
393.05	214.00
393.43	213.95
393.81	214.36
394.18	214.12
394.56	214.17
394.94	214.64
395.31	214.60
395.69	215.05
396.06	215.29
396.44	215.52
396.82	215.33
397.19	216.19
397.57	216.14
397.95	216.50
398.32	215.93
398.70	216.29
399.07	216.57
399.45	216.52
399.82	216.67
400.20	216.40
400.58	216.38
400.95	215.67
401.33	216.12
401.70	217.62
402.08	217.88
402.45	217.74
402.83	218.38
403.20	218.50
403.58	218.43
403.95	218.88
404.33	219.26
404.71	219.71
405.08	221.10
405.46	221.21
405.83	221.50
406.21	221.98
406.58	222.48
406.96	222.86
407.33	223.60
407.70	224.24
408.08	226.38
408.45	227.40
408.83	228.43
409.20	228.88
409.58	228.40
409.95	229.43
410.33	230.52
410.70	230.81
411.08	231.98
411.45	233.12
411.82	234.02
412.20	235.69
412.57	237.98
412.95	237.50
413.32	239.45
413.69	240.64
414.07	242.31
414.44	244.05
414.82	246.00
415.19	248.52
415.56	250.95
415.94	252.14
416.31	254.88
416.68	257.83
417.06	261.29
417.43	265.07
417.81	268.55
418.18	272.48
418.55	276.19
418.93	280.43
419.30	284.50
419.67	288.67
420.04	292.93
420.42	297.48
420.79	305.12
421.16	310.64
421.54	318.00
421.91	324.02
422.28	330.69
422.66	337.67
423.03	345.50
423.40	352.43
423.77	359.88
424.15	367.29
424.52	375.17
424.89	383.74
425.26	391.12
425.64	398.90
426.01	407.26
426.38	416.50
426.75	426.10
427.13	435.83
427.50	446.17
427.87	456.38
428.24	466.40
428.61	474.69
428.99	486.93
429.36	497.69
429.73	509.93
430.10	520.95
430.47	532.93
430.85	544.21
431.22	557.43
431.59	572.62
431.96	585.64
432.33	600.05
432.70	614.05
433.08	631.29
433.45	647.21
433.82	662.71
434.19	679.55
434.56	696.74
434.93	712.76
435.30	729.02
435.68	747.50
436.05	765.52
436.42	783.17
436.79	798.60
437.16	816.93
437.53	835.00
437.90	853.95
438.27	872.00
438.64	890.69
439.01	907.74
439.38	921.45
439.75	937.05
440.13	954.05
440.50	970.64
440.87	983.76
441.24	997.36
441.61	1012.76
441.98	1025.05
442.35	1037.60
442.72	1051.24
443.09	1065.19
443.46	1073.05
443.83	1079.05
444.20	1084.24
444.57	1091.38
444.94	1094.33
445.31	1098.33
445.68	1103.81
446.05	1105.29
446.42	1103.86
446.79	1102.71
447.16	1101.40
447.53	1100.45
447.90	1094.38
448.27	1087.50
448.64	1078.81
449.01	1073.40
449.37	1062.62
449.74	1050.74
450.11	1038.93
450.48	1023.45
450.85	1007.05
451.22	994.07
451.59	980.83
451.96	968.45
452.33	951.95
452.70	937.50
453.07	919.74
453.43	900.21
453.80	883.90
454.17	868.10
454.54	852.48
454.91	835.74
455.28	818.95
455.65	803.21
456.02	791.14
456.38	777.90
456.75	760.93
457.12	746.62
457.49	733.64
457.86	719.60
458.23	709.36
458.59	697.31
458.96	685.12
459.33	674.43
459.70	663.24
460.07	654.55
460.43	644.55
460.80	635.76
461.17	627.95
461.54	618.48
461.91	609.64
462.27	601.14
462.64	593.79
463.01	585.81
463.38	579.64
463.74	568.93
464.11	561.90
464.48	556.10
464.85	549.50
465.21	545.21
465.58	539.43
465.95	532.69
466.32	527.36
466.68	521.95
467.05	516.57
467.42	511.74
467.78	506.24
468.15	500.81
468.52	496.40
468.88	490.52
469.25	486.33
469.62	483.29
469.98	478.76
470.35	475.36
470.72	472.00
471.08	466.95
471.45	464.00
471.82	461.00
472.18	457.31
472.55	454.76
472.92	450.19
473.28	447.12
473.65	444.10
474.02	441.31
474.38	439.05
474.75	437.24
475.11	434.98
475.48	433.26
475.85	431.45
476.21	429.81
476.58	428.69
476.94	427.07
477.31	425.07
477.67	424.40
478.04	423.00
478.41	422.07
478.77	423.33
479.14	422.02
479.50	421.33
479.87	421.05
480.23	420.57
480.60	420.52
480.96	420.48
481.33	421.24
481.69	421.14
482.06	421.10
482.42	421.45
482.79	422.02
483.15	422.24
483.52	423.19
483.88	423.52
484.25	423.86
484.61	424.88
484.98	425.67
485.34	427.24
485.71	429.19
486.07	430.81
486.44	430.38
486.80	432.17
487.17	433.81
487.53	436.48
487.90	438.88
488.26	441.83
488.62	444.62
488.99	446.57
489.35	449.38
489.72	451.86
490.08	454.43
490.44	457.19
490.81	460.52
491.17	463.90
491.54	467.33
491.90	471.55
492.26	475.57
492.63	479.86
492.99	483.05
493.36	486.69
493.72	490.95
494.08	495.48
494.45	501.02
494.81	505.88
495.17	510.60
495.54	515.55
495.90	520.45
496.26	525.40
496.63	531.43
496.99	536.95
497.35	542.76
497.72	548.60
498.08	554.88
498.44	560.93
498.80	567.14
499.17	573.76
499.53	579.88
499.89	586.43
500.26	593.43
500.62	600.81
500.98	608.45
501.34	615.57
501.71	623.05
502.07	629.74
502.43	636.67
502.79	643.21
503.16	650.10
503.52	656.88
503.88	663.83
504.24	671.31
504.60	679.24
504.97	687.48
505.33	695.57
505.69	703.79
506.05	711.50
506.41	719.60
506.78	727.90
507.14	735.60
507.50	743.93
507.86	751.93
508.22	759.81
508.59	767.31
508.95	775.40
509.31	784.12
509.67	792.12
510.03	800.69
510.39	809.33
510.75	817.95
511.12	826.62
511.48	835.14
511.84	842.43
512.20	850.21
512.56	858.26
512.92	865.71
513.28	873.50
513.64	881.45
514.00	889.05
514.37	896.24
514.73	904.90
515.09	912.43
515.45	919.79
515.81	927.10
516.17	934.26
516.53	940.55
516.89	946.88
517.25	953.69
517.61	960.40
517.97	966.19
518.33	972.90
518.69	979.79
519.05	986.88
519.41	993.64
519.77	1001.26
520.13	1006.98
520.49	1012.76
520.85	1018.02
521.21	1025.07
521.57	1030.67
521.93	1035.90
522.29	1040.69
522.65	1045.74
523.01	1051.40
523.37	1057.19
523.73	1062.36
524.09	1068.57
524.45	1074.12
524.81	1078.90
525.17	1083.83
525.53	1089.60
525.89	1094.90
526.25	1099.45
526.61	1103.74
526.97	1108.29
527.33	1111.67
527.68	1118.10
528.04	1123.43
528.40	1128.74
528.76	1132.19
529.12	1136.83
529.48	1143.10
529.84	1147.60
530.20	1152.33
530.56	1156.81
530.91	1161.33
531.27	1165.98
531.63	1170.05
531.99	1174.14
532.35	1178.93
532.71	1183.88
533.07	1188.55
533.42	1195.24
533.78	1199.95
534.14	1204.40
534.50	1208.19
534.86	1213.69
535.21	1216.64
535.57	1221.05
535.93	1224.71
536.29	1230.36
536.65	1235.26
537.00	1237.95
537.36	1242.02
537.72	1245.69
538.08	1250.02
538.44	1252.67
538.79	1257.21
539.15	1261.60
539.51	1265.24
539.87	1269.17
540.22	1272.43
540.58	1276.14
540.94	1277.12
541.29	1281.38
541.65	1284.64
542.01	1288.67
542.37	1291.50
542.72	1294.31
543.08	1296.57
543.44	1300.40
543.79	1302.40
544.15	1305.05
544.51	1309.38
544.87	1313.24
545.22	1316.67
545.58	1318.95
545.94	1322.90
546.29	1325.86
546.65	1328.05
547.01	1331.07
547.36	1333.81
547.72	1337.38
548.07	1340.67
548.43	1343.55
548.79	1345.76
549.14	1348.38
549.50	1352.36
549.86	1354.52
550.21	1358.00
550.57	1362.57
550.92	1365.69
551.28	1369.12
551.64	1373.00
551.99	1375.86
552.35	1379.07
552.70	1382.05
553.06	1386.64
553.41	1389.74
553.77	1394.52
554.13	1398.86
554.48	1403.19
554.84	1408.02
555.19	1412.26
555.55	1417.81
555.90	1422.60
556.26	1427.74
556.61	1432.90
556.97	1435.76
557.32	1440.76
557.68	1445.67
558.03	1449.76
558.39	1453.55
558.74	1457.81
559.10	1461.74
559.45	1466.19
559.81	1470.86
560.16	1475.90
560.52	1480.36
560.87	1486.24
561.23	1489.38
561.58	1495.98
561.94	1500.52
562.29	1504.74
562.64	1510.02
563.00	1513.12
563.35	1517.10
563.71	1521.76
564.06	1526.79
564.42	1532.98
564.77	1538.93
565.12	1544.79
565.48	1552.19
565.83	1559.52
566.19	1565.10
566.54	1570.38
566.89	1576.10
567.25	1582.14
567.60	1589.29
567.96	1596.69
568.31	1603.26
568.66	1609.88
569.02	1613.81
569.37	1619.33
569.72	1625.02
570.08	1630.43
570.43	1636.05
570.78	1641.93
571.14	1646.19
571.49	1650.38
571.84	1655.05
572.20	1659.31
572.55	1663.31
572.90	1665.33
573.26	1668.50
573.61	1673.19
573.96	1677.88
574.31	1682.29
574.67	1685.76
575.02	1689.40
575.37	1690.62
575.72	1693.00
576.08	1695.79
576.43	1699.29
576.78	1702.48
577.13	1705.21
577.49	1707.74
577.84	1711.26
578.19	1714.83
578.54	1719.50
578.90	1724.07
579.25	1727.24
579.60	1730.33
579.95	1732.31
580.30	1735.76
580.66	1738.95
581.01	1742.02
581.36	1744.83
581.71	1746.17
582.06	1750.38
582.42	1752.29
582.77	1754.93
583.12	1757.95
583.47	1760.60
583.82	1763.60
584.17	1766.12
584.53	1770.60
584.88	1772.86
585.23	1775.05
585.58	1776.64
585.93	1777.62
586.28	1780.00
586.63	1782.50
586.98	1784.26
587.34	1787.50
587.69	1788.90
588.04	1790.38
588.39	1791.17
588.74	1791.79
589.09	1794.43
589.44	1792.81
589.79	1793.55
590.14	1795.24
590.49	1794.86
590.84	1795.98
591.19	1796.62
591.54	1797.38
591.89	1796.26
592.25	1798.71
592.60	1798.24
592.95	1799.24
593.30	1800.26
593.65	1799.60
594.00	1798.81
594.35	1805.10
594.70	1803.43
595.05	1804.12
595.40	1803.93
595.75	1805.14
596.10	1806.02
596.45	1805.81
596.80	1806.57
597.15	1806.81
597.50	1805.95
597.85	1807.33
598.19	1806.93
598.54	1806.67
598.89	1806.43
599.24	1806.74
599.59	1805.17
599.94	1804.93
600.29	1804.21
600.64	1804.12
600.99	1803.48
601.34	1803.64
601.69	1796.67
602.04	1796.55
602.39	1795.90
602.74	1795.36
603.08	1793.31
603.43	1792.90
603.78	1791.64
604.13	1790.19
604.48	1788.76
604.83	1787.64
605.18	1786.48
605.53	1784.12
605.87	1781.62
606.22	1779.57
606.57	1777.48
606.92	1775.36
607.27	1774.07
607.62	1771.98
607.96	1769.43
608.31	1768.07
608.66	1766.48
609.01	1764.55
609.36	1762.57
609.70	1760.05
610.05	1757.26
610.40	1755.21
610.75	1751.60
611.10	1749.17
611.44	1747.14
611.79	1743.45
612.14	1739.74
612.49	1734.50
612.83	1732.21
613.18	1728.98
613.53	1724.67
613.88	1719.71
614.22	1715.48
614.57	1710.83
614.92	1706.17
615.27	1701.24
615.61	1695.43
615.96	1690.31
616.31	1685.31
616.65	1681.29
617.00	1677.05
617.35	1672.12
617.70	1667.55
618.04	1663.31
618.39	1658.55
618.74	1653.36
619.08	1648.64
619.43	1644.90
619.78	1641.36
620.12	1637.12
620.47	1632.33
620.82	1627.98
621.16	1623.69
621.51	1619.12
621.85	1614.10
622.20	1609.45
622.55	1604.10
622.89	1599.88
623.24	1596.26
623.59	1591.64
623.93	1586.83
624.28	1582.31
624.62	1580.57
624.97	1575.69
625.32	1570.57
625.66	1566.12
626.01	1561.26
626.35	1557.64
626.70	1552.48
627.04	1548.52
627.39	1543.62
627.73	1540.19
628.08	1536.60
628.43	1532.55
628.77	1528.88
629.12	1524.62
629.46	1520.76
629.81	1516.76
630.15	1511.45
630.50	1505.40
630.84	1500.71
631.19	1495.48
631.53	1489.17
631.88	1480.38
632.22	1474.17
632.57	1469.17
632.91	1462.95
633.26	1457.29
633.60	1451.50
633.95	1446.00
634.29	1438.95
634.64	1432.69
634.98	1425.93
635.32	1421.07
635.67	1415.93
636.01	1409.38
636.36	1404.07
636.70	1398.95
637.05	1393.19
637.39	1389.00
637.73	1383.55
638.08	1378.55
638.42	1372.98
638.77	1368.14
639.11	1363.05
639.45	1357.88
639.80	1351.83
640.14	1346.12
640.49	1340.74
640.83	1334.67
641.17	1329.14
641.52	1322.50
641.86	1317.36
642.20	1312.43
642.55	1304.83
642.89	1297.88
643.23	1291.17
643.58	1285.45
643.92	1277.10
644.26	1270.55
644.61	1263.05
644.95	1256.62
645.29	1248.62
645.64	1242.10
645.98	1235.29
646.32	1230.02
646.66	1223.24
647.01	1216.17
647.35	1210.36
647.69	1204.12
648.04	1197.83
648.38	1192.00
648.72	1186.50
649.06	1180.02
649.41	1172.43
649.75	1165.98
650.09	1159.50
650.43	1153.12
650.78	1145.21
651.12	1139.43
651.46	1132.55
651.80	1125.90
652.14	1119.48
652.49	1114.38
652.83	1108.38
653.17	1100.98
653.51	1092.79
653.85	1086.07
654.20	1079.98
654.54	1072.52
654.88	1065.10
655.22	1058.52
655.56	1051.14
655.90	1044.60
656.25	1037.26
656.59	1031.17
656.93	1024.98
657.27	1019.50
657.61	1012.86
657.95	1007.64
658.29	1001.60
658.64	996.48
658.98	990.26
659.32	983.26
659.66	976.24
660.00	969.98
660.34	963.79
660.68	958.21
661.02	952.69
661.36	946.21
661.70	940.67
662.05	935.57
662.39	930.40
662.73	924.71
663.07	919.76
663.41	914.02
663.75	907.74
664.09	901.57
664.43	894.17
664.77	888.12
665.11	881.81
665.45	876.02
665.79	869.38
666.13	862.90
666.47	857.29
666.81	852.17
667.15	846.24
667.49	841.55
667.83	837.21
668.17	831.93
668.51	826.69
668.85	821.38
669.19	816.10
669.53	809.05
669.87	802.64
670.21	796.45
670.55	790.67
670.89	786.69
671.23	781.48
671.57	776.88
671.91	772.19
672.25	766.86
672.58	763.05
672.92	757.88
673.26	753.50
673.60	748.76
673.94	743.43
674.28	738.31
674.62	733.74
674.96	728.31
675.30	723.21
675.64	718.38
675.97	713.76
676.31	708.83
676.65	704.57
676.99	701.79
677.33	697.45
677.67	693.60
678.01	687.83
678.34	683.14
678.68	678.90
679.02	673.90
679.36	669.02
679.70	663.17
680.04	658.88
680.37	654.43
680.71	650.07
681.05	646.14
681.39	641.86
681.73	637.19
682.06	632.19
682.40	627.69
682.74	623.76
683.08	619.90
683.42	615.24
683.75	611.29
684.09	605.43
684.43	601.05
684.77	596.24
685.10	591.88
685.44	588.02
685.78	583.74
686.12	579.71
686.45	575.93
686.79	571.57
687.13	567.81
687.46	563.83
687.80	560.31
688.14	556.00
688.48	552.14
688.81	548.29
689.15	545.31
689.49	541.50
689.82	537.57
690.16	532.33
690.50	528.60
690.83	524.33
691.17	520.48
691.51	516.74
691.84	513.19
692.18	509.67
692.52	506.17
692.85	502.83
693.19	500.43
693.52	496.86
693.86	493.79
694.20	490.12
694.53	487.07
694.87	483.29
695.21	479.86
695.54	476.55
695.88	472.64
696.21	468.05
696.55	464.50
696.88	461.33
697.22	458.60
697.56	455.64
697.89	452.81
698.23	450.31
698.56	447.21
698.90	444.69
699.23	441.29
699.57	438.21
699.90	435.02
700.24	431.40
700.58	428.40
700.91	425.79
701.25	424.69
701.58	422.45
701.92	420.12
702.25	417.33
702.59	414.69
702.92	412.43
703.26	410.79
703.59	408.57
703.93	407.45
704.26	405.50
704.60	403.36
704.93	401.00
705.26	398.36
705.60	396.43
705.93	393.88
706.27	392.76
706.60	391.07
706.94	390.05
707.27	387.79
707.61	386.40
707.94	384.19
708.27	380.81
708.61	378.19
708.94	376.26
709.28	374.69
709.61	372.33
709.94	370.55
710.28	368.21
710.61	366.31
710.95	363.02
711.28	362.38
711.61	360.33
711.95	358.98
712.28	357.40
712.61	355.26
712.95	354.12
713.28	353.17
713.61	351.00
713.95	348.69
714.28	347.05
714.61	345.21
714.95	343.33
715.28	341.26
715.61	339.64
715.95	338.02
716.28	336.07
716.61	335.17
716.95	333.36
717.28	331.98
717.61	330.48
717.94	329.14
718.28	326.07
718.61	324.55
718.94	322.71
719.27	321.40
719.61	320.40
719.94	318.57
720.27	315.74
720.60	314.50
720.94	312.88
721.27	311.88
721.60	310.55
721.93	309.21
722.27	308.98
722.60	308.02
722.93	306.33
723.26	305.62
723.59	303.76
723.93	302.60
724.26	301.71
724.59	300.67
724.92	299.52
725.25	299.12
725.59	298.12
725.92	297.02
726.25	295.76
726.58	294.60
726.91	293.79
727.24	293.36
727.57	292.17
727.91	291.31
728.24	290.52
728.57	289.57
728.90	288.98
729.23	287.57
729.56	287.38
729.89	286.76
730.22	285.33
730.55	284.57
730.89	284.00
731.22	283.07
731.55	282.31
731.88	281.62
732.21	280.74
732.54	279.98
732.87	279.50
733.20	279.05
733.53	278.26
733.86	277.69
734.19	276.43
734.52	276.31
734.85	276.69
735.18	275.69
735.51	275.55
735.84	275.00
736.17	274.52
736.50	272.76
736.83	274.45
737.16	274.38
737.49	273.93
737.82	273.00
738.15	272.60
738.48	272.24
738.81	271.50
739.14	270.33
739.47	269.19
739.80	268.43
740.13	267.95
740.46	267.10
740.79	265.93
741.12	265.33
741.45	264.12
741.78	262.64
742.11	262.79
742.44	261.67
742.77	261.55
743.10	260.69
743.43	260.26
743.75	257.55
744.08	259.05
744.41	258.19
744.74	257.50
745.07	256.50
745.40	255.90
745.73	256.31
746.06	256.05
746.39	256.12
746.71	255.62
747.04	254.71
747.37	254.17
747.70	253.95
748.03	253.67
748.36	253.62
748.68	252.83
749.01	251.45
749.34	251.10
749.67	250.43
750.00	250.38
750.33	251.50
750.65	251.26
750.98	248.50
751.31	248.40
751.64	248.36
751.97	249.10
752.29	248.48
752.62	247.12
752.95	246.60
753.28	245.93
753.60	245.38
753.93	245.69
754.26	245.60
754.59	244.69
754.91	243.81
755.24	243.10
755.57	243.02
755.90	242.69
756.22	242.26
756.55	241.69
756.88	240.98
757.20	239.17
757.53	238.38
757.86	238.05
758.19	237.83
758.51	237.38
758.84	235.93
759.17	235.43
759.49	235.12
759.82	235.90
760.15	235.90
760.47	235.67
760.80	234.64
761.13	234.67
761.45	234.31
761.78	234.31
762.11	234.43
762.43	234.00
762.76	233.69
763.08	233.69
763.41	233.55
763.74	233.29
764.06	232.90
764.39	232.52
764.71	232.26
765.04	231.90
765.37	231.45
765.69	231.38
766.02	231.14
766.34	230.86
766.67	229.64
767.00	229.64
767.32	230.69
767.65	231.98
767.97	231.69
768.30	231.93
768.62	231.83
768.95	231.19
769.27	230.74
769.60	230.90
769.92	230.17
770.25	229.60
770.57	229.10
770.90	229.10
771.22	228.74
771.55	228.57
771.87	228.48
772.20	228.33
772.52	229.88
772.85	232.31
773.17	232.21
773.50	232.05
773.82	231.62
774.15	230.29
774.47	228.81
774.80	228.45
775.12	228.31
775.45	228.19
775.77	228.14
776.09	228.26
776.42	228.12
776.74	228.81
777.07	228.83
777.39	228.86
777.72	228.74
778.04	228.93
778.36	228.64
778.69	228.62
779.01	228.55
779.33	226.52
779.66	224.05
779.98	223.86
780.31	223.83
780.63	224.45
780.95	224.64
781.28	224.38
781.60	224.00
781.92	223.74
782.25	223.52
782.57	223.69
782.89	223.45
783.22	223.02
783.54	222.43
783.86	222.26
784.19	221.88
784.51	222.24
784.83	221.90
785.16	221.90
785.48	221.69
785.80	221.67
786.12	222.02
786.45	221.79
786.77	221.69
787.09	221.40
787.42	220.64
787.74	220.74
788.06	220.76
788.38	220.55
788.71	220.33
789.03	220.50
789.35	220.57
789.67	220.17
789.99	220.17
790.32	219.83
790.64	220.21
790.96	221.95
791.28	221.24
791.61	220.98
791.93	221.10
792.25	220.88
792.57	222.40
792.89	221.74
793.21	221.76
793.54	221.62
793.86	221.38
794.18	221.40
794.50	221.14
794.82	221.40
795.14	221.86
795.47	222.17
795.79	221.86
796.11	221.24
796.43	221.31
796.75	221.43
797.07	221.50
797.39	221.21
797.71	219.93
798.04	220.14
798.36	220.31
798.68	220.10
799.00	220.29
799.32	218.90
799.64	219.52
799.96	219.52
800.28	219.74
800.60	219.62
800.92	219.64
801.24	219.17
801.56	219.12
801.89	218.79
802.21	218.98
802.53	218.81
802.85	219.26
803.17	220.19
803.49	219.64
803.81	219.40
804.13	219.29
804.45	218.76
804.77	218.71
805.09	218.67
805.41	218.64
805.73	218.10
806.05	217.88
806.37	217.38
806.69	216.95
807.01	216.83
807.33	216.95
807.65	216.36
807.97	217.52
808.28	217.17
808.60	217.29
808.92	216.81
809.24	218.19
809.56	217.93
809.88	217.05
810.20	217.38
810.52	217.71
810.84	217.21
811.16	217.00
811.48	216.76
811.80	217.52
812.12	217.33
812.43	217.83
812.75	217.90
813.07	217.69
813.39	218.07
813.71	217.88
814.03	217.81
814.35	218.02
814.67	217.21
814.98	216.76
815.30	216.43
815.62	216.14
815.94	214.55
816.26	214.55
816.58	214.24
816.89	214.21
817.21	213.98
817.53	214.21
817.85	214.40
818.17	214.45
818.48	213.62
818.80	214.14
819.12	213.60
819.44	213.31
819.76	213.45
820.07	213.48
820.39	213.52
820.71	213.64
821.03	213.45
821.34	212.95
821.66	213.57
821.98	213.90
822.30	214.00
822.61	215.48
822.93	215.24
823.25	215.14
823.57	214.93
823.88	215.02
824.20	214.93
824.52	215.05
824.83	214.95
825.15	214.98
825.47	214.69
825.79	215.10
826.10	214.81
826.42	214.48
826.74	214.50
827.05	214.40
827.37	214.45
827.69	214.45
828.00	214.83
828.32	214.79
828.64	214.33
828.95	215.38
829.27	214.93
829.58	215.07
829.90	215.48
830.22	215.60
830.53	215.19
830.85	215.21
831.17	215.05
831.48	214.83
831.80	214.67
832.11	214.55
832.43	214.24
832.75	214.36
833.06	215.88
833.38	215.36
833.69	215.26
834.01	215.33
834.32	215.19
834.64	214.83
834.96	214.79
835.27	214.74
835.59	213.90
835.90	213.17
836.22	213.05
836.53	212.45
836.85	212.26
837.16	214.43
837.48	214.31
837.79	215.02
838.11	215.29
838.42	215.33
838.74	215.57
839.05	215.52
839.37	215.48
839.68	213.98
840.00	214.05
840.31	214.29
840.63	214.02
840.94	214.00
841.26	213.88
841.57	213.69
841.88	214.19
842.20	213.86
842.51	213.90
842.83	213.98
843.14	216.02
843.46	216.31
843.77	215.36
844.08	215.45
844.40	214.74
844.71	214.67
845.03	214.60
845.34	214.36
845.65	214.29
845.97	214.33
846.28	214.38
846.60	214.43
846.91	214.02
847.22	214.21
847.54	214.57
847.85	214.71
848.16	214.62
848.48	214.14
848.79	215.24
849.10	215.36
849.42	215.52
849.73	213.57
850.04	213.48
850.36	212.69
850.67	213.02
850.98	212.83
851.30	213.07
851.61	213.02
851.92	213.07
852.23	213.83
852.55	213.98
852.86	214.26
853.17	214.43
853.49	215.02
853.80	215.33
854.11	215.57
854.42	215.90
854.74	215.71
855.05	215.81
855.36	214.76
855.67	214.64
855.99	214.45
856.30	216.98
856.61	216.55
856.92	216.62
857.23	216.48
857.55	216.43
857.86	216.14
858.17	216.33
858.48	216.10
858.79	215.50
859.11	215.50
859.42	215.40
859.73	215.29
860.04	215.26
860.35	214.62
860.66	213.88
860.98	213.81
861.29	214.07
861.60	213.95
861.91	214.24
862.22	214.12
862.53	213.86
862.84	211.26
863.16	211.98
863.47	211.55
863.78	211.38
864.09	211.62
864.40	211.69
864.71	211.64
865.02	211.81
865.33	211.67
865.64	211.50
865.95	211.67
866.27	212.95
866.58	212.62
866.89	212.93
867.20	212.98
867.51	212.74
867.82	212.67
868.13	213.24
868.44	212.76
868.75	213.19
869.06	213.29
869.37	213.50
869.68	212.90
869.99	213.12
870.30	213.29
870.61	213.50
870.92	213.29
871.23	213.10
871.54	213.21
871.85	213.62
872.16	213.98
872.47	213.55
872.78	212.21
873.09	212.38
873.40	212.21
873.71	212.48
874.02	212.43
874.33	212.24
874.64	211.86
874.95	212.50
875.26	212.00
875.56	212.17
875.87	212.45
876.18	212.38
876.49	214.48
876.80	214.33
877.11	213.76
877.42	214.00
877.73	214.43
878.04	214.38
878.35	214.21
878.66	214.07
878.96	214.19
879.27	214.05
879.58	213.93
879.89	213.81
880.20	214.36
880.51	214.29
880.82	214.31
881.12	214.36
881.43	213.62
881.74	213.50
882.05	213.36
882.36	213.21
882.67	213.45
882.97	211.29
883.28	211.00
883.59	211.12
883.90	211.12
884.21	211.40
884.51	211.29
884.82	211.12
885.13	211.19
885.44	211.19
885.74	211.36
886.05	211.29
886.36	211.36
886.67	210.38
886.98	211.29
887.28	211.55
887.59	211.83
887.90	211.88
888.20	211.90
888.51	212.36
888.82	212.10
889.13	212.33
889.43	213.93
889.74	213.86
890.05	214.00
890.35	213.76
890.66	213.14
890.97	213.05
891.28	212.81
891.58	212.64
891.89	212.52
892.20	212.19
892.50	211.88
892.81	211.74
893.12	212.02
893.42	211.26
893.73	211.29
894.04	210.98
894.34	211.38
894.65	211.21
894.95	210.76
895.26	210.93
895.57	211.74
895.87	209.90
896.18	210.19
896.48	210.24
896.79	210.38
897.10	210.69
897.40	210.67
897.71	211.02
898.01	211.05
898.32	211.33
898.63	211.50
898.93	211.74
899.24	211.79
899.54	211.69
899.85	211.60
900.15	211.38
900.46	211.33
900.76	211.57
901.07	211.57
901.38	211.79
901.68	212.10
901.99	211.24
902.29	211.33
902.60	211.24
902.90	211.12
903.21	210.90
903.51	210.88
903.82	211.33
904.12	211.38
904.43	211.45
904.73	211.29
905.03	211.38
905.34	213.29
905.64	213.29
905.95	213.24
906.25	213.17
906.56	213.31
906.86	213.52
907.17	213.26
907.47	213.31
907.77	212.98
908.08	212.55
908.38	212.57
908.69	212.86
908.99	213.45
909.30	213.52
909.60	213.69
909.90	213.88
910.21	213.33
910.51	213.10
910.81	213.05
911.12	213.26
911.42	213.29
911.73	211.14
912.03	211.36
912.33	211.79
912.64	211.67
912.94	211.62
913.24	211.19
913.55	211.21
913.85	211.24
914.15	211.86
914.46	212.17
914.76	211.88
915.06	211.67
915.37	211.05
915.67	211.00
915.97	211.00
916.27	210.40
916.58	210.64
916.88	210.45
917.18	210.38
917.49	211.64
917.79	211.64
918.09	211.98
918.39	212.38
918.70	212.29
919.00	212.36
919.30	213.12
919.60	213.07
919.91	212.74
920.21	212.81
920.51	212.21
920.81	212.10
921.12	212.50
921.42	212.62
921.72	212.88
922.02	212.83
922.32	213.19
922.63	213.24
922.93	214.00
923.23	214.21
923.53	214.19
923.83	212.86
924.13	212.95
924.44	213.07
924.74	213.36
925.04	213.88
925.34	214.00
925.64	213.21
925.94	213.14
926.24	214.36
926.55	214.19
926.85	214.17
927.15	214.14
927.45	214.12
927.75	214.07
928.05	214.02
928.35	214.10
928.65	214.43
928.95	214.64
929.26	213.90
929.56	214.29
929.86	214.52
930.16	214.40
930.46	214.26
930.76	214.14
931.06	213.21
931.36	212.60
931.66	212.88
931.96	213.19
932.26	213.55
932.56	212.67
932.86	212.81
933.16	213.10
933.46	212.86
933.76	212.74
934.06	213.21
934.36	214.00
934.66	213.86
934.96	213.33
935.26	213.55
935.56	213.95
935.86	213.19
936.16	212.74
936.46	212.60
936.76	212.74
937.06	212.57
937.36	212.79
937.66	212.90
937.96	212.62
938.26	212.21
938.56	212.02
938.86	212.24
939.16	212.88
939.46	213.02
939.76	213.36
940.06	213.07
940.35	212.55
940.65	211.45
940.95	211.71
941.25	211.50
941.55	211.21
941.85	211.00
942.15	211.90
942.45	212.38
942.75	212.43
943.04	212.43
943.34	212.93
943.64	212.64
943.94	212.29
944.24	212.38
944.54	212.50
944.84	212.26
945.13	211.88
945.43	211.45
945.73	211.43
946.03	210.93
946.33	210.81
946.62	210.79
946.92	210.86
947.22	211.00
947.52	211.07
947.82	211.33
948.11	211.24
948.41	210.55
948.71	210.40
949.01	210.48
949.31	210.26
949.60	210.17
949.90	210.48
950.20	210.62
950.50	210.62
950.79	210.48
951.09	210.95
951.39	210.81
951.69	210.45
951.98	210.76
952.28	211.21
952.58	211.33
952.87	211.26
953.17	211.33
953.47	211.05
953.76	211.05
954.06	210.79
954.36	210.36
954.66	210.43
954.95	210.90
955.25	210.88
955.55	211.24
955.84	210.81
956.14	211.05
956.44	211.05
956.73	210.86
957.03	210.90
957.32	210.79
957.62	210.76
957.92	211.31
958.21	211.12
958.51	213.48
958.81	213.52
959.10	213.95
959.40	214.48
959.69	214.52
959.99	214.60
960.29	214.48
960.58	214.52
960.88	215.19
961.17	214.74
961.47	215.17
961.76	214.93
962.06	215.36
962.36	214.81
962.65	214.88
962.95	215.05
963.24	214.86
963.54	215.19
963.83	215.45
964.13	215.40
964.42	214.90
964.72	213.02
965.01	213.07
965.31	212.74
965.60	212.29
965.90	213.93
966.19	213.74
966.49	213.93
966.78	213.95
967.08	213.71
967.37	213.79
967.67	213.14
967.96	213.50
968.26	213.24
968.55	213.71
968.85	213.64
969.14	213.55
969.43	213.52
969.73	213.14
970.02	213.05
970.32	212.76
970.61	212.71
970.91	212.07
971.20	211.88
971.49	211.71
971.79	212.02
972.08	210.33
972.38	210.36
972.67	210.12
972.96	210.50
973.26	210.45
973.55	211.10
973.85	211.33
974.14	211.24
974.43	211.33
974.73	211.07
975.02	210.83
975.31	210.90
975.61	211.17
975.90	210.95
976.19	210.71
976.49	210.83
976.78	211.10
977.07	211.10
977.37	211.31
977.66	211.57
977.95	211.14
978.24	211.26
978.54	211.76
978.83	211.71
979.12	211.50
979.42	211.17
979.71	210.55
980.00	210.29
980.29	210.10
980.59	209.74
980.88	210.21
981.17	210.29
981.46	210.14
981.76	209.79
982.05	210.64
982.34	210.76
982.63	210.90
982.93	210.74
983.22	211.40
983.51	211.43
983.80	211.69
984.09	212.07
984.39	211.88
984.68	211.40
984.97	211.64
985.26	211.40
985.55	211.55
985.85	211.17
986.14	211.74
986.43	212.00
986.72	212.10
987.01	211.48
987.30	211.48
987.59	211.33
987.89	211.64
988.18	210.98
988.47	210.90
988.76	210.55
989.05	210.40
989.34	210.00
989.63	210.48
989.92	210.14
990.22	210.00
990.51	209.93
990.80	210.00
991.09	210.07
991.38	210.48
991.67	210.31
991.96	210.43
992.25	210.19
992.54	210.14
992.83	210.17
993.12	210.24
993.41	210.55
993.70	211.50
993.99	211.86
994.28	211.98
994.58	212.21
994.87	212.10
995.16	212.14
995.45	212.07
995.74	211.24
996.03	211.52
996.32	211.62
996.61	211.98
996.90	211.81
997.19	211.67
997.48	211.38
997.77	211.24
998.06	211.26
998.34	211.14
998.63	210.76
998.92	210.79
999.21	211.12
999.50	211.00
999.79	210.48
1000.08	210.43
1000.37	210.40
1000.66	210.02
1000.95	210.69
1001.24	210.98
1001.53	211.24
1001.82	211.48
1002.11	211.12
1002.40	211.17
1002.68	211.76
1002.97	213.50
1003.26	213.33
1003.55	213.05
1003.84	213.26
1004.13	214.02
1004.42	214.07
1004.71	213.98
1004.99	214.05
1005.28	214.45
1005.57	214.48
1005.86	214.36
1006.15	214.10
1006.44	213.95
1006.72	214.31
1007.01	213.79
1007.30	213.86
1007.59	213.52
1007.88	213.52
1008.17	213.50
1008.45	213.12
1008.74	212.14
1009.03	210.88
1009.32	210.81
1009.60	211.00
1009.89	210.74
1010.18	209.74
1010.47	209.57
1010.76	209.64
1011.04	209.43
1011.33	209.31
1011.62	209.48
1011.91	209.50
1012.19	209.64
1012.48	209.86
1012.77	209.67
1013.05	210.81
1013.34	210.57
1013.63	210.43
1013.92	210.62
1014.20	210.71
1014.49	210.81
1014.78	211.14
1015.06	210.71
1015.35	210.60
1015.64	210.90
1015.92	211.60
1016.21	211.90
1016.50	211.93
1016.78	212.12
1017.07	212.29
1017.36	211.86
1017.64	211.50
1017.93	211.69
1018.22	211.48
1018.50	211.36
1018.79	211.55
1019.08	210.57
1019.36	210.62
1019.65	210.62
1019.93	210.95
1020.22	211.26
1020.51	212.33
1020.79	212.12
1021.08	208.00
1021.36	210.00
1021.65	211.50
1021.94	211.50
1022.22	210.00
1022.51	208.00
1022.79	220.50
1023.08	217.00
1023.36	233.00
1023.65	207.50
>>>>>End Processed Spectral Data<<<<<
