SpectraSuite Data File
++++++++++++++++++++++++++++++++++++
Date: Tue Apr 02 18:44:13 EDT 2013
User: group
Dark Spectrum Present: No
Reference Spectrum Present: No
Number of Sampled Component Spectra: 1
Spectrometers: USB2E7196
Integration Time (usec): 580000 (USB2E7196)
Spectra Averaged: 2 (USB2E7196)
Boxcar Smoothing: 10 (USB2E7196)
Correct for Electrical Dark: No (USB2E7196)
Strobe/Lamp Enabled: No (USB2E7196)
Correct for Detector Non-linearity: No (USB2E7196)
Correct for Stray Light: No (USB2E7196)
Number of Pixels in Processed Spectrum: 2048
>>>>>Begin Processed Spectral Data<<<<<
339.09	0.00
339.48	195.50
339.86	194.50
340.24	198.50
340.63	198.50
341.01	231.50
341.39	202.00
341.78	206.50
342.16	211.50
342.54	202.50
342.93	198.26
343.31	208.10
343.69	208.57
344.07	209.33
344.46	209.88
344.84	210.62
345.22	209.57
345.60	210.07
345.99	210.33
346.37	210.31
346.75	210.52
347.13	210.52
347.52	210.45
347.90	210.76
348.28	210.79
348.66	211.12
349.05	210.60
349.43	210.98
349.81	211.21
350.19	211.19
350.57	211.45
350.96	211.57
351.34	211.83
351.72	211.93
352.10	211.57
352.48	211.52
352.87	210.98
353.25	210.93
353.63	210.52
354.01	210.29
354.39	210.43
354.77	210.38
355.15	211.24
355.54	211.24
355.92	210.69
356.30	210.86
356.68	212.19
357.06	212.00
357.44	211.43
357.82	211.21
358.20	212.02
358.58	211.98
358.97	212.33
359.35	212.69
359.73	213.02
360.11	213.31
360.49	213.33
360.87	213.67
361.25	214.07
361.63	214.90
362.01	215.14
362.39	214.79
362.77	215.38
363.15	215.00
363.53	214.95
363.91	215.17
364.29	215.00
364.67	213.24
365.05	213.71
365.43	214.17
365.81	214.40
366.19	214.62
366.57	215.55
366.95	215.21
367.33	214.83
367.71	215.00
368.09	215.40
368.47	215.55
368.85	215.36
369.23	215.79
369.61	215.29
369.99	215.90
370.37	216.24
370.75	216.93
371.13	216.50
371.51	216.31
371.89	216.48
372.27	216.74
372.65	216.81
373.03	216.60
373.41	216.60
373.78	216.79
374.16	215.79
374.54	214.98
374.92	214.93
375.30	214.81
375.68	214.26
376.06	214.38
376.44	214.21
376.82	214.62
377.19	214.52
377.57	214.38
377.95	213.57
378.33	213.40
378.71	212.50
379.09	212.79
379.47	213.17
379.84	213.02
380.22	213.02
380.60	212.55
380.98	212.40
381.36	212.33
381.73	211.79
382.11	211.90
382.49	212.12
382.87	212.07
383.25	212.21
383.62	214.76
384.00	214.19
384.38	214.14
384.76	214.60
385.13	215.26
385.51	215.31
385.89	215.17
386.27	215.40
386.64	215.52
387.02	215.38
387.40	215.02
387.78	215.29
388.15	215.38
388.53	215.38
388.91	215.48
389.29	215.33
389.66	215.83
390.04	215.95
390.42	216.26
390.79	216.40
391.17	216.36
391.55	214.12
391.92	214.14
392.30	214.45
392.68	213.52
393.05	213.31
393.43	213.55
393.81	213.81
394.18	213.38
394.56	213.48
394.94	213.74
395.31	213.71
395.69	214.21
396.06	214.38
396.44	214.64
396.82	214.48
397.19	215.76
397.57	215.43
397.95	215.57
398.32	215.00
398.70	215.10
399.07	215.43
399.45	215.31
399.82	215.36
400.20	215.31
400.58	215.76
400.95	214.88
401.33	215.31
401.70	216.83
402.08	217.02
402.45	217.00
402.83	217.81
403.20	218.19
403.58	217.88
403.95	218.24
404.33	218.88
404.71	219.31
405.08	220.31
405.46	220.64
405.83	221.24
406.21	221.69
406.58	222.17
406.96	222.55
407.33	223.31
407.70	224.19
408.08	226.43
408.45	227.21
408.83	228.43
409.20	228.60
409.58	228.07
409.95	229.29
410.33	230.38
410.70	230.33
411.08	231.36
411.45	232.31
411.82	233.21
412.20	234.55
412.57	236.86
412.95	236.55
413.32	238.29
413.69	239.40
414.07	241.00
414.44	242.62
414.82	244.69
415.19	246.86
415.56	248.98
415.94	249.76
416.31	252.64
416.68	254.98
417.06	258.45
417.43	261.88
417.81	265.12
418.18	268.48
418.55	272.48
418.93	276.71
419.30	281.02
419.67	285.29
420.04	289.57
420.42	293.81
420.79	300.93
421.16	306.48
421.54	313.40
421.91	319.55
422.28	325.79
422.66	332.05
423.03	340.02
423.40	346.55
423.77	354.00
424.15	361.07
424.52	369.19
424.89	377.76
425.26	385.29
425.64	393.05
426.01	400.98
426.38	410.02
426.75	418.95
427.13	428.24
427.50	437.98
427.87	447.83
428.24	457.62
428.61	465.95
428.99	477.48
429.36	488.12
429.73	499.45
430.10	511.17
430.47	522.88
430.85	533.48
431.22	546.24
431.59	560.86
431.96	573.79
432.33	587.74
432.70	600.88
433.08	617.33
433.45	632.86
433.82	648.07
434.19	664.62
434.56	681.74
434.93	697.29
435.30	713.33
435.68	730.71
436.05	748.07
436.42	764.81
436.79	780.14
437.16	797.29
437.53	814.88
437.90	832.64
438.27	850.74
438.64	868.50
439.01	885.48
439.38	898.95
439.75	913.14
440.13	930.36
440.50	946.57
440.87	958.79
441.24	972.10
441.61	987.83
441.98	998.83
442.35	1010.29
442.72	1023.62
443.09	1036.83
443.46	1044.81
443.83	1050.62
444.20	1055.67
444.57	1061.67
444.94	1064.88
445.31	1068.48
445.68	1073.50
446.05	1074.40
446.42	1073.50
446.79	1072.38
447.16	1070.07
447.53	1069.45
447.90	1062.17
448.27	1055.55
448.64	1047.71
449.01	1041.21
449.37	1029.40
449.74	1018.52
450.11	1007.55
450.48	992.33
450.85	976.52
451.22	963.50
451.59	951.10
451.96	939.19
452.33	923.93
452.70	909.64
453.07	892.79
453.43	873.71
453.80	857.86
454.17	841.71
454.54	826.17
454.91	810.67
455.28	794.76
455.65	780.00
456.02	768.50
456.38	755.55
456.75	740.17
457.12	727.02
457.49	713.55
457.86	699.45
458.23	689.29
458.59	677.52
458.96	666.29
459.33	655.50
459.70	645.50
460.07	637.31
460.43	628.02
460.80	619.71
461.17	612.52
461.54	603.93
461.91	596.19
462.27	588.00
462.64	580.86
463.01	573.12
463.38	566.57
463.74	555.64
464.11	548.88
464.48	543.07
464.85	536.86
465.21	533.10
465.58	528.14
465.95	521.71
466.32	516.60
466.68	511.14
467.05	506.17
467.42	501.10
467.78	495.45
468.15	490.19
468.52	486.24
468.88	480.64
469.25	476.17
469.62	472.83
469.98	469.14
470.35	465.90
470.72	462.76
471.08	458.60
471.45	456.17
471.82	453.48
472.18	449.69
472.55	446.93
472.92	443.36
473.28	440.10
473.65	437.67
474.02	435.17
474.38	433.02
474.75	431.21
475.11	428.31
475.48	426.83
475.85	424.83
476.21	422.43
476.58	420.88
476.94	419.79
477.31	418.43
477.67	417.40
478.04	416.12
478.41	415.00
478.77	416.64
479.14	415.57
479.50	415.07
479.87	415.45
480.23	415.17
480.60	414.64
480.96	414.64
481.33	416.07
481.69	416.19
482.06	416.12
482.42	416.21
482.79	417.00
483.15	417.21
483.52	418.64
483.88	419.38
484.25	420.14
484.61	420.60
484.98	421.17
485.34	422.48
485.71	423.83
486.07	425.21
486.44	424.52
486.80	425.62
487.17	426.88
487.53	429.10
487.90	431.21
488.26	434.64
488.62	437.83
488.99	438.93
489.35	441.71
489.72	444.69
490.08	447.29
490.44	449.98
490.81	453.26
491.17	456.12
491.54	459.88
491.90	463.57
492.26	467.12
492.63	471.31
492.99	474.60
493.36	478.71
493.72	483.38
494.08	487.45
494.45	492.93
494.81	498.07
495.17	502.21
495.54	507.60
495.90	511.31
496.26	515.86
496.63	521.55
496.99	526.67
497.35	532.40
497.72	538.48
498.08	544.40
498.44	550.71
498.80	556.90
499.17	562.95
499.53	569.12
499.89	575.93
500.26	581.81
500.62	588.86
500.98	596.02
501.34	602.38
501.71	610.24
502.07	616.76
502.43	623.48
502.79	630.45
503.16	637.52
503.52	645.60
503.88	652.95
504.24	659.71
504.60	667.24
504.97	674.98
505.33	682.26
505.69	690.74
506.05	697.88
506.41	706.33
506.78	714.19
507.14	721.86
507.50	729.86
507.86	737.69
508.22	745.79
508.59	753.29
508.95	761.48
509.31	770.12
509.67	777.71
510.03	785.36
510.39	793.38
510.75	801.19
511.12	808.10
511.48	815.88
511.84	824.02
512.20	831.64
512.56	839.10
512.92	847.14
513.28	853.81
513.64	861.26
514.00	867.83
514.37	874.71
514.73	881.76
515.09	889.12
515.45	896.55
515.81	903.43
516.17	910.48
516.53	916.83
516.89	922.17
517.25	929.43
517.61	936.71
517.97	943.05
518.33	948.90
518.69	955.71
519.05	962.05
519.41	968.21
519.77	975.60
520.13	981.45
520.49	986.29
520.85	992.71
521.21	999.50
521.57	1005.79
521.93	1011.17
522.29	1017.67
522.65	1022.57
523.01	1028.38
523.37	1033.36
523.73	1037.90
524.09	1042.98
524.45	1047.83
524.81	1052.79
525.17	1057.95
525.53	1062.71
525.89	1067.57
526.25	1072.83
526.61	1076.86
526.97	1080.88
527.33	1084.76
527.68	1090.50
528.04	1095.45
528.40	1099.40
528.76	1102.88
529.12	1106.81
529.48	1111.52
529.84	1115.24
530.20	1119.29
530.56	1123.52
530.91	1127.60
531.27	1132.24
531.63	1136.71
531.99	1140.36
532.35	1143.45
532.71	1146.83
533.07	1151.24
533.42	1157.90
533.78	1161.57
534.14	1166.69
534.50	1170.79
534.86	1175.26
535.21	1177.64
535.57	1182.38
535.93	1186.24
536.29	1190.98
536.65	1195.10
537.00	1198.62
537.36	1202.05
537.72	1206.38
538.08	1209.81
538.44	1213.00
538.79	1216.83
539.15	1219.86
539.51	1223.67
539.87	1227.02
540.22	1230.26
540.58	1233.40
540.94	1234.12
541.29	1236.43
541.65	1238.55
542.01	1241.33
542.37	1243.60
542.72	1245.38
543.08	1247.10
543.44	1249.98
543.79	1251.57
544.15	1254.07
544.51	1257.19
544.87	1259.71
545.22	1262.29
545.58	1264.19
545.94	1267.43
546.29	1269.90
546.65	1272.81
547.01	1275.45
547.36	1278.10
547.72	1280.67
548.07	1283.12
548.43	1285.52
548.79	1288.14
549.14	1290.21
549.50	1293.57
549.86	1295.45
550.21	1299.98
550.57	1302.83
550.92	1305.00
551.28	1308.86
551.64	1311.86
551.99	1314.38
552.35	1317.14
552.70	1319.71
553.06	1322.83
553.41	1325.10
553.77	1329.81
554.13	1333.69
554.48	1337.60
554.84	1341.55
555.19	1345.36
555.55	1349.93
555.90	1353.69
556.26	1358.88
556.61	1362.60
556.97	1365.60
557.32	1369.74
557.68	1372.90
558.03	1377.21
558.39	1380.45
558.74	1383.74
559.10	1387.33
559.45	1391.43
559.81	1396.67
560.16	1400.69
560.52	1404.74
560.87	1409.79
561.23	1412.67
561.58	1417.79
561.94	1421.79
562.29	1425.95
562.64	1430.69
563.00	1434.24
563.35	1438.90
563.71	1442.90
564.06	1448.17
564.42	1454.10
564.77	1459.48
565.12	1465.48
565.48	1472.71
565.83	1479.50
566.19	1485.48
566.54	1490.98
566.89	1496.81
567.25	1502.45
567.60	1509.76
567.96	1518.00
568.31	1525.21
568.66	1531.48
569.02	1535.81
569.37	1540.64
569.72	1546.95
570.08	1552.38
570.43	1558.05
570.78	1564.12
571.14	1569.74
571.49	1575.31
571.84	1580.86
572.20	1585.69
572.55	1590.45
572.90	1593.14
573.26	1597.88
573.61	1601.24
573.96	1606.29
574.31	1610.83
574.67	1614.81
575.02	1618.26
575.37	1620.21
575.72	1622.86
576.08	1626.29
576.43	1629.90
576.78	1634.17
577.13	1638.02
577.49	1640.95
577.84	1645.17
578.19	1648.55
578.54	1652.33
578.90	1656.36
579.25	1659.43
579.60	1662.40
579.95	1665.33
580.30	1669.38
580.66	1672.74
581.01	1676.31
581.36	1678.93
581.71	1681.81
582.06	1686.52
582.42	1690.40
582.77	1694.12
583.12	1697.50
583.47	1701.62
583.82	1705.83
584.17	1709.52
584.53	1712.90
584.88	1716.12
585.23	1719.29
585.58	1721.79
585.93	1723.93
586.28	1726.14
586.63	1728.76
586.98	1732.10
587.34	1736.00
587.69	1738.07
588.04	1740.26
588.39	1743.24
588.74	1745.10
589.09	1747.76
589.44	1747.38
589.79	1748.67
590.14	1750.40
590.49	1751.74
590.84	1752.26
591.19	1754.10
591.54	1754.93
591.89	1755.48
592.25	1759.45
592.60	1759.81
592.95	1761.36
593.30	1762.83
593.65	1764.74
594.00	1764.71
594.35	1771.98
594.70	1771.24
595.05	1773.43
595.40	1774.71
595.75	1775.26
596.10	1777.33
596.45	1778.33
596.80	1780.48
597.15	1780.36
597.50	1781.05
597.85	1783.19
598.19	1783.98
598.54	1783.33
598.89	1783.38
599.24	1784.93
599.59	1783.36
599.94	1783.71
600.29	1784.17
600.64	1784.12
600.99	1783.38
601.34	1784.90
601.69	1779.07
602.04	1778.55
602.39	1776.93
602.74	1776.43
603.08	1776.00
603.43	1776.24
603.78	1775.43
604.13	1774.45
604.48	1773.79
604.83	1773.12
605.18	1771.52
605.53	1771.19
605.87	1769.98
606.22	1769.71
606.57	1767.14
606.92	1766.02
607.27	1766.24
607.62	1765.74
607.96	1765.00
608.31	1764.60
608.66	1763.60
609.01	1761.55
609.36	1762.29
609.70	1761.07
610.05	1759.17
610.40	1757.69
610.75	1754.38
611.10	1753.62
611.44	1750.79
611.79	1749.02
612.14	1746.29
612.49	1743.60
612.83	1740.26
613.18	1737.33
613.53	1735.05
613.88	1732.50
614.22	1729.24
614.57	1724.64
614.92	1719.93
615.27	1716.83
615.61	1713.17
615.96	1708.93
616.31	1705.45
616.65	1702.24
617.00	1699.24
617.35	1696.88
617.70	1694.07
618.04	1690.98
618.39	1686.33
618.74	1683.19
619.08	1680.00
619.43	1676.83
619.78	1672.90
620.12	1669.36
620.47	1666.81
620.82	1661.60
621.16	1656.95
621.51	1653.79
621.85	1649.79
622.20	1646.38
622.55	1641.12
622.89	1636.86
623.24	1633.93
623.59	1629.76
623.93	1624.40
624.28	1620.14
624.62	1617.29
624.97	1613.93
625.32	1609.71
625.66	1605.64
626.01	1601.74
626.35	1598.02
626.70	1594.33
627.04	1590.62
627.39	1586.64
627.73	1583.48
628.08	1580.93
628.43	1577.93
628.77	1573.36
629.12	1570.74
629.46	1567.55
629.81	1564.74
630.15	1560.38
630.50	1555.29
630.84	1551.40
631.19	1546.76
631.53	1541.52
631.88	1534.86
632.22	1528.93
632.57	1524.02
632.91	1519.00
633.26	1514.69
633.60	1508.69
633.95	1503.67
634.29	1499.00
634.64	1495.17
634.98	1488.90
635.32	1485.02
635.67	1481.05
636.01	1477.26
636.36	1471.50
636.70	1466.93
637.05	1462.24
637.39	1458.71
637.73	1454.57
638.08	1450.67
638.42	1446.60
638.77	1443.17
639.11	1438.81
639.45	1434.43
639.80	1429.24
640.14	1425.02
640.49	1419.86
640.83	1414.69
641.17	1410.62
641.52	1405.12
641.86	1399.43
642.20	1396.19
642.55	1389.48
642.89	1383.60
643.23	1377.62
643.58	1373.50
643.92	1366.81
644.26	1361.07
644.61	1355.00
644.95	1349.26
645.29	1342.48
645.64	1336.74
645.98	1330.50
646.32	1325.12
646.66	1317.88
647.01	1312.71
647.35	1306.38
647.69	1300.93
648.04	1296.02
648.38	1289.74
648.72	1284.31
649.06	1278.19
649.41	1271.10
649.75	1265.00
650.09	1258.88
650.43	1252.45
650.78	1245.21
651.12	1240.02
651.46	1233.67
651.80	1227.17
652.14	1220.79
652.49	1214.98
652.83	1209.02
653.17	1202.36
653.51	1195.52
653.85	1190.90
654.20	1184.74
654.54	1178.05
654.88	1170.88
655.22	1164.86
655.56	1157.40
655.90	1150.93
656.25	1145.07
656.59	1138.90
656.93	1133.19
657.27	1128.17
657.61	1121.79
657.95	1116.07
658.29	1108.76
658.64	1102.79
658.98	1095.69
659.32	1088.26
659.66	1082.29
660.00	1075.74
660.34	1069.64
660.68	1063.26
661.02	1056.38
661.36	1049.93
661.70	1044.38
662.05	1038.29
662.39	1032.76
662.73	1027.33
663.07	1022.07
663.41	1015.93
663.75	1009.38
664.09	1003.38
664.43	996.55
664.77	990.71
665.11	983.26
665.45	977.76
665.79	972.19
666.13	966.48
666.47	961.07
666.81	955.19
667.15	948.76
667.49	943.64
667.83	938.71
668.17	932.76
668.51	927.12
668.85	922.05
669.19	917.93
669.53	911.38
669.87	905.21
670.21	898.33
670.55	891.90
670.89	887.48
671.23	881.86
671.57	876.38
671.91	871.17
672.25	866.76
672.58	861.95
672.92	855.45
673.26	850.00
673.60	845.17
673.94	839.83
674.28	835.05
674.62	829.62
674.96	823.90
675.30	818.86
675.64	814.07
675.97	808.60
676.31	802.83
676.65	797.64
676.99	793.90
677.33	789.07
677.67	784.98
678.01	778.55
678.34	773.76
678.68	769.45
679.02	763.98
679.36	758.52
679.70	752.86
680.04	748.29
680.37	743.52
680.71	738.45
681.05	733.76
681.39	729.05
681.73	724.12
682.06	719.52
682.40	715.21
682.74	711.10
683.08	706.60
683.42	701.40
683.75	697.05
684.09	691.88
684.43	687.76
684.77	682.62
685.10	678.43
685.44	673.67
685.78	667.95
686.12	663.40
686.45	659.10
686.79	654.76
687.13	650.90
687.46	646.60
687.80	642.55
688.14	637.62
688.48	632.93
688.81	628.48
689.15	624.24
689.49	619.60
689.82	614.24
690.16	609.12
690.50	604.31
690.83	599.48
691.17	594.83
691.51	590.10
691.84	586.55
692.18	582.52
692.52	578.52
692.85	575.43
693.19	572.29
693.52	568.71
693.86	564.21
694.20	559.71
694.53	555.93
694.87	551.74
695.21	547.86
695.54	544.40
695.88	540.17
696.21	535.74
696.55	531.60
696.88	527.98
697.22	524.38
697.56	521.57
697.89	518.17
698.23	514.86
698.56	511.86
698.90	507.81
699.23	503.93
699.57	500.40
699.90	496.52
700.24	492.57
700.58	489.02
700.91	486.76
701.25	485.38
701.58	482.98
701.92	480.36
702.25	477.21
702.59	473.71
702.92	471.21
703.26	468.69
703.59	465.86
703.93	464.67
704.26	461.88
704.60	458.71
704.93	455.50
705.26	452.79
705.60	450.05
705.93	446.95
706.27	445.12
706.60	443.00
706.94	440.95
707.27	437.98
707.61	435.19
707.94	432.05
708.27	427.64
708.61	424.21
708.94	421.10
709.28	418.74
709.61	416.64
709.94	414.17
710.28	411.67
710.61	409.38
710.95	404.95
711.28	404.29
711.61	401.86
711.95	400.79
712.28	398.26
712.61	395.55
712.95	394.38
713.28	392.52
713.61	389.95
713.95	387.48
714.28	385.81
714.61	383.81
714.95	381.48
715.28	379.19
715.61	377.26
715.95	375.57
716.28	373.79
716.61	371.76
716.95	369.31
717.28	367.21
717.61	365.17
717.94	363.52
718.28	359.79
718.61	357.95
718.94	355.19
719.27	353.24
719.61	351.50
719.94	349.21
720.27	346.24
720.60	344.05
720.94	341.76
721.27	340.10
721.60	338.88
721.93	337.38
722.27	336.86
722.60	335.62
722.93	334.14
723.26	332.45
723.59	330.62
723.93	329.50
724.26	328.10
724.59	326.48
724.92	325.05
725.25	324.55
725.59	323.43
725.92	322.52
726.25	321.38
726.58	320.50
726.91	319.05
727.24	318.60
727.57	317.40
727.91	316.05
728.24	314.67
728.57	313.10
728.90	312.17
729.23	310.40
729.56	309.83
729.89	308.38
730.22	307.14
730.55	305.74
730.89	304.74
731.22	303.50
731.55	302.71
731.88	301.95
732.21	300.43
732.54	298.93
732.87	297.83
733.20	296.88
733.53	295.60
733.86	294.83
734.19	293.33
734.52	292.81
734.85	293.45
735.18	292.48
735.51	292.29
735.84	291.69
736.17	291.05
736.50	289.74
736.83	291.00
737.16	290.33
737.49	290.02
737.82	289.12
738.15	288.74
738.48	287.86
738.81	286.79
739.14	285.60
739.47	284.98
739.80	284.10
740.13	283.50
740.46	282.67
740.79	281.71
741.12	281.02
741.45	279.95
741.78	278.19
742.11	277.93
742.44	276.60
742.77	276.00
743.10	275.00
743.43	273.74
743.75	271.17
744.08	272.83
744.41	271.71
744.74	270.57
745.07	269.48
745.40	268.93
745.73	269.00
746.06	268.38
746.39	267.95
746.71	266.76
747.04	265.64
747.37	265.02
747.70	264.74
748.03	264.29
748.36	264.12
748.68	263.26
749.01	262.00
749.34	261.50
749.67	260.62
750.00	260.50
750.33	261.38
750.65	261.19
750.98	258.26
751.31	257.81
751.64	257.74
751.97	258.38
752.29	257.98
752.62	256.95
752.95	256.81
753.28	255.83
753.60	255.33
753.93	255.45
754.26	255.17
754.59	254.31
754.91	253.48
755.24	252.48
755.57	252.00
755.90	251.57
756.22	250.93
756.55	250.21
756.88	249.24
757.20	247.71
757.53	246.67
757.86	246.24
758.19	246.10
758.51	245.43
758.84	243.93
759.17	243.55
759.49	242.86
759.82	243.26
760.15	243.14
760.47	242.90
760.80	241.93
761.13	241.90
761.45	241.36
761.78	241.07
762.11	241.02
762.43	240.74
762.76	240.50
763.08	240.21
763.41	240.19
763.74	240.07
764.06	239.76
764.39	239.38
764.71	239.10
765.04	238.55
765.37	238.12
765.69	237.69
766.02	237.40
766.34	237.17
766.67	235.98
767.00	236.26
767.32	237.07
767.65	238.07
767.97	237.40
768.30	237.24
768.62	237.10
768.95	236.33
769.27	236.19
769.60	236.33
769.92	235.83
770.25	235.31
770.57	234.45
770.90	234.12
771.22	233.55
771.55	233.29
771.87	233.14
772.20	232.74
772.52	234.21
772.85	236.29
773.17	236.14
773.50	235.88
773.82	235.14
774.15	234.05
774.47	232.57
774.80	232.02
775.12	231.60
775.45	231.29
775.77	231.55
776.09	231.21
776.42	231.00
776.74	231.45
777.07	231.12
777.39	231.17
777.72	230.60
778.04	230.69
778.36	230.55
778.69	230.26
779.01	230.40
779.33	228.67
779.66	226.21
779.98	226.05
780.31	225.90
780.63	226.67
780.95	226.98
781.28	226.76
781.60	226.64
781.92	226.62
782.25	226.43
782.57	226.05
782.89	225.81
783.22	225.50
783.54	224.93
783.86	225.07
784.19	225.00
784.51	225.64
784.83	225.33
785.16	224.98
785.48	225.00
785.80	224.93
786.12	224.98
786.45	224.81
786.77	224.55
787.09	224.33
787.42	223.55
787.74	223.48
788.06	223.38
788.38	223.24
788.71	223.02
789.03	223.10
789.35	223.31
789.67	222.88
789.99	222.88
790.32	222.67
790.64	222.62
790.96	223.98
791.28	223.21
791.61	223.10
791.93	223.31
792.25	223.29
792.57	224.50
792.89	224.10
793.21	224.17
793.54	223.98
793.86	223.83
794.18	223.67
794.50	222.93
794.82	222.74
795.14	222.83
795.47	223.36
795.79	223.14
796.11	222.71
796.43	222.74
796.75	222.71
797.07	222.90
797.39	222.86
797.71	221.57
798.04	221.52
798.36	221.69
798.68	221.57
799.00	221.55
799.32	220.45
799.64	220.74
799.96	220.60
800.28	221.05
800.60	221.07
800.92	221.29
801.24	221.31
801.56	221.48
801.89	221.52
802.21	221.40
802.53	221.10
802.85	221.36
803.17	222.33
803.49	221.69
803.81	221.21
804.13	221.00
804.45	220.57
804.77	220.76
805.09	220.57
805.41	220.26
805.73	219.90
806.05	219.43
806.37	219.07
806.69	218.79
807.01	218.43
807.33	218.43
807.65	217.67
807.97	218.48
808.28	218.29
808.60	218.05
808.92	217.74
809.24	219.07
809.56	218.86
809.88	218.07
810.20	218.21
810.52	218.71
810.84	218.67
811.16	218.50
811.48	218.45
811.80	219.40
812.12	219.31
812.43	219.69
812.75	220.02
813.07	219.81
813.39	219.83
813.71	219.52
814.03	219.21
814.35	219.14
814.67	218.21
814.98	218.10
815.30	217.95
815.62	217.52
815.94	216.07
816.26	216.14
816.58	215.81
816.89	216.05
817.21	215.48
817.53	215.43
817.85	215.40
818.17	215.33
818.48	214.38
818.80	214.79
819.12	214.29
819.44	213.83
819.76	213.79
820.07	213.81
820.39	214.02
820.71	214.14
821.03	214.19
821.34	214.29
821.66	214.69
821.98	215.29
822.30	215.31
822.61	216.62
822.93	216.19
823.25	215.98
823.57	215.64
823.88	216.19
824.20	216.07
824.52	216.45
824.83	216.31
825.15	215.98
825.47	215.81
825.79	216.12
826.10	216.02
826.42	216.00
826.74	216.12
827.05	215.83
827.37	215.98
827.69	216.05
828.00	216.12
828.32	216.14
828.64	215.57
828.95	216.55
829.27	215.90
829.58	216.05
829.90	216.43
830.22	216.79
830.53	216.24
830.85	216.07
831.17	215.76
831.48	215.76
831.80	216.19
832.11	216.10
832.43	215.86
832.75	215.76
833.06	216.86
833.38	216.29
833.69	216.26
834.01	216.24
834.32	216.38
834.64	216.10
834.96	216.14
835.27	216.19
835.59	215.76
835.90	215.43
836.22	215.43
836.53	215.21
836.85	214.76
837.16	216.81
837.48	216.83
837.79	217.43
838.11	217.43
838.42	217.12
838.74	217.19
839.05	217.12
839.37	216.95
839.68	215.71
840.00	215.81
840.31	216.43
840.63	216.29
840.94	215.62
841.26	215.36
841.57	215.17
841.88	215.24
842.20	214.88
842.51	214.52
842.83	214.64
843.14	216.43
843.46	216.48
843.77	215.29
844.08	215.00
844.40	214.17
844.71	214.12
845.03	214.02
845.34	213.88
845.65	213.57
845.97	213.76
846.28	213.57
846.60	213.48
846.91	212.88
847.22	212.98
847.54	213.57
847.85	213.76
848.16	213.57
848.48	213.17
848.79	214.14
849.10	214.57
849.42	214.43
849.73	212.57
850.04	212.48
850.36	211.90
850.67	212.38
850.98	212.62
851.30	212.55
851.61	212.48
851.92	212.48
852.23	213.12
852.55	213.45
852.86	214.07
853.17	214.36
853.49	214.79
853.80	214.95
854.11	215.19
854.42	215.57
854.74	215.36
855.05	215.55
855.36	214.26
855.67	214.36
855.99	214.26
856.30	216.67
856.61	216.64
856.92	216.79
857.23	216.88
857.55	216.62
857.86	216.71
858.17	217.05
858.48	216.48
858.79	216.21
859.11	216.31
859.42	215.62
859.73	215.29
860.04	215.02
860.35	214.55
860.66	213.95
860.98	213.69
861.29	214.02
861.60	213.79
861.91	214.21
862.22	213.76
862.53	213.57
862.84	210.95
863.16	211.57
863.47	211.24
863.78	211.12
864.09	211.45
864.40	211.48
864.71	211.62
865.02	212.19
865.33	211.90
865.64	211.50
865.95	211.76
866.27	213.29
866.58	213.29
866.89	213.55
867.20	213.60
867.51	213.52
867.82	213.10
868.13	213.86
868.44	213.33
868.75	213.90
869.06	214.07
869.37	214.29
869.68	213.64
869.99	213.81
870.30	213.83
870.61	213.93
870.92	213.79
871.23	213.60
871.54	213.86
871.85	214.52
872.16	214.67
872.47	214.64
872.78	213.31
873.09	213.67
873.40	213.50
873.71	213.48
874.02	213.74
874.33	213.74
874.64	213.38
874.95	213.79
875.26	213.02
875.56	213.10
875.87	213.05
876.18	212.95
876.49	214.86
876.80	214.64
877.11	214.14
877.42	214.31
877.73	214.31
878.04	213.74
878.35	213.74
878.66	213.69
878.96	213.69
879.27	213.67
879.58	213.33
879.89	213.21
880.20	213.83
880.51	213.48
880.82	213.50
881.12	213.55
881.43	213.40
881.74	213.36
882.05	213.26
882.36	213.19
882.67	213.40
882.97	211.14
883.28	211.05
883.59	211.21
883.90	211.33
884.21	211.50
884.51	211.64
884.82	211.19
885.13	211.17
885.44	210.98
885.74	210.90
886.05	210.83
886.36	211.02
886.67	210.40
886.98	211.52
887.28	211.79
887.59	211.81
887.90	211.60
888.20	211.43
888.51	211.83
888.82	211.83
889.13	212.12
889.43	213.81
889.74	213.74
890.05	213.64
890.35	213.50
890.66	213.26
890.97	213.29
891.28	212.95
891.58	213.05
891.89	212.93
892.20	213.00
892.50	212.74
892.81	212.55
893.12	212.48
893.42	211.29
893.73	211.40
894.04	211.24
894.34	211.40
894.65	211.55
894.95	211.19
895.26	211.12
895.57	211.81
895.87	210.05
896.18	210.48
896.48	210.71
896.79	210.74
897.10	210.98
897.40	210.90
897.71	211.55
898.01	211.50
898.32	211.90
898.63	211.86
898.93	212.24
899.24	212.26
899.54	212.26
899.85	212.43
900.15	212.31
900.46	212.24
900.76	212.55
901.07	212.52
901.38	212.57
901.68	212.71
901.99	211.83
902.29	212.14
902.60	211.95
902.90	211.62
903.21	211.50
903.51	211.19
903.82	211.50
904.12	211.50
904.43	211.48
904.73	211.45
905.03	211.64
905.34	213.55
905.64	213.62
905.95	213.74
906.25	213.88
906.56	213.81
906.86	213.86
907.17	213.67
907.47	213.81
907.77	213.67
908.08	213.50
908.38	213.52
908.69	213.67
908.99	213.98
909.30	214.24
909.60	214.24
909.90	214.55
910.21	214.19
910.51	213.55
910.81	213.60
911.12	213.69
911.42	213.57
911.73	211.50
912.03	211.50
912.33	211.69
912.64	211.55
912.94	211.33
913.24	211.05
913.55	210.90
913.85	210.93
914.15	211.40
914.46	211.93
914.76	211.79
915.06	211.67
915.37	211.31
915.67	211.10
915.97	211.05
916.27	210.64
916.58	210.83
916.88	210.95
917.18	210.81
917.49	212.19
917.79	212.14
918.09	212.33
918.39	212.74
918.70	212.69
919.00	212.71
919.30	213.79
919.60	213.71
919.91	213.48
920.21	213.57
920.51	213.14
920.81	212.55
921.12	213.02
921.42	212.79
921.72	213.07
922.02	213.05
922.32	213.38
922.63	213.64
922.93	214.62
923.23	214.52
923.53	214.57
923.83	213.17
924.13	213.31
924.44	213.45
924.74	213.76
925.04	214.29
925.34	214.36
925.64	213.74
925.94	213.93
926.24	215.05
926.55	214.76
926.85	214.95
927.15	214.98
927.45	214.74
927.75	214.98
928.05	214.76
928.35	214.69
928.65	215.02
928.95	214.90
929.26	214.00
929.56	214.62
929.86	214.88
930.16	214.71
930.46	214.57
930.76	214.38
931.06	213.57
931.36	212.88
931.66	213.21
931.96	213.19
932.26	213.24
932.56	212.67
932.86	212.74
933.16	212.79
933.46	212.95
933.76	212.79
934.06	213.12
934.36	213.95
934.66	214.10
934.96	213.60
935.26	213.95
935.56	214.38
935.86	213.83
936.16	213.55
936.46	213.45
936.76	213.33
937.06	213.31
937.36	213.52
937.66	213.71
937.96	213.38
938.26	212.95
938.56	212.83
938.86	212.93
939.16	213.57
939.46	213.74
939.76	213.79
940.06	213.83
940.35	213.26
940.65	212.19
940.95	212.26
941.25	212.00
941.55	211.83
941.85	211.57
942.15	212.14
942.45	212.52
942.75	212.52
943.04	212.81
943.34	212.88
943.64	212.50
943.94	212.10
944.24	212.19
944.54	212.17
944.84	212.17
945.13	211.79
945.43	211.36
945.73	211.33
946.03	211.36
946.33	211.19
946.62	211.19
946.92	211.12
947.22	211.33
947.52	211.48
947.82	211.62
948.11	211.12
948.41	210.50
948.71	209.95
949.01	210.19
949.31	209.74
949.60	209.79
949.90	210.33
950.20	210.43
950.50	210.50
950.79	210.48
951.09	210.60
951.39	210.40
951.69	210.33
951.98	210.71
952.28	210.57
952.58	210.40
952.87	210.36
953.17	210.76
953.47	210.38
953.76	210.45
954.06	209.98
954.36	210.14
954.66	210.05
954.95	210.83
955.25	210.93
955.55	211.33
955.84	210.93
956.14	210.98
956.44	211.14
956.73	210.52
957.03	210.81
957.32	210.90
957.62	211.02
957.92	211.43
958.21	210.98
958.51	213.43
958.81	213.64
959.10	214.05
959.40	214.31
959.69	214.67
959.99	214.74
960.29	214.79
960.58	214.55
960.88	215.48
961.17	215.21
961.47	215.26
961.76	215.31
962.06	215.83
962.36	215.57
962.65	215.69
962.95	215.83
963.24	215.50
963.54	215.67
963.83	215.90
964.13	215.67
964.42	215.07
964.72	213.38
965.01	213.45
965.31	213.10
965.60	212.48
965.90	213.57
966.19	213.19
966.49	213.12
966.78	213.17
967.08	212.86
967.37	212.83
967.67	212.48
967.96	212.43
968.26	212.19
968.55	212.50
968.85	212.14
969.14	212.12
969.43	212.07
969.73	211.81
970.02	211.57
970.32	211.33
970.61	211.55
970.91	210.88
971.20	210.62
971.49	210.55
971.79	210.83
972.08	209.36
972.38	209.52
972.67	209.60
972.96	210.02
973.26	209.71
973.55	210.14
973.85	209.98
974.14	209.83
974.43	209.86
974.73	209.38
975.02	209.40
975.31	209.50
975.61	209.55
975.90	209.36
976.19	209.05
976.49	209.43
976.78	209.48
977.07	209.55
977.37	209.64
977.66	209.90
977.95	209.57
978.24	209.74
978.54	210.12
978.83	209.93
979.12	209.57
979.42	209.48
979.71	208.83
980.00	208.98
980.29	209.29
980.59	209.14
980.88	209.81
981.17	209.71
981.46	209.95
981.76	210.00
982.05	210.57
982.34	211.02
982.63	210.93
982.93	210.98
983.22	211.52
983.51	211.57
983.80	211.81
984.09	212.45
984.39	212.31
984.68	211.90
984.97	212.12
985.26	212.12
985.55	212.21
985.85	212.00
986.14	212.21
986.43	212.33
986.72	212.33
987.01	211.40
987.30	211.52
987.59	211.19
987.89	211.31
988.18	210.79
988.47	210.74
988.76	210.33
989.05	210.02
989.34	209.60
989.63	210.07
989.92	209.79
990.22	209.43
990.51	209.50
990.80	209.60
991.09	209.69
991.38	209.93
991.67	209.69
991.96	209.69
992.25	209.81
992.54	209.43
992.83	209.29
993.12	209.36
993.41	209.74
993.70	210.57
993.99	210.83
994.28	211.14
994.58	211.33
994.87	211.38
995.16	211.45
995.45	211.38
995.74	210.76
996.03	210.98
996.32	211.21
996.61	211.60
996.90	211.38
997.19	211.50
997.48	211.50
997.77	211.52
998.06	211.69
998.34	211.45
998.63	211.52
998.92	211.57
999.21	211.95
999.50	211.81
999.79	211.12
1000.08	211.31
1000.37	211.24
1000.66	210.81
1000.95	211.19
1001.24	211.52
1001.53	211.76
1001.82	211.76
1002.11	211.55
1002.40	211.86
1002.68	212.19
1002.97	213.88
1003.26	213.60
1003.55	213.14
1003.84	213.40
1004.13	214.14
1004.42	214.21
1004.71	214.05
1004.99	213.98
1005.28	214.48
1005.57	214.21
1005.86	214.12
1006.15	213.74
1006.44	213.55
1006.72	214.00
1007.01	213.83
1007.30	213.88
1007.59	213.64
1007.88	213.64
1008.17	213.55
1008.45	212.93
1008.74	212.24
1009.03	211.19
1009.32	211.21
1009.60	211.45
1009.89	211.29
1010.18	210.26
1010.47	210.17
1010.76	210.24
1011.04	210.33
1011.33	210.33
1011.62	210.52
1011.91	210.79
1012.19	211.07
1012.48	211.19
1012.77	210.86
1013.05	211.60
1013.34	211.50
1013.63	211.45
1013.92	211.64
1014.20	211.60
1014.49	211.83
1014.78	211.88
1015.06	211.14
1015.35	211.02
1015.64	211.38
1015.92	211.76
1016.21	211.95
1016.50	211.83
1016.78	212.21
1017.07	212.19
1017.36	211.74
1017.64	211.62
1017.93	211.74
1018.22	211.50
1018.50	211.38
1018.79	211.40
1019.08	210.55
1019.36	210.52
1019.65	210.69
1019.93	211.38
1020.22	211.50
1020.51	212.33
1020.79	212.19
1021.08	211.00
1021.36	207.50
1021.65	209.00
1021.94	209.50
1022.22	210.50
1022.51	214.50
1022.79	225.00
1023.08	211.00
1023.36	232.50
1023.65	205.50
>>>>>End Processed Spectral Data<<<<<
