SpectraSuite Data File
++++++++++++++++++++++++++++++++++++
Date: Tue Apr 02 18:41:02 EDT 2013
User: group
Dark Spectrum Present: No
Reference Spectrum Present: No
Number of Sampled Component Spectra: 1
Spectrometers: USB2E7196
Integration Time (usec): 580000 (USB2E7196)
Spectra Averaged: 2 (USB2E7196)
Boxcar Smoothing: 10 (USB2E7196)
Correct for Electrical Dark: No (USB2E7196)
Strobe/Lamp Enabled: No (USB2E7196)
Correct for Detector Non-linearity: No (USB2E7196)
Correct for Stray Light: No (USB2E7196)
Number of Pixels in Processed Spectrum: 2048
>>>>>Begin Processed Spectral Data<<<<<
339.09	0.00
339.48	194.00
339.86	197.00
340.24	198.50
340.63	198.00
341.01	234.50
341.39	204.50
341.78	206.50
342.16	213.00
342.54	209.00
342.93	198.98
343.31	208.81
343.69	209.24
344.07	209.74
344.46	210.24
344.84	210.64
345.22	209.50
345.60	209.79
345.99	209.83
346.37	209.79
346.75	209.67
347.13	209.55
347.52	209.62
347.90	210.24
348.28	210.12
348.66	210.62
349.05	209.64
349.43	209.88
349.81	209.98
350.19	209.90
350.57	210.07
350.96	210.21
351.34	210.43
351.72	210.69
352.10	210.67
352.48	210.55
352.87	210.62
353.25	210.57
353.63	210.29
354.01	210.24
354.39	210.19
354.77	210.12
355.15	210.60
355.54	210.60
355.92	209.88
356.30	209.83
356.68	211.00
357.06	211.19
357.44	210.86
357.82	210.62
358.20	211.62
358.58	211.38
358.97	211.50
359.35	211.86
359.73	212.31
360.11	212.10
360.49	212.26
360.87	212.21
361.25	212.62
361.63	213.50
362.01	213.86
362.39	213.83
362.77	214.00
363.15	213.86
363.53	213.98
363.91	213.90
364.29	214.05
364.67	212.14
365.05	212.24
365.43	212.50
365.81	212.62
366.19	212.57
366.57	213.71
366.95	213.76
367.33	213.38
367.71	213.29
368.09	214.00
368.47	214.02
368.85	214.10
369.23	214.55
369.61	213.67
369.99	214.31
370.37	214.64
370.75	216.07
371.13	215.81
371.51	215.71
371.89	216.05
372.27	216.05
372.65	216.43
373.03	216.55
373.41	216.64
373.78	216.98
374.16	216.07
374.54	215.14
374.92	214.88
375.30	214.90
375.68	214.40
376.06	214.48
376.44	214.38
376.82	214.40
377.19	214.12
377.57	214.24
377.95	213.48
378.33	213.17
378.71	211.76
379.09	212.40
379.47	212.43
379.84	212.45
380.22	212.33
380.60	211.98
380.98	211.81
381.36	211.67
381.73	211.17
382.11	211.74
382.49	212.02
382.87	211.86
383.25	211.79
383.62	214.40
384.00	213.90
384.38	214.02
384.76	214.55
385.13	215.43
385.51	215.57
385.89	215.50
386.27	215.71
386.64	216.00
387.02	215.36
387.40	215.29
387.78	215.19
388.15	215.38
388.53	215.40
388.91	215.55
389.29	215.62
389.66	216.02
390.04	215.60
390.42	215.88
390.79	216.02
391.17	216.10
391.55	213.86
391.92	213.98
392.30	214.07
392.68	213.81
393.05	213.48
393.43	213.55
393.81	213.64
394.18	213.21
394.56	213.14
394.94	213.79
395.31	213.60
395.69	214.24
396.06	214.43
396.44	214.69
396.82	214.64
397.19	215.48
397.57	215.31
397.95	215.71
398.32	215.12
398.70	215.38
399.07	215.86
399.45	215.76
399.82	215.71
400.20	215.60
400.58	215.60
400.95	214.74
401.33	214.98
401.70	216.40
402.08	216.60
402.45	216.88
402.83	217.45
403.20	217.71
403.58	217.69
403.95	218.07
404.33	218.17
404.71	218.64
405.08	219.74
405.46	220.12
405.83	220.31
406.21	220.74
406.58	221.31
406.96	221.52
407.33	222.29
407.70	223.07
408.08	225.14
408.45	225.93
408.83	227.00
409.20	227.48
409.58	227.05
409.95	228.45
410.33	229.36
410.70	229.64
411.08	231.05
411.45	232.21
411.82	233.07
412.20	234.88
412.57	237.26
412.95	237.36
413.32	239.21
413.69	240.57
414.07	242.40
414.44	244.07
414.82	246.17
415.19	248.38
415.56	250.64
415.94	252.14
416.31	255.17
416.68	257.83
417.06	261.38
417.43	265.12
417.81	268.29
418.18	272.10
418.55	275.79
418.93	279.69
419.30	284.10
419.67	289.00
420.04	293.60
420.42	298.26
420.79	305.38
421.16	310.83
421.54	318.29
421.91	324.83
422.28	331.36
422.66	338.40
423.03	346.57
423.40	353.76
423.77	361.38
424.15	368.55
424.52	376.79
424.89	385.60
425.26	393.83
425.64	402.12
426.01	410.52
426.38	420.12
426.75	430.12
427.13	439.64
427.50	449.55
427.87	459.86
428.24	469.76
428.61	478.31
428.99	490.17
429.36	501.38
429.73	512.76
430.10	524.36
430.47	536.55
430.85	547.60
431.22	560.29
431.59	575.64
431.96	589.12
432.33	603.83
432.70	618.17
433.08	634.76
433.45	650.67
433.82	666.31
434.19	683.67
434.56	701.14
434.93	717.74
435.30	734.07
435.68	752.36
436.05	770.48
436.42	788.40
436.79	805.14
437.16	823.02
437.53	841.67
437.90	860.76
438.27	878.71
438.64	897.90
439.01	916.40
439.38	930.79
439.75	946.21
440.13	963.67
440.50	980.31
440.87	993.29
441.24	1006.74
441.61	1022.62
441.98	1033.19
442.35	1045.60
442.72	1058.57
443.09	1072.60
443.46	1080.29
443.83	1086.50
444.20	1091.33
444.57	1097.26
444.94	1100.48
445.31	1104.21
445.68	1110.40
446.05	1111.62
446.42	1110.40
446.79	1108.79
447.16	1106.62
447.53	1105.93
447.90	1099.95
448.27	1093.21
448.64	1084.38
449.01	1078.67
449.37	1066.71
449.74	1056.07
450.11	1044.50
450.48	1029.21
450.85	1012.76
451.22	999.95
451.59	987.05
451.96	974.60
452.33	958.81
452.70	943.31
453.07	925.57
453.43	904.93
453.80	888.05
454.17	871.76
454.54	855.52
454.91	839.24
455.28	821.98
455.65	805.76
456.02	793.26
456.38	780.10
456.75	763.29
457.12	749.50
457.49	736.26
457.86	721.36
458.23	710.93
458.59	698.69
458.96	686.50
459.33	675.24
459.70	664.64
460.07	655.79
460.43	646.74
460.80	637.88
461.17	629.90
461.54	621.43
461.91	612.21
462.27	604.21
462.64	596.17
463.01	588.24
463.38	581.88
463.74	571.00
464.11	563.98
464.48	558.33
464.85	551.71
465.21	546.62
465.58	541.55
465.95	534.90
466.32	529.71
466.68	524.10
467.05	518.48
467.42	513.50
467.78	507.64
468.15	502.02
468.52	498.10
468.88	492.07
469.25	487.38
469.62	484.31
469.98	480.00
470.35	476.31
470.72	472.83
471.08	467.64
471.45	464.74
471.82	462.24
472.18	458.21
472.55	455.79
472.92	452.12
473.28	448.69
473.65	445.52
474.02	442.86
474.38	440.64
474.75	439.00
475.11	436.33
475.48	434.45
475.85	432.48
476.21	429.86
476.58	428.62
476.94	427.69
477.31	426.50
477.67	425.17
478.04	424.12
478.41	423.45
478.77	424.71
479.14	423.62
479.50	422.55
479.87	422.45
480.23	421.95
480.60	421.88
480.96	422.02
481.33	423.29
481.69	423.31
482.06	423.10
482.42	423.60
482.79	424.07
483.15	424.69
483.52	425.74
483.88	426.52
484.25	427.45
484.61	428.24
484.98	428.69
485.34	430.33
485.71	432.21
486.07	433.45
486.44	432.98
486.80	434.67
487.17	436.33
487.53	438.74
487.90	440.98
488.26	443.76
488.62	446.57
488.99	447.95
489.35	450.86
489.72	454.24
490.08	456.55
490.44	459.24
490.81	462.69
491.17	465.93
491.54	470.05
491.90	473.50
492.26	476.86
492.63	480.69
492.99	484.48
493.36	488.52
493.72	493.05
494.08	497.38
494.45	501.83
494.81	506.86
495.17	511.40
495.54	517.12
495.90	522.00
496.26	526.88
496.63	532.81
496.99	538.10
497.35	543.71
497.72	550.17
498.08	556.67
498.44	562.52
498.80	569.33
499.17	575.17
499.53	582.10
499.89	589.69
500.26	596.57
500.62	603.36
500.98	610.98
501.34	618.31
501.71	626.31
502.07	633.83
502.43	640.90
502.79	648.48
503.16	655.50
503.52	662.83
503.88	669.88
504.24	677.52
504.60	686.00
504.97	694.17
505.33	701.64
505.69	709.93
506.05	718.14
506.41	726.05
506.78	734.67
507.14	742.43
507.50	749.93
507.86	758.19
508.22	766.14
508.59	772.67
508.95	780.48
509.31	789.43
509.67	797.95
510.03	806.43
510.39	814.48
510.75	822.71
511.12	830.83
511.48	839.71
511.84	847.79
512.20	855.36
512.56	863.45
512.92	871.71
513.28	879.79
513.64	887.79
514.00	894.83
514.37	902.64
514.73	910.38
515.09	918.88
515.45	926.05
515.81	933.79
516.17	941.88
516.53	948.62
516.89	955.29
517.25	962.50
517.61	970.33
517.97	977.67
518.33	984.67
518.69	991.71
519.05	998.05
519.41	1004.90
519.77	1012.57
520.13	1019.17
520.49	1025.05
520.85	1031.69
521.21	1038.33
521.57	1045.38
521.93	1050.43
522.29	1056.48
522.65	1061.90
523.01	1067.95
523.37	1073.12
523.73	1079.12
524.09	1086.02
524.45	1090.69
524.81	1095.17
525.17	1100.50
525.53	1105.10
525.89	1110.29
526.25	1115.74
526.61	1120.69
526.97	1125.19
527.33	1129.90
527.68	1135.86
528.04	1140.98
528.40	1145.38
528.76	1149.55
529.12	1154.38
529.48	1160.07
529.84	1165.07
530.20	1169.67
530.56	1174.93
530.91	1179.95
531.27	1184.26
531.63	1188.69
531.99	1193.19
532.35	1198.31
532.71	1201.64
533.07	1206.67
533.42	1213.02
533.78	1217.62
534.14	1222.76
534.50	1227.45
534.86	1232.71
535.21	1236.50
535.57	1241.67
535.93	1245.36
536.29	1251.64
536.65	1256.79
537.00	1260.40
537.36	1263.81
537.72	1267.36
538.08	1271.88
538.44	1275.55
538.79	1280.29
539.15	1282.71
539.51	1286.67
539.87	1290.81
540.22	1295.60
540.58	1299.29
540.94	1301.26
541.29	1304.93
541.65	1307.95
542.01	1312.26
542.37	1314.55
542.72	1316.69
543.08	1319.48
543.44	1324.14
543.79	1325.50
544.15	1327.83
544.51	1332.17
544.87	1336.24
545.22	1340.64
545.58	1342.98
545.94	1346.64
546.29	1349.60
546.65	1354.05
547.01	1357.14
547.36	1360.52
547.72	1362.57
548.07	1366.57
548.43	1369.60
548.79	1372.81
549.14	1375.33
549.50	1378.17
549.86	1380.48
550.21	1383.57
550.57	1387.10
550.92	1389.57
551.28	1393.07
551.64	1396.64
551.99	1400.21
552.35	1402.69
552.70	1405.29
553.06	1409.76
553.41	1413.67
553.77	1418.71
554.13	1422.57
554.48	1428.10
554.84	1432.07
555.19	1437.07
555.55	1442.02
555.90	1446.76
556.26	1450.76
556.61	1455.45
556.97	1459.31
557.32	1464.26
557.68	1468.19
558.03	1472.26
558.39	1476.57
558.74	1481.26
559.10	1486.21
559.45	1489.76
559.81	1495.60
560.16	1500.29
560.52	1504.31
560.87	1509.55
561.23	1512.52
561.58	1518.74
561.94	1521.83
562.29	1527.12
562.64	1532.95
563.00	1536.64
563.35	1540.71
563.71	1546.74
564.06	1552.29
564.42	1557.52
564.77	1563.64
565.12	1570.64
565.48	1579.17
565.83	1586.05
566.19	1591.69
566.54	1596.21
566.89	1601.64
567.25	1607.48
567.60	1614.79
567.96	1622.48
568.31	1628.74
568.66	1636.52
569.02	1640.10
569.37	1645.95
569.72	1650.81
570.08	1655.33
570.43	1659.69
570.78	1664.74
571.14	1669.40
571.49	1674.48
571.84	1679.55
572.20	1683.98
572.55	1688.07
572.90	1689.90
573.26	1693.62
573.61	1697.79
573.96	1702.38
574.31	1707.31
574.67	1710.88
575.02	1713.55
575.37	1714.79
575.72	1716.79
576.08	1719.29
576.43	1722.64
576.78	1725.26
577.13	1728.33
577.49	1730.93
577.84	1735.55
578.19	1739.52
578.54	1742.86
578.90	1746.00
579.25	1748.48
579.60	1750.40
579.95	1752.83
580.30	1755.21
580.66	1758.26
581.01	1760.98
581.36	1762.69
581.71	1765.21
582.06	1768.50
582.42	1771.12
582.77	1773.14
583.12	1775.17
583.47	1777.05
583.82	1779.90
584.17	1783.21
584.53	1785.50
584.88	1788.21
585.23	1788.90
585.58	1790.74
585.93	1791.38
586.28	1792.76
586.63	1794.67
586.98	1796.79
587.34	1799.07
587.69	1800.52
588.04	1801.12
588.39	1802.64
588.74	1803.45
589.09	1804.81
589.44	1804.24
589.79	1804.50
590.14	1806.21
590.49	1807.88
590.84	1808.55
591.19	1809.43
591.54	1809.38
591.89	1809.57
592.25	1811.24
592.60	1811.71
592.95	1811.55
593.30	1812.21
593.65	1812.38
594.00	1811.88
594.35	1817.50
594.70	1817.19
595.05	1817.07
595.40	1815.79
595.75	1815.83
596.10	1816.95
596.45	1815.88
596.80	1816.10
597.15	1815.83
597.50	1814.60
597.85	1814.31
598.19	1812.48
598.54	1810.45
598.89	1810.88
599.24	1810.69
599.59	1807.88
599.94	1806.71
600.29	1805.33
600.64	1804.88
600.99	1803.52
601.34	1803.14
601.69	1796.02
602.04	1794.10
602.39	1793.07
602.74	1793.05
603.08	1790.90
603.43	1790.00
603.78	1788.79
604.13	1788.02
604.48	1785.57
604.83	1784.52
605.18	1782.90
605.53	1781.98
605.87	1780.10
606.22	1776.12
606.57	1773.45
606.92	1771.57
607.27	1770.45
607.62	1769.14
607.96	1766.07
608.31	1764.50
608.66	1762.24
609.01	1759.02
609.36	1756.40
609.70	1753.05
610.05	1749.50
610.40	1746.52
610.75	1742.33
611.10	1739.29
611.44	1734.02
611.79	1730.76
612.14	1727.43
612.49	1722.36
612.83	1719.07
613.18	1715.10
613.53	1711.57
613.88	1706.57
614.22	1702.02
614.57	1696.45
614.92	1691.38
615.27	1686.69
615.61	1681.83
615.96	1676.14
616.31	1672.19
616.65	1668.21
617.00	1663.79
617.35	1659.40
617.70	1654.74
618.04	1649.86
618.39	1643.86
618.74	1639.90
619.08	1634.86
619.43	1629.14
619.78	1625.10
620.12	1619.95
620.47	1615.86
620.82	1610.67
621.16	1605.69
621.51	1601.38
621.85	1595.64
622.20	1589.95
622.55	1584.55
622.89	1578.69
623.24	1574.43
623.59	1569.10
623.93	1564.02
624.28	1558.38
624.62	1555.90
624.97	1551.90
625.32	1547.05
625.66	1542.74
626.01	1536.71
626.35	1532.64
626.70	1528.17
627.04	1524.26
627.39	1518.12
627.73	1514.17
628.08	1510.21
628.43	1505.76
628.77	1501.14
629.12	1497.76
629.46	1493.69
629.81	1488.98
630.15	1483.76
630.50	1477.88
630.84	1472.62
631.19	1466.79
631.53	1462.40
631.88	1453.52
632.22	1446.67
632.57	1441.29
632.91	1435.79
633.26	1431.17
633.60	1424.88
633.95	1418.93
634.29	1411.07
634.64	1405.76
634.98	1398.45
635.32	1392.86
635.67	1387.52
636.01	1381.40
636.36	1375.07
636.70	1370.43
637.05	1365.14
637.39	1360.05
637.73	1354.83
638.08	1349.98
638.42	1344.33
638.77	1338.62
639.11	1333.55
639.45	1328.00
639.80	1321.93
640.14	1315.45
640.49	1309.55
640.83	1304.07
641.17	1298.02
641.52	1293.26
641.86	1287.81
642.20	1283.33
642.55	1276.83
642.89	1270.26
643.23	1263.71
643.58	1257.69
643.92	1249.76
644.26	1243.33
644.61	1237.69
644.95	1230.98
645.29	1223.74
645.64	1217.74
645.98	1211.00
646.32	1204.86
646.66	1197.33
647.01	1190.62
647.35	1184.90
647.69	1178.74
648.04	1172.48
648.38	1166.33
648.72	1159.07
649.06	1152.40
649.41	1144.95
649.75	1137.90
650.09	1131.90
650.43	1124.83
650.78	1118.43
651.12	1112.52
651.46	1105.67
651.80	1098.33
652.14	1092.05
652.49	1085.76
652.83	1079.17
653.17	1072.38
653.51	1065.43
653.85	1059.62
654.20	1052.67
654.54	1045.83
654.88	1038.29
655.22	1031.88
655.56	1025.50
655.90	1019.31
656.25	1012.00
656.59	1005.79
656.93	999.81
657.27	994.10
657.61	987.50
657.95	981.48
658.29	974.74
658.64	968.81
658.98	962.90
659.32	956.57
659.66	950.10
660.00	943.50
660.34	936.88
660.68	931.31
661.02	924.57
661.36	919.38
661.70	913.21
662.05	907.88
662.39	902.19
662.73	896.83
663.07	892.05
663.41	887.17
663.75	880.76
664.09	874.83
664.43	868.29
664.77	862.88
665.11	856.95
665.45	851.57
665.79	845.90
666.13	839.69
666.47	833.67
666.81	828.64
667.15	823.19
667.49	818.31
667.83	813.29
668.17	808.74
668.51	802.69
668.85	798.00
669.19	793.67
669.53	787.40
669.87	781.57
670.21	775.31
670.55	769.19
670.89	765.29
671.23	760.10
671.57	755.33
671.91	751.05
672.25	745.98
672.58	741.19
672.92	735.86
673.26	731.24
673.60	727.24
673.94	722.14
674.28	717.33
674.62	713.10
674.96	707.83
675.30	703.29
675.64	698.81
675.97	694.07
676.31	688.79
676.65	684.43
676.99	680.88
677.33	676.40
677.67	672.83
678.01	667.21
678.34	662.86
678.68	658.71
679.02	653.83
679.36	648.60
679.70	644.07
680.04	639.60
680.37	635.05
680.71	630.67
681.05	626.74
681.39	623.12
681.73	618.50
682.06	614.29
682.40	610.07
682.74	606.64
683.08	602.86
683.42	598.50
683.75	594.00
684.09	588.50
684.43	584.69
684.77	580.02
685.10	575.95
685.44	571.83
685.78	567.12
686.12	563.24
686.45	559.45
686.79	555.19
687.13	552.05
687.46	548.24
687.80	544.71
688.14	540.55
688.48	536.52
688.81	532.71
689.15	529.52
689.49	525.31
689.82	521.52
690.16	516.86
690.50	513.02
690.83	509.76
691.17	506.00
691.51	502.33
691.84	498.88
692.18	495.71
692.52	492.60
692.85	489.55
693.19	486.90
693.52	483.64
693.86	480.14
694.20	476.52
694.53	473.74
694.87	469.93
695.21	466.52
695.54	463.07
695.88	459.55
696.21	455.33
696.55	452.67
696.88	449.40
697.22	446.48
697.56	443.74
697.89	440.55
698.23	438.19
698.56	435.17
698.90	432.69
699.23	429.76
699.57	426.71
699.90	423.69
700.24	420.21
700.58	418.00
700.91	415.86
701.25	414.69
701.58	412.55
701.92	410.50
702.25	408.36
702.59	405.67
702.92	403.40
703.26	401.33
703.59	398.71
703.93	398.26
704.26	396.10
704.60	393.95
704.93	391.74
705.26	389.31
705.60	387.55
705.93	385.00
706.27	383.48
706.60	382.29
706.94	381.36
707.27	379.14
707.61	377.36
707.94	375.19
708.27	371.90
708.61	369.14
708.94	367.26
709.28	365.57
709.61	364.10
709.94	362.69
710.28	361.12
710.61	359.52
710.95	355.40
711.28	355.24
711.61	353.52
711.95	352.52
712.28	350.62
712.61	348.71
712.95	348.29
713.28	347.21
713.61	344.95
713.95	342.36
714.28	340.88
714.61	339.00
714.95	337.52
715.28	335.88
715.61	334.31
715.95	333.07
716.28	331.33
716.61	329.93
716.95	328.14
717.28	326.43
717.61	325.00
717.94	323.79
718.28	320.76
718.61	319.33
718.94	317.24
719.27	316.26
719.61	314.86
719.94	313.02
720.27	310.64
720.60	309.43
720.94	308.26
721.27	307.29
721.60	306.38
721.93	305.19
722.27	304.60
722.60	303.79
722.93	302.19
723.26	301.10
723.59	299.71
723.93	298.86
724.26	298.00
724.59	296.81
724.92	295.95
725.25	295.67
725.59	294.52
725.92	294.19
726.25	293.10
726.58	292.29
726.91	291.12
727.24	290.64
727.57	289.60
727.91	288.48
728.24	287.57
728.57	286.60
728.90	285.83
729.23	284.26
729.56	284.12
729.89	283.60
730.22	282.62
730.55	281.67
730.89	280.86
731.22	279.83
731.55	278.95
731.88	278.43
732.21	277.21
732.54	276.52
732.87	275.55
733.20	274.74
733.53	274.02
733.86	273.52
734.19	272.26
734.52	271.88
734.85	272.24
735.18	271.31
735.51	271.26
735.84	270.79
736.17	270.50
736.50	268.79
736.83	270.14
737.16	269.86
737.49	269.33
737.82	268.50
738.15	268.17
738.48	267.67
738.81	266.98
739.14	266.14
739.47	265.52
739.80	265.31
740.13	265.12
740.46	264.38
740.79	263.48
741.12	263.07
741.45	262.14
741.78	260.79
742.11	260.74
742.44	259.64
742.77	259.26
743.10	258.81
743.43	258.33
743.75	255.90
744.08	257.55
744.41	256.88
744.74	256.14
745.07	255.21
745.40	255.29
745.73	255.67
746.06	255.31
746.39	254.88
746.71	253.81
747.04	253.00
747.37	252.31
747.70	252.24
748.03	251.76
748.36	251.48
748.68	251.00
749.01	250.17
749.34	249.69
749.67	249.17
750.00	248.86
750.33	250.12
750.65	250.02
750.98	247.33
751.31	247.14
751.64	247.05
751.97	248.02
752.29	247.14
752.62	245.74
752.95	245.36
753.28	244.71
753.60	244.57
753.93	244.95
754.26	244.83
754.59	243.95
754.91	243.48
755.24	243.24
755.57	242.74
755.90	242.33
756.22	241.90
756.55	241.38
756.88	240.79
757.20	238.93
757.53	237.60
757.86	237.21
758.19	237.21
758.51	236.86
758.84	235.21
759.17	234.67
759.49	234.36
759.82	235.10
760.15	235.21
760.47	234.83
760.80	233.90
761.13	234.17
761.45	233.67
761.78	233.40
762.11	232.90
762.43	232.62
762.76	232.40
763.08	232.36
763.41	232.10
763.74	232.00
764.06	231.81
764.39	231.90
764.71	231.38
765.04	230.76
765.37	230.60
765.69	230.45
766.02	230.26
766.34	230.02
766.67	229.12
767.00	229.38
767.32	230.43
767.65	231.50
767.97	231.05
768.30	231.07
768.62	231.00
768.95	230.83
769.27	230.67
769.60	230.69
769.92	230.19
770.25	229.79
770.57	229.00
770.90	228.90
771.22	228.48
771.55	228.55
771.87	228.62
772.20	228.24
772.52	229.95
772.85	232.52
773.17	232.33
773.50	232.10
773.82	231.38
774.15	230.05
774.47	228.43
774.80	228.02
775.12	227.93
775.45	227.93
775.77	227.93
776.09	227.98
776.42	227.74
776.74	228.24
777.07	228.14
777.39	228.12
777.72	227.60
778.04	227.67
778.36	227.48
778.69	227.24
779.01	227.36
779.33	225.38
779.66	222.76
779.98	222.69
780.31	222.48
780.63	223.12
780.95	223.36
781.28	223.43
781.60	222.93
781.92	223.02
782.25	222.64
782.57	222.62
782.89	222.40
783.22	222.17
783.54	221.64
783.86	221.83
784.19	221.74
784.51	222.43
784.83	222.10
785.16	221.86
785.48	221.76
785.80	221.64
786.12	221.98
786.45	221.83
786.77	222.00
787.09	221.88
787.42	221.19
787.74	221.21
788.06	221.02
788.38	221.26
788.71	220.76
789.03	220.86
789.35	220.98
789.67	220.71
789.99	221.02
790.32	220.67
790.64	220.81
790.96	222.57
791.28	221.90
791.61	221.98
791.93	222.24
792.25	222.17
792.57	223.55
792.89	222.81
793.21	222.88
793.54	222.60
793.86	222.21
794.18	222.31
794.50	221.83
794.82	222.07
795.14	221.95
795.47	222.36
795.79	222.57
796.11	221.98
796.43	221.71
796.75	221.57
797.07	221.52
797.39	221.21
797.71	219.67
798.04	219.69
798.36	219.60
798.68	219.45
799.00	219.76
799.32	218.62
799.64	219.19
799.96	218.98
800.28	219.19
800.60	219.19
800.92	219.55
801.24	219.43
801.56	219.31
801.89	219.24
802.21	219.12
802.53	218.48
802.85	218.95
803.17	219.93
803.49	219.57
803.81	219.60
804.13	219.48
804.45	219.10
804.77	219.33
805.09	219.40
805.41	219.24
805.73	218.60
806.05	218.02
806.37	217.76
806.69	217.76
807.01	217.60
807.33	218.05
807.65	217.07
807.97	218.12
808.28	217.67
808.60	217.43
808.92	217.19
809.24	218.55
809.56	218.21
809.88	217.48
810.20	217.52
810.52	217.93
810.84	217.50
811.16	217.40
811.48	217.12
811.80	217.71
812.12	217.55
812.43	217.86
812.75	218.07
813.07	218.02
813.39	218.24
813.71	217.67
814.03	217.43
814.35	217.36
814.67	216.38
814.98	216.48
815.30	216.64
815.62	216.52
815.94	215.19
816.26	215.10
816.58	214.64
816.89	214.74
817.21	214.07
817.53	214.55
817.85	214.67
818.17	214.64
818.48	213.93
818.80	214.12
819.12	213.90
819.44	213.57
819.76	213.17
820.07	213.00
820.39	213.31
820.71	213.33
821.03	213.43
821.34	213.33
821.66	213.90
821.98	214.12
822.30	214.00
822.61	215.26
822.93	215.02
823.25	215.21
823.57	214.79
823.88	215.43
824.20	215.14
824.52	215.38
824.83	215.21
825.15	214.95
825.47	215.00
825.79	215.21
826.10	215.31
826.42	215.33
826.74	215.69
827.05	215.69
827.37	215.55
827.69	215.36
828.00	215.33
828.32	214.90
828.64	214.69
828.95	215.95
829.27	215.29
829.58	215.48
829.90	215.81
830.22	216.24
830.53	215.62
830.85	215.45
831.17	215.29
831.48	215.40
831.80	215.74
832.11	215.57
832.43	215.19
832.75	215.05
833.06	216.24
833.38	215.40
833.69	215.43
834.01	215.67
834.32	215.67
834.64	215.57
834.96	215.71
835.27	215.86
835.59	215.05
835.90	214.57
836.22	214.40
836.53	213.95
836.85	213.62
837.16	215.79
837.48	215.62
837.79	216.19
838.11	216.07
838.42	215.93
838.74	216.29
839.05	216.33
839.37	216.12
839.68	214.76
840.00	214.76
840.31	214.93
840.63	214.76
840.94	214.57
841.26	214.52
841.57	214.48
841.88	214.60
842.20	214.24
842.51	214.14
842.83	214.19
843.14	216.17
843.46	216.19
843.77	215.02
844.08	215.12
844.40	214.26
844.71	214.26
845.03	214.10
845.34	214.00
845.65	213.86
845.97	214.12
846.28	214.31
846.60	214.55
846.91	214.29
847.22	214.26
847.54	214.95
847.85	215.14
848.16	215.00
848.48	214.48
848.79	215.40
849.10	215.43
849.42	215.64
849.73	213.52
850.04	213.64
850.36	212.86
850.67	213.33
850.98	213.55
851.30	213.57
851.61	213.62
851.92	213.31
852.23	214.07
852.55	214.10
852.86	214.05
853.17	214.12
853.49	214.43
853.80	214.55
854.11	214.76
854.42	214.83
854.74	214.62
855.05	214.81
855.36	213.67
855.67	213.93
855.99	213.88
856.30	216.36
856.61	216.17
856.92	216.38
857.23	216.26
857.55	216.02
857.86	215.98
858.17	216.29
858.48	216.31
858.79	215.86
859.11	216.00
859.42	216.05
859.73	215.83
860.04	215.76
860.35	215.24
860.66	214.43
860.98	214.29
861.29	214.55
861.60	214.29
861.91	214.81
862.22	214.31
862.53	213.86
862.84	211.43
863.16	211.93
863.47	211.62
863.78	211.45
864.09	211.48
864.40	211.64
864.71	211.50
865.02	211.55
865.33	211.10
865.64	210.67
865.95	210.67
866.27	211.88
866.58	211.64
866.89	211.93
867.20	211.95
867.51	211.64
867.82	211.43
868.13	212.31
868.44	211.76
868.75	212.26
869.06	212.74
869.37	213.17
869.68	212.48
869.99	212.71
870.30	212.76
870.61	213.12
870.92	212.79
871.23	212.67
871.54	212.76
871.85	213.38
872.16	213.86
872.47	213.93
872.78	212.52
873.09	212.74
873.40	212.62
873.71	212.74
874.02	212.79
874.33	212.62
874.64	211.88
874.95	212.40
875.26	211.83
875.56	211.71
875.87	211.55
876.18	211.52
876.49	213.55
876.80	213.21
877.11	212.76
877.42	212.79
877.73	212.74
878.04	212.74
878.35	212.64
878.66	212.52
878.96	212.31
879.27	212.45
879.58	212.26
879.89	212.29
880.20	213.00
880.51	212.95
880.82	212.88
881.12	213.17
881.43	212.64
881.74	212.76
882.05	212.55
882.36	212.52
882.67	212.83
882.97	210.64
883.28	210.69
883.59	210.57
883.90	210.95
884.21	211.33
884.51	211.19
884.82	211.07
885.13	211.12
885.44	211.02
885.74	211.21
886.05	211.40
886.36	211.52
886.67	210.57
886.98	211.71
887.28	212.10
887.59	211.98
887.90	212.00
888.20	211.81
888.51	212.26
888.82	212.02
889.13	212.05
889.43	213.81
889.74	213.69
890.05	213.98
890.35	213.74
890.66	213.50
890.97	213.43
891.28	213.05
891.58	212.98
891.89	213.10
892.20	212.93
892.50	212.62
892.81	212.33
893.12	212.48
893.42	211.50
893.73	211.24
894.04	211.26
894.34	211.64
894.65	211.60
894.95	211.31
895.26	211.52
895.57	212.64
895.87	210.43
896.18	211.05
896.48	211.17
896.79	211.19
897.10	211.43
897.40	211.57
897.71	211.88
898.01	211.52
898.32	211.79
898.63	211.86
898.93	211.93
899.24	212.05
899.54	212.02
899.85	211.90
900.15	212.10
900.46	211.95
900.76	212.00
901.07	212.02
901.38	212.10
901.68	212.17
901.99	210.98
902.29	211.43
902.60	211.14
902.90	210.71
903.21	210.74
903.51	210.55
903.82	210.93
904.12	210.98
904.43	211.43
904.73	211.36
905.03	211.48
905.34	213.36
905.64	213.31
905.95	213.36
906.25	213.45
906.56	213.52
906.86	213.76
907.17	213.81
907.47	214.10
907.77	213.88
908.08	213.64
908.38	213.95
908.69	214.31
908.99	214.62
909.30	214.81
909.60	214.79
909.90	214.88
910.21	214.14
910.51	213.95
910.81	213.81
911.12	213.81
911.42	213.83
911.73	211.74
912.03	211.79
912.33	212.12
912.64	212.02
912.94	211.86
913.24	211.40
913.55	211.07
913.85	210.86
914.15	211.36
914.46	211.57
914.76	211.10
915.06	210.76
915.37	210.24
915.67	210.02
915.97	210.12
916.27	209.79
916.58	209.79
916.88	209.62
917.18	209.55
917.49	210.71
917.79	210.48
918.09	210.95
918.39	211.50
918.70	211.26
919.00	211.29
919.30	212.10
919.60	212.12
919.91	211.90
920.21	212.33
920.51	211.83
920.81	211.64
921.12	212.14
921.42	211.88
921.72	212.21
922.02	212.40
922.32	212.57
922.63	212.74
922.93	213.83
923.23	214.10
923.53	213.93
923.83	213.12
924.13	213.45
924.44	213.40
924.74	213.88
925.04	214.45
925.34	214.57
925.64	213.83
925.94	213.64
926.24	214.79
926.55	214.31
926.85	214.64
927.15	214.81
927.45	214.88
927.75	215.21
928.05	215.05
928.35	214.98
928.65	215.29
928.95	215.40
929.26	214.64
929.56	214.93
929.86	215.38
930.16	215.07
930.46	214.71
930.76	214.67
931.06	213.62
931.36	212.98
931.66	213.26
931.96	213.48
932.26	213.67
932.56	212.95
932.86	213.17
933.16	213.05
933.46	212.76
933.76	212.14
934.06	212.52
934.36	213.43
934.66	213.67
934.96	213.26
935.26	213.38
935.56	213.79
935.86	213.26
936.16	212.83
936.46	212.57
936.76	212.74
937.06	212.50
937.36	212.52
937.66	212.48
937.96	212.10
938.26	211.55
938.56	211.45
938.86	211.33
939.16	211.71
939.46	211.98
939.76	212.19
940.06	212.33
940.35	211.93
940.65	210.76
940.95	210.76
941.25	210.31
941.55	209.71
941.85	209.64
942.15	210.19
942.45	210.83
942.75	210.86
943.04	210.74
943.34	211.17
943.64	211.05
943.94	211.07
944.24	211.29
944.54	211.71
944.84	211.88
945.13	211.88
945.43	211.79
945.73	211.55
946.03	211.14
946.33	211.00
946.62	210.57
946.92	210.69
947.22	210.76
947.52	211.00
947.82	211.52
948.11	211.00
948.41	210.40
948.71	209.88
949.01	209.95
949.31	209.90
949.60	209.76
949.90	210.14
950.20	210.14
950.50	210.19
950.79	209.79
951.09	209.95
951.39	210.07
951.69	209.71
951.98	210.07
952.28	210.43
952.58	210.52
952.87	210.69
953.17	211.02
953.47	210.62
953.76	210.74
954.06	210.45
954.36	210.40
954.66	210.60
954.95	211.07
955.25	211.31
955.55	211.24
955.84	211.05
956.14	211.24
956.44	211.29
956.73	210.88
957.03	211.36
957.32	211.26
957.62	210.93
957.92	211.40
958.21	211.36
958.51	213.88
958.81	214.29
959.10	214.69
959.40	214.95
959.69	215.14
959.99	215.38
960.29	215.36
960.58	215.43
960.88	216.24
961.17	215.95
961.47	216.12
961.76	216.14
962.06	216.48
962.36	216.29
962.65	216.26
962.95	216.26
963.24	215.83
963.54	216.05
963.83	216.38
964.13	216.07
964.42	215.48
964.72	213.43
965.01	213.21
965.31	212.90
965.60	212.38
965.90	213.67
966.19	213.24
966.49	213.64
966.78	213.64
967.08	213.38
967.37	213.29
967.67	212.83
967.96	213.31
968.26	213.12
968.55	213.24
968.85	213.24
969.14	213.29
969.43	213.31
969.73	213.26
970.02	212.98
970.32	212.95
970.61	213.07
970.91	212.52
971.20	212.21
971.49	212.12
971.79	212.55
972.08	210.95
972.38	211.29
972.67	211.02
972.96	211.21
973.26	210.62
973.55	211.31
973.85	211.33
974.14	211.02
974.43	211.00
974.73	210.74
975.02	210.64
975.31	210.88
975.61	211.05
975.90	210.86
976.19	210.83
976.49	211.12
976.78	211.31
977.07	211.43
977.37	211.71
977.66	211.98
977.95	211.62
978.24	211.95
978.54	212.10
978.83	211.83
979.12	211.74
979.42	211.71
979.71	211.26
980.00	211.12
980.29	211.26
980.59	211.00
980.88	211.38
981.17	211.24
981.46	211.19
981.76	211.02
982.05	211.57
982.34	211.62
982.63	211.43
982.93	211.31
983.22	211.76
983.51	211.74
983.80	211.76
984.09	211.98
984.39	211.81
984.68	211.62
984.97	211.74
985.26	211.48
985.55	211.71
985.85	211.29
986.14	211.60
986.43	211.81
986.72	211.81
987.01	211.05
987.30	211.14
987.59	210.76
987.89	210.98
988.18	210.45
988.47	210.29
988.76	210.10
989.05	209.79
989.34	209.43
989.63	210.12
989.92	209.93
990.22	209.71
990.51	209.83
990.80	209.90
991.09	210.07
991.38	210.45
991.67	210.38
991.96	210.40
992.25	210.45
992.54	210.05
992.83	209.95
993.12	209.98
993.41	210.19
993.70	211.36
993.99	211.62
994.28	211.69
994.58	212.00
994.87	211.90
995.16	212.00
995.45	211.76
995.74	210.76
996.03	211.14
996.32	211.67
996.61	212.24
996.90	211.98
997.19	211.76
997.48	211.55
997.77	211.19
998.06	211.45
998.34	211.36
998.63	211.62
998.92	211.76
999.21	212.38
999.50	212.60
999.79	211.74
1000.08	211.55
1000.37	211.48
1000.66	211.31
1000.95	211.81
1001.24	211.90
1001.53	212.19
1001.82	212.24
1002.11	211.60
1002.40	211.60
1002.68	211.62
1002.97	212.95
1003.26	212.98
1003.55	212.86
1003.84	213.00
1004.13	213.86
1004.42	213.76
1004.71	213.64
1004.99	213.62
1005.28	214.05
1005.57	213.79
1005.86	213.55
1006.15	213.48
1006.44	213.36
1006.72	213.48
1007.01	213.31
1007.30	213.17
1007.59	213.02
1007.88	213.21
1008.17	213.29
1008.45	212.71
1008.74	212.02
1009.03	211.19
1009.32	211.05
1009.60	211.05
1009.89	211.17
1010.18	210.00
1010.47	209.81
1010.76	209.69
1011.04	209.69
1011.33	209.64
1011.62	209.67
1011.91	209.60
1012.19	209.74
1012.48	209.71
1012.77	209.86
1013.05	210.79
1013.34	210.95
1013.63	210.98
1013.92	211.02
1014.20	211.00
1014.49	211.12
1014.78	211.36
1015.06	210.69
1015.35	210.67
1015.64	211.12
1015.92	211.52
1016.21	211.74
1016.50	211.88
1016.78	212.02
1017.07	212.00
1017.36	211.50
1017.64	211.10
1017.93	211.69
1018.22	211.33
1018.50	211.36
1018.79	211.38
1019.08	210.19
1019.36	210.29
1019.65	210.00
1019.93	210.43
1020.22	210.74
1020.51	211.95
1020.79	211.60
1021.08	205.50
1021.36	207.00
1021.65	215.00
1021.94	208.50
1022.22	211.00
1022.51	205.50
1022.79	220.00
1023.08	212.00
1023.36	237.50
1023.65	203.50
>>>>>End Processed Spectral Data<<<<<
