SpectraSuite Data File
++++++++++++++++++++++++++++++++++++
Date: Tue Apr 02 18:46:26 EDT 2013
User: group
Dark Spectrum Present: No
Reference Spectrum Present: No
Number of Sampled Component Spectra: 1
Spectrometers: USB2E7196
Integration Time (usec): 580000 (USB2E7196)
Spectra Averaged: 2 (USB2E7196)
Boxcar Smoothing: 10 (USB2E7196)
Correct for Electrical Dark: No (USB2E7196)
Strobe/Lamp Enabled: No (USB2E7196)
Correct for Detector Non-linearity: No (USB2E7196)
Correct for Stray Light: No (USB2E7196)
Number of Pixels in Processed Spectrum: 2048
>>>>>Begin Processed Spectral Data<<<<<
339.09	0.00
339.48	192.50
339.86	195.50
340.24	195.00
340.63	193.00
341.01	232.50
341.39	202.50
341.78	206.00
342.16	211.50
342.54	205.50
342.93	197.26
343.31	207.10
343.69	207.71
344.07	208.17
344.46	209.07
344.84	209.93
345.22	208.79
345.60	209.48
345.99	209.81
346.37	209.86
346.75	210.07
347.13	210.36
347.52	210.50
347.90	211.33
348.28	211.76
348.66	212.24
349.05	211.76
349.43	212.14
349.81	212.24
350.19	212.29
350.57	212.45
350.96	212.67
351.34	213.14
351.72	213.45
352.10	213.74
352.48	213.45
352.87	213.55
353.25	213.52
353.63	213.33
354.01	213.21
354.39	213.40
354.77	213.55
355.15	214.19
355.54	214.26
355.92	213.81
356.30	213.81
356.68	215.19
357.06	215.50
357.44	214.95
357.82	214.83
358.20	215.86
358.58	215.88
358.97	215.69
359.35	215.95
359.73	216.31
360.11	216.36
360.49	216.64
360.87	216.62
361.25	217.07
361.63	217.64
362.01	217.86
362.39	217.57
362.77	217.64
363.15	217.69
363.53	217.98
363.91	217.95
364.29	217.83
364.67	215.98
365.05	215.86
365.43	216.19
365.81	216.45
366.19	216.79
366.57	217.48
366.95	217.40
367.33	216.93
367.71	216.88
368.09	217.21
368.47	217.24
368.85	217.05
369.23	217.38
369.61	216.76
369.99	217.31
370.37	217.60
370.75	218.55
371.13	217.76
371.51	217.33
371.89	217.52
372.27	217.79
372.65	218.10
373.03	218.10
373.41	218.07
373.78	217.83
374.16	216.60
374.54	215.76
374.92	215.76
375.30	216.00
375.68	215.48
376.06	215.45
376.44	215.26
376.82	215.26
377.19	215.14
377.57	215.00
377.95	214.17
378.33	213.90
378.71	212.76
379.09	213.24
379.47	213.45
379.84	213.10
380.22	212.88
380.60	212.36
380.98	212.24
381.36	212.17
381.73	212.05
382.11	212.24
382.49	212.36
382.87	212.19
383.25	211.86
383.62	214.45
384.00	213.95
384.38	213.98
384.76	214.67
385.13	215.29
385.51	215.29
385.89	215.33
386.27	215.48
386.64	215.62
387.02	215.67
387.40	215.31
387.78	215.50
388.15	215.76
388.53	215.81
388.91	216.00
389.29	215.86
389.66	216.02
390.04	215.83
390.42	216.45
390.79	216.71
391.17	216.69
391.55	214.24
391.92	214.62
392.30	214.90
392.68	214.31
393.05	213.90
393.43	213.83
393.81	213.93
394.18	213.79
394.56	213.88
394.94	214.12
395.31	213.98
395.69	214.50
396.06	214.57
396.44	214.48
396.82	214.14
397.19	215.21
397.57	215.24
397.95	215.57
398.32	214.76
398.70	214.71
399.07	215.17
399.45	215.33
399.82	215.21
400.20	214.95
400.58	215.00
400.95	214.40
401.33	215.05
401.70	216.38
402.08	216.26
402.45	216.52
402.83	217.02
403.20	217.36
403.58	217.29
403.95	217.62
404.33	218.29
404.71	218.81
405.08	220.10
405.46	220.45
405.83	220.88
406.21	221.38
406.58	221.76
406.96	222.07
407.33	222.64
407.70	223.29
408.08	225.62
408.45	226.52
408.83	227.60
409.20	228.02
409.58	227.98
409.95	229.40
410.33	230.10
410.70	230.07
411.08	231.43
411.45	232.55
411.82	233.48
412.20	234.93
412.57	237.19
412.95	236.83
413.32	238.33
413.69	239.52
414.07	241.02
414.44	243.19
414.82	245.21
415.19	247.64
415.56	249.48
415.94	250.29
416.31	253.07
416.68	255.93
417.06	259.40
417.43	262.76
417.81	266.05
418.18	269.86
418.55	273.79
418.93	277.74
419.30	281.71
419.67	286.02
420.04	290.31
420.42	294.67
420.79	301.71
421.16	307.38
421.54	314.38
421.91	320.48
422.28	326.29
422.66	332.88
423.03	340.60
423.40	347.69
423.77	355.02
424.15	362.10
424.52	369.64
424.89	377.64
425.26	385.07
425.64	392.67
426.01	400.93
426.38	409.95
426.75	419.40
427.13	428.33
427.50	438.31
427.87	448.57
428.24	458.40
428.61	466.98
428.99	478.12
429.36	488.48
429.73	500.00
430.10	511.50
430.47	522.98
430.85	533.48
431.22	545.83
431.59	560.64
431.96	573.21
432.33	587.07
432.70	600.95
433.08	617.07
433.45	632.02
433.82	646.33
434.19	662.79
434.56	679.64
434.93	696.07
435.30	711.76
435.68	729.21
436.05	746.64
436.42	763.76
436.79	779.43
437.16	796.55
437.53	814.31
437.90	831.52
438.27	849.02
438.64	866.86
439.01	884.57
439.38	897.71
439.75	911.95
440.13	928.76
440.50	944.36
440.87	957.45
441.24	970.21
441.61	984.76
441.98	995.93
442.35	1007.86
442.72	1020.10
443.09	1033.33
443.46	1040.81
443.83	1045.90
444.20	1050.00
444.57	1055.76
444.94	1059.14
445.31	1062.71
445.68	1068.40
446.05	1069.55
446.42	1068.45
446.79	1067.00
447.16	1065.45
447.53	1065.10
447.90	1058.38
448.27	1051.64
448.64	1042.45
449.01	1037.33
449.37	1026.83
449.74	1015.57
450.11	1004.12
450.48	989.45
450.85	974.12
451.22	961.43
451.59	949.17
451.96	937.90
452.33	923.00
452.70	908.69
453.07	891.88
453.43	872.95
453.80	857.21
454.17	841.60
454.54	825.93
454.91	809.86
455.28	793.81
455.65	779.38
456.02	768.02
456.38	755.86
456.75	739.93
457.12	726.67
457.49	714.05
457.86	699.93
458.23	690.24
458.59	678.19
458.96	666.43
459.33	655.88
459.70	645.48
460.07	637.26
460.43	627.86
460.80	618.93
461.17	611.60
461.54	603.14
461.91	595.12
462.27	586.83
462.64	579.60
463.01	572.43
463.38	565.90
463.74	555.40
464.11	548.79
464.48	543.12
464.85	536.95
465.21	532.67
465.58	527.60
465.95	520.83
466.32	515.86
466.68	510.64
467.05	505.81
467.42	500.67
467.78	495.02
468.15	490.14
468.52	486.48
468.88	480.74
469.25	476.29
469.62	473.12
469.98	469.29
470.35	466.05
470.72	462.33
471.08	457.76
471.45	455.07
471.82	452.26
472.18	449.00
472.55	446.55
472.92	442.93
473.28	439.76
473.65	437.24
474.02	434.45
474.38	432.31
474.75	430.10
475.11	427.71
475.48	426.17
475.85	424.52
476.21	422.74
476.58	421.76
476.94	420.64
477.31	418.95
477.67	418.14
478.04	417.14
478.41	416.76
478.77	418.07
479.14	416.69
479.50	415.98
479.87	415.83
480.23	415.69
480.60	415.45
480.96	414.98
481.33	415.60
481.69	415.67
482.06	415.93
482.42	416.62
482.79	417.14
483.15	417.29
483.52	417.93
483.88	418.60
484.25	419.29
484.61	420.00
484.98	421.00
485.34	422.81
485.71	424.43
486.07	425.26
486.44	425.10
486.80	427.00
487.17	428.10
487.53	430.29
487.90	432.55
488.26	435.29
488.62	438.45
488.99	440.60
489.35	443.31
489.72	445.83
490.08	448.36
490.44	451.50
490.81	455.31
491.17	458.33
491.54	461.67
491.90	465.02
492.26	468.45
492.63	472.24
492.99	475.40
493.36	479.31
493.72	483.88
494.08	488.05
494.45	492.69
494.81	498.40
495.17	502.52
495.54	507.29
495.90	512.02
496.26	516.83
496.63	521.81
496.99	527.07
497.35	532.50
497.72	538.67
498.08	543.81
498.44	549.60
498.80	555.93
499.17	562.50
499.53	568.45
499.89	575.76
500.26	582.31
500.62	588.90
500.98	595.95
501.34	602.76
501.71	610.55
502.07	617.67
502.43	623.93
502.79	630.93
503.16	638.17
503.52	645.14
503.88	651.88
504.24	659.33
504.60	666.83
504.97	674.81
505.33	681.83
505.69	690.95
506.05	698.76
506.41	706.64
506.78	713.52
507.14	721.52
507.50	728.79
507.86	737.07
508.22	745.12
508.59	753.02
508.95	761.24
509.31	769.31
509.67	777.02
510.03	784.81
510.39	792.52
510.75	800.33
511.12	808.19
511.48	816.64
511.84	824.81
512.20	832.57
512.56	840.17
512.92	848.02
513.28	855.33
513.64	862.93
514.00	870.12
514.37	877.57
514.73	885.31
515.09	893.19
515.45	899.88
515.81	906.76
516.17	913.14
516.53	919.67
516.89	925.81
517.25	932.48
517.61	939.50
517.97	946.57
518.33	952.55
518.69	959.00
519.05	965.45
519.41	971.67
519.77	978.19
520.13	983.98
520.49	989.79
520.85	995.43
521.21	1001.19
521.57	1007.55
521.93	1012.71
522.29	1018.57
522.65	1023.29
523.01	1029.14
523.37	1033.93
523.73	1039.43
524.09	1044.57
524.45	1048.76
524.81	1053.40
525.17	1058.40
525.53	1063.48
525.89	1068.10
526.25	1072.90
526.61	1076.71
526.97	1081.38
527.33	1085.74
527.68	1092.19
528.04	1096.24
528.40	1099.43
528.76	1103.26
529.12	1106.90
529.48	1112.38
529.84	1115.29
530.20	1120.00
530.56	1123.90
530.91	1128.76
531.27	1132.52
531.63	1136.10
531.99	1139.57
532.35	1143.48
532.71	1146.62
533.07	1150.29
533.42	1157.29
533.78	1160.81
534.14	1165.07
534.50	1168.62
534.86	1173.45
535.21	1174.64
535.57	1179.52
535.93	1183.76
536.29	1188.12
536.65	1191.88
537.00	1194.48
537.36	1198.52
537.72	1201.48
538.08	1205.57
538.44	1208.50
538.79	1212.24
539.15	1215.38
539.51	1219.83
539.87	1223.69
540.22	1226.69
540.58	1230.00
540.94	1231.00
541.29	1234.50
541.65	1237.36
542.01	1240.38
542.37	1242.31
542.72	1245.31
543.08	1246.69
543.44	1249.64
543.79	1250.40
544.15	1253.60
544.51	1256.86
544.87	1259.88
545.22	1262.88
545.58	1264.98
545.94	1267.52
546.29	1270.14
546.65	1272.64
547.01	1275.14
547.36	1276.86
547.72	1279.98
548.07	1282.31
548.43	1284.40
548.79	1286.29
549.14	1288.90
549.50	1291.67
549.86	1293.50
550.21	1296.31
550.57	1299.62
550.92	1302.00
551.28	1306.74
551.64	1309.29
551.99	1312.10
552.35	1314.95
552.70	1318.02
553.06	1320.60
553.41	1323.21
553.77	1327.93
554.13	1331.57
554.48	1335.26
554.84	1340.43
555.19	1344.29
555.55	1349.57
555.90	1352.79
556.26	1356.60
556.61	1360.17
556.97	1363.40
557.32	1367.60
557.68	1371.81
558.03	1375.38
558.39	1379.00
558.74	1382.17
559.10	1386.43
559.45	1390.48
559.81	1394.71
560.16	1397.95
560.52	1402.29
560.87	1407.62
561.23	1410.21
561.58	1416.33
561.94	1420.36
562.29	1422.95
562.64	1427.55
563.00	1430.79
563.35	1435.71
563.71	1440.83
564.06	1445.83
564.42	1450.67
564.77	1456.17
565.12	1462.14
565.48	1469.43
565.83	1475.43
566.19	1481.69
566.54	1486.36
566.89	1491.12
567.25	1496.50
567.60	1503.83
567.96	1510.57
568.31	1516.74
568.66	1522.69
569.02	1525.95
569.37	1530.98
569.72	1537.67
570.08	1543.05
570.43	1547.88
570.78	1554.38
571.14	1559.31
571.49	1563.40
571.84	1569.67
572.20	1574.07
572.55	1578.74
572.90	1581.57
573.26	1586.07
573.61	1589.36
573.96	1594.31
574.31	1599.93
574.67	1603.21
575.02	1605.74
575.37	1608.40
575.72	1611.33
576.08	1615.76
576.43	1619.83
576.78	1624.00
577.13	1626.71
577.49	1630.14
577.84	1635.05
578.19	1638.38
578.54	1643.43
578.90	1648.24
579.25	1651.36
579.60	1654.64
579.95	1656.33
580.30	1660.43
580.66	1664.88
581.01	1668.83
581.36	1671.64
581.71	1675.21
582.06	1680.36
582.42	1685.10
582.77	1688.62
583.12	1692.31
583.47	1694.93
583.82	1699.19
584.17	1703.29
584.53	1708.07
584.88	1711.17
585.23	1714.38
585.58	1716.69
585.93	1718.36
586.28	1722.36
586.63	1724.67
586.98	1728.33
587.34	1733.17
587.69	1736.40
588.04	1738.71
588.39	1741.48
588.74	1743.24
589.09	1744.69
589.44	1746.57
589.79	1748.71
590.14	1750.55
590.49	1751.79
590.84	1753.74
591.19	1754.93
591.54	1756.29
591.89	1757.05
592.25	1760.50
592.60	1761.10
592.95	1763.43
593.30	1765.79
593.65	1766.69
594.00	1767.29
594.35	1774.31
594.70	1774.43
595.05	1775.14
595.40	1776.12
595.75	1776.81
596.10	1779.52
596.45	1781.31
596.80	1781.64
597.15	1782.02
597.50	1783.19
597.85	1785.40
598.19	1786.05
598.54	1787.21
598.89	1787.88
599.24	1789.55
599.59	1788.60
599.94	1789.71
600.29	1790.17
600.64	1790.02
600.99	1789.76
601.34	1791.50
601.69	1786.24
602.04	1786.45
602.39	1785.86
602.74	1786.14
603.08	1785.55
603.43	1785.17
603.78	1784.74
604.13	1784.81
604.48	1784.10
604.83	1784.24
605.18	1783.05
605.53	1782.48
605.87	1781.50
606.22	1780.69
606.57	1779.07
606.92	1778.24
607.27	1777.33
607.62	1776.57
607.96	1776.21
608.31	1775.93
608.66	1775.12
609.01	1773.02
609.36	1772.64
609.70	1772.12
610.05	1769.69
610.40	1769.02
610.75	1766.12
611.10	1764.69
611.44	1762.36
611.79	1760.62
612.14	1757.64
612.49	1754.55
612.83	1752.45
613.18	1749.98
613.53	1747.31
613.88	1743.93
614.22	1740.76
614.57	1736.81
614.92	1732.86
615.27	1729.62
615.61	1724.98
615.96	1721.26
616.31	1718.45
616.65	1715.83
617.00	1712.12
617.35	1709.48
617.70	1706.02
618.04	1703.29
618.39	1699.26
618.74	1695.79
619.08	1691.95
619.43	1689.64
619.78	1687.10
620.12	1683.69
620.47	1680.19
620.82	1676.26
621.16	1673.00
621.51	1670.29
621.85	1666.64
622.20	1662.38
622.55	1658.12
622.89	1654.86
623.24	1651.10
623.59	1647.74
623.93	1642.81
624.28	1639.17
624.62	1636.83
624.97	1633.88
625.32	1630.60
625.66	1626.64
626.01	1622.79
626.35	1619.83
626.70	1615.10
627.04	1612.45
627.39	1608.43
627.73	1605.74
628.08	1602.26
628.43	1598.05
628.77	1594.12
629.12	1590.17
629.46	1586.95
629.81	1583.10
630.15	1579.00
630.50	1574.00
630.84	1568.43
631.19	1562.93
631.53	1558.29
631.88	1551.24
632.22	1545.69
632.57	1541.40
632.91	1536.64
633.26	1532.71
633.60	1526.79
633.95	1521.52
634.29	1514.48
634.64	1509.26
634.98	1503.36
635.32	1499.60
635.67	1495.98
636.01	1490.98
636.36	1486.52
636.70	1482.40
637.05	1477.98
637.39	1473.36
637.73	1469.74
638.08	1466.00
638.42	1462.33
638.77	1457.50
639.11	1452.57
639.45	1447.33
639.80	1440.79
640.14	1436.31
640.49	1430.60
640.83	1425.71
641.17	1421.40
641.52	1417.95
641.86	1413.45
642.20	1409.00
642.55	1402.60
642.89	1397.24
643.23	1392.24
643.58	1388.64
643.92	1382.00
644.26	1376.60
644.61	1371.79
644.95	1366.05
645.29	1360.05
645.64	1355.14
645.98	1350.29
646.32	1345.10
646.66	1339.29
647.01	1334.24
647.35	1328.69
647.69	1323.00
648.04	1318.10
648.38	1312.33
648.72	1305.36
649.06	1299.38
649.41	1293.40
649.75	1287.24
650.09	1281.33
650.43	1274.95
650.78	1268.05
651.12	1262.67
651.46	1256.12
651.80	1249.98
652.14	1244.26
652.49	1239.19
652.83	1233.40
653.17	1226.40
653.51	1220.24
653.85	1215.36
654.20	1209.21
654.54	1202.26
654.88	1196.29
655.22	1190.81
655.56	1184.83
655.90	1179.07
656.25	1172.98
656.59	1167.07
656.93	1161.67
657.27	1156.10
657.61	1150.07
657.95	1144.19
658.29	1137.90
658.64	1132.02
658.98	1124.95
659.32	1118.33
659.66	1111.26
660.00	1104.19
660.34	1098.74
660.68	1093.50
661.02	1086.67
661.36	1080.81
661.70	1075.36
662.05	1069.50
662.39	1063.19
662.73	1058.17
663.07	1053.64
663.41	1047.81
663.75	1041.48
664.09	1035.29
664.43	1028.62
664.77	1022.57
665.11	1015.67
665.45	1009.62
665.79	1004.48
666.13	999.36
666.47	993.79
666.81	988.57
667.15	982.74
667.49	977.29
667.83	972.07
668.17	966.33
668.51	960.69
668.85	955.93
669.19	951.48
669.53	945.50
669.87	938.71
670.21	932.31
670.55	926.38
670.89	921.81
671.23	916.62
671.57	911.60
671.91	907.26
672.25	901.67
672.58	897.76
672.92	891.43
673.26	886.55
673.60	880.90
673.94	875.88
674.28	871.14
674.62	866.50
674.96	861.12
675.30	856.67
675.64	851.64
675.97	846.00
676.31	840.40
676.65	835.17
676.99	831.81
677.33	827.05
677.67	822.43
678.01	816.67
678.34	811.60
678.68	806.69
679.02	800.31
679.36	795.67
679.70	789.95
680.04	785.55
680.37	780.62
680.71	775.76
681.05	770.50
681.39	765.81
681.73	760.40
682.06	755.21
682.40	750.02
682.74	746.33
683.08	742.10
683.42	736.50
683.75	732.29
684.09	726.60
684.43	721.71
684.77	717.07
685.10	712.33
685.44	707.69
685.78	702.40
686.12	698.55
686.45	694.12
686.79	689.48
687.13	685.24
687.46	680.33
687.80	676.24
688.14	672.19
688.48	667.90
688.81	663.05
689.15	659.05
689.49	654.33
689.82	649.05
690.16	643.60
690.50	639.43
690.83	634.07
691.17	629.24
691.51	624.60
691.84	620.26
692.18	615.83
692.52	612.02
692.85	608.50
693.19	604.93
693.52	600.79
693.86	596.38
694.20	592.12
694.53	588.21
694.87	583.81
695.21	579.36
695.54	575.00
695.88	571.07
696.21	566.48
696.55	562.67
696.88	558.57
697.22	555.00
697.56	551.55
697.89	548.36
698.23	545.00
698.56	541.10
698.90	537.55
699.23	533.57
699.57	529.60
699.90	525.67
700.24	521.02
700.58	517.52
700.91	514.40
701.25	512.19
701.58	509.45
701.92	506.36
702.25	502.88
702.59	499.29
702.92	495.60
703.26	492.57
703.59	489.64
703.93	488.76
704.26	485.86
704.60	482.67
704.93	479.19
705.26	475.81
705.60	473.36
705.93	470.07
706.27	467.93
706.60	465.26
706.94	463.31
707.27	460.38
707.61	457.74
707.94	454.60
708.27	450.19
708.61	446.64
708.94	444.02
709.28	441.81
709.61	439.24
709.94	437.24
710.28	434.50
710.61	431.79
710.95	427.19
711.28	425.95
711.61	423.69
711.95	421.86
712.28	419.07
712.61	416.29
712.95	415.00
713.28	413.24
713.61	410.69
713.95	407.24
714.28	405.00
714.61	402.43
714.95	400.33
715.28	398.10
715.61	395.60
715.95	392.98
716.28	390.38
716.61	388.31
716.95	385.57
717.28	383.62
717.61	381.40
717.94	379.36
718.28	375.43
718.61	372.83
718.94	370.48
719.27	368.48
719.61	366.40
719.94	363.60
720.27	360.79
720.60	358.62
720.94	356.98
721.27	355.36
721.60	353.88
721.93	351.81
722.27	351.05
722.60	349.76
722.93	348.26
723.26	346.95
723.59	345.14
723.93	344.12
724.26	342.48
724.59	341.05
724.92	339.52
725.25	338.88
725.59	337.52
725.92	336.33
726.25	334.88
726.58	333.93
726.91	332.69
727.24	331.64
727.57	330.52
727.91	328.81
728.24	327.64
728.57	325.98
728.90	325.12
729.23	322.98
729.56	322.50
729.89	321.14
730.22	319.50
730.55	318.24
730.89	316.76
731.22	315.52
731.55	314.07
731.88	313.12
732.21	311.48
732.54	310.40
732.87	309.05
733.20	308.38
733.53	307.14
733.86	306.10
734.19	304.76
734.52	304.00
734.85	304.69
735.18	303.43
735.51	303.12
735.84	302.19
736.17	301.57
736.50	299.95
736.83	301.45
737.16	300.55
737.49	299.62
737.82	298.69
738.15	298.07
738.48	297.45
738.81	296.60
739.14	295.52
739.47	294.60
739.80	293.64
740.13	293.17
740.46	292.05
740.79	290.93
741.12	289.90
741.45	288.24
741.78	286.17
742.11	285.83
742.44	284.50
742.77	284.07
743.10	283.31
743.43	282.14
743.75	279.05
744.08	280.88
744.41	280.00
744.74	278.81
745.07	277.55
745.40	276.74
745.73	276.50
746.06	275.95
746.39	275.57
746.71	274.76
747.04	273.55
747.37	272.90
747.70	272.52
748.03	271.76
748.36	271.76
748.68	270.98
749.01	269.79
749.34	269.24
749.67	268.33
750.00	267.67
750.33	268.64
750.65	268.26
750.98	265.17
751.31	265.00
751.64	265.00
751.97	265.79
752.29	265.26
752.62	264.00
752.95	263.31
753.28	262.50
753.60	261.81
753.93	261.57
754.26	261.17
754.59	260.05
754.91	259.45
755.24	258.67
755.57	257.76
755.90	257.26
756.22	256.24
756.55	255.33
756.88	254.36
757.20	252.43
757.53	251.38
757.86	251.14
758.19	250.60
758.51	249.86
758.84	248.10
759.17	247.50
759.49	247.02
759.82	247.60
760.15	247.17
760.47	246.74
760.80	245.88
761.13	245.64
761.45	245.21
761.78	244.79
762.11	244.48
762.43	244.14
762.76	243.69
763.08	243.86
763.41	243.62
763.74	243.57
764.06	243.19
764.39	243.05
764.71	242.57
765.04	241.90
765.37	241.38
765.69	241.24
766.02	241.10
766.34	240.52
766.67	239.31
767.00	239.45
767.32	240.21
767.65	241.17
767.97	240.33
768.30	240.21
768.62	240.17
768.95	239.57
769.27	239.33
769.60	239.17
769.92	238.40
770.25	238.12
770.57	237.36
770.90	237.10
771.22	236.50
771.55	236.02
771.87	235.88
772.20	235.57
772.52	237.07
772.85	239.33
773.17	239.48
773.50	239.38
773.82	238.64
774.15	237.71
774.47	235.93
774.80	235.79
775.12	235.48
775.45	234.98
775.77	234.95
776.09	234.90
776.42	234.79
776.74	235.19
777.07	234.62
777.39	234.64
777.72	234.21
778.04	234.40
778.36	234.02
778.69	233.76
779.01	233.55
779.33	231.45
779.66	228.86
779.98	228.33
780.31	228.00
780.63	228.76
780.95	228.64
781.28	228.86
781.60	228.67
781.92	228.52
782.25	228.29
782.57	228.10
782.89	227.93
783.22	227.57
783.54	227.19
783.86	227.40
784.19	226.88
784.51	227.38
784.83	226.95
785.16	227.12
785.48	226.95
785.80	226.81
786.12	226.98
786.45	226.57
786.77	226.62
787.09	226.45
787.42	225.55
787.74	225.69
788.06	225.40
788.38	225.19
788.71	224.93
789.03	225.02
789.35	225.17
789.67	224.57
789.99	224.62
790.32	224.10
790.64	224.21
790.96	226.05
791.28	224.98
791.61	224.83
791.93	224.69
792.25	224.67
792.57	226.19
792.89	225.71
793.21	225.74
793.54	225.62
793.86	225.33
794.18	225.26
794.50	224.81
794.82	224.64
795.14	224.79
795.47	225.17
795.79	225.02
796.11	224.43
796.43	224.36
796.75	224.31
797.07	224.31
797.39	223.93
797.71	222.52
798.04	222.86
798.36	223.02
798.68	222.95
799.00	223.17
799.32	222.00
799.64	222.36
799.96	222.38
800.28	222.31
800.60	222.10
800.92	222.24
801.24	221.81
801.56	221.93
801.89	221.86
802.21	221.76
802.53	221.40
802.85	221.71
803.17	222.74
803.49	222.24
803.81	222.14
804.13	222.05
804.45	221.60
804.77	221.57
805.09	221.12
805.41	220.62
805.73	220.02
806.05	219.64
806.37	219.26
806.69	218.83
807.01	218.69
807.33	219.02
807.65	218.19
807.97	219.21
808.28	218.90
808.60	218.60
808.92	218.29
809.24	219.40
809.56	219.05
809.88	218.21
810.20	218.19
810.52	218.55
810.84	218.14
811.16	217.74
811.48	217.50
811.80	218.48
812.12	218.52
812.43	218.88
812.75	218.86
813.07	218.69
813.39	218.88
813.71	218.81
814.03	218.45
814.35	218.64
814.67	217.57
814.98	217.45
815.30	217.36
815.62	216.90
815.94	215.62
816.26	215.79
816.58	215.36
816.89	215.62
817.21	215.19
817.53	215.38
817.85	215.62
818.17	215.60
818.48	214.64
818.80	215.12
819.12	214.76
819.44	214.33
819.76	213.88
820.07	213.67
820.39	213.33
820.71	213.24
821.03	212.93
821.34	212.98
821.66	213.31
821.98	213.90
822.30	214.02
822.61	215.26
822.93	214.79
823.25	214.95
823.57	214.76
823.88	215.05
824.20	215.05
824.52	215.43
824.83	215.48
825.15	215.45
825.47	215.21
825.79	215.36
826.10	215.43
826.42	215.36
826.74	215.74
827.05	215.93
827.37	216.10
827.69	216.19
828.00	216.29
828.32	216.29
828.64	215.67
828.95	216.71
829.27	216.19
829.58	216.31
829.90	216.50
830.22	216.64
830.53	216.17
830.85	216.12
831.17	215.45
831.48	215.62
831.80	215.55
832.11	215.38
832.43	215.10
832.75	215.05
833.06	216.43
833.38	215.71
833.69	215.52
834.01	215.71
834.32	215.45
834.64	215.10
834.96	215.00
835.27	214.88
835.59	214.36
835.90	213.67
836.22	213.74
836.53	213.26
836.85	213.14
837.16	215.38
837.48	214.88
837.79	215.67
838.11	215.38
838.42	215.12
838.74	215.21
839.05	215.10
839.37	215.07
839.68	213.83
840.00	214.14
840.31	214.60
840.63	214.19
840.94	214.40
841.26	214.19
841.57	214.12
841.88	214.45
842.20	213.88
842.51	213.81
842.83	213.83
843.14	215.69
843.46	215.38
843.77	214.02
844.08	214.33
844.40	213.64
844.71	213.64
845.03	213.79
845.34	213.69
845.65	213.60
845.97	213.62
846.28	213.79
846.60	213.76
846.91	213.31
847.22	213.38
847.54	213.62
847.85	213.90
848.16	213.93
848.48	213.48
848.79	214.43
849.10	214.67
849.42	214.64
849.73	212.88
850.04	212.76
850.36	212.12
850.67	212.60
850.98	212.67
851.30	212.79
851.61	212.64
851.92	212.76
852.23	213.50
852.55	213.57
852.86	213.55
853.17	213.71
853.49	213.95
853.80	214.45
854.11	214.76
854.42	214.83
854.74	214.52
855.05	214.62
855.36	213.43
855.67	213.62
855.99	213.76
856.30	216.10
856.61	216.24
856.92	216.24
857.23	215.95
857.55	215.71
857.86	215.62
858.17	215.93
858.48	215.62
858.79	215.17
859.11	215.43
859.42	215.29
859.73	215.02
860.04	215.17
860.35	214.36
860.66	213.64
860.98	213.60
861.29	213.83
861.60	213.79
861.91	214.29
862.22	213.93
862.53	213.40
862.84	211.19
863.16	211.71
863.47	211.48
863.78	211.29
864.09	211.45
864.40	211.50
864.71	211.67
865.02	211.76
865.33	211.57
865.64	211.07
865.95	211.17
866.27	212.40
866.58	212.05
866.89	212.21
867.20	212.33
867.51	212.31
867.82	212.10
868.13	212.71
868.44	212.17
868.75	212.48
869.06	212.86
869.37	213.07
869.68	212.55
869.99	212.93
870.30	213.17
870.61	213.33
870.92	212.90
871.23	212.69
871.54	213.14
871.85	213.43
872.16	213.60
872.47	213.52
872.78	212.52
873.09	212.86
873.40	213.21
873.71	213.43
874.02	213.52
874.33	213.50
874.64	212.98
874.95	213.43
875.26	212.95
875.56	212.83
875.87	212.64
876.18	212.48
876.49	214.19
876.80	213.93
877.11	213.64
877.42	213.86
877.73	213.90
878.04	213.40
878.35	213.60
878.66	213.81
878.96	213.74
879.27	213.62
879.58	213.43
879.89	213.00
880.20	213.52
880.51	213.50
880.82	213.64
881.12	213.79
881.43	213.33
881.74	213.31
882.05	213.21
882.36	213.45
882.67	213.62
882.97	211.57
883.28	211.48
883.59	211.33
883.90	211.74
884.21	211.98
884.51	211.90
884.82	211.62
885.13	211.57
885.44	211.55
885.74	211.40
886.05	211.57
886.36	211.64
886.67	210.88
886.98	211.71
887.28	211.83
887.59	211.93
887.90	212.14
888.20	212.10
888.51	212.38
888.82	211.81
889.13	212.02
889.43	213.55
889.74	213.60
890.05	213.64
890.35	213.17
890.66	212.81
890.97	212.71
891.28	212.55
891.58	212.64
891.89	212.57
892.20	212.45
892.50	211.88
892.81	211.79
893.12	211.55
893.42	210.55
893.73	210.45
894.04	210.26
894.34	210.55
894.65	210.60
894.95	210.33
895.26	210.62
895.57	211.45
895.87	209.69
896.18	210.00
896.48	210.19
896.79	210.31
897.10	210.71
897.40	210.62
897.71	210.79
898.01	210.40
898.32	210.64
898.63	210.62
898.93	210.83
899.24	210.86
899.54	211.02
899.85	211.10
900.15	210.93
900.46	210.88
900.76	211.10
901.07	211.00
901.38	211.19
901.68	211.31
901.99	210.29
902.29	210.52
902.60	210.38
902.90	210.33
903.21	210.50
903.51	210.43
903.82	211.02
904.12	211.05
904.43	211.50
904.73	211.45
905.03	211.69
905.34	213.55
905.64	213.52
905.95	213.43
906.25	213.38
906.56	213.64
906.86	213.95
907.17	213.67
907.47	213.90
907.77	213.67
908.08	213.29
908.38	213.57
908.69	213.76
908.99	213.81
909.30	213.98
909.60	213.79
909.90	213.67
910.21	213.31
910.51	213.17
910.81	213.07
911.12	213.24
911.42	213.17
911.73	211.31
912.03	211.36
912.33	211.90
912.64	211.93
912.94	211.57
913.24	211.12
913.55	211.07
913.85	210.90
914.15	211.55
914.46	211.88
914.76	211.60
915.06	211.36
915.37	211.29
915.67	211.05
915.97	211.02
916.27	210.60
916.58	210.71
916.88	210.64
917.18	210.52
917.49	211.93
917.79	211.79
918.09	212.00
918.39	212.71
918.70	212.43
919.00	212.40
919.30	213.17
919.60	213.12
919.91	212.79
920.21	212.98
920.51	212.29
920.81	212.38
921.12	212.67
921.42	212.55
921.72	212.83
922.02	212.95
922.32	213.26
922.63	213.45
922.93	214.45
923.23	214.52
923.53	214.24
923.83	212.90
924.13	213.17
924.44	213.12
924.74	213.31
925.04	214.05
925.34	213.95
925.64	213.50
925.94	213.64
926.24	215.00
926.55	214.93
926.85	215.24
927.15	215.02
927.45	214.93
927.75	215.14
928.05	215.07
928.35	214.90
928.65	215.36
928.95	215.52
929.26	214.50
929.56	215.07
929.86	215.36
930.16	215.19
930.46	215.14
930.76	215.19
931.06	214.21
931.36	213.43
931.66	213.74
931.96	213.81
932.26	214.05
932.56	213.14
932.86	213.19
933.16	213.38
933.46	213.14
933.76	212.95
934.06	213.31
934.36	214.14
934.66	214.14
934.96	213.62
935.26	213.57
935.56	213.95
935.86	213.43
936.16	213.14
936.46	212.90
936.76	212.67
937.06	212.36
937.36	212.71
937.66	212.79
937.96	212.60
938.26	212.19
938.56	212.00
938.86	212.10
939.16	212.24
939.46	212.38
939.76	212.40
940.06	212.52
940.35	211.98
940.65	210.76
940.95	210.88
941.25	210.57
941.55	210.50
941.85	210.24
942.15	210.57
942.45	211.17
942.75	211.24
943.04	211.48
943.34	212.00
943.64	211.38
943.94	211.33
944.24	211.21
944.54	211.45
944.84	211.05
945.13	210.81
945.43	210.81
945.73	210.60
946.03	210.57
946.33	210.33
946.62	210.48
946.92	210.43
947.22	210.71
947.52	210.55
947.82	210.36
948.11	210.31
948.41	209.93
948.71	209.43
949.01	209.36
949.31	209.19
949.60	208.98
949.90	209.52
950.20	209.31
950.50	209.71
950.79	209.57
951.09	209.98
951.39	209.98
951.69	209.45
951.98	209.69
952.28	209.90
952.58	210.07
952.87	210.10
953.17	210.43
953.47	210.00
953.76	210.07
954.06	209.98
954.36	209.74
954.66	209.55
954.95	210.17
955.25	210.40
955.55	210.29
955.84	210.05
956.14	210.12
956.44	210.24
956.73	209.69
957.03	209.76
957.32	209.71
957.62	209.50
957.92	210.14
958.21	210.00
958.51	212.45
958.81	212.52
959.10	212.71
959.40	213.19
959.69	213.40
959.99	214.07
960.29	214.10
960.58	213.93
960.88	214.67
961.17	214.26
961.47	214.40
961.76	214.40
962.06	214.98
962.36	214.69
962.65	214.74
962.95	214.81
963.24	214.74
963.54	215.07
963.83	215.31
964.13	215.19
964.42	214.76
964.72	212.74
965.01	212.83
965.31	212.50
965.60	211.93
965.90	213.24
966.19	212.40
966.49	212.76
966.78	213.02
967.08	212.81
967.37	212.67
967.67	212.43
967.96	212.83
968.26	212.31
968.55	212.71
968.85	212.74
969.14	212.74
969.43	212.69
969.73	212.43
970.02	212.19
970.32	212.14
970.61	212.00
970.91	211.50
971.20	211.26
971.49	211.26
971.79	211.52
972.08	209.95
972.38	210.50
972.67	210.29
972.96	210.40
973.26	210.10
973.55	210.93
973.85	210.93
974.14	210.64
974.43	211.10
974.73	210.67
975.02	210.38
975.31	210.45
975.61	210.36
975.90	210.19
976.19	210.00
976.49	209.93
976.78	210.38
977.07	210.29
977.37	210.48
977.66	210.69
977.95	210.57
978.24	210.74
978.54	210.95
978.83	210.64
979.12	210.62
979.42	210.76
979.71	210.29
980.00	210.14
980.29	210.26
980.59	209.76
980.88	210.45
981.17	210.57
981.46	210.67
981.76	210.74
982.05	211.29
982.34	211.64
982.63	211.76
982.93	211.50
983.22	212.24
983.51	212.17
983.80	212.57
984.09	212.60
984.39	212.43
984.68	212.14
984.97	212.48
985.26	212.12
985.55	212.10
985.85	211.74
986.14	212.07
986.43	212.52
986.72	212.21
987.01	211.52
987.30	211.45
987.59	211.31
987.89	211.40
988.18	210.74
988.47	210.45
988.76	210.31
989.05	210.21
989.34	209.76
989.63	210.33
989.92	209.90
990.22	209.50
990.51	209.62
990.80	209.69
991.09	210.10
991.38	210.43
991.67	210.26
991.96	209.98
992.25	210.00
992.54	209.43
992.83	209.81
993.12	210.02
993.41	210.31
993.70	211.14
993.99	211.45
994.28	211.74
994.58	212.12
994.87	211.83
995.16	211.88
995.45	211.83
995.74	211.21
996.03	211.52
996.32	211.86
996.61	212.33
996.90	212.21
997.19	212.07
997.48	212.17
997.77	211.95
998.06	212.36
998.34	212.29
998.63	212.50
998.92	212.24
999.21	212.26
999.50	212.38
999.79	211.69
1000.08	211.57
1000.37	211.83
1000.66	211.55
1000.95	212.17
1001.24	212.48
1001.53	212.67
1001.82	212.55
1002.11	211.81
1002.40	212.14
1002.68	212.36
1002.97	213.83
1003.26	213.40
1003.55	213.10
1003.84	213.31
1004.13	213.81
1004.42	213.76
1004.71	213.76
1004.99	213.64
1005.28	214.38
1005.57	214.24
1005.86	213.95
1006.15	213.76
1006.44	213.33
1006.72	213.64
1007.01	213.19
1007.30	212.98
1007.59	212.86
1007.88	212.67
1008.17	212.98
1008.45	212.69
1008.74	211.88
1009.03	210.83
1009.32	210.81
1009.60	210.76
1009.89	210.88
1010.18	210.05
1010.47	210.00
1010.76	209.79
1011.04	210.00
1011.33	209.88
1011.62	210.05
1011.91	210.43
1012.19	210.67
1012.48	210.67
1012.77	210.74
1013.05	211.81
1013.34	211.64
1013.63	211.43
1013.92	211.83
1014.20	211.69
1014.49	211.69
1014.78	212.00
1015.06	211.55
1015.35	211.79
1015.64	212.07
1015.92	212.14
1016.21	212.33
1016.50	212.36
1016.78	212.57
1017.07	212.64
1017.36	212.10
1017.64	211.74
1017.93	211.95
1018.22	211.95
1018.50	211.81
1018.79	211.55
1019.08	210.36
1019.36	210.60
1019.65	210.43
1019.93	210.93
1020.22	211.26
1020.51	212.24
1020.79	211.98
1021.08	213.50
1021.36	204.00
1021.65	210.00
1021.94	205.50
1022.22	211.50
1022.51	205.00
1022.79	223.00
1023.08	213.50
1023.36	235.00
1023.65	205.50
>>>>>End Processed Spectral Data<<<<<
