SpectraSuite Data File
++++++++++++++++++++++++++++++++++++
Date: Tue Apr 02 18:38:22 EDT 2013
User: group
Dark Spectrum Present: No
Reference Spectrum Present: No
Number of Sampled Component Spectra: 1
Spectrometers: USB2E7196
Integration Time (usec): 580000 (USB2E7196)
Spectra Averaged: 2 (USB2E7196)
Boxcar Smoothing: 10 (USB2E7196)
Correct for Electrical Dark: No (USB2E7196)
Strobe/Lamp Enabled: No (USB2E7196)
Correct for Detector Non-linearity: No (USB2E7196)
Correct for Stray Light: No (USB2E7196)
Number of Pixels in Processed Spectrum: 2048
>>>>>Begin Processed Spectral Data<<<<<
339.09	0.00
339.48	196.00
339.86	195.00
340.24	199.00
340.63	200.00
341.01	233.50
341.39	201.00
341.78	208.00
342.16	215.00
342.54	203.00
342.93	199.50
343.31	209.36
343.69	209.90
344.07	210.55
344.46	211.29
344.84	211.98
345.22	210.93
345.60	211.50
345.99	211.86
346.37	211.71
346.75	212.19
347.13	212.26
347.52	212.33
347.90	213.10
348.28	212.98
348.66	213.40
349.05	212.81
349.43	213.00
349.81	213.26
350.19	213.26
350.57	213.62
350.96	213.90
351.34	213.98
351.72	214.02
352.10	214.21
352.48	214.12
352.87	213.86
353.25	213.83
353.63	213.48
354.01	213.57
354.39	213.74
354.77	213.50
355.15	213.98
355.54	213.79
355.92	212.90
356.30	213.10
356.68	214.52
357.06	214.76
357.44	214.45
357.82	214.45
358.20	215.38
358.58	215.02
358.97	214.93
359.35	215.48
359.73	215.88
360.11	216.02
360.49	215.86
360.87	215.90
361.25	216.12
361.63	217.14
362.01	216.95
362.39	216.69
362.77	216.95
363.15	216.74
363.53	216.74
363.91	216.98
364.29	216.86
364.67	214.74
365.05	214.55
365.43	214.71
365.81	215.10
366.19	214.76
366.57	215.86
366.95	215.76
367.33	215.31
367.71	215.21
368.09	215.33
368.47	215.52
368.85	215.60
369.23	215.90
369.61	215.29
369.99	215.74
370.37	215.93
370.75	216.86
371.13	216.48
371.51	216.31
371.89	216.36
372.27	216.36
372.65	216.60
373.03	216.71
373.41	216.57
373.78	216.19
374.16	215.40
374.54	214.67
374.92	214.40
375.30	214.45
375.68	214.07
376.06	214.05
376.44	214.02
376.82	214.07
377.19	214.07
377.57	213.90
377.95	213.38
378.33	213.31
378.71	211.98
379.09	212.26
379.47	212.57
379.84	212.48
380.22	212.38
380.60	211.83
380.98	211.69
381.36	211.83
381.73	211.45
382.11	212.00
382.49	212.00
382.87	212.02
383.25	211.95
383.62	214.33
384.00	214.00
384.38	214.02
384.76	214.43
385.13	215.26
385.51	215.36
385.89	215.29
386.27	215.19
386.64	215.79
387.02	215.52
387.40	215.29
387.78	215.50
388.15	215.69
388.53	215.98
388.91	216.10
389.29	216.05
389.66	216.38
390.04	216.05
390.42	216.45
390.79	216.43
391.17	216.38
391.55	214.21
391.92	214.29
392.30	214.57
392.68	214.21
393.05	213.86
393.43	213.86
393.81	213.79
394.18	213.83
394.56	213.74
394.94	214.24
395.31	214.17
395.69	214.88
396.06	214.93
396.44	215.29
396.82	215.00
397.19	216.05
397.57	216.05
397.95	216.43
398.32	215.86
398.70	216.17
399.07	217.02
399.45	216.88
399.82	217.02
400.20	216.60
400.58	216.62
400.95	215.81
401.33	216.33
401.70	218.02
402.08	218.07
402.45	218.07
402.83	218.64
403.20	218.98
403.58	218.48
403.95	218.79
404.33	219.14
404.71	219.71
405.08	220.83
405.46	221.19
405.83	221.83
406.21	222.19
406.58	222.76
406.96	222.76
407.33	223.69
407.70	224.21
408.08	226.64
408.45	227.67
408.83	228.93
409.20	229.19
409.58	228.81
409.95	229.98
410.33	231.19
410.70	231.55
411.08	232.88
411.45	234.36
411.82	235.50
412.20	237.38
412.57	239.95
412.95	239.93
413.32	241.74
413.69	243.10
414.07	244.98
414.44	246.88
414.82	249.26
415.19	252.10
415.56	254.64
415.94	256.45
416.31	259.64
416.68	262.90
417.06	267.14
417.43	271.26
417.81	275.67
418.18	279.95
418.55	284.69
418.93	289.48
419.30	294.19
419.67	299.38
420.04	304.33
420.42	309.26
420.79	317.02
421.16	323.76
421.54	331.69
421.91	339.05
422.28	346.48
422.66	354.19
423.03	363.07
423.40	371.45
423.77	379.55
424.15	388.00
424.52	396.86
424.89	406.74
425.26	415.52
425.64	424.60
426.01	434.52
426.38	444.45
426.75	455.60
427.13	466.64
427.50	478.43
427.87	490.07
428.24	502.38
428.61	512.60
428.99	525.95
429.36	538.88
429.73	552.19
430.10	565.69
430.47	579.29
430.85	592.10
431.22	606.33
431.59	624.31
431.96	639.55
432.33	656.12
432.70	672.50
433.08	692.07
433.45	709.98
433.82	728.45
434.19	749.02
434.56	768.55
434.93	787.31
435.30	806.31
435.68	827.57
436.05	847.64
436.42	868.07
436.79	887.36
437.16	907.38
437.53	928.79
437.90	949.79
438.27	971.57
438.64	993.07
439.01	1014.26
439.38	1029.45
439.75	1046.83
440.13	1067.10
440.50	1085.24
440.87	1100.38
441.24	1116.57
441.61	1133.48
441.98	1146.12
442.35	1161.43
442.72	1177.07
443.09	1192.88
443.46	1201.98
443.83	1208.67
444.20	1214.74
444.57	1221.86
444.94	1226.05
445.31	1230.10
445.68	1237.31
446.05	1238.83
446.42	1237.64
446.79	1236.31
447.16	1235.50
447.53	1234.86
447.90	1227.00
448.27	1220.21
448.64	1210.86
449.01	1203.52
449.37	1190.21
449.74	1178.00
450.11	1164.12
450.48	1146.69
450.85	1128.24
451.22	1113.10
451.59	1099.17
451.96	1085.07
452.33	1066.71
452.70	1049.95
453.07	1029.86
453.43	1006.86
453.80	987.12
454.17	968.45
454.54	950.10
454.91	930.60
455.28	911.12
455.65	894.12
456.02	879.88
456.38	864.21
456.75	845.69
457.12	830.24
457.49	814.64
457.86	797.50
458.23	785.33
458.59	771.17
458.96	757.10
459.33	743.93
459.70	731.50
460.07	721.26
460.43	709.43
460.80	699.21
461.17	690.24
461.54	680.24
461.91	670.76
462.27	660.57
462.64	652.14
463.01	643.50
463.38	635.33
463.74	623.10
464.11	614.95
464.48	608.12
464.85	600.62
465.21	594.95
465.58	589.14
465.95	581.40
466.32	575.29
466.68	568.93
467.05	562.90
467.42	557.12
467.78	550.67
468.15	544.98
468.52	540.50
468.88	533.48
469.25	528.62
469.62	524.50
469.98	520.31
470.35	516.07
470.72	511.81
471.08	506.76
471.45	503.40
471.82	500.02
472.18	495.83
472.55	493.17
472.92	489.29
473.28	485.55
473.65	482.38
474.02	479.52
474.38	477.40
474.75	475.36
475.11	472.33
475.48	470.74
475.85	468.88
476.21	467.14
476.58	466.10
476.94	464.55
477.31	462.69
477.67	461.21
478.04	460.26
478.41	459.33
478.77	460.62
479.14	459.07
479.50	458.62
479.87	458.33
480.23	457.90
480.60	457.48
480.96	457.64
481.33	458.57
481.69	458.55
482.06	458.50
482.42	459.05
482.79	460.29
483.15	460.57
483.52	461.88
483.88	462.24
484.25	463.24
484.61	464.33
484.98	465.38
485.34	467.57
485.71	469.33
486.07	471.17
486.44	471.45
486.80	473.86
487.17	475.95
487.53	478.71
487.90	481.76
488.26	485.45
488.62	488.64
488.99	490.76
489.35	494.38
489.72	497.76
490.08	500.88
490.44	504.12
490.81	508.38
491.17	511.86
491.54	516.24
491.90	520.57
492.26	525.02
492.63	530.07
492.99	534.62
493.36	540.00
493.72	545.62
494.08	550.95
494.45	557.12
494.81	563.55
495.17	569.36
495.54	575.43
495.90	581.19
496.26	588.12
496.63	595.21
496.99	602.07
497.35	609.52
497.72	617.12
498.08	625.07
498.44	632.36
498.80	641.19
499.17	649.60
499.53	657.79
499.89	666.83
500.26	675.64
500.62	684.57
500.98	693.90
501.34	702.98
501.71	712.62
502.07	721.52
502.43	730.79
502.79	739.69
503.16	749.33
503.52	759.07
503.88	768.38
504.24	779.05
504.60	788.86
504.97	799.17
505.33	809.40
505.69	820.07
506.05	830.60
506.41	840.31
506.78	850.88
507.14	861.00
507.50	871.67
507.86	882.60
508.22	893.50
508.59	903.29
508.95	913.95
509.31	925.57
509.67	936.26
510.03	946.76
510.39	957.67
510.75	968.74
511.12	979.50
511.48	989.90
511.84	1000.29
512.20	1011.19
512.56	1022.00
512.92	1032.88
513.28	1043.69
513.64	1054.81
514.00	1066.19
514.37	1076.24
514.73	1087.62
515.09	1098.33
515.45	1108.21
515.81	1118.10
516.17	1129.12
516.53	1138.60
516.89	1147.33
517.25	1157.19
517.61	1167.26
517.97	1176.88
518.33	1186.33
518.69	1196.43
519.05	1206.67
519.41	1216.31
519.77	1226.62
520.13	1236.10
520.49	1244.83
520.85	1253.67
521.21	1263.36
521.57	1272.95
521.93	1281.26
522.29	1289.67
522.65	1297.98
523.01	1307.07
523.37	1315.50
523.73	1322.71
524.09	1331.07
524.45	1338.95
524.81	1346.52
525.17	1354.12
525.53	1362.33
525.89	1369.76
526.25	1377.17
526.61	1384.05
526.97	1390.43
527.33	1397.24
527.68	1406.36
528.04	1413.36
528.40	1420.12
528.76	1426.69
529.12	1432.60
529.48	1439.79
529.84	1446.02
530.20	1452.90
530.56	1458.74
530.91	1465.12
531.27	1471.86
531.63	1478.38
531.99	1484.69
532.35	1490.17
532.71	1495.45
533.07	1502.02
533.42	1509.57
533.78	1515.33
534.14	1521.02
534.50	1526.71
534.86	1532.67
535.21	1535.40
535.57	1541.00
535.93	1546.29
536.29	1551.21
536.65	1555.31
537.00	1560.36
537.36	1565.02
537.72	1569.38
538.08	1574.19
538.44	1577.83
538.79	1582.48
539.15	1585.76
539.51	1589.17
539.87	1593.88
540.22	1599.10
540.58	1602.83
540.94	1604.69
541.29	1608.05
541.65	1611.26
542.01	1615.50
542.37	1617.38
542.72	1619.52
543.08	1621.19
543.44	1623.55
543.79	1625.40
544.15	1628.14
544.51	1631.36
544.87	1633.64
545.22	1636.05
545.58	1638.07
545.94	1640.24
546.29	1641.86
546.65	1644.33
547.01	1646.05
547.36	1647.81
547.72	1648.17
548.07	1648.57
548.43	1649.55
548.79	1650.19
549.14	1650.90
549.50	1651.12
549.86	1650.98
550.21	1652.48
550.57	1653.76
550.92	1653.55
551.28	1653.95
551.64	1654.64
551.99	1654.83
552.35	1655.36
552.70	1654.21
553.06	1654.36
553.41	1654.98
553.77	1655.40
554.13	1656.17
554.48	1657.00
554.84	1658.26
555.19	1658.10
555.55	1660.45
555.90	1660.62
556.26	1661.62
556.61	1661.12
556.97	1659.86
557.32	1660.64
557.68	1660.45
558.03	1659.93
558.39	1660.14
558.74	1660.36
559.10	1660.36
559.45	1659.43
559.81	1659.17
560.16	1659.24
560.52	1658.55
560.87	1657.90
561.23	1656.76
561.58	1656.76
561.94	1655.76
562.29	1654.19
562.64	1653.88
563.00	1651.98
563.35	1650.76
563.71	1649.45
564.06	1650.36
564.42	1651.07
564.77	1651.33
565.12	1651.21
565.48	1652.98
565.83	1652.90
566.19	1651.67
566.54	1651.33
566.89	1649.81
567.25	1650.10
567.60	1651.14
567.96	1652.40
568.31	1652.31
568.66	1652.33
569.02	1650.90
569.37	1648.55
569.72	1647.69
570.08	1647.50
570.43	1645.14
570.78	1643.98
571.14	1643.26
571.49	1641.62
571.84	1639.93
572.20	1636.76
572.55	1634.67
572.90	1630.76
573.26	1628.69
573.61	1626.88
573.96	1623.93
574.31	1621.64
574.67	1618.76
575.02	1614.76
575.37	1610.02
575.72	1606.95
576.08	1603.31
576.43	1599.31
576.78	1596.69
577.13	1592.45
577.49	1587.79
577.84	1585.07
578.19	1581.26
578.54	1577.02
578.90	1573.29
579.25	1569.71
579.60	1565.43
579.95	1560.45
580.30	1556.02
580.66	1551.40
581.01	1546.33
581.36	1541.31
581.71	1536.81
582.06	1531.76
582.42	1527.31
582.77	1521.81
583.12	1516.33
583.47	1511.60
583.82	1507.02
584.17	1503.05
584.53	1499.81
584.88	1495.14
585.23	1490.43
585.58	1485.95
585.93	1480.14
586.28	1475.10
586.63	1469.67
586.98	1465.64
587.34	1462.00
587.69	1457.40
588.04	1452.33
588.39	1447.02
588.74	1440.71
589.09	1436.93
589.44	1430.88
589.79	1425.14
590.14	1421.29
590.49	1416.12
590.84	1410.71
591.19	1405.17
591.54	1400.33
591.89	1393.69
592.25	1389.52
592.60	1383.02
592.95	1377.60
593.30	1372.83
593.65	1366.48
594.00	1360.79
594.35	1361.19
594.70	1354.79
595.05	1349.14
595.40	1343.14
595.75	1337.38
596.10	1333.67
596.45	1327.31
596.80	1322.93
597.15	1317.50
597.50	1311.05
597.85	1306.10
598.19	1300.36
598.54	1295.64
598.89	1289.07
599.24	1284.10
599.59	1277.38
599.94	1272.07
600.29	1266.88
600.64	1260.86
600.99	1255.76
601.34	1250.71
601.69	1238.95
602.04	1232.98
602.39	1227.10
602.74	1222.60
603.08	1217.02
603.43	1212.12
603.78	1206.88
604.13	1200.24
604.48	1194.19
604.83	1188.48
605.18	1182.76
605.53	1177.26
605.87	1171.29
606.22	1165.88
606.57	1159.64
606.92	1153.57
607.27	1148.67
607.62	1142.64
607.96	1137.24
608.31	1131.62
608.66	1125.12
609.01	1119.74
609.36	1114.81
609.70	1109.64
610.05	1103.40
610.40	1098.62
610.75	1091.83
611.10	1086.00
611.44	1080.57
611.79	1074.98
612.14	1070.24
612.49	1063.88
612.83	1058.05
613.18	1051.79
613.53	1046.05
613.88	1040.00
614.22	1034.50
614.57	1027.74
614.92	1021.93
615.27	1016.62
615.61	1009.81
615.96	1004.24
616.31	998.57
616.65	993.43
617.00	987.76
617.35	982.10
617.70	976.98
618.04	971.74
618.39	965.86
618.74	960.67
619.08	955.05
619.43	948.95
619.78	943.43
620.12	938.02
620.47	932.17
620.82	926.64
621.16	920.88
621.51	917.14
621.85	912.02
622.20	906.98
622.55	901.74
622.89	897.17
623.24	892.83
623.59	887.62
623.93	882.88
624.28	878.02
624.62	875.48
624.97	871.38
625.32	866.50
625.66	861.88
626.01	856.64
626.35	852.43
626.70	847.71
627.04	843.74
627.39	839.50
627.73	836.60
628.08	832.50
628.43	828.05
628.77	822.74
629.12	818.81
629.46	814.95
629.81	810.17
630.15	805.57
630.50	800.52
630.84	795.79
631.19	790.93
631.53	786.36
631.88	779.17
632.22	772.79
632.57	768.48
632.91	763.40
633.26	759.50
633.60	754.43
633.95	749.71
634.29	744.31
634.64	739.79
634.98	733.50
635.32	729.00
635.67	725.48
636.01	720.50
636.36	715.17
636.70	710.45
637.05	706.12
637.39	702.38
637.73	698.33
638.08	694.74
638.42	690.07
638.77	686.31
639.11	682.10
639.45	678.19
639.80	673.50
640.14	669.93
640.49	665.74
640.83	661.88
641.17	658.24
641.52	654.62
641.86	650.38
642.20	647.83
642.55	643.86
642.89	640.05
643.23	636.60
643.58	634.48
643.92	630.12
644.26	626.64
644.61	623.12
644.95	619.24
645.29	614.90
645.64	611.79
645.98	607.33
646.32	604.60
646.66	600.60
647.01	596.95
647.35	593.43
647.69	589.74
648.04	585.83
648.38	582.14
648.72	578.76
649.06	575.43
649.41	571.45
649.75	567.57
650.09	564.12
650.43	560.10
650.78	555.45
651.12	551.74
651.46	547.52
651.80	544.02
652.14	540.31
652.49	537.62
652.83	533.52
653.17	530.57
653.51	526.48
653.85	524.07
654.20	521.19
654.54	517.50
654.88	514.07
655.22	512.05
655.56	509.31
655.90	506.00
656.25	503.05
656.59	500.10
656.93	497.36
657.27	494.74
657.61	491.79
657.95	489.57
658.29	487.17
658.64	485.07
658.98	482.07
659.32	479.00
659.66	476.24
660.00	474.17
660.34	471.69
660.68	469.07
661.02	466.45
661.36	463.29
661.70	460.81
662.05	458.48
662.39	455.93
662.73	453.76
663.07	452.48
663.41	449.50
663.75	446.40
664.09	444.05
664.43	440.90
664.77	438.79
665.11	435.86
665.45	433.52
665.79	431.71
666.13	429.38
666.47	427.21
666.81	424.93
667.15	421.95
667.49	419.88
667.83	418.64
668.17	415.81
668.51	414.31
668.85	412.60
669.19	411.19
669.53	408.21
669.87	405.88
670.21	403.02
670.55	401.40
670.89	400.79
671.23	399.00
671.57	397.71
671.91	396.21
672.25	394.33
672.58	393.50
672.92	391.05
673.26	389.38
673.60	388.52
673.94	386.98
674.28	385.74
674.62	384.07
674.96	381.81
675.30	380.81
675.64	379.07
675.97	377.33
676.31	375.40
676.65	374.33
676.99	373.12
677.33	371.48
677.67	369.93
678.01	367.52
678.34	366.00
678.68	364.50
679.02	362.43
679.36	361.07
679.70	358.57
680.04	357.05
680.37	355.62
680.71	353.71
681.05	352.07
681.39	350.76
681.73	349.12
682.06	347.71
682.40	346.36
682.74	345.12
683.08	344.74
683.42	342.98
683.75	342.00
684.09	340.19
684.43	338.74
684.77	337.36
685.10	336.31
685.44	335.05
685.78	333.60
686.12	332.55
686.45	331.12
686.79	329.93
687.13	329.50
687.46	328.36
687.80	327.67
688.14	326.52
688.48	325.55
688.81	324.36
689.15	323.67
689.49	322.10
689.82	321.14
690.16	318.93
690.50	317.86
690.83	316.40
691.17	315.14
691.51	314.17
691.84	313.64
692.18	312.69
692.52	311.45
692.85	310.55
693.19	310.24
693.52	309.48
693.86	308.57
694.20	307.17
694.53	306.05
694.87	304.60
695.21	303.45
695.54	302.57
695.88	301.62
696.21	299.76
696.55	298.95
696.88	297.71
697.22	296.90
697.56	296.45
697.89	295.43
698.23	295.00
698.56	293.95
698.90	293.00
699.23	291.79
699.57	291.36
699.90	290.62
700.24	289.00
700.58	287.90
700.91	287.36
701.25	287.95
701.58	287.86
701.92	287.55
702.25	286.81
702.59	285.76
702.92	285.14
703.26	285.02
703.59	284.62
703.93	285.76
704.26	285.26
704.60	284.36
704.93	283.55
705.26	282.50
705.60	282.26
705.93	281.19
706.27	281.02
706.60	280.64
706.94	280.55
707.27	280.12
707.61	279.69
707.94	278.76
708.27	276.45
708.61	274.93
708.94	274.48
709.28	273.86
709.61	272.98
709.94	272.26
710.28	271.45
710.61	270.64
710.95	268.17
711.28	268.88
711.61	268.00
711.95	268.07
712.28	267.38
712.61	266.74
712.95	267.24
713.28	267.71
713.61	266.55
713.95	265.36
714.28	264.74
714.61	264.14
714.95	263.57
715.28	262.95
715.61	262.48
715.95	261.71
716.28	261.02
716.61	261.19
716.95	260.38
717.28	259.90
717.61	259.19
717.94	258.79
718.28	256.64
718.61	256.40
718.94	255.40
719.27	254.95
719.61	254.60
719.94	253.52
720.27	251.90
720.60	251.55
720.94	251.24
721.27	251.14
721.60	251.26
721.93	251.19
722.27	251.74
722.60	251.79
722.93	251.48
723.26	251.33
723.59	250.40
723.93	250.38
724.26	250.21
724.59	250.07
724.92	249.76
725.25	250.38
725.59	249.98
725.92	249.95
726.25	249.62
726.58	249.24
726.91	248.98
727.24	248.88
727.57	248.40
727.91	247.67
728.24	247.21
728.57	246.43
728.90	246.26
729.23	244.95
729.56	245.43
729.89	245.02
730.22	244.45
730.55	244.17
730.89	244.12
731.22	243.64
731.55	243.36
731.88	243.12
732.21	242.31
732.54	241.67
732.87	241.21
733.20	241.05
733.53	240.88
733.86	240.60
734.19	239.90
734.52	239.93
734.85	241.00
735.18	240.67
735.51	241.07
735.84	240.79
736.17	241.33
736.50	240.00
736.83	242.10
737.16	242.12
737.49	241.74
737.82	241.05
738.15	241.02
738.48	240.71
738.81	240.43
739.14	239.74
739.47	239.69
739.80	239.74
740.13	239.76
740.46	239.07
740.79	238.52
741.12	238.62
741.45	238.14
741.78	236.88
742.11	237.14
742.44	236.55
742.77	236.55
743.10	236.05
743.43	235.98
743.75	233.60
744.08	235.90
744.41	235.79
744.74	235.69
745.07	234.98
745.40	235.14
745.73	235.79
746.06	235.79
746.39	236.07
746.71	235.31
747.04	234.57
747.37	234.29
747.70	234.45
748.03	234.17
748.36	234.24
748.68	234.14
749.01	233.52
749.34	233.21
749.67	232.95
750.00	232.93
750.33	234.26
750.65	234.12
750.98	231.36
751.31	231.33
751.64	231.21
751.97	232.52
752.29	232.24
752.62	231.21
752.95	231.19
753.28	230.69
753.60	230.52
753.93	231.29
754.26	231.38
754.59	230.71
754.91	230.48
755.24	230.40
755.57	230.19
755.90	229.93
756.22	229.74
756.55	229.12
756.88	228.67
757.20	227.14
757.53	226.60
757.86	226.57
758.19	226.43
758.51	226.29
758.84	225.02
759.17	224.62
759.49	224.67
759.82	225.40
760.15	225.48
760.47	225.40
760.80	224.71
761.13	224.98
761.45	224.81
761.78	224.62
762.11	224.43
762.43	224.02
762.76	223.60
763.08	223.76
763.41	223.95
763.74	223.93
764.06	223.57
764.39	223.55
764.71	223.48
765.04	223.02
765.37	222.74
765.69	222.38
766.02	222.33
766.34	222.24
766.67	221.36
767.00	221.55
767.32	222.62
767.65	223.88
767.97	223.69
768.30	223.69
768.62	223.81
768.95	223.52
769.27	223.48
769.60	224.10
769.92	223.71
770.25	223.50
770.57	222.98
770.90	222.88
771.22	222.64
771.55	222.50
771.87	222.79
772.20	222.71
772.52	224.45
772.85	226.90
773.17	226.76
773.50	226.62
773.82	226.19
774.15	225.07
774.47	223.45
774.80	223.24
775.12	223.24
775.45	223.07
775.77	223.38
776.09	223.60
776.42	223.31
776.74	223.76
777.07	223.67
777.39	223.95
777.72	223.93
778.04	224.10
778.36	223.95
778.69	223.88
779.01	223.93
779.33	222.05
779.66	219.74
779.98	219.40
780.31	219.45
780.63	220.17
780.95	220.40
781.28	220.52
781.60	220.31
781.92	220.19
782.25	220.19
782.57	219.69
782.89	219.45
783.22	219.26
783.54	218.76
783.86	218.71
784.19	218.43
784.51	218.93
784.83	218.48
785.16	218.33
785.48	218.14
785.80	218.05
786.12	218.38
786.45	218.33
786.77	218.60
787.09	218.40
787.42	217.86
787.74	217.86
788.06	217.69
788.38	217.74
788.71	217.60
789.03	217.60
789.35	218.17
789.67	217.83
789.99	217.86
790.32	217.52
790.64	217.71
790.96	219.43
791.28	218.76
791.61	218.86
791.93	219.02
792.25	219.14
792.57	220.67
792.89	220.21
793.21	220.21
793.54	220.02
793.86	219.93
794.18	219.86
794.50	219.57
794.82	219.60
795.14	219.67
795.47	219.98
795.79	219.83
796.11	219.12
796.43	219.02
796.75	219.12
797.07	219.45
797.39	219.17
797.71	217.60
798.04	217.64
798.36	217.76
798.68	217.81
799.00	217.81
799.32	216.69
799.64	217.14
799.96	217.07
800.28	217.24
800.60	217.05
800.92	217.19
801.24	216.90
801.56	216.93
801.89	216.69
802.21	216.90
802.53	216.67
802.85	217.24
803.17	218.43
803.49	218.02
803.81	217.67
804.13	217.50
804.45	217.17
804.77	217.36
805.09	217.14
805.41	216.71
805.73	216.21
806.05	215.64
806.37	215.38
806.69	215.21
807.01	215.00
807.33	215.24
807.65	214.48
807.97	215.48
808.28	215.55
808.60	215.62
808.92	215.26
809.24	216.57
809.56	216.05
809.88	215.12
810.20	215.29
810.52	215.74
810.84	215.55
811.16	215.48
811.48	215.07
811.80	215.93
812.12	215.98
812.43	216.45
812.75	216.81
813.07	216.45
813.39	216.50
813.71	216.19
814.03	215.90
814.35	215.93
814.67	215.19
814.98	214.76
815.30	214.62
815.62	214.29
815.94	212.67
816.26	212.90
816.58	212.48
816.89	212.45
817.21	212.05
817.53	212.33
817.85	212.40
818.17	212.64
818.48	211.90
818.80	212.43
819.12	212.07
819.44	211.52
819.76	211.71
820.07	211.88
820.39	212.21
820.71	212.38
821.03	212.64
821.34	212.55
821.66	213.21
821.98	213.45
822.30	213.36
822.61	215.07
822.93	214.69
823.25	214.76
823.57	214.81
823.88	215.12
824.20	215.12
824.52	215.33
824.83	215.26
825.15	215.17
825.47	214.98
825.79	215.21
826.10	215.40
826.42	215.45
826.74	215.60
827.05	215.38
827.37	215.52
827.69	215.31
828.00	215.31
828.32	214.93
828.64	214.67
828.95	215.86
829.27	215.05
829.58	215.31
829.90	215.88
830.22	216.00
830.53	215.50
830.85	215.12
831.17	214.83
831.48	214.67
831.80	214.62
832.11	214.33
832.43	214.12
832.75	214.12
833.06	215.17
833.38	214.55
833.69	214.74
834.01	214.57
834.32	214.57
834.64	214.52
834.96	214.69
835.27	214.81
835.59	214.00
835.90	213.67
836.22	213.64
836.53	213.21
836.85	213.10
837.16	215.43
837.48	215.62
837.79	216.21
838.11	216.50
838.42	216.55
838.74	216.86
839.05	216.81
839.37	216.52
839.68	215.26
840.00	215.29
840.31	215.45
840.63	215.48
840.94	215.24
841.26	215.00
841.57	214.76
841.88	214.83
842.20	214.57
842.51	214.38
842.83	214.19
843.14	215.93
843.46	215.90
843.77	214.57
844.08	214.43
844.40	213.83
844.71	213.50
845.03	213.31
845.34	213.26
845.65	213.05
845.97	213.38
846.28	213.36
846.60	213.33
846.91	212.86
847.22	212.67
847.54	213.07
847.85	213.19
848.16	213.05
848.48	212.62
848.79	213.67
849.10	213.71
849.42	214.00
849.73	212.17
850.04	212.19
850.36	211.55
850.67	211.98
850.98	212.19
851.30	212.60
851.61	212.74
851.92	212.62
852.23	213.40
852.55	213.38
852.86	213.52
853.17	213.76
853.49	214.24
853.80	214.86
854.11	215.12
854.42	215.45
854.74	215.29
855.05	215.45
855.36	214.12
855.67	214.33
855.99	214.17
856.30	216.64
856.61	216.40
856.92	216.40
857.23	216.31
857.55	216.00
857.86	215.83
858.17	216.14
858.48	215.79
858.79	215.52
859.11	215.62
859.42	215.55
859.73	215.31
860.04	215.24
860.35	214.64
860.66	214.07
860.98	213.98
861.29	214.33
861.60	214.14
861.91	214.79
862.22	214.31
862.53	214.19
862.84	211.55
863.16	212.36
863.47	212.05
863.78	211.90
864.09	212.00
864.40	212.07
864.71	211.98
865.02	212.21
865.33	211.93
865.64	211.74
865.95	211.83
866.27	213.02
866.58	212.83
866.89	213.02
867.20	212.71
867.51	212.43
867.82	212.31
868.13	213.17
868.44	212.60
868.75	213.24
869.06	213.40
869.37	213.81
869.68	213.05
869.99	213.45
870.30	213.60
870.61	213.98
870.92	213.55
871.23	213.33
871.54	213.60
871.85	213.90
872.16	213.95
872.47	213.86
872.78	212.74
873.09	212.86
873.40	212.45
873.71	212.88
874.02	212.93
874.33	212.67
874.64	212.00
874.95	212.50
875.26	212.05
875.56	212.10
875.87	211.90
876.18	211.62
876.49	213.62
876.80	213.33
877.11	212.79
877.42	212.86
877.73	212.83
878.04	212.64
878.35	212.88
878.66	213.07
878.96	213.24
879.27	213.40
879.58	213.26
879.89	213.26
880.20	213.74
880.51	213.67
880.82	213.98
881.12	214.17
881.43	213.88
881.74	213.48
882.05	213.38
882.36	213.52
882.67	213.76
882.97	211.52
883.28	211.33
883.59	211.40
883.90	211.86
884.21	212.21
884.51	212.07
884.82	211.67
885.13	211.69
885.44	211.31
885.74	211.10
886.05	211.05
886.36	211.26
886.67	210.71
886.98	211.62
887.28	211.76
887.59	211.62
887.90	211.64
888.20	211.81
888.51	212.21
888.82	211.93
889.13	212.26
889.43	214.02
889.74	214.19
890.05	214.21
890.35	213.79
890.66	213.45
890.97	213.33
891.28	213.21
891.58	213.05
891.89	213.05
892.20	212.83
892.50	212.71
892.81	212.62
893.12	212.67
893.42	211.95
893.73	211.86
894.04	212.14
894.34	212.21
894.65	212.21
894.95	211.81
895.26	212.00
895.57	212.98
895.87	210.98
896.18	211.33
896.48	211.45
896.79	211.40
897.10	211.81
897.40	211.74
897.71	211.83
898.01	211.62
898.32	212.00
898.63	212.05
898.93	212.38
899.24	212.38
899.54	212.19
899.85	212.19
900.15	212.17
900.46	211.86
900.76	212.19
901.07	212.14
901.38	212.17
901.68	212.19
901.99	210.88
902.29	210.90
902.60	210.76
902.90	210.76
903.21	211.00
903.51	210.79
903.82	211.55
904.12	211.50
904.43	211.64
904.73	211.69
905.03	211.95
905.34	213.62
905.64	213.60
905.95	213.69
906.25	213.60
906.56	213.43
906.86	213.52
907.17	213.14
907.47	213.24
907.77	213.12
908.08	212.83
908.38	213.24
908.69	213.74
908.99	213.93
909.30	213.95
909.60	213.81
909.90	213.62
910.21	212.86
910.51	212.64
910.81	213.02
911.12	212.76
911.42	212.64
911.73	210.62
912.03	210.67
912.33	211.02
912.64	211.05
912.94	211.07
913.24	210.86
913.55	210.62
913.85	210.76
914.15	211.07
914.46	211.40
914.76	211.02
915.06	210.69
915.37	210.24
915.67	209.88
915.97	209.95
916.27	209.62
916.58	209.90
916.88	209.95
917.18	209.64
917.49	211.26
917.79	211.26
918.09	211.79
918.39	212.50
918.70	212.45
919.00	212.33
919.30	213.36
919.60	213.31
919.91	213.36
920.21	213.19
920.51	212.76
920.81	212.81
921.12	213.26
921.42	213.24
921.72	213.64
922.02	214.07
922.32	214.43
922.63	214.67
922.93	215.57
923.23	215.62
923.53	215.29
923.83	213.86
924.13	214.00
924.44	213.81
924.74	213.95
925.04	214.33
925.34	214.29
925.64	213.33
925.94	213.45
926.24	214.76
926.55	214.64
926.85	215.02
927.15	214.98
927.45	214.81
927.75	214.86
928.05	214.88
928.35	214.55
928.65	214.62
928.95	215.05
929.26	214.17
929.56	214.45
929.86	214.69
930.16	214.67
930.46	214.48
930.76	214.60
931.06	213.69
931.36	213.36
931.66	213.74
931.96	213.98
932.26	213.95
932.56	212.98
932.86	213.29
933.16	213.14
933.46	212.88
933.76	212.74
934.06	213.10
934.36	213.90
934.66	213.90
934.96	213.60
935.26	213.60
935.56	214.02
935.86	213.69
936.16	213.57
936.46	213.50
936.76	213.43
937.06	213.00
937.36	213.12
937.66	212.88
937.96	212.76
938.26	212.29
938.56	212.33
938.86	212.52
939.16	212.83
939.46	213.19
939.76	213.31
940.06	213.21
940.35	213.02
940.65	211.69
940.95	211.98
941.25	211.83
941.55	211.50
941.85	211.33
942.15	211.74
942.45	212.45
942.75	212.19
943.04	212.31
943.34	212.62
943.64	212.67
943.94	212.60
944.24	212.69
944.54	212.69
944.84	212.45
945.13	212.05
945.43	211.64
945.73	211.43
946.03	211.24
946.33	211.14
946.62	210.79
946.92	210.83
947.22	210.88
947.52	210.95
947.82	211.17
948.11	210.81
948.41	210.52
948.71	209.88
949.01	210.12
949.31	210.10
949.60	210.14
949.90	210.24
950.20	210.33
950.50	210.26
950.79	210.43
951.09	210.79
951.39	210.88
951.69	210.76
951.98	211.02
952.28	211.33
952.58	211.26
952.87	211.19
953.17	211.57
953.47	211.40
953.76	211.45
954.06	211.14
954.36	211.00
954.66	210.74
954.95	211.31
955.25	211.38
955.55	211.38
955.84	210.88
956.14	211.12
956.44	211.02
956.73	210.71
957.03	210.86
957.32	210.86
957.62	210.64
957.92	210.90
958.21	210.88
958.51	213.12
958.81	213.33
959.10	213.83
959.40	214.38
959.69	214.45
959.99	214.57
960.29	214.62
960.58	214.69
960.88	215.67
961.17	215.36
961.47	215.67
961.76	215.71
962.06	216.38
962.36	216.00
962.65	216.21
962.95	216.45
963.24	216.17
963.54	216.17
963.83	216.48
964.13	216.60
964.42	216.14
964.72	214.40
965.01	214.29
965.31	213.88
965.60	213.02
965.90	214.40
966.19	214.12
966.49	214.26
966.78	214.17
967.08	213.98
967.37	214.05
967.67	213.38
967.96	213.69
968.26	213.50
968.55	214.10
968.85	214.10
969.14	213.81
969.43	213.88
969.73	213.79
970.02	213.60
970.32	213.50
970.61	213.57
970.91	212.93
971.20	212.81
971.49	212.83
971.79	213.14
972.08	211.52
972.38	211.60
972.67	211.67
972.96	211.90
973.26	211.50
973.55	212.19
973.85	212.26
974.14	212.00
974.43	212.07
974.73	211.55
975.02	211.14
975.31	211.12
975.61	211.05
975.90	210.79
976.19	210.69
976.49	211.00
976.78	211.07
977.07	211.02
977.37	211.31
977.66	211.60
977.95	211.33
978.24	211.67
978.54	212.10
978.83	211.86
979.12	211.86
979.42	211.83
979.71	211.26
980.00	211.14
980.29	211.24
980.59	210.76
980.88	211.19
981.17	211.31
981.46	211.60
981.76	211.62
982.05	212.50
982.34	212.83
982.63	212.60
982.93	212.43
983.22	213.17
983.51	213.17
983.80	213.31
984.09	213.81
984.39	213.60
984.68	213.24
984.97	213.33
985.26	213.00
985.55	213.17
985.85	212.67
986.14	213.02
986.43	213.07
986.72	213.00
987.01	212.33
987.30	212.29
987.59	212.24
987.89	212.14
988.18	211.33
988.47	210.90
988.76	210.76
989.05	210.69
989.34	210.48
989.63	210.74
989.92	210.45
990.22	210.02
990.51	209.95
990.80	209.79
991.09	209.90
991.38	210.26
991.67	210.07
991.96	210.05
992.25	210.31
992.54	210.02
992.83	210.17
993.12	210.24
993.41	210.48
993.70	211.05
993.99	211.31
994.28	211.48
994.58	211.83
994.87	211.52
995.16	211.43
995.45	211.02
995.74	210.45
996.03	210.76
996.32	210.81
996.61	211.48
996.90	211.57
997.19	211.26
997.48	211.21
997.77	210.98
998.06	211.26
998.34	210.88
998.63	210.93
998.92	210.83
999.21	210.90
999.50	210.93
999.79	210.29
1000.08	210.50
1000.37	210.71
1000.66	210.55
1000.95	211.07
1001.24	211.10
1001.53	211.29
1001.82	211.50
1002.11	211.00
1002.40	211.48
1002.68	211.64
1002.97	212.98
1003.26	212.90
1003.55	212.64
1003.84	213.00
1004.13	213.86
1004.42	213.86
1004.71	214.00
1004.99	213.93
1005.28	214.60
1005.57	214.38
1005.86	214.43
1006.15	214.21
1006.44	213.81
1006.72	214.02
1007.01	213.79
1007.30	213.95
1007.59	213.98
1007.88	214.21
1008.17	214.40
1008.45	214.17
1008.74	213.14
1009.03	212.05
1009.32	211.95
1009.60	212.05
1009.89	211.81
1010.18	210.67
1010.47	210.64
1010.76	210.67
1011.04	210.86
1011.33	210.86
1011.62	211.14
1011.91	211.21
1012.19	211.43
1012.48	211.52
1012.77	211.50
1013.05	212.48
1013.34	212.33
1013.63	211.86
1013.92	211.50
1014.20	211.38
1014.49	211.17
1014.78	211.71
1015.06	211.33
1015.35	211.52
1015.64	211.76
1015.92	211.95
1016.21	212.05
1016.50	212.00
1016.78	212.21
1017.07	212.31
1017.36	211.57
1017.64	211.36
1017.93	211.52
1018.22	211.21
1018.50	211.00
1018.79	210.90
1019.08	209.76
1019.36	210.05
1019.65	210.17
1019.93	210.57
1020.22	210.79
1020.51	211.88
1020.79	211.67
1021.08	208.50
1021.36	203.50
1021.65	212.00
1021.94	208.50
1022.22	213.00
1022.51	207.50
1022.79	216.50
1023.08	213.00
1023.36	234.50
1023.65	210.00
>>>>>End Processed Spectral Data<<<<<
