SpectraSuite Data File
++++++++++++++++++++++++++++++++++++
Date: Tue Apr 02 18:45:00 EDT 2013
User: group
Dark Spectrum Present: No
Reference Spectrum Present: No
Number of Sampled Component Spectra: 1
Spectrometers: USB2E7196
Integration Time (usec): 580000 (USB2E7196)
Spectra Averaged: 2 (USB2E7196)
Boxcar Smoothing: 10 (USB2E7196)
Correct for Electrical Dark: No (USB2E7196)
Strobe/Lamp Enabled: No (USB2E7196)
Correct for Detector Non-linearity: No (USB2E7196)
Correct for Stray Light: No (USB2E7196)
Number of Pixels in Processed Spectrum: 2048
>>>>>Begin Processed Spectral Data<<<<<
339.09	0.00
339.48	192.00
339.86	193.00
340.24	199.00
340.63	200.00
341.01	235.00
341.39	202.50
341.78	207.50
342.16	210.50
342.54	207.50
342.93	198.48
343.31	208.40
343.69	209.05
344.07	209.79
344.46	210.38
344.84	211.00
345.22	209.76
345.60	210.24
345.99	210.57
346.37	210.62
346.75	210.76
347.13	210.69
347.52	211.24
347.90	211.83
348.28	211.86
348.66	212.19
349.05	211.60
349.43	211.67
349.81	211.86
350.19	211.93
350.57	212.02
350.96	212.33
351.34	212.57
351.72	212.90
352.10	212.88
352.48	212.93
352.87	212.86
353.25	212.62
353.63	212.36
354.01	211.95
354.39	212.05
354.77	211.98
355.15	212.74
355.54	212.50
355.92	211.79
356.30	211.64
356.68	212.88
357.06	212.88
357.44	212.52
357.82	212.38
358.20	213.14
358.58	213.02
358.97	213.14
359.35	213.36
359.73	213.62
360.11	213.50
360.49	213.40
360.87	213.24
361.25	213.62
361.63	214.26
362.01	214.62
362.39	214.43
362.77	214.60
363.15	214.29
363.53	214.14
363.91	214.52
364.29	214.52
364.67	212.86
365.05	212.83
365.43	213.02
365.81	213.36
366.19	213.45
366.57	214.19
366.95	213.90
367.33	213.52
367.71	213.26
368.09	213.55
368.47	213.60
368.85	213.40
369.23	213.90
369.61	213.19
369.99	213.71
370.37	214.07
370.75	215.12
371.13	214.69
371.51	214.55
371.89	214.55
372.27	214.74
372.65	214.71
373.03	214.74
373.41	214.76
373.78	214.74
374.16	213.81
374.54	213.17
374.92	212.98
375.30	213.00
375.68	212.62
376.06	212.88
376.44	212.81
376.82	213.17
377.19	212.88
377.57	212.90
377.95	212.21
378.33	211.79
378.71	210.71
379.09	211.07
379.47	211.07
379.84	210.74
380.22	210.52
380.60	210.19
380.98	210.10
381.36	210.12
381.73	209.86
382.11	210.07
382.49	210.00
382.87	210.07
383.25	210.24
383.62	212.74
384.00	212.29
384.38	212.33
384.76	212.67
385.13	213.52
385.51	213.67
385.89	213.45
386.27	213.79
386.64	214.05
387.02	214.12
387.40	214.33
387.78	214.50
388.15	214.81
388.53	214.83
388.91	214.95
389.29	214.81
389.66	214.98
390.04	214.88
390.42	215.50
390.79	215.71
391.17	215.55
391.55	213.55
391.92	213.67
392.30	213.90
392.68	213.64
393.05	213.43
393.43	213.57
393.81	214.10
394.18	213.71
394.56	213.69
394.94	213.95
395.31	213.81
395.69	214.57
396.06	214.81
396.44	215.17
396.82	214.76
397.19	215.90
397.57	215.98
397.95	216.52
398.32	215.95
398.70	216.17
399.07	216.60
399.45	216.36
399.82	216.38
400.20	216.29
400.58	216.14
400.95	215.60
401.33	215.95
401.70	217.12
402.08	217.33
402.45	217.29
402.83	217.81
403.20	218.05
403.58	217.88
403.95	218.50
404.33	218.86
404.71	219.40
405.08	220.64
405.46	220.90
405.83	221.17
406.21	221.60
406.58	221.95
406.96	222.40
407.33	223.05
407.70	223.93
408.08	226.00
408.45	227.00
408.83	227.74
409.20	228.17
409.58	227.67
409.95	228.86
410.33	229.93
410.70	230.10
411.08	231.31
411.45	232.24
411.82	232.81
412.20	234.19
412.57	236.60
412.95	236.05
413.32	237.76
413.69	239.17
414.07	240.98
414.44	242.86
414.82	244.69
415.19	246.98
415.56	248.83
415.94	250.10
416.31	252.86
416.68	255.55
417.06	259.02
417.43	262.71
417.81	266.02
418.18	269.67
418.55	273.40
418.93	277.29
419.30	281.40
419.67	285.69
420.04	290.26
420.42	294.55
420.79	301.83
421.16	307.17
421.54	313.93
421.91	319.86
422.28	325.86
422.66	332.00
423.03	340.00
423.40	346.93
423.77	353.95
424.15	360.71
424.52	368.55
424.89	376.64
425.26	384.29
425.64	391.95
426.01	400.00
426.38	409.05
426.75	418.50
427.13	427.81
427.50	437.43
427.87	447.17
428.24	457.38
428.61	465.79
428.99	477.19
429.36	487.31
429.73	498.36
430.10	509.93
430.47	521.98
430.85	532.62
431.22	545.17
431.59	559.90
431.96	572.69
432.33	586.52
432.70	600.55
433.08	616.50
433.45	631.57
433.82	646.60
434.19	663.05
434.56	679.71
434.93	695.31
435.30	711.26
435.68	728.93
436.05	746.52
436.42	763.14
436.79	778.83
437.16	796.10
437.53	814.10
437.90	831.62
438.27	849.62
438.64	867.26
439.01	884.62
439.38	898.10
439.75	912.79
440.13	930.14
440.50	945.62
440.87	958.05
441.24	971.88
441.61	986.86
441.98	997.36
442.35	1008.98
442.72	1021.48
443.09	1034.76
443.46	1042.52
443.83	1046.83
444.20	1051.50
444.57	1057.71
444.94	1060.81
445.31	1064.45
445.68	1070.07
446.05	1070.86
446.42	1070.05
446.79	1068.90
447.16	1067.12
447.53	1066.12
447.90	1059.31
448.27	1052.69
448.64	1044.38
449.01	1037.81
449.37	1027.05
449.74	1016.60
450.11	1005.71
450.48	992.14
450.85	976.17
451.22	963.38
451.59	951.90
451.96	940.81
452.33	924.93
452.70	911.26
453.07	894.19
453.43	874.90
453.80	858.98
454.17	842.95
454.54	827.24
454.91	811.50
455.28	795.83
455.65	780.60
456.02	769.40
456.38	756.40
456.75	740.76
457.12	727.33
457.49	715.12
457.86	700.79
458.23	690.10
458.59	678.76
458.96	666.83
459.33	656.21
459.70	645.36
460.07	637.43
460.43	627.88
460.80	619.48
461.17	612.21
461.54	604.02
461.91	596.26
462.27	588.29
462.64	581.17
463.01	573.50
463.38	567.88
463.74	557.50
464.11	551.45
464.48	545.95
464.85	539.17
465.21	534.76
465.58	529.93
465.95	523.14
466.32	518.29
466.68	513.26
467.05	508.17
467.42	503.38
467.78	497.76
468.15	492.71
468.52	488.88
468.88	483.33
469.25	478.38
469.62	474.90
469.98	471.10
470.35	467.50
470.72	463.88
471.08	458.86
471.45	455.50
471.82	452.64
472.18	449.17
472.55	447.26
472.92	443.14
473.28	440.14
473.65	437.69
474.02	435.00
474.38	432.88
474.75	430.95
475.11	428.43
475.48	427.07
475.85	425.36
476.21	423.45
476.58	422.12
476.94	421.36
477.31	419.74
477.67	418.29
478.04	417.43
478.41	416.81
478.77	418.36
479.14	417.45
479.50	416.81
479.87	416.52
480.23	415.93
480.60	415.55
480.96	415.50
481.33	416.55
481.69	416.33
482.06	416.48
482.42	416.76
482.79	417.10
483.15	417.36
483.52	418.17
483.88	418.50
484.25	419.29
484.61	419.67
484.98	420.79
485.34	422.55
485.71	423.74
486.07	425.10
486.44	424.50
486.80	426.17
487.17	427.74
487.53	430.29
487.90	432.29
488.26	435.81
488.62	438.62
488.99	440.29
489.35	442.79
489.72	445.05
490.08	447.36
490.44	450.31
490.81	453.43
491.17	456.48
491.54	460.02
491.90	463.26
492.26	466.64
492.63	469.95
492.99	473.10
493.36	477.57
493.72	482.10
494.08	486.36
494.45	491.10
494.81	495.95
495.17	500.12
495.54	505.69
495.90	509.50
496.26	514.33
496.63	519.69
496.99	525.55
497.35	531.48
497.72	538.17
498.08	543.76
498.44	549.86
498.80	556.17
499.17	562.64
499.53	569.00
499.89	576.21
500.26	582.81
500.62	589.62
500.98	596.19
501.34	603.12
501.71	610.36
502.07	617.14
502.43	623.83
502.79	630.79
503.16	637.55
503.52	645.29
503.88	652.36
504.24	660.10
504.60	667.24
504.97	675.21
505.33	682.21
505.69	691.00
506.05	698.55
506.41	706.24
506.78	713.38
507.14	720.93
507.50	728.69
507.86	737.07
508.22	745.05
508.59	752.43
508.95	760.45
509.31	769.48
509.67	777.57
510.03	785.45
510.39	793.29
510.75	801.33
511.12	808.74
511.48	816.67
511.84	823.98
512.20	831.45
512.56	838.79
512.92	846.43
513.28	853.40
513.64	860.71
514.00	868.02
514.37	875.38
514.73	882.86
515.09	889.86
515.45	897.00
515.81	904.24
516.17	911.05
516.53	917.14
516.89	922.00
517.25	928.50
517.61	935.62
517.97	941.76
518.33	947.69
518.69	954.26
519.05	960.76
519.41	967.26
519.77	975.26
520.13	980.93
520.49	986.12
520.85	992.29
521.21	999.17
521.57	1005.05
521.93	1010.12
522.29	1015.40
522.65	1020.60
523.01	1025.48
523.37	1030.21
523.73	1035.69
524.09	1040.69
524.45	1046.10
524.81	1051.05
525.17	1055.98
525.53	1060.76
525.89	1065.60
526.25	1070.62
526.61	1074.81
526.97	1078.45
527.33	1081.12
527.68	1087.05
528.04	1091.57
528.40	1095.17
528.76	1098.36
529.12	1102.67
529.48	1108.10
529.84	1112.36
530.20	1116.64
530.56	1121.33
530.91	1125.79
531.27	1129.90
531.63	1134.67
531.99	1138.88
532.35	1142.38
532.71	1146.36
533.07	1150.95
533.42	1157.12
533.78	1160.33
534.14	1164.76
534.50	1169.21
534.86	1174.26
535.21	1176.90
535.57	1181.52
535.93	1185.88
536.29	1191.02
536.65	1195.00
537.00	1198.43
537.36	1202.26
537.72	1205.88
538.08	1209.19
538.44	1211.98
538.79	1215.45
539.15	1217.62
539.51	1221.33
539.87	1224.62
540.22	1227.19
540.58	1230.38
540.94	1231.86
541.29	1235.60
541.65	1237.79
542.01	1240.90
542.37	1243.14
542.72	1244.98
543.08	1246.93
543.44	1249.19
543.79	1249.60
544.15	1252.05
544.51	1255.07
544.87	1257.60
545.22	1260.07
545.58	1262.62
545.94	1264.98
546.29	1267.21
546.65	1270.48
547.01	1272.29
547.36	1275.57
547.72	1278.05
548.07	1280.45
548.43	1282.26
548.79	1284.52
549.14	1286.29
549.50	1289.62
549.86	1291.26
550.21	1294.48
550.57	1297.67
550.92	1300.05
551.28	1303.81
551.64	1306.19
551.99	1308.67
552.35	1311.67
552.70	1314.98
553.06	1318.14
553.41	1322.24
553.77	1326.50
554.13	1330.02
554.48	1334.52
554.84	1338.17
555.19	1341.71
555.55	1346.79
555.90	1350.69
556.26	1354.17
556.61	1359.31
556.97	1361.83
557.32	1366.12
557.68	1370.02
558.03	1373.67
558.39	1377.86
558.74	1381.45
559.10	1385.50
559.45	1390.00
559.81	1394.29
560.16	1398.31
560.52	1402.36
560.87	1406.93
561.23	1410.24
561.58	1415.57
561.94	1418.64
562.29	1422.33
562.64	1427.45
563.00	1430.36
563.35	1434.21
563.71	1439.48
564.06	1444.36
564.42	1449.62
564.77	1455.29
565.12	1461.38
565.48	1468.45
565.83	1473.95
566.19	1480.31
566.54	1486.05
566.89	1490.38
567.25	1495.79
567.60	1501.74
567.96	1509.71
568.31	1515.60
568.66	1522.81
569.02	1528.07
569.37	1534.48
569.72	1540.36
570.08	1545.86
570.43	1551.76
570.78	1558.62
571.14	1564.14
571.49	1569.02
571.84	1574.81
572.20	1580.19
572.55	1584.79
572.90	1587.36
573.26	1592.93
573.61	1596.67
573.96	1601.40
574.31	1606.36
574.67	1610.26
575.02	1614.17
575.37	1615.98
575.72	1619.12
576.08	1623.17
576.43	1625.90
576.78	1629.12
577.13	1633.02
577.49	1637.05
577.84	1641.38
578.19	1645.07
578.54	1648.40
578.90	1652.48
579.25	1655.83
579.60	1658.90
579.95	1661.62
580.30	1666.24
580.66	1670.19
581.01	1674.57
581.36	1678.00
581.71	1681.81
582.06	1686.71
582.42	1691.07
582.77	1694.12
583.12	1697.69
583.47	1699.98
583.82	1703.79
584.17	1707.14
584.53	1710.88
584.88	1713.40
585.23	1716.60
585.58	1719.00
585.93	1721.74
586.28	1724.45
586.63	1727.40
586.98	1730.38
587.34	1735.02
587.69	1737.33
588.04	1738.90
588.39	1740.71
588.74	1741.86
589.09	1743.79
589.44	1744.52
589.79	1745.50
590.14	1747.67
590.49	1748.83
590.84	1750.67
591.19	1752.83
591.54	1754.38
591.89	1755.26
592.25	1758.52
592.60	1758.93
592.95	1760.57
593.30	1762.29
593.65	1763.52
594.00	1762.60
594.35	1769.00
594.70	1768.48
595.05	1769.71
595.40	1769.95
595.75	1770.07
596.10	1772.93
596.45	1773.76
596.80	1774.62
597.15	1775.62
597.50	1776.17
597.85	1778.62
598.19	1777.74
598.54	1777.33
598.89	1778.00
599.24	1779.36
599.59	1778.86
599.94	1778.88
600.29	1779.43
600.64	1778.79
600.99	1778.95
601.34	1781.67
601.69	1775.10
602.04	1774.69
602.39	1774.71
602.74	1775.48
603.08	1775.48
603.43	1774.57
603.78	1774.26
604.13	1774.62
604.48	1774.21
604.83	1774.05
605.18	1772.45
605.53	1772.17
605.87	1771.31
606.22	1770.00
606.57	1768.33
606.92	1766.64
607.27	1766.57
607.62	1765.29
607.96	1765.00
608.31	1764.74
608.66	1762.71
609.01	1761.50
609.36	1760.50
609.70	1758.07
610.05	1755.52
610.40	1754.43
610.75	1751.93
611.10	1750.81
611.44	1747.67
611.79	1746.14
612.14	1744.05
612.49	1740.67
612.83	1739.19
613.18	1736.83
613.53	1734.12
613.88	1731.00
614.22	1726.40
614.57	1722.02
614.92	1717.26
615.27	1713.74
615.61	1708.81
615.96	1704.74
616.31	1702.10
616.65	1699.55
617.00	1697.19
617.35	1694.86
617.70	1691.52
618.04	1687.88
618.39	1684.24
618.74	1680.95
619.08	1676.79
619.43	1673.50
619.78	1671.21
620.12	1667.52
620.47	1664.02
620.82	1660.52
621.16	1656.57
621.51	1655.64
621.85	1651.69
622.20	1649.07
622.55	1644.50
622.89	1641.10
623.24	1638.86
623.59	1635.33
623.93	1630.67
624.28	1626.38
624.62	1624.17
624.97	1622.02
625.32	1618.31
625.66	1613.71
626.01	1609.60
626.35	1605.71
626.70	1601.52
627.04	1597.86
627.39	1593.48
627.73	1591.31
628.08	1588.40
628.43	1584.83
628.77	1579.98
629.12	1576.93
629.46	1573.12
629.81	1570.00
630.15	1565.81
630.50	1560.45
630.84	1555.90
631.19	1551.50
631.53	1547.05
631.88	1539.17
632.22	1532.24
632.57	1528.43
632.91	1523.60
633.26	1519.79
633.60	1514.52
633.95	1509.07
634.29	1503.45
634.64	1499.71
634.98	1493.86
635.32	1489.45
635.67	1485.21
636.01	1481.19
636.36	1476.62
636.70	1472.31
637.05	1467.86
637.39	1463.14
637.73	1459.24
638.08	1455.67
638.42	1451.67
638.77	1447.86
639.11	1445.10
639.45	1440.93
639.80	1435.69
640.14	1431.19
640.49	1426.29
640.83	1421.00
641.17	1417.17
641.52	1412.50
641.86	1406.67
642.20	1402.21
642.55	1395.90
642.89	1390.19
643.23	1384.33
643.58	1379.83
643.92	1373.31
644.26	1367.90
644.61	1363.36
644.95	1357.57
645.29	1350.90
645.64	1345.86
645.98	1340.07
646.32	1334.31
646.66	1327.83
647.01	1321.64
647.35	1316.40
647.69	1310.33
648.04	1305.67
648.38	1299.05
648.72	1293.45
649.06	1288.55
649.41	1281.33
649.75	1275.48
650.09	1269.29
650.43	1263.10
650.78	1255.76
651.12	1250.21
651.46	1243.17
651.80	1236.81
652.14	1230.48
652.49	1225.07
652.83	1217.69
653.17	1210.50
653.51	1204.00
653.85	1198.64
654.20	1192.40
654.54	1185.52
654.88	1179.40
655.22	1172.93
655.56	1166.07
655.90	1159.36
656.25	1152.29
656.59	1146.71
656.93	1140.93
657.27	1136.57
657.61	1129.86
657.95	1124.52
658.29	1118.83
658.64	1114.17
658.98	1107.10
659.32	1100.55
659.66	1094.14
660.00	1088.14
660.34	1082.52
660.68	1076.38
661.02	1070.10
661.36	1064.10
661.70	1058.38
662.05	1052.10
662.39	1046.60
662.73	1042.12
663.07	1036.98
663.41	1030.98
663.75	1024.69
664.09	1018.36
664.43	1010.50
664.77	1004.62
665.11	997.69
665.45	991.02
665.79	984.36
666.13	978.74
666.47	973.02
666.81	966.98
667.15	960.86
667.49	955.05
667.83	949.93
668.17	943.83
668.51	938.55
668.85	932.81
669.19	928.17
669.53	921.81
669.87	916.17
670.21	910.00
670.55	904.00
670.89	899.45
671.23	894.00
671.57	889.24
671.91	883.86
672.25	878.86
672.58	875.12
672.92	869.17
673.26	863.64
673.60	858.64
673.94	853.31
674.28	848.93
674.62	844.07
674.96	837.95
675.30	833.19
675.64	827.83
675.97	822.55
676.31	816.98
676.65	811.83
676.99	807.14
677.33	801.64
677.67	797.19
678.01	791.26
678.34	786.69
678.68	782.38
679.02	777.62
679.36	773.00
679.70	767.12
680.04	763.19
680.37	758.55
680.71	753.36
681.05	748.57
681.39	743.40
681.73	738.05
682.06	732.90
682.40	728.40
682.74	723.79
683.08	719.79
683.42	714.88
683.75	710.33
684.09	704.48
684.43	700.21
684.77	695.26
685.10	690.69
685.44	685.98
685.78	680.71
686.12	676.31
686.45	671.36
686.79	666.36
687.13	661.52
687.46	656.83
687.80	653.14
688.14	648.93
688.48	644.69
688.81	640.64
689.15	637.40
689.49	632.83
689.82	628.40
690.16	623.10
690.50	618.55
690.83	614.31
691.17	609.93
691.51	605.81
691.84	601.86
692.18	597.50
692.52	593.19
692.85	589.52
693.19	586.19
693.52	582.31
693.86	578.24
694.20	574.07
694.53	570.57
694.87	566.33
695.21	562.14
695.54	558.26
695.88	553.90
696.21	549.12
696.55	544.81
696.88	541.10
697.22	537.38
697.56	534.36
697.89	530.50
698.23	527.74
698.56	524.40
698.90	520.83
699.23	517.33
699.57	513.60
699.90	509.48
700.24	505.14
700.58	501.93
700.91	498.88
701.25	496.83
701.58	494.05
701.92	490.86
702.25	487.38
702.59	483.76
702.92	481.02
703.26	478.29
703.59	475.86
703.93	474.33
704.26	471.60
704.60	468.67
704.93	465.50
705.26	461.93
705.60	459.00
705.93	455.50
706.27	452.93
706.60	450.79
706.94	448.95
707.27	445.88
707.61	443.31
707.94	441.12
708.27	437.05
708.61	433.38
708.94	430.31
709.28	428.10
709.61	425.48
709.94	422.62
710.28	420.21
710.61	417.57
710.95	413.48
711.28	412.81
711.61	409.67
711.95	407.98
712.28	405.38
712.61	402.57
712.95	401.64
713.28	400.24
713.61	397.48
713.95	394.81
714.28	393.02
714.61	390.88
714.95	388.00
715.28	385.90
715.61	384.38
715.95	382.67
716.28	380.55
716.61	378.95
716.95	376.60
717.28	374.26
717.61	372.02
717.94	369.88
718.28	365.83
718.61	364.31
718.94	361.90
719.27	360.33
719.61	358.52
719.94	356.17
720.27	353.05
720.60	351.19
720.94	348.95
721.27	347.45
721.60	345.76
721.93	344.14
722.27	343.33
722.60	341.67
722.93	339.93
723.26	338.17
723.59	336.24
723.93	335.29
724.26	333.93
724.59	332.40
724.92	331.57
725.25	331.05
725.59	329.64
725.92	328.40
726.25	327.00
726.58	326.10
726.91	324.60
727.24	324.05
727.57	322.81
727.91	321.12
728.24	319.86
728.57	318.05
728.90	317.21
729.23	314.98
729.56	314.52
729.89	313.29
730.22	311.98
730.55	311.02
730.89	309.69
731.22	308.52
731.55	307.45
731.88	306.31
732.21	304.64
732.54	303.45
732.87	302.57
733.20	301.40
733.53	300.05
733.86	299.50
734.19	298.10
734.52	297.86
734.85	298.64
735.18	297.50
735.51	297.50
735.84	296.71
736.17	296.69
736.50	294.67
736.83	295.95
737.16	295.43
737.49	294.48
737.82	293.50
738.15	292.90
738.48	292.00
738.81	290.76
739.14	289.74
739.47	288.67
739.80	287.81
740.13	287.40
740.46	286.48
740.79	285.24
741.12	284.52
741.45	282.69
741.78	280.67
742.11	280.26
742.44	278.98
742.77	278.12
743.10	276.90
743.43	276.05
743.75	273.29
744.08	274.79
744.41	273.86
744.74	273.26
745.07	272.07
745.40	271.64
745.73	271.64
746.06	271.02
746.39	270.48
746.71	269.52
747.04	268.40
747.37	267.64
747.70	267.10
748.03	266.52
748.36	266.31
748.68	265.76
749.01	264.45
749.34	263.74
749.67	263.36
750.00	263.19
750.33	264.26
750.65	263.83
750.98	260.95
751.31	260.55
751.64	259.79
751.97	260.62
752.29	259.95
752.62	258.81
752.95	258.21
753.28	257.45
753.60	257.10
753.93	257.12
754.26	256.98
754.59	255.88
754.91	254.81
755.24	254.24
755.57	253.67
755.90	253.19
756.22	252.43
756.55	251.38
756.88	250.24
757.20	248.43
757.53	247.05
757.86	246.36
758.19	246.07
758.51	245.86
758.84	244.12
759.17	243.45
759.49	242.95
759.82	243.36
760.15	243.29
760.47	242.62
760.80	241.69
761.13	241.57
761.45	241.29
761.78	241.29
762.11	240.98
762.43	240.45
762.76	240.17
763.08	240.10
763.41	239.98
763.74	239.74
764.06	239.52
764.39	239.71
764.71	239.57
765.04	239.07
765.37	238.50
765.69	238.17
766.02	238.19
766.34	237.69
766.67	236.76
767.00	236.79
767.32	237.74
767.65	238.69
767.97	238.02
768.30	238.24
768.62	237.71
768.95	237.17
769.27	236.90
769.60	237.05
769.92	236.45
770.25	235.93
770.57	235.57
770.90	235.17
771.22	234.48
771.55	234.19
771.87	233.88
772.20	233.55
772.52	235.19
772.85	237.14
773.17	237.19
773.50	237.10
773.82	236.79
774.15	235.43
774.47	234.05
774.80	233.74
775.12	233.31
775.45	233.26
775.77	233.26
776.09	233.14
776.42	233.05
776.74	233.64
777.07	233.26
777.39	232.98
777.72	232.57
778.04	232.81
778.36	232.52
778.69	232.43
779.01	232.60
779.33	230.52
779.66	228.36
779.98	227.88
780.31	227.71
780.63	228.07
780.95	228.29
781.28	228.10
781.60	227.71
781.92	227.60
782.25	227.62
782.57	227.45
782.89	227.17
783.22	226.69
783.54	225.93
783.86	226.07
784.19	225.79
784.51	226.43
784.83	226.05
785.16	225.88
785.48	225.69
785.80	225.43
786.12	225.69
786.45	225.29
786.77	225.33
787.09	225.10
787.42	224.17
787.74	224.17
788.06	224.00
788.38	224.07
788.71	223.69
789.03	223.50
789.35	223.74
789.67	223.52
789.99	223.52
790.32	223.45
790.64	223.64
790.96	225.48
791.28	224.57
791.61	224.62
791.93	224.55
792.25	224.62
792.57	225.88
792.89	225.52
793.21	225.38
793.54	225.05
793.86	224.95
794.18	225.26
794.50	224.62
794.82	224.64
795.14	224.67
795.47	224.95
795.79	224.90
796.11	224.26
796.43	224.05
796.75	223.81
797.07	223.67
797.39	223.43
797.71	221.81
798.04	221.86
798.36	221.81
798.68	221.81
799.00	221.76
799.32	220.38
799.64	220.31
799.96	220.43
800.28	220.86
800.60	220.50
800.92	220.50
801.24	220.57
801.56	220.55
801.89	220.36
802.21	220.40
802.53	219.83
802.85	220.38
803.17	221.45
803.49	220.93
803.81	220.71
804.13	220.57
804.45	220.19
804.77	220.40
805.09	220.14
805.41	219.74
805.73	219.33
806.05	219.33
806.37	219.45
806.69	219.14
807.01	219.00
807.33	219.24
807.65	218.43
807.97	219.10
808.28	219.02
808.60	218.90
808.92	218.38
809.24	219.86
809.56	219.33
809.88	218.33
810.20	218.79
810.52	219.24
810.84	218.90
811.16	218.90
811.48	218.76
811.80	219.76
812.12	219.69
812.43	220.02
812.75	219.90
813.07	219.55
813.39	219.67
813.71	219.31
814.03	218.83
814.35	218.76
814.67	217.93
814.98	217.67
815.30	217.45
815.62	217.12
815.94	215.71
816.26	215.81
816.58	215.40
816.89	215.31
817.21	214.64
817.53	214.79
817.85	214.57
818.17	214.48
818.48	213.55
818.80	214.12
819.12	213.76
819.44	213.36
819.76	213.00
820.07	213.10
820.39	213.12
820.71	213.40
821.03	213.48
821.34	213.29
821.66	213.74
821.98	214.10
822.30	214.21
822.61	215.48
822.93	215.31
823.25	215.48
823.57	215.40
823.88	215.88
824.20	215.69
824.52	216.17
824.83	215.90
825.15	215.57
825.47	215.48
825.79	215.38
826.10	215.26
826.42	215.36
826.74	215.60
827.05	215.48
827.37	215.52
827.69	215.71
828.00	215.81
828.32	215.57
828.64	215.17
828.95	216.21
829.27	215.67
829.58	215.67
829.90	215.98
830.22	215.88
830.53	215.60
830.85	215.74
831.17	215.19
831.48	215.17
831.80	215.33
832.11	214.95
832.43	214.93
832.75	215.12
833.06	216.43
833.38	215.69
833.69	215.69
834.01	215.60
834.32	215.24
834.64	215.19
834.96	215.19
835.27	215.36
835.59	214.83
835.90	214.33
836.22	214.24
836.53	213.88
836.85	213.57
837.16	215.57
837.48	215.24
837.79	215.79
838.11	216.05
838.42	215.93
838.74	216.12
839.05	215.81
839.37	215.55
839.68	214.14
840.00	214.00
840.31	214.14
840.63	214.12
840.94	213.98
841.26	213.86
841.57	213.95
841.88	213.98
842.20	213.50
842.51	213.21
842.83	213.29
843.14	214.90
843.46	215.17
843.77	214.12
844.08	214.14
844.40	213.55
844.71	213.29
845.03	213.36
845.34	213.40
845.65	213.60
845.97	213.50
846.28	213.76
846.60	213.88
846.91	213.52
847.22	213.38
847.54	213.81
847.85	213.83
848.16	213.24
848.48	212.95
848.79	213.67
849.10	214.05
849.42	214.07
849.73	212.55
850.04	212.67
850.36	211.90
850.67	212.17
850.98	212.26
851.30	212.33
851.61	212.19
851.92	212.00
852.23	212.48
852.55	212.83
852.86	212.69
853.17	212.90
853.49	213.36
853.80	213.74
854.11	214.14
854.42	214.55
854.74	214.81
855.05	214.98
855.36	213.93
855.67	213.88
855.99	213.90
856.30	216.07
856.61	215.67
856.92	215.57
857.23	215.71
857.55	215.60
857.86	215.64
858.17	215.88
858.48	215.76
858.79	215.64
859.11	215.79
859.42	215.88
859.73	215.74
860.04	215.62
860.35	214.98
860.66	214.21
860.98	213.95
861.29	214.43
861.60	214.38
861.91	214.90
862.22	214.36
862.53	213.95
862.84	211.45
863.16	212.12
863.47	211.76
863.78	211.55
864.09	211.86
864.40	211.95
864.71	211.90
865.02	212.19
865.33	211.76
865.64	211.40
865.95	211.26
866.27	212.45
866.58	212.29
866.89	212.88
867.20	212.86
867.51	212.60
867.82	212.19
868.13	212.69
868.44	212.50
868.75	213.31
869.06	213.57
869.37	213.86
869.68	213.26
869.99	213.76
870.30	214.02
870.61	213.98
870.92	213.69
871.23	213.74
871.54	213.98
871.85	214.52
872.16	214.69
872.47	214.55
872.78	213.33
873.09	213.71
873.40	213.26
873.71	213.45
874.02	213.67
874.33	213.43
874.64	213.02
874.95	213.45
875.26	212.83
875.56	212.76
875.87	212.90
876.18	212.71
876.49	214.60
876.80	214.43
877.11	214.17
877.42	214.26
877.73	214.26
878.04	213.81
878.35	213.88
878.66	213.90
878.96	214.05
879.27	214.14
879.58	213.81
879.89	213.74
880.20	214.31
880.51	214.26
880.82	214.33
881.12	214.45
881.43	213.88
881.74	213.98
882.05	213.90
882.36	213.79
882.67	214.14
882.97	211.98
883.28	211.74
883.59	211.60
883.90	211.83
884.21	211.90
884.51	211.93
884.82	211.45
885.13	211.52
885.44	211.31
885.74	211.21
886.05	211.26
886.36	211.36
886.67	210.57
886.98	211.43
887.28	211.76
887.59	211.62
887.90	211.76
888.20	211.36
888.51	212.00
888.82	211.64
889.13	211.69
889.43	213.60
889.74	213.62
890.05	213.67
890.35	213.29
890.66	213.07
890.97	212.69
891.28	212.64
891.58	212.88
891.89	213.00
892.20	212.90
892.50	212.76
892.81	212.71
893.12	212.90
893.42	212.05
893.73	211.79
894.04	211.95
894.34	212.05
894.65	212.29
894.95	211.90
895.26	212.26
895.57	213.07
895.87	211.02
896.18	211.12
896.48	211.33
896.79	211.50
897.10	211.71
897.40	212.10
897.71	212.17
898.01	211.90
898.32	212.19
898.63	212.21
898.93	212.52
899.24	212.57
899.54	212.33
899.85	212.36
900.15	212.31
900.46	212.17
900.76	212.43
901.07	212.29
901.38	212.24
901.68	212.33
901.99	211.60
902.29	211.74
902.60	211.76
902.90	211.48
903.21	211.45
903.51	211.60
903.82	211.93
904.12	211.95
904.43	212.12
904.73	212.00
905.03	212.24
905.34	213.88
905.64	213.69
905.95	213.67
906.25	213.48
906.56	213.45
906.86	213.55
907.17	213.10
907.47	213.38
907.77	213.19
908.08	212.76
908.38	212.71
908.69	212.90
908.99	213.21
909.30	213.50
909.60	213.74
909.90	213.60
910.21	212.90
910.51	212.62
910.81	212.67
911.12	212.98
911.42	212.81
911.73	211.00
912.03	211.33
912.33	211.88
912.64	212.02
912.94	211.93
913.24	211.55
913.55	211.57
913.85	211.40
914.15	211.79
914.46	212.21
914.76	212.12
915.06	211.90
915.37	211.45
915.67	211.43
915.97	211.14
916.27	210.62
916.58	210.98
916.88	211.02
917.18	210.81
917.49	212.07
917.79	212.24
918.09	212.33
918.39	212.88
918.70	212.74
919.00	212.52
919.30	213.50
919.60	213.52
919.91	213.29
920.21	213.43
920.51	213.00
920.81	212.81
921.12	213.05
921.42	213.07
921.72	213.19
922.02	213.17
922.32	213.55
922.63	213.90
922.93	215.02
923.23	215.07
923.53	214.71
923.83	213.43
924.13	213.55
924.44	213.74
924.74	213.88
925.04	214.14
925.34	214.33
925.64	213.55
925.94	213.52
926.24	214.83
926.55	214.64
926.85	214.81
927.15	214.81
927.45	214.71
927.75	214.83
928.05	214.86
928.35	214.67
928.65	214.98
928.95	215.14
929.26	214.17
929.56	214.55
929.86	214.93
930.16	214.52
930.46	214.19
930.76	214.36
931.06	213.31
931.36	212.79
931.66	213.12
931.96	213.21
932.26	213.62
932.56	212.79
932.86	212.86
933.16	212.86
933.46	212.76
933.76	212.48
934.06	212.79
934.36	213.50
934.66	213.50
934.96	212.90
935.26	212.95
935.56	213.21
935.86	212.74
936.16	212.48
936.46	212.50
936.76	212.36
937.06	211.98
937.36	212.29
937.66	212.60
937.96	212.45
938.26	212.24
938.56	211.81
938.86	211.98
939.16	212.52
939.46	212.57
939.76	212.62
940.06	212.60
940.35	212.17
940.65	211.14
940.95	211.45
941.25	211.14
941.55	210.67
941.85	210.43
942.15	211.00
942.45	211.52
942.75	211.24
943.04	211.48
943.34	211.67
943.64	211.55
943.94	211.14
944.24	211.21
944.54	211.12
944.84	211.14
945.13	210.93
945.43	210.55
945.73	210.60
946.03	210.62
946.33	210.62
946.62	210.36
946.92	210.40
947.22	210.55
947.52	210.71
947.82	211.19
948.11	211.10
948.41	210.45
948.71	209.86
949.01	210.26
949.31	210.07
949.60	210.07
949.90	210.45
950.20	210.24
950.50	210.02
950.79	209.88
951.09	210.31
951.39	210.12
951.69	209.88
951.98	210.40
952.28	210.40
952.58	210.33
952.87	210.52
953.17	210.81
953.47	210.36
953.76	210.50
954.06	210.02
954.36	209.57
954.66	209.48
954.95	210.14
955.25	210.31
955.55	210.43
955.84	209.83
956.14	209.98
956.44	210.26
956.73	210.14
957.03	210.36
957.32	210.07
957.62	209.93
957.92	210.26
958.21	210.02
958.51	212.43
958.81	212.81
959.10	213.02
959.40	213.24
959.69	213.57
959.99	213.69
960.29	213.76
960.58	214.02
960.88	215.05
961.17	214.62
961.47	214.50
961.76	214.48
962.06	214.98
962.36	214.64
962.65	214.76
962.95	214.74
963.24	214.76
963.54	214.90
963.83	215.26
964.13	215.19
964.42	214.50
964.72	212.83
965.01	212.71
965.31	212.55
965.60	212.55
965.90	213.69
966.19	213.36
966.49	213.69
966.78	213.50
967.08	213.38
967.37	213.74
967.67	213.64
967.96	213.88
968.26	214.05
968.55	214.26
968.85	214.29
969.14	214.43
969.43	214.48
969.73	214.36
970.02	214.29
970.32	214.05
970.61	214.02
970.91	213.43
971.20	212.98
971.49	212.81
971.79	212.69
972.08	211.10
972.38	211.26
972.67	211.10
972.96	211.40
973.26	210.69
973.55	211.19
973.85	210.98
974.14	210.79
974.43	210.90
974.73	210.50
975.02	210.40
975.31	210.33
975.61	210.24
975.90	210.10
976.19	209.79
976.49	210.31
976.78	210.69
977.07	210.40
977.37	210.57
977.66	210.76
977.95	210.69
978.24	211.00
978.54	211.19
978.83	211.00
979.12	210.76
979.42	210.95
979.71	210.71
980.00	210.76
980.29	210.93
980.59	210.36
980.88	211.05
981.17	210.74
981.46	210.83
981.76	210.67
982.05	211.40
982.34	211.50
982.63	211.31
982.93	211.24
983.22	212.10
983.51	212.43
983.80	212.88
984.09	213.05
984.39	213.02
984.68	212.93
984.97	213.02
985.26	212.88
985.55	213.02
985.85	212.33
986.14	212.62
986.43	212.74
986.72	212.67
987.01	211.95
987.30	212.17
987.59	211.74
987.89	212.00
988.18	211.24
988.47	211.07
988.76	210.83
989.05	210.62
989.34	210.05
989.63	210.50
989.92	209.93
990.22	209.48
990.51	209.29
990.80	209.14
991.09	209.43
991.38	209.71
991.67	209.62
991.96	209.38
992.25	209.33
992.54	209.05
992.83	209.00
993.12	209.05
993.41	209.21
993.70	210.57
993.99	210.71
994.28	211.07
994.58	211.17
994.87	210.93
995.16	210.98
995.45	210.90
995.74	210.00
996.03	210.38
996.32	210.90
996.61	211.45
996.90	211.57
997.19	211.26
997.48	211.45
997.77	211.29
998.06	211.48
998.34	211.36
998.63	211.33
998.92	211.55
999.21	211.74
999.50	211.98
999.79	211.07
1000.08	210.95
1000.37	210.76
1000.66	210.86
1000.95	211.33
1001.24	211.52
1001.53	211.93
1001.82	212.05
1002.11	211.64
1002.40	211.86
1002.68	212.24
1002.97	213.50
1003.26	213.26
1003.55	213.05
1003.84	213.31
1004.13	214.26
1004.42	214.40
1004.71	214.33
1004.99	214.17
1005.28	214.81
1005.57	214.62
1005.86	214.43
1006.15	214.38
1006.44	214.24
1006.72	214.40
1007.01	213.98
1007.30	213.88
1007.59	213.64
1007.88	213.69
1008.17	213.67
1008.45	212.98
1008.74	212.14
1009.03	210.95
1009.32	211.10
1009.60	210.86
1009.89	210.55
1010.18	209.33
1010.47	209.10
1010.76	209.05
1011.04	209.17
1011.33	209.00
1011.62	209.12
1011.91	209.21
1012.19	209.40
1012.48	209.40
1012.77	209.33
1013.05	210.40
1013.34	210.52
1013.63	210.26
1013.92	210.38
1014.20	210.21
1014.49	210.57
1014.78	210.81
1015.06	210.50
1015.35	210.48
1015.64	210.86
1015.92	211.26
1016.21	211.55
1016.50	211.48
1016.78	211.79
1017.07	211.83
1017.36	211.26
1017.64	210.86
1017.93	210.88
1018.22	210.62
1018.50	210.60
1018.79	210.64
1019.08	209.83
1019.36	209.90
1019.65	209.67
1019.93	210.07
1020.22	210.48
1020.51	211.26
1020.79	210.93
1021.08	208.00
1021.36	206.50
1021.65	212.50
1021.94	211.50
1022.22	213.00
1022.51	203.50
1022.79	218.00
1023.08	212.00
1023.36	232.00
1023.65	205.50
>>>>>End Processed Spectral Data<<<<<
