SpectraSuite Data File
++++++++++++++++++++++++++++++++++++
Date: Tue Apr 02 18:38:06 EDT 2013
User: group
Dark Spectrum Present: No
Reference Spectrum Present: No
Number of Sampled Component Spectra: 1
Spectrometers: USB2E7196
Integration Time (usec): 580000 (USB2E7196)
Spectra Averaged: 2 (USB2E7196)
Boxcar Smoothing: 10 (USB2E7196)
Correct for Electrical Dark: No (USB2E7196)
Strobe/Lamp Enabled: No (USB2E7196)
Correct for Detector Non-linearity: No (USB2E7196)
Correct for Stray Light: No (USB2E7196)
Number of Pixels in Processed Spectrum: 2048
>>>>>Begin Processed Spectral Data<<<<<
339.09	0.00
339.48	198.50
339.86	194.00
340.24	197.00
340.63	200.00
341.01	234.50
341.39	202.00
341.78	208.50
342.16	212.50
342.54	209.50
342.93	199.81
343.31	209.67
343.69	210.29
344.07	211.02
344.46	211.98
344.84	212.71
345.22	211.38
345.60	211.81
345.99	211.62
346.37	211.45
346.75	211.48
347.13	211.45
347.52	211.69
347.90	212.36
348.28	212.21
348.66	212.71
349.05	211.90
349.43	212.21
349.81	212.21
350.19	212.31
350.57	212.19
350.96	212.36
351.34	212.71
351.72	212.62
352.10	212.57
352.48	212.45
352.87	212.21
353.25	212.24
353.63	212.12
354.01	212.31
354.39	212.50
354.77	212.48
355.15	212.98
355.54	212.71
355.92	212.14
356.30	212.36
356.68	213.33
357.06	213.60
357.44	213.00
357.82	212.86
358.20	213.57
358.58	213.50
358.97	213.71
359.35	213.86
359.73	214.17
360.11	214.12
360.49	213.98
360.87	213.88
361.25	214.19
361.63	214.71
362.01	214.93
362.39	214.79
362.77	215.10
363.15	214.90
363.53	214.90
363.91	215.05
364.29	214.81
364.67	212.90
365.05	213.02
365.43	213.40
365.81	213.69
366.19	213.76
366.57	214.79
366.95	214.93
367.33	214.38
367.71	214.24
368.09	214.60
368.47	214.74
368.85	214.74
369.23	215.38
369.61	214.83
369.99	215.67
370.37	216.05
370.75	216.98
371.13	216.74
371.51	216.43
371.89	216.57
372.27	216.95
372.65	217.24
373.03	217.19
373.41	217.12
373.78	216.95
374.16	215.93
374.54	215.26
374.92	214.83
375.30	215.29
375.68	215.26
376.06	215.57
376.44	215.36
376.82	215.43
377.19	214.98
377.57	214.88
377.95	214.14
378.33	213.93
378.71	212.74
379.09	213.05
379.47	213.45
379.84	213.36
380.22	213.17
380.60	212.88
380.98	212.95
381.36	213.07
381.73	212.93
382.11	213.33
382.49	213.12
382.87	212.86
383.25	212.81
383.62	215.10
384.00	214.57
384.38	214.79
384.76	215.29
385.13	216.05
385.51	216.33
385.89	215.93
386.27	216.02
386.64	216.31
387.02	216.14
387.40	215.83
387.78	215.69
388.15	215.83
388.53	215.86
388.91	215.76
389.29	215.38
389.66	215.74
390.04	215.45
390.42	216.00
390.79	216.48
391.17	216.21
391.55	213.90
391.92	213.86
392.30	213.90
392.68	213.62
393.05	213.50
393.43	213.48
393.81	213.83
394.18	213.52
394.56	213.52
394.94	213.95
395.31	214.12
395.69	214.86
396.06	214.95
396.44	215.14
396.82	214.95
397.19	216.14
397.57	215.98
397.95	216.62
398.32	216.05
398.70	216.19
399.07	216.79
399.45	216.86
399.82	216.83
400.20	216.64
400.58	216.40
400.95	215.55
401.33	216.24
401.70	217.71
402.08	217.79
402.45	217.79
402.83	218.05
403.20	218.26
403.58	218.00
403.95	218.50
404.33	218.88
404.71	219.29
405.08	220.60
405.46	220.88
405.83	221.12
406.21	221.62
406.58	222.14
406.96	222.48
407.33	222.98
407.70	224.14
408.08	226.38
408.45	227.38
408.83	228.71
409.20	228.95
409.58	228.55
409.95	229.88
410.33	231.12
410.70	231.86
411.08	233.00
411.45	234.43
411.82	235.50
412.20	237.38
412.57	240.00
412.95	239.74
413.32	241.64
413.69	243.26
414.07	245.29
414.44	246.93
414.82	249.26
415.19	252.31
415.56	254.95
415.94	256.79
416.31	260.14
416.68	263.05
417.06	267.07
417.43	271.05
417.81	275.24
418.18	279.67
418.55	284.14
418.93	288.88
419.30	293.62
419.67	298.81
420.04	303.81
420.42	308.93
420.79	316.83
421.16	323.55
421.54	331.33
421.91	338.71
422.28	346.45
422.66	354.12
423.03	362.60
423.40	370.45
423.77	378.76
424.15	387.31
424.52	396.67
424.89	406.60
425.26	415.90
425.64	424.55
426.01	434.02
426.38	444.21
426.75	455.24
427.13	466.12
427.50	477.79
427.87	489.93
428.24	501.86
428.61	512.43
428.99	525.29
429.36	537.79
429.73	550.71
430.10	564.24
430.47	577.95
430.85	591.19
431.22	605.88
431.59	623.00
431.96	638.00
432.33	654.29
432.70	670.31
433.08	690.07
433.45	708.86
433.82	727.83
434.19	748.19
434.56	768.29
434.93	787.24
435.30	806.12
435.68	826.74
436.05	847.81
436.42	867.88
436.79	887.12
437.16	907.71
437.53	930.02
437.90	951.33
438.27	973.90
438.64	995.81
439.01	1016.88
439.38	1034.40
439.75	1052.57
440.13	1073.29
440.50	1092.17
440.87	1107.29
441.24	1123.45
441.61	1140.74
441.98	1154.60
442.35	1170.02
442.72	1186.05
443.09	1202.33
443.46	1211.93
443.83	1218.05
444.20	1224.69
444.57	1232.60
444.94	1237.19
445.31	1241.33
445.68	1248.00
446.05	1248.88
446.42	1247.33
446.79	1245.71
447.16	1242.98
447.53	1241.67
447.90	1234.24
448.27	1227.10
448.64	1216.86
449.01	1208.93
449.37	1195.57
449.74	1181.86
450.11	1167.64
450.48	1150.29
450.85	1131.43
451.22	1116.69
451.59	1102.29
451.96	1088.14
452.33	1069.71
452.70	1052.79
453.07	1032.26
453.43	1009.00
453.80	989.55
454.17	970.93
454.54	952.48
454.91	933.76
455.28	915.02
455.65	897.64
456.02	883.10
456.38	868.17
456.75	849.90
457.12	833.88
457.49	818.57
457.86	801.55
458.23	789.17
458.59	774.95
458.96	760.64
459.33	748.02
459.70	735.29
460.07	724.95
460.43	713.17
460.80	702.45
461.17	694.26
461.54	684.50
461.91	674.71
462.27	665.33
462.64	656.64
463.01	647.38
463.38	639.31
463.74	627.62
464.11	619.45
464.48	612.71
464.85	605.57
465.21	600.33
465.58	594.93
465.95	587.36
466.32	581.48
466.68	575.21
467.05	569.14
467.42	563.55
467.78	557.19
468.15	551.57
468.52	547.69
468.88	541.05
469.25	535.02
469.62	531.38
469.98	526.79
470.35	522.71
470.72	518.31
471.08	513.00
471.45	508.93
471.82	505.33
472.18	501.36
472.55	498.83
472.92	494.74
473.28	491.00
473.65	487.29
474.02	484.43
474.38	481.93
474.75	479.83
475.11	476.86
475.48	474.93
475.85	472.86
476.21	470.48
476.58	468.86
476.94	467.76
477.31	466.48
477.67	464.60
478.04	463.33
478.41	462.86
478.77	464.00
479.14	463.33
479.50	463.12
479.87	462.76
480.23	462.00
480.60	461.62
480.96	461.43
481.33	462.83
481.69	462.67
482.06	463.19
482.42	463.88
482.79	465.00
483.15	465.74
483.52	467.40
483.88	468.55
484.25	469.55
484.61	470.98
484.98	471.90
485.34	474.33
485.71	476.74
486.07	478.40
486.44	478.38
486.80	480.71
487.17	482.64
487.53	485.69
487.90	488.86
488.26	492.50
488.62	496.33
488.99	498.19
489.35	501.93
489.72	505.38
490.08	508.67
490.44	511.90
490.81	516.14
491.17	519.62
491.54	524.14
491.90	528.90
492.26	533.29
492.63	538.29
492.99	543.12
493.36	548.40
493.72	554.67
494.08	560.67
494.45	566.98
494.81	573.62
495.17	579.76
495.54	586.45
495.90	592.60
496.26	598.67
496.63	606.64
496.99	613.71
497.35	620.93
497.72	628.69
498.08	636.29
498.44	644.29
498.80	653.07
499.17	661.71
499.53	670.05
499.89	679.19
500.26	687.83
500.62	696.64
500.98	704.95
501.34	713.90
501.71	723.33
502.07	732.24
502.43	740.86
502.79	749.69
503.16	758.57
503.52	768.33
503.88	777.52
504.24	787.10
504.60	797.07
504.97	807.57
505.33	817.86
505.69	829.45
506.05	839.69
506.41	850.05
506.78	859.14
507.14	868.83
507.50	879.05
507.86	889.50
508.22	899.79
508.59	909.67
508.95	919.62
509.31	931.29
509.67	942.12
510.03	952.83
510.39	963.40
510.75	973.79
511.12	984.07
511.48	994.93
511.84	1004.95
512.20	1014.48
512.56	1024.90
512.92	1034.81
513.28	1044.40
513.64	1053.31
514.00	1062.48
514.37	1072.71
514.73	1082.48
515.09	1091.71
515.45	1100.48
515.81	1108.86
516.17	1118.40
516.53	1127.55
516.89	1134.88
517.25	1143.07
517.61	1151.55
517.97	1159.48
518.33	1167.69
518.69	1175.69
519.05	1183.90
519.41	1192.31
519.77	1201.60
520.13	1208.24
520.49	1214.36
520.85	1220.29
521.21	1228.38
521.57	1235.24
521.93	1241.69
522.29	1248.93
522.65	1254.76
523.01	1261.31
523.37	1267.55
523.73	1273.83
524.09	1279.45
524.45	1284.93
524.81	1290.55
525.17	1296.48
525.53	1302.38
525.89	1307.71
526.25	1313.64
526.61	1317.98
526.97	1321.74
527.33	1326.10
527.68	1332.21
528.04	1338.33
528.40	1343.21
528.76	1347.45
529.12	1351.93
529.48	1357.07
529.84	1360.17
530.20	1364.55
530.56	1368.50
530.91	1372.67
531.27	1376.07
531.63	1380.00
531.99	1383.05
532.35	1386.17
532.71	1389.21
533.07	1392.79
533.42	1397.98
533.78	1400.40
534.14	1404.52
534.50	1408.36
534.86	1411.74
535.21	1412.93
535.57	1415.83
535.93	1418.62
536.29	1421.79
536.65	1424.60
537.00	1425.64
537.36	1428.33
537.72	1430.90
538.08	1433.55
538.44	1435.52
538.79	1438.95
539.15	1439.98
539.51	1441.95
539.87	1444.24
540.22	1445.26
540.58	1447.29
540.94	1446.50
541.29	1447.64
541.65	1447.19
542.01	1448.10
542.37	1448.17
542.72	1448.40
543.08	1448.29
543.44	1447.93
543.79	1447.07
544.15	1446.45
544.51	1448.05
544.87	1448.33
545.22	1448.31
545.58	1447.98
545.94	1447.50
546.29	1446.02
546.65	1446.14
547.01	1445.79
547.36	1444.57
547.72	1444.40
548.07	1442.98
548.43	1442.36
548.79	1441.43
549.14	1440.88
549.50	1439.69
549.86	1437.88
550.21	1437.12
550.57	1436.45
550.92	1435.31
551.28	1434.86
551.64	1434.05
551.99	1432.00
552.35	1430.62
552.70	1429.02
553.06	1428.38
553.41	1427.52
553.77	1427.07
554.13	1425.88
554.48	1426.00
554.84	1425.60
555.19	1423.79
555.55	1423.38
555.90	1421.24
556.26	1419.86
556.61	1418.43
556.97	1416.52
557.32	1414.95
557.68	1413.43
558.03	1410.93
558.39	1409.69
558.74	1407.60
559.10	1405.71
559.45	1404.29
559.81	1402.79
560.16	1400.67
560.52	1398.10
560.87	1396.79
561.23	1393.60
561.58	1393.29
561.94	1389.95
562.29	1388.40
562.64	1387.43
563.00	1384.88
563.35	1384.07
563.71	1382.12
564.06	1381.12
564.42	1379.83
564.77	1378.74
565.12	1378.05
565.48	1379.19
565.83	1378.29
566.19	1377.64
566.54	1376.36
566.89	1374.10
567.25	1373.38
567.60	1374.12
567.96	1374.24
568.31	1373.55
568.66	1373.57
569.02	1369.98
569.37	1368.67
569.72	1366.40
570.08	1364.45
570.43	1362.62
570.78	1360.93
571.14	1359.43
571.49	1356.90
571.84	1355.62
572.20	1353.55
572.55	1351.29
572.90	1346.83
573.26	1344.05
573.61	1340.43
573.96	1338.45
574.31	1336.43
574.67	1332.88
575.02	1328.67
575.37	1324.38
575.72	1320.67
576.08	1316.62
576.43	1314.07
576.78	1310.93
577.13	1307.24
577.49	1303.36
577.84	1300.07
578.19	1296.57
578.54	1293.31
578.90	1290.38
579.25	1286.38
579.60	1282.24
579.95	1277.62
580.30	1273.71
580.66	1270.43
581.01	1267.17
581.36	1262.21
581.71	1258.14
582.06	1255.69
582.42	1251.31
582.77	1246.31
583.12	1241.81
583.47	1237.90
583.82	1233.67
584.17	1229.29
584.53	1226.17
584.88	1222.69
585.23	1218.69
585.58	1213.76
585.93	1209.10
586.28	1204.88
586.63	1200.86
586.98	1197.48
587.34	1194.67
587.69	1190.05
588.04	1185.52
588.39	1180.90
588.74	1175.79
589.09	1171.43
589.44	1165.29
589.79	1161.79
590.14	1158.45
590.49	1153.19
590.84	1148.05
591.19	1143.67
591.54	1139.95
591.89	1134.62
592.25	1131.62
592.60	1126.50
592.95	1122.79
593.30	1119.12
593.65	1114.14
594.00	1108.21
594.35	1109.10
594.70	1103.21
595.05	1099.83
595.40	1094.98
595.75	1090.07
596.10	1087.00
596.45	1083.10
596.80	1078.71
597.15	1073.67
597.50	1068.21
597.85	1065.60
598.19	1061.67
598.54	1057.90
598.89	1052.86
599.24	1048.19
599.59	1042.64
599.94	1038.29
600.29	1033.52
600.64	1028.62
600.99	1024.90
601.34	1021.62
601.69	1011.69
602.04	1007.64
602.39	1002.79
602.74	998.93
603.08	995.43
603.43	992.07
603.78	987.60
604.13	983.48
604.48	979.19
604.83	975.45
605.18	970.62
605.53	966.79
605.87	961.83
606.22	957.79
606.57	953.74
606.92	948.93
607.27	944.52
607.62	940.45
607.96	935.98
608.31	931.31
608.66	926.83
609.01	922.95
609.36	918.76
609.70	914.64
610.05	910.05
610.40	905.55
610.75	900.24
611.10	896.38
611.44	891.98
611.79	887.55
612.14	883.48
612.49	878.17
612.83	873.48
613.18	868.36
613.53	863.83
613.88	859.36
614.22	854.45
614.57	850.40
614.92	845.71
615.27	841.48
615.61	836.48
615.96	831.50
616.31	826.50
616.65	822.43
617.00	817.64
617.35	812.90
617.70	808.36
618.04	803.45
618.39	798.36
618.74	794.45
619.08	790.29
619.43	786.31
619.78	782.21
620.12	778.33
620.47	775.33
620.82	771.17
621.16	766.88
621.51	764.14
621.85	759.74
622.20	755.90
622.55	751.69
622.89	748.36
623.24	745.33
623.59	741.62
623.93	737.95
624.28	734.40
624.62	733.55
624.97	731.79
625.32	728.90
625.66	724.86
626.01	721.02
626.35	717.48
626.70	713.74
627.04	711.60
627.39	707.76
627.73	705.02
628.08	701.83
628.43	698.57
628.77	694.24
629.12	691.12
629.46	687.81
629.81	684.57
630.15	680.74
630.50	676.81
630.84	673.31
631.19	669.81
631.53	666.33
631.88	660.24
632.22	654.60
632.57	651.50
632.91	648.21
633.26	645.00
633.60	640.83
633.95	636.69
634.29	631.83
634.64	628.29
634.98	623.88
635.32	620.81
635.67	618.33
636.01	615.24
636.36	611.83
636.70	609.48
637.05	606.31
637.39	603.76
637.73	601.12
638.08	598.48
638.42	594.95
638.77	592.24
639.11	589.71
639.45	586.90
639.80	583.24
640.14	580.81
640.49	577.48
640.83	575.02
641.17	572.52
641.52	570.52
641.86	567.88
642.20	565.48
642.55	561.88
642.89	558.21
643.23	555.31
643.58	552.88
643.92	548.90
644.26	546.26
644.61	543.81
644.95	540.79
645.29	536.95
645.64	534.48
645.98	531.36
646.32	528.79
646.66	525.48
647.01	522.40
647.35	519.26
647.69	516.60
648.04	513.98
648.38	511.36
648.72	508.33
649.06	505.40
649.41	502.19
649.75	499.57
650.09	497.50
650.43	494.76
650.78	491.67
651.12	489.33
651.46	486.12
651.80	482.62
652.14	479.90
652.49	478.50
652.83	475.86
653.17	473.55
653.51	470.64
653.85	468.79
654.20	466.74
654.54	464.10
654.88	461.33
655.22	459.69
655.56	456.90
655.90	454.26
656.25	452.00
656.59	449.57
656.93	448.00
657.27	445.90
657.61	443.48
657.95	441.48
658.29	438.88
658.64	437.43
658.98	435.48
659.32	433.71
659.66	430.81
660.00	429.07
660.34	427.02
660.68	425.02
661.02	423.05
661.36	420.93
661.70	419.10
662.05	417.69
662.39	415.69
662.73	414.98
663.07	414.67
663.41	412.98
663.75	410.98
664.09	409.19
664.43	406.74
664.77	405.31
665.11	403.14
665.45	401.57
665.79	399.93
666.13	398.21
666.47	396.05
666.81	394.83
667.15	392.71
667.49	391.29
667.83	390.02
668.17	388.43
668.51	386.93
668.85	385.74
669.19	385.00
669.53	382.69
669.87	380.57
670.21	378.21
670.55	376.62
670.89	376.14
671.23	374.26
671.57	373.38
671.91	372.02
672.25	370.83
672.58	369.93
672.92	367.86
673.26	366.62
673.60	365.40
673.94	364.19
674.28	363.10
674.62	361.71
674.96	360.00
675.30	358.64
675.64	357.43
675.97	355.69
676.31	353.62
676.65	352.48
676.99	351.90
677.33	350.12
677.67	349.10
678.01	347.17
678.34	346.10
678.68	345.12
679.02	343.52
679.36	342.14
679.70	340.86
680.04	340.02
680.37	338.52
680.71	337.43
681.05	336.24
681.39	335.17
681.73	333.74
682.06	332.64
682.40	331.79
682.74	330.88
683.08	330.81
683.42	329.52
683.75	328.81
684.09	327.10
684.43	326.10
684.77	324.48
685.10	323.33
685.44	322.26
685.78	320.76
686.12	319.81
686.45	318.90
686.79	317.52
687.13	316.57
687.46	315.69
687.80	315.05
688.14	313.74
688.48	312.86
688.81	312.31
689.15	311.76
689.49	310.55
689.82	309.43
690.16	307.52
690.50	306.43
690.83	305.00
691.17	303.81
691.51	302.69
691.84	302.19
692.18	301.31
692.52	300.26
692.85	299.43
693.19	299.52
693.52	298.81
693.86	297.79
694.20	297.19
694.53	296.60
694.87	295.71
695.21	294.79
695.54	293.57
695.88	292.26
696.21	291.07
696.55	290.17
696.88	289.31
697.22	288.55
697.56	288.12
697.89	287.31
698.23	286.88
698.56	286.43
698.90	285.95
699.23	285.12
699.57	284.62
699.90	283.50
700.24	282.00
700.58	281.19
700.91	280.88
701.25	281.38
701.58	281.12
701.92	280.43
702.25	280.02
702.59	279.71
702.92	279.36
703.26	278.74
703.59	278.19
703.93	279.17
704.26	278.79
704.60	278.24
704.93	277.67
705.26	276.81
705.60	276.50
705.93	275.40
706.27	275.38
706.60	275.00
706.94	275.48
707.27	274.71
707.61	274.31
707.94	273.64
708.27	271.76
708.61	270.48
708.94	270.02
709.28	269.43
709.61	268.33
709.94	267.62
710.28	267.07
710.61	266.60
710.95	264.19
711.28	265.12
711.61	264.36
711.95	264.52
712.28	263.76
712.61	263.26
712.95	263.76
713.28	264.07
713.61	263.14
713.95	262.14
714.28	261.71
714.61	261.31
714.95	260.62
715.28	259.71
715.61	259.12
715.95	258.88
716.28	258.21
716.61	258.21
716.95	257.64
717.28	257.21
717.61	256.45
717.94	256.29
718.28	254.24
718.61	253.95
718.94	253.05
719.27	252.62
719.61	252.12
719.94	251.14
720.27	249.69
720.60	249.43
720.94	248.95
721.27	248.57
721.60	248.26
721.93	247.79
722.27	248.24
722.60	248.19
722.93	247.26
723.26	246.86
723.59	246.12
723.93	245.98
724.26	245.74
724.59	245.57
724.92	245.26
725.25	245.55
725.59	244.93
725.92	244.83
726.25	244.74
726.58	244.40
726.91	244.26
727.24	244.24
727.57	243.74
727.91	242.95
728.24	243.10
728.57	242.52
728.90	242.60
729.23	241.62
729.56	242.55
729.89	242.64
730.22	242.52
730.55	242.29
730.89	242.07
731.22	241.81
731.55	241.62
731.88	241.31
732.21	240.55
732.54	240.24
732.87	240.05
733.20	239.79
733.53	239.86
733.86	239.57
734.19	238.98
734.52	239.17
734.85	240.64
735.18	239.86
735.51	240.43
735.84	240.48
736.17	240.88
736.50	239.24
736.83	241.17
737.16	240.95
737.49	240.95
737.82	240.26
738.15	240.24
738.48	239.83
738.81	239.76
739.14	239.45
739.47	239.19
739.80	238.71
740.13	238.74
740.46	238.07
740.79	237.57
741.12	237.29
741.45	236.64
741.78	235.07
742.11	235.40
742.44	234.67
742.77	234.74
743.10	234.19
743.43	234.14
743.75	231.93
744.08	234.48
744.41	234.14
744.74	234.07
745.07	233.43
745.40	233.81
745.73	234.17
746.06	234.05
746.39	234.05
746.71	233.86
747.04	233.45
747.37	233.19
747.70	233.31
748.03	233.55
748.36	233.79
748.68	233.79
749.01	233.12
749.34	232.95
749.67	232.52
750.00	232.81
750.33	234.10
750.65	233.90
750.98	230.93
751.31	230.98
751.64	231.05
751.97	232.26
752.29	231.71
752.62	230.81
752.95	230.57
753.28	230.40
753.60	230.21
753.93	230.64
754.26	230.64
754.59	229.90
754.91	229.69
755.24	229.36
755.57	228.95
755.90	228.88
756.22	228.50
756.55	228.00
756.88	227.29
757.20	225.83
757.53	225.21
757.86	225.17
758.19	225.14
758.51	224.98
758.84	223.64
759.17	223.52
759.49	223.40
759.82	224.14
760.15	224.21
760.47	224.12
760.80	223.48
761.13	223.79
761.45	223.83
761.78	223.40
762.11	223.55
762.43	223.52
762.76	223.38
763.08	223.55
763.41	223.88
763.74	223.90
764.06	223.74
764.39	223.79
764.71	223.86
765.04	223.50
765.37	223.26
765.69	223.02
766.02	222.93
766.34	222.71
766.67	221.98
767.00	222.17
767.32	223.38
767.65	224.43
767.97	224.02
768.30	224.12
768.62	223.98
768.95	223.38
769.27	223.10
769.60	223.50
769.92	223.19
770.25	222.57
770.57	222.00
770.90	222.12
771.22	221.88
771.55	221.79
771.87	221.81
772.20	221.86
772.52	223.62
772.85	225.86
773.17	225.93
773.50	225.86
773.82	225.29
774.15	224.05
774.47	222.60
774.80	222.33
775.12	222.05
775.45	222.02
775.77	222.14
776.09	222.50
776.42	222.21
776.74	222.71
777.07	222.40
777.39	222.67
777.72	222.31
778.04	222.43
778.36	222.17
778.69	222.14
779.01	222.12
779.33	220.36
779.66	218.29
779.98	218.40
780.31	218.33
780.63	219.45
780.95	219.74
781.28	219.86
781.60	219.81
781.92	219.98
782.25	220.17
782.57	220.26
782.89	220.02
783.22	219.88
783.54	219.31
783.86	219.69
784.19	219.64
784.51	220.45
784.83	220.24
785.16	220.21
785.48	220.10
785.80	220.02
786.12	220.07
786.45	219.74
786.77	219.57
787.09	219.45
787.42	218.48
787.74	218.48
788.06	218.38
788.38	218.10
788.71	217.86
789.03	217.81
789.35	218.14
789.67	217.79
789.99	217.83
790.32	217.62
790.64	217.93
790.96	219.55
791.28	218.52
791.61	218.31
791.93	218.29
792.25	218.36
792.57	219.57
792.89	219.00
793.21	219.26
793.54	219.36
793.86	219.17
794.18	219.38
794.50	218.79
794.82	218.69
795.14	218.93
795.47	219.40
795.79	219.43
796.11	218.62
796.43	218.62
796.75	218.71
797.07	218.81
797.39	218.33
797.71	216.81
798.04	216.88
798.36	217.19
798.68	217.17
799.00	217.26
799.32	216.17
799.64	216.71
799.96	216.60
800.28	216.83
800.60	216.71
800.92	216.64
801.24	216.45
801.56	216.88
801.89	216.93
802.21	216.93
802.53	216.55
802.85	217.12
803.17	218.02
803.49	217.43
803.81	217.36
804.13	217.50
804.45	217.19
804.77	217.52
805.09	217.43
805.41	217.29
805.73	216.81
806.05	216.50
806.37	216.52
806.69	216.31
807.01	215.79
807.33	215.88
807.65	215.36
807.97	216.52
808.28	215.98
808.60	215.71
808.92	215.40
809.24	216.62
809.56	216.43
809.88	215.69
810.20	215.93
810.52	216.36
810.84	216.02
811.16	215.98
811.48	215.76
811.80	216.24
812.12	216.24
812.43	216.81
812.75	216.86
813.07	216.36
813.39	216.67
813.71	216.64
814.03	216.67
814.35	216.81
814.67	215.93
814.98	215.88
815.30	215.95
815.62	215.45
815.94	214.07
816.26	213.95
816.58	213.67
816.89	213.69
817.21	213.21
817.53	213.36
817.85	213.36
818.17	213.26
818.48	212.67
818.80	213.21
819.12	212.79
819.44	212.57
819.76	212.33
820.07	212.05
820.39	211.98
820.71	211.86
821.03	211.98
821.34	212.10
821.66	212.52
821.98	212.74
822.30	212.83
822.61	214.26
822.93	214.14
823.25	214.17
823.57	213.98
823.88	214.21
824.20	214.00
824.52	214.29
824.83	214.14
825.15	214.07
825.47	213.98
825.79	214.21
826.10	214.31
826.42	214.67
826.74	214.86
827.05	214.69
827.37	214.88
827.69	214.60
828.00	214.48
828.32	214.38
828.64	214.24
828.95	215.33
829.27	214.50
829.58	214.55
829.90	214.83
830.22	215.17
830.53	214.93
830.85	214.93
831.17	214.55
831.48	214.67
831.80	214.74
832.11	214.55
832.43	214.12
832.75	213.88
833.06	214.95
833.38	214.38
833.69	214.26
834.01	214.38
834.32	214.40
834.64	214.33
834.96	214.45
835.27	214.45
835.59	213.74
835.90	213.45
836.22	213.33
836.53	212.79
836.85	212.40
837.16	214.38
837.48	214.33
837.79	215.12
838.11	215.29
838.42	214.98
838.74	214.86
839.05	214.69
839.37	214.81
839.68	213.55
840.00	213.64
840.31	214.19
840.63	213.88
840.94	213.67
841.26	213.33
841.57	213.14
841.88	213.24
842.20	213.07
842.51	212.83
842.83	212.90
843.14	215.07
843.46	215.31
843.77	214.12
844.08	214.05
844.40	213.33
844.71	213.19
845.03	213.19
845.34	213.05
845.65	213.12
845.97	212.95
846.28	213.00
846.60	213.21
846.91	212.67
847.22	212.74
847.54	213.21
847.85	213.33
848.16	213.12
848.48	212.67
848.79	213.60
849.10	214.02
849.42	213.90
849.73	211.90
850.04	211.69
850.36	210.95
850.67	211.40
850.98	211.36
851.30	211.50
851.61	211.69
851.92	211.88
852.23	212.45
852.55	212.81
852.86	212.71
853.17	212.76
853.49	213.38
853.80	213.76
854.11	213.81
854.42	214.19
854.74	214.21
855.05	214.62
855.36	213.33
855.67	213.33
855.99	213.57
856.30	215.93
856.61	215.98
856.92	216.14
857.23	216.19
857.55	216.26
857.86	216.19
858.17	216.38
858.48	216.24
858.79	215.79
859.11	215.93
859.42	216.14
859.73	216.12
860.04	215.90
860.35	215.29
860.66	214.86
860.98	214.60
861.29	214.69
861.60	214.31
861.91	215.00
862.22	214.64
862.53	214.33
862.84	211.98
863.16	212.55
863.47	212.21
863.78	211.88
864.09	212.00
864.40	211.95
864.71	211.95
865.02	212.14
865.33	212.00
865.64	211.52
865.95	211.52
866.27	212.83
866.58	212.69
866.89	213.19
867.20	212.95
867.51	212.79
867.82	212.69
868.13	213.36
868.44	212.79
868.75	213.05
869.06	213.17
869.37	213.31
869.68	212.45
869.99	212.81
870.30	212.76
870.61	212.81
870.92	212.48
871.23	212.14
871.54	212.26
871.85	212.81
872.16	213.02
872.47	212.86
872.78	211.36
873.09	211.50
873.40	211.17
873.71	211.40
874.02	211.57
874.33	211.43
874.64	210.90
874.95	211.43
875.26	211.17
875.56	211.05
875.87	211.07
876.18	211.24
876.49	213.17
876.80	213.29
877.11	213.00
877.42	213.40
877.73	213.55
878.04	213.17
878.35	213.31
878.66	213.50
878.96	213.33
879.27	213.29
879.58	213.07
879.89	212.86
880.20	213.36
880.51	213.17
880.82	213.33
881.12	213.57
881.43	212.88
881.74	212.69
882.05	212.83
882.36	212.93
882.67	213.26
882.97	211.05
883.28	211.05
883.59	210.90
883.90	210.93
884.21	211.17
884.51	211.12
884.82	210.62
885.13	210.57
885.44	210.64
885.74	210.93
886.05	210.95
886.36	211.26
886.67	210.62
886.98	211.81
887.28	211.76
887.59	211.74
887.90	211.95
888.20	211.64
888.51	211.67
888.82	211.40
889.13	211.45
889.43	213.12
889.74	212.83
890.05	212.76
890.35	212.43
890.66	212.24
890.97	212.07
891.28	211.76
891.58	211.64
891.89	211.71
892.20	211.40
892.50	211.43
892.81	211.24
893.12	211.19
893.42	210.10
893.73	210.33
894.04	210.36
894.34	210.50
894.65	210.88
894.95	210.74
895.26	211.07
895.57	211.88
895.87	210.12
896.18	210.55
896.48	210.71
896.79	210.83
897.10	211.05
897.40	211.21
897.71	211.55
898.01	211.52
898.32	211.69
898.63	211.67
898.93	211.60
899.24	211.60
899.54	211.40
899.85	211.50
900.15	211.50
900.46	211.48
900.76	211.71
901.07	211.55
901.38	211.71
901.68	211.60
901.99	210.55
902.29	210.93
902.60	210.67
902.90	210.55
903.21	210.45
903.51	210.45
903.82	210.86
904.12	210.90
904.43	210.98
904.73	211.00
905.03	211.07
905.34	212.95
905.64	212.90
905.95	213.12
906.25	213.05
906.56	213.10
906.86	213.05
907.17	212.81
907.47	212.88
907.77	212.64
908.08	212.26
908.38	212.31
908.69	212.36
908.99	212.74
909.30	213.07
909.60	213.24
909.90	213.10
910.21	212.52
910.51	212.50
910.81	212.52
911.12	212.60
911.42	212.62
911.73	210.76
912.03	210.90
912.33	211.40
912.64	211.52
912.94	211.14
913.24	210.88
913.55	210.83
913.85	210.71
914.15	211.36
914.46	211.90
914.76	211.76
915.06	211.62
915.37	211.31
915.67	211.07
915.97	211.00
916.27	210.79
916.58	210.95
916.88	210.76
917.18	210.86
917.49	212.05
917.79	212.19
918.09	212.57
918.39	213.00
918.70	212.90
919.00	212.50
919.30	213.48
919.60	213.31
919.91	213.14
920.21	213.40
920.51	212.71
920.81	212.38
921.12	212.69
921.42	212.62
921.72	212.74
922.02	212.83
922.32	213.12
922.63	213.24
922.93	214.19
923.23	214.36
923.53	213.90
923.83	212.71
924.13	212.79
924.44	212.74
924.74	213.17
925.04	213.62
925.34	214.00
925.64	213.26
925.94	213.48
926.24	214.62
926.55	214.67
926.85	215.07
927.15	214.81
927.45	215.00
927.75	214.95
928.05	215.10
928.35	215.12
928.65	215.26
928.95	215.52
929.26	214.90
929.56	215.10
929.86	215.40
930.16	215.07
930.46	215.07
930.76	214.98
931.06	214.02
931.36	213.43
931.66	213.71
931.96	213.81
932.26	213.90
932.56	212.95
932.86	213.00
933.16	212.83
933.46	213.19
933.76	212.86
934.06	213.45
934.36	214.14
934.66	214.02
934.96	213.93
935.26	213.90
935.56	213.83
935.86	213.33
936.16	213.36
936.46	213.45
936.76	213.12
937.06	212.98
937.36	213.12
937.66	213.19
937.96	213.07
938.26	212.71
938.56	212.60
938.86	212.69
939.16	212.98
939.46	213.10
939.76	213.17
940.06	213.05
940.35	212.33
940.65	211.24
940.95	211.33
941.25	210.86
941.55	210.57
941.85	210.69
942.15	211.19
942.45	211.45
942.75	211.36
943.04	211.36
943.34	211.60
943.64	211.57
943.94	211.36
944.24	211.26
944.54	211.26
944.84	211.17
945.13	210.74
945.43	210.52
945.73	210.52
946.03	210.21
946.33	210.05
946.62	210.00
946.92	209.95
947.22	210.00
947.52	210.07
947.82	210.31
948.11	210.10
948.41	209.62
948.71	209.17
949.01	209.45
949.31	209.67
949.60	209.45
949.90	209.69
950.20	209.69
950.50	209.57
950.79	209.40
951.09	209.60
951.39	209.76
951.69	209.43
951.98	209.64
952.28	209.74
952.58	209.88
952.87	210.00
953.17	210.33
953.47	210.17
953.76	210.36
954.06	210.19
954.36	210.17
954.66	210.00
954.95	210.55
955.25	210.50
955.55	210.45
955.84	210.38
956.14	210.45
956.44	210.64
956.73	210.24
957.03	210.62
957.32	210.67
957.62	210.76
957.92	211.07
958.21	210.88
958.51	213.19
958.81	213.38
959.10	213.62
959.40	214.33
959.69	214.60
959.99	214.57
960.29	214.38
960.58	214.14
960.88	215.07
961.17	214.64
961.47	214.98
961.76	214.83
962.06	215.19
962.36	214.79
962.65	214.64
962.95	215.07
963.24	214.90
963.54	214.83
963.83	214.93
964.13	214.79
964.42	214.38
964.72	212.79
965.01	212.95
965.31	212.74
965.60	211.83
965.90	213.05
966.19	212.69
966.49	212.98
966.78	212.93
967.08	212.79
967.37	213.00
967.67	212.43
967.96	212.83
968.26	212.64
968.55	213.12
968.85	213.07
969.14	213.07
969.43	213.05
969.73	213.05
970.02	212.79
970.32	212.74
970.61	212.83
970.91	212.17
971.20	211.50
971.49	211.21
971.79	211.43
972.08	209.93
972.38	210.14
972.67	210.07
972.96	210.60
973.26	210.19
973.55	210.52
973.85	210.62
974.14	210.62
974.43	210.64
974.73	210.14
975.02	210.00
975.31	209.93
975.61	210.05
975.90	209.88
976.19	209.88
976.49	210.21
976.78	210.48
977.07	210.48
977.37	210.71
977.66	210.86
977.95	210.57
978.24	210.81
978.54	211.52
978.83	211.24
979.12	210.88
979.42	211.17
979.71	210.98
980.00	211.02
980.29	210.81
980.59	210.43
980.88	211.02
981.17	211.12
981.46	211.12
981.76	211.00
982.05	211.67
982.34	211.69
982.63	211.60
982.93	211.36
983.22	212.00
983.51	212.17
983.80	212.45
984.09	212.71
984.39	212.52
984.68	211.90
984.97	211.98
985.26	211.98
985.55	212.07
985.85	211.60
986.14	211.71
986.43	212.10
986.72	212.02
987.01	211.36
987.30	211.36
987.59	211.14
987.89	211.19
988.18	210.57
988.47	210.60
988.76	210.33
989.05	210.21
989.34	209.83
989.63	210.26
989.92	210.05
990.22	209.81
990.51	209.93
990.80	209.95
991.09	210.24
991.38	210.43
991.67	209.83
991.96	209.69
992.25	209.79
992.54	209.12
992.83	209.31
993.12	209.21
993.41	209.50
993.70	210.36
993.99	210.71
994.28	211.14
994.58	211.38
994.87	211.31
995.16	211.29
995.45	211.07
995.74	210.60
996.03	210.93
996.32	211.40
996.61	211.83
996.90	211.62
997.19	211.45
997.48	211.31
997.77	211.36
998.06	211.52
998.34	211.45
998.63	211.76
998.92	211.76
999.21	212.38
999.50	212.38
999.79	211.71
1000.08	211.57
1000.37	211.31
1000.66	210.95
1000.95	211.60
1001.24	211.93
1001.53	212.24
1001.82	212.14
1002.11	211.71
1002.40	211.81
1002.68	212.05
1002.97	213.60
1003.26	213.48
1003.55	213.21
1003.84	213.48
1004.13	214.33
1004.42	214.17
1004.71	214.07
1004.99	214.02
1005.28	214.26
1005.57	214.14
1005.86	213.95
1006.15	213.83
1006.44	213.67
1006.72	213.98
1007.01	213.45
1007.30	213.36
1007.59	213.02
1007.88	212.88
1008.17	212.98
1008.45	212.71
1008.74	211.81
1009.03	210.95
1009.32	210.88
1009.60	210.88
1009.89	210.43
1010.18	209.48
1010.47	209.33
1010.76	209.12
1011.04	209.26
1011.33	209.19
1011.62	209.29
1011.91	209.38
1012.19	209.45
1012.48	209.60
1012.77	209.74
1013.05	210.67
1013.34	210.71
1013.63	210.69
1013.92	210.98
1014.20	210.88
1014.49	210.88
1014.78	211.12
1015.06	210.36
1015.35	210.43
1015.64	210.83
1015.92	211.31
1016.21	211.45
1016.50	211.74
1016.78	212.19
1017.07	212.14
1017.36	211.79
1017.64	211.52
1017.93	211.76
1018.22	211.69
1018.50	211.62
1018.79	211.50
1019.08	210.52
1019.36	210.48
1019.65	210.24
1019.93	210.79
1020.22	211.14
1020.51	212.02
1020.79	211.88
1021.08	210.50
1021.36	209.00
1021.65	212.50
1021.94	209.00
1022.22	210.00
1022.51	204.50
1022.79	223.00
1023.08	214.00
1023.36	233.50
1023.65	206.00
>>>>>End Processed Spectral Data<<<<<
