SpectraSuite Data File
++++++++++++++++++++++++++++++++++++
Date: Tue Apr 02 18:45:10 EDT 2013
User: group
Dark Spectrum Present: No
Reference Spectrum Present: No
Number of Sampled Component Spectra: 1
Spectrometers: USB2E7196
Integration Time (usec): 580000 (USB2E7196)
Spectra Averaged: 2 (USB2E7196)
Boxcar Smoothing: 10 (USB2E7196)
Correct for Electrical Dark: No (USB2E7196)
Strobe/Lamp Enabled: No (USB2E7196)
Correct for Detector Non-linearity: No (USB2E7196)
Correct for Stray Light: No (USB2E7196)
Number of Pixels in Processed Spectrum: 2048
>>>>>Begin Processed Spectral Data<<<<<
339.09	0.00
339.48	194.00
339.86	196.00
340.24	196.50
340.63	200.50
341.01	229.00
341.39	203.50
341.78	208.00
342.16	212.00
342.54	208.00
342.93	198.76
343.31	208.55
343.69	209.14
344.07	209.69
344.46	210.52
344.84	211.24
345.22	210.26
345.60	210.67
345.99	210.71
346.37	210.60
346.75	210.57
347.13	210.69
347.52	210.69
347.90	211.62
348.28	211.52
348.66	211.98
349.05	211.19
349.43	211.36
349.81	211.38
350.19	211.29
350.57	211.33
350.96	211.26
351.34	211.40
351.72	211.50
352.10	211.48
352.48	211.14
352.87	210.74
353.25	210.81
353.63	210.64
354.01	210.60
354.39	210.60
354.77	210.45
355.15	210.95
355.54	210.79
355.92	209.98
356.30	210.05
356.68	211.12
357.06	211.31
357.44	211.02
357.82	210.86
358.20	211.79
358.58	211.60
358.97	211.52
359.35	212.05
359.73	212.48
360.11	212.48
360.49	212.43
360.87	212.43
361.25	212.38
361.63	213.07
362.01	213.26
362.39	213.29
362.77	213.57
363.15	213.40
363.53	213.33
363.91	213.48
364.29	213.36
364.67	211.67
365.05	211.76
365.43	212.02
365.81	212.36
366.19	212.62
366.57	213.52
366.95	213.71
367.33	213.24
367.71	213.02
368.09	213.45
368.47	213.57
368.85	213.40
369.23	214.10
369.61	213.17
369.99	213.86
370.37	214.10
370.75	215.07
371.13	214.57
371.51	214.31
371.89	214.43
372.27	214.43
372.65	214.52
373.03	214.57
373.41	214.40
373.78	214.19
374.16	213.14
374.54	212.60
374.92	212.31
375.30	212.43
375.68	212.21
376.06	212.33
376.44	212.29
376.82	212.79
377.19	212.43
377.57	212.36
377.95	211.67
378.33	211.50
378.71	210.43
379.09	210.86
379.47	211.31
379.84	211.26
380.22	211.50
380.60	211.38
380.98	211.24
381.36	211.21
381.73	211.00
382.11	211.36
382.49	211.55
382.87	211.43
383.25	211.38
383.62	213.95
384.00	213.48
384.38	213.57
384.76	213.95
385.13	214.88
385.51	215.24
385.89	215.07
386.27	215.50
386.64	215.90
387.02	215.76
387.40	215.69
387.78	215.90
388.15	215.81
388.53	215.69
388.91	215.69
389.29	215.50
389.66	215.93
390.04	215.52
390.42	215.69
390.79	215.86
391.17	215.86
391.55	213.36
391.92	213.62
392.30	213.90
392.68	213.43
393.05	213.31
393.43	213.29
393.81	213.31
394.18	212.64
394.56	212.55
394.94	212.79
395.31	212.57
395.69	213.31
396.06	213.50
396.44	213.64
396.82	213.62
397.19	214.76
397.57	214.52
397.95	215.02
398.32	214.50
398.70	214.86
399.07	215.40
399.45	215.38
399.82	215.21
400.20	215.19
400.58	215.14
400.95	214.29
401.33	214.81
401.70	216.38
402.08	216.76
402.45	216.81
402.83	217.45
403.20	217.76
403.58	217.45
403.95	218.07
404.33	218.26
404.71	218.71
405.08	220.07
405.46	220.38
405.83	220.79
406.21	221.07
406.58	221.38
406.96	221.60
407.33	222.29
407.70	222.90
408.08	224.74
408.45	225.57
408.83	226.76
409.20	227.10
409.58	226.71
409.95	227.64
410.33	228.60
410.70	228.71
411.08	230.17
411.45	231.38
411.82	232.12
412.20	234.21
412.57	236.52
412.95	236.07
413.32	237.95
413.69	239.36
414.07	241.24
414.44	243.05
414.82	245.05
415.19	247.52
415.56	249.93
415.94	251.26
416.31	254.19
416.68	256.81
417.06	259.98
417.43	263.52
417.81	266.81
418.18	270.57
418.55	274.45
418.93	278.43
419.30	282.29
419.67	286.67
420.04	290.57
420.42	294.67
420.79	301.52
421.16	307.17
421.54	314.07
421.91	320.38
422.28	326.62
422.66	333.19
423.03	340.83
423.40	347.57
423.77	354.60
424.15	361.64
424.52	369.26
424.89	377.90
425.26	385.17
425.64	392.88
426.01	400.67
426.38	409.31
426.75	418.48
427.13	427.90
427.50	437.19
427.87	447.05
428.24	456.60
428.61	464.98
428.99	475.83
429.36	486.24
429.73	497.24
430.10	508.83
430.47	520.50
430.85	531.45
431.22	544.19
431.59	559.31
431.96	572.21
432.33	586.55
432.70	599.64
433.08	615.93
433.45	631.64
433.82	647.26
434.19	664.43
434.56	681.74
434.93	697.29
435.30	713.29
435.68	731.02
436.05	748.52
436.42	764.95
436.79	781.07
437.16	797.90
437.53	815.50
437.90	833.24
438.27	851.02
438.64	868.95
439.01	886.00
439.38	899.74
439.75	914.33
440.13	930.86
440.50	946.74
440.87	959.24
441.24	971.93
441.61	986.36
441.98	996.64
442.35	1007.90
442.72	1021.12
443.09	1034.45
443.46	1042.14
443.83	1047.64
444.20	1053.29
444.57	1058.93
444.94	1062.26
445.31	1065.69
445.68	1070.86
446.05	1072.50
446.42	1071.19
446.79	1070.05
447.16	1067.76
447.53	1067.07
447.90	1060.31
448.27	1054.45
448.64	1046.21
449.01	1040.57
449.37	1029.40
449.74	1019.07
450.11	1008.31
450.48	993.33
450.85	977.69
451.22	965.19
451.59	953.67
451.96	942.55
452.33	927.33
452.70	913.64
453.07	896.64
453.43	877.57
453.80	860.71
454.17	844.88
454.54	829.45
454.91	813.52
455.28	796.79
455.65	782.12
456.02	770.40
456.38	757.74
456.75	742.05
457.12	728.90
457.49	716.17
457.86	701.36
458.23	691.57
458.59	679.83
458.96	667.95
459.33	657.05
459.70	645.83
460.07	637.74
460.43	628.26
460.80	619.86
461.17	612.69
461.54	604.33
461.91	595.95
462.27	587.69
462.64	580.79
463.01	573.36
463.38	567.07
463.74	556.24
464.11	549.52
464.48	543.95
464.85	537.90
465.21	533.31
465.58	528.43
465.95	521.90
466.32	517.14
466.68	511.81
467.05	506.62
467.42	501.62
467.78	495.93
468.15	490.52
468.52	486.95
468.88	481.00
469.25	476.79
469.62	473.90
469.98	470.10
470.35	466.31
470.72	463.29
471.08	458.57
471.45	456.12
471.82	453.48
472.18	449.79
472.55	447.05
472.92	443.74
473.28	440.88
473.65	437.60
474.02	434.81
474.38	432.69
474.75	430.83
475.11	428.50
475.48	426.81
475.85	424.90
476.21	423.02
476.58	421.62
476.94	420.50
477.31	418.98
477.67	417.43
478.04	416.50
478.41	415.62
478.77	417.24
479.14	415.69
479.50	414.55
479.87	414.21
480.23	413.81
480.60	413.31
480.96	413.38
481.33	414.95
481.69	414.93
482.06	415.07
482.42	415.45
482.79	416.02
483.15	416.29
483.52	417.19
483.88	417.67
484.25	418.43
484.61	419.07
484.98	419.60
485.34	421.40
485.71	423.02
486.07	424.26
486.44	423.64
486.80	425.62
487.17	427.57
487.53	430.02
487.90	432.40
488.26	435.14
488.62	437.36
488.99	438.79
489.35	441.50
489.72	444.38
490.08	446.83
490.44	449.81
490.81	453.48
491.17	456.45
491.54	460.38
491.90	464.24
492.26	467.36
492.63	471.07
492.99	474.31
493.36	477.81
493.72	482.55
494.08	486.62
494.45	491.26
494.81	496.43
495.17	500.52
495.54	505.64
495.90	510.38
496.26	515.69
496.63	521.00
496.99	526.64
497.35	531.98
497.72	537.98
498.08	543.95
498.44	549.29
498.80	555.88
499.17	561.17
499.53	567.19
499.89	574.45
500.26	581.31
500.62	588.17
500.98	595.95
501.34	602.55
501.71	610.12
502.07	617.38
502.43	624.31
502.79	631.83
503.16	639.31
503.52	645.83
503.88	652.74
504.24	660.12
504.60	667.38
504.97	674.55
505.33	681.57
505.69	690.12
506.05	698.29
506.41	705.69
506.78	713.69
507.14	721.52
507.50	729.07
507.86	737.26
508.22	745.43
508.59	752.26
508.95	759.62
509.31	767.86
509.67	775.60
510.03	783.21
510.39	790.48
510.75	797.86
511.12	806.00
511.48	814.02
511.84	821.71
512.20	828.71
512.56	837.07
512.92	845.10
513.28	851.83
513.64	859.62
514.00	867.02
514.37	874.40
514.73	881.88
515.09	888.71
515.45	895.21
515.81	901.57
516.17	908.17
516.53	914.86
516.89	920.76
517.25	927.19
517.61	934.00
517.97	940.76
518.33	947.17
518.69	953.76
519.05	960.19
519.41	966.36
519.77	974.14
520.13	979.40
520.49	984.69
520.85	990.62
521.21	996.57
521.57	1002.38
521.93	1007.45
522.29	1013.19
522.65	1018.36
523.01	1024.33
523.37	1030.00
523.73	1035.31
524.09	1040.50
524.45	1045.38
524.81	1049.86
525.17	1054.81
525.53	1058.81
525.89	1063.88
526.25	1068.69
526.61	1072.36
526.97	1076.24
527.33	1080.26
527.68	1087.21
528.04	1091.76
528.40	1095.21
528.76	1098.76
529.12	1103.02
529.48	1108.17
529.84	1111.43
530.20	1116.29
530.56	1120.45
530.91	1125.05
531.27	1129.57
531.63	1134.45
531.99	1138.45
532.35	1142.81
532.71	1146.14
533.07	1151.19
533.42	1157.07
533.78	1161.02
534.14	1166.31
534.50	1170.88
534.86	1174.81
535.21	1176.86
535.57	1181.93
535.93	1185.95
536.29	1190.19
536.65	1193.98
537.00	1197.07
537.36	1201.07
537.72	1204.00
538.08	1207.71
538.44	1209.57
538.79	1213.17
539.15	1215.62
539.51	1219.43
539.87	1222.98
540.22	1226.17
540.58	1229.62
540.94	1230.36
541.29	1233.81
541.65	1235.31
542.01	1238.50
542.37	1241.12
542.72	1243.52
543.08	1245.21
543.44	1248.38
543.79	1250.79
544.15	1253.74
544.51	1256.45
544.87	1259.43
545.22	1262.93
545.58	1264.98
545.94	1268.67
546.29	1271.64
546.65	1274.62
547.01	1277.10
547.36	1279.95
547.72	1282.90
548.07	1284.76
548.43	1287.86
548.79	1288.79
549.14	1291.90
549.50	1294.24
549.86	1295.74
550.21	1298.07
550.57	1300.98
550.92	1302.69
551.28	1306.17
551.64	1309.07
551.99	1312.17
552.35	1314.71
552.70	1316.67
553.06	1320.21
553.41	1323.12
553.77	1326.95
554.13	1330.57
554.48	1335.00
554.84	1338.90
555.19	1342.69
555.55	1347.81
555.90	1350.52
556.26	1355.14
556.61	1358.90
556.97	1362.31
557.32	1366.88
557.68	1370.81
558.03	1374.21
558.39	1378.10
558.74	1381.40
559.10	1385.26
559.45	1390.10
559.81	1394.67
560.16	1398.95
560.52	1402.29
560.87	1407.45
561.23	1410.90
561.58	1416.19
561.94	1419.60
562.29	1423.10
562.64	1427.60
563.00	1431.62
563.35	1436.24
563.71	1440.50
564.06	1444.81
564.42	1450.07
564.77	1456.07
565.12	1462.45
565.48	1469.55
565.83	1476.64
566.19	1482.29
566.54	1487.55
566.89	1492.43
567.25	1498.10
567.60	1505.14
567.96	1513.57
568.31	1519.26
568.66	1525.33
569.02	1529.95
569.37	1535.90
569.72	1541.95
570.08	1547.10
570.43	1551.69
570.78	1558.62
571.14	1565.17
571.49	1571.64
571.84	1577.67
572.20	1581.93
572.55	1587.17
572.90	1591.12
573.26	1595.26
573.61	1599.62
573.96	1604.45
574.31	1609.10
574.67	1613.71
575.02	1617.02
575.37	1619.24
575.72	1622.90
576.08	1626.74
576.43	1630.50
576.78	1633.48
577.13	1636.95
577.49	1640.74
577.84	1644.98
578.19	1648.12
578.54	1652.00
578.90	1655.90
579.25	1659.10
579.60	1662.43
579.95	1665.00
580.30	1668.60
580.66	1673.05
581.01	1677.05
581.36	1680.19
581.71	1683.24
582.06	1686.81
582.42	1691.45
582.77	1694.05
583.12	1697.29
583.47	1700.71
583.82	1704.33
584.17	1707.52
584.53	1711.24
584.88	1714.69
585.23	1718.00
585.58	1720.83
585.93	1723.31
586.28	1725.71
586.63	1728.07
586.98	1731.62
587.34	1735.26
587.69	1737.26
588.04	1739.00
588.39	1740.69
588.74	1742.69
589.09	1744.67
589.44	1745.19
589.79	1747.02
590.14	1749.60
590.49	1751.52
590.84	1752.43
591.19	1753.98
591.54	1756.17
591.89	1756.64
592.25	1759.57
592.60	1760.38
592.95	1762.24
593.30	1764.02
593.65	1765.02
594.00	1765.98
594.35	1772.26
594.70	1771.48
595.05	1772.86
595.40	1772.98
595.75	1773.74
596.10	1775.12
596.45	1776.83
596.80	1778.43
597.15	1777.98
597.50	1778.17
597.85	1778.57
598.19	1779.71
598.54	1779.76
598.89	1779.48
599.24	1780.48
599.59	1780.10
599.94	1780.36
600.29	1780.33
600.64	1779.76
600.99	1779.67
601.34	1780.10
601.69	1774.40
602.04	1774.21
602.39	1772.95
602.74	1773.00
603.08	1772.83
603.43	1773.14
603.78	1772.05
604.13	1771.12
604.48	1770.83
604.83	1770.81
605.18	1770.93
605.53	1770.83
605.87	1770.02
606.22	1769.26
606.57	1768.00
606.92	1765.86
607.27	1764.98
607.62	1764.07
607.96	1763.12
608.31	1762.81
608.66	1762.12
609.01	1760.36
609.36	1759.60
609.70	1759.00
610.05	1757.05
610.40	1755.02
610.75	1751.95
611.10	1750.14
611.44	1747.76
611.79	1745.67
612.14	1743.40
612.49	1739.98
612.83	1736.40
613.18	1733.83
613.53	1731.12
613.88	1727.83
614.22	1724.93
614.57	1721.14
614.92	1716.60
615.27	1713.62
615.61	1709.45
615.96	1705.19
616.31	1702.29
616.65	1701.62
617.00	1699.55
617.35	1697.31
617.70	1695.40
618.04	1692.60
618.39	1688.79
618.74	1686.14
619.08	1682.57
619.43	1679.21
619.78	1675.98
620.12	1672.90
620.47	1669.21
620.82	1665.36
621.16	1662.02
621.51	1659.57
621.85	1656.17
622.20	1652.95
622.55	1648.52
622.89	1646.19
623.24	1644.67
623.59	1641.45
623.93	1634.95
624.28	1630.29
624.62	1627.60
624.97	1623.74
625.32	1619.95
625.66	1617.26
626.01	1613.62
626.35	1610.57
626.70	1606.60
627.04	1603.31
627.39	1598.95
627.73	1596.93
628.08	1594.57
628.43	1590.67
628.77	1585.43
629.12	1582.55
629.46	1580.07
629.81	1576.19
630.15	1570.90
630.50	1564.52
630.84	1559.90
631.19	1555.76
631.53	1550.93
631.88	1543.90
632.22	1537.74
632.57	1532.81
632.91	1527.36
633.26	1522.33
633.60	1517.17
633.95	1511.31
634.29	1505.79
634.64	1501.81
634.98	1496.00
635.32	1491.64
635.67	1488.67
636.01	1485.10
636.36	1480.17
636.70	1475.17
637.05	1470.74
637.39	1466.43
637.73	1462.40
638.08	1458.14
638.42	1453.64
638.77	1449.43
639.11	1445.83
639.45	1441.69
639.80	1437.21
640.14	1432.52
640.49	1427.55
640.83	1421.83
641.17	1418.07
641.52	1413.40
641.86	1407.98
642.20	1403.31
642.55	1397.26
642.89	1391.24
643.23	1385.43
643.58	1380.69
643.92	1374.31
644.26	1368.83
644.61	1363.95
644.95	1358.36
645.29	1352.45
645.64	1347.21
645.98	1341.40
646.32	1336.29
646.66	1330.45
647.01	1324.98
647.35	1319.93
647.69	1314.95
648.04	1309.86
648.38	1304.40
648.72	1298.57
649.06	1293.40
649.41	1287.19
649.75	1280.74
650.09	1274.14
650.43	1267.74
650.78	1260.60
651.12	1254.88
651.46	1248.50
651.80	1241.69
652.14	1235.55
652.49	1228.81
652.83	1222.79
653.17	1215.64
653.51	1209.24
653.85	1203.71
654.20	1197.38
654.54	1189.69
654.88	1182.07
655.22	1176.07
655.56	1168.83
655.90	1162.83
656.25	1155.76
656.59	1149.45
656.93	1144.36
657.27	1138.81
657.61	1132.36
657.95	1126.90
658.29	1120.48
658.64	1115.55
658.98	1109.29
659.32	1102.45
659.66	1095.98
660.00	1089.50
660.34	1084.17
660.68	1077.81
661.02	1070.98
661.36	1064.57
661.70	1058.71
662.05	1052.79
662.39	1046.86
662.73	1042.43
663.07	1037.02
663.41	1031.33
663.75	1025.07
664.09	1018.31
664.43	1011.83
664.77	1006.71
665.11	1000.24
665.45	994.67
665.79	988.19
666.13	981.86
666.47	976.93
666.81	971.60
667.15	965.93
667.49	960.60
667.83	955.17
668.17	949.48
668.51	943.64
668.85	938.76
669.19	935.07
669.53	928.57
669.87	921.88
670.21	915.86
670.55	909.86
670.89	905.17
671.23	899.67
671.57	893.90
671.91	888.36
672.25	882.81
672.58	878.17
672.92	872.19
673.26	867.05
673.60	861.57
673.94	856.50
674.28	851.10
674.62	846.14
674.96	840.31
675.30	835.43
675.64	831.05
675.97	826.21
676.31	820.31
676.65	815.60
676.99	811.81
677.33	806.26
677.67	801.48
678.01	795.83
678.34	791.14
678.68	787.62
679.02	782.29
679.36	777.29
679.70	771.31
680.04	767.00
680.37	762.29
680.71	757.24
681.05	753.17
681.39	748.21
681.73	742.86
682.06	738.43
682.40	734.00
682.74	729.45
683.08	724.86
683.42	719.10
683.75	714.62
684.09	708.64
684.43	703.98
684.77	699.17
685.10	694.62
685.44	689.93
685.78	684.81
686.12	680.62
686.45	676.14
686.79	671.40
687.13	666.95
687.46	662.05
687.80	658.12
688.14	653.38
688.48	649.62
688.81	645.57
689.15	641.86
689.49	637.31
689.82	632.24
690.16	627.29
690.50	623.24
690.83	618.31
691.17	613.52
691.51	609.31
691.84	605.33
692.18	601.33
692.52	597.21
692.85	593.21
693.19	589.76
693.52	585.71
693.86	581.90
694.20	577.76
694.53	574.12
694.87	569.48
695.21	564.86
695.54	560.31
695.88	555.98
696.21	550.88
696.55	546.52
696.88	542.69
697.22	538.83
697.56	536.14
697.89	532.81
698.23	529.79
698.56	526.26
698.90	523.05
699.23	518.64
699.57	515.05
699.90	510.95
700.24	506.79
700.58	503.24
700.91	500.31
701.25	498.24
701.58	495.83
701.92	493.62
702.25	490.71
702.59	487.76
702.92	484.60
703.26	481.71
703.59	478.79
703.93	477.33
704.26	474.48
704.60	470.95
704.93	467.81
705.26	464.67
705.60	461.90
705.93	458.55
706.27	456.31
706.60	453.95
706.94	451.88
707.27	448.79
707.61	445.93
707.94	442.50
708.27	438.57
708.61	435.00
708.94	431.74
709.28	429.12
709.61	426.26
709.94	423.71
710.28	421.12
710.61	418.62
710.95	414.33
711.28	413.33
711.61	410.76
711.95	408.95
712.28	406.24
712.61	403.74
712.95	402.36
713.28	401.36
713.61	398.81
713.95	395.93
714.28	393.67
714.61	391.43
714.95	389.29
715.28	386.79
715.61	384.88
715.95	382.81
716.28	380.50
716.61	378.79
716.95	376.31
717.28	374.36
717.61	372.62
717.94	370.74
718.28	366.76
718.61	364.98
718.94	362.50
719.27	360.67
719.61	358.81
719.94	356.36
720.27	353.05
720.60	351.10
720.94	349.52
721.27	348.05
721.60	347.07
721.93	345.45
722.27	344.67
722.60	342.67
722.93	340.81
723.26	339.43
723.59	337.24
723.93	336.14
724.26	334.88
724.59	333.14
724.92	331.76
725.25	331.24
725.59	329.95
725.92	328.90
726.25	327.79
726.58	326.50
726.91	324.93
727.24	324.29
727.57	322.67
727.91	321.36
728.24	320.40
728.57	318.60
728.90	318.07
729.23	316.00
729.56	315.88
729.89	314.43
730.22	312.76
730.55	311.88
730.89	310.55
731.22	309.21
731.55	308.14
731.88	307.10
732.21	305.81
732.54	304.29
732.87	303.21
733.20	302.24
733.53	301.24
733.86	300.45
734.19	298.86
734.52	298.26
734.85	298.60
735.18	297.12
735.51	296.79
735.84	295.57
736.17	295.10
736.50	293.00
736.83	294.62
737.16	294.10
737.49	293.19
737.82	292.17
738.15	291.55
738.48	290.69
738.81	289.81
739.14	288.52
739.47	287.74
739.80	286.93
740.13	286.29
740.46	285.17
740.79	283.95
741.12	283.14
741.45	282.26
741.78	280.31
742.11	280.29
742.44	278.88
742.77	278.38
743.10	277.26
743.43	276.69
743.75	273.93
744.08	275.88
744.41	274.98
744.74	274.48
745.07	273.24
745.40	272.62
745.73	272.93
746.06	272.40
746.39	272.02
746.71	271.05
747.04	270.07
747.37	269.31
747.70	269.17
748.03	268.60
748.36	268.07
748.68	267.36
749.01	266.07
749.34	265.79
749.67	265.10
750.00	265.10
750.33	266.05
750.65	265.40
750.98	262.17
751.31	261.62
751.64	260.86
751.97	261.71
752.29	261.12
752.62	259.29
752.95	258.67
753.28	257.88
753.60	257.31
753.93	257.02
754.26	256.60
754.59	255.40
754.91	254.69
755.24	254.10
755.57	253.33
755.90	252.74
756.22	252.19
756.55	251.48
756.88	250.50
757.20	248.43
757.53	247.29
757.86	246.79
758.19	246.57
758.51	246.26
758.84	244.52
759.17	244.10
759.49	244.07
759.82	244.71
760.15	244.33
760.47	243.81
760.80	243.19
761.13	243.19
761.45	242.76
761.78	242.38
762.11	241.86
762.43	241.43
762.76	241.10
763.08	240.83
763.41	240.36
763.74	240.07
764.06	239.88
764.39	239.95
764.71	239.60
765.04	239.10
765.37	238.55
765.69	238.45
766.02	238.10
766.34	237.60
766.67	236.50
767.00	236.69
767.32	237.79
767.65	238.71
767.97	238.00
768.30	238.12
768.62	237.74
768.95	237.14
769.27	236.90
769.60	236.93
769.92	236.24
770.25	235.79
770.57	235.14
770.90	234.64
771.22	234.07
771.55	234.05
771.87	233.90
772.20	233.71
772.52	234.90
772.85	237.17
773.17	236.93
773.50	236.50
773.82	235.83
774.15	234.33
774.47	232.60
774.80	232.57
775.12	232.21
775.45	232.07
775.77	232.31
776.09	232.21
776.42	231.86
776.74	232.45
777.07	232.05
777.39	232.10
777.72	232.02
778.04	232.52
778.36	231.88
778.69	231.67
779.01	231.55
779.33	229.79
779.66	227.14
779.98	227.10
780.31	227.00
780.63	227.83
780.95	228.17
781.28	228.31
781.60	227.93
781.92	227.76
782.25	227.67
782.57	227.05
782.89	226.79
783.22	226.55
783.54	225.93
783.86	226.24
784.19	225.81
784.51	226.24
784.83	225.38
785.16	225.31
785.48	225.14
785.80	225.12
786.12	225.17
786.45	224.93
786.77	224.69
787.09	224.67
787.42	223.81
787.74	223.76
788.06	223.48
788.38	223.14
788.71	222.88
789.03	223.07
789.35	223.67
789.67	223.31
789.99	223.40
790.32	223.17
790.64	223.12
790.96	225.10
791.28	224.31
791.61	224.21
791.93	224.29
792.25	224.38
792.57	225.71
792.89	225.29
793.21	225.60
793.54	225.36
793.86	224.95
794.18	225.12
794.50	224.57
794.82	224.45
795.14	224.81
795.47	224.98
795.79	224.79
796.11	224.07
796.43	223.79
796.75	223.71
797.07	223.86
797.39	223.86
797.71	222.02
798.04	221.98
798.36	222.19
798.68	222.00
799.00	221.93
799.32	220.57
799.64	221.07
799.96	220.81
800.28	221.24
800.60	221.33
800.92	220.95
801.24	220.90
801.56	221.05
801.89	220.90
802.21	221.10
802.53	220.55
802.85	221.14
803.17	222.29
803.49	222.26
803.81	221.76
804.13	221.60
804.45	221.33
804.77	221.48
805.09	221.26
805.41	221.00
805.73	220.50
806.05	220.00
806.37	219.64
806.69	219.64
807.01	219.43
807.33	219.50
807.65	218.90
807.97	219.76
808.28	219.55
808.60	219.45
808.92	219.05
809.24	220.31
809.56	219.76
809.88	218.74
810.20	218.38
810.52	218.52
810.84	217.93
811.16	217.67
811.48	217.43
811.80	218.10
812.12	218.02
812.43	218.45
812.75	218.90
813.07	218.31
813.39	218.19
813.71	217.83
814.03	217.55
814.35	217.74
814.67	216.95
814.98	216.79
815.30	216.67
815.62	216.31
815.94	215.00
816.26	215.21
816.58	214.98
816.89	215.14
817.21	215.10
817.53	215.43
817.85	215.48
818.17	215.43
818.48	214.64
818.80	215.10
819.12	214.74
819.44	214.26
819.76	214.24
820.07	214.17
820.39	214.17
820.71	214.17
821.03	214.14
821.34	213.98
821.66	214.38
821.98	214.52
822.30	214.55
822.61	215.71
822.93	215.40
823.25	215.43
823.57	215.12
823.88	215.43
824.20	215.21
824.52	215.74
824.83	215.76
825.15	215.57
825.47	215.50
825.79	215.67
826.10	215.50
826.42	215.64
826.74	215.88
827.05	215.60
827.37	215.62
827.69	215.48
828.00	215.45
828.32	215.12
828.64	215.00
828.95	216.02
829.27	215.40
829.58	215.57
829.90	216.07
830.22	216.36
830.53	215.93
830.85	215.74
831.17	215.29
831.48	215.19
831.80	215.38
832.11	215.24
832.43	214.90
832.75	214.95
833.06	216.12
833.38	215.57
833.69	215.62
834.01	216.02
834.32	215.95
834.64	215.55
834.96	215.90
835.27	215.60
835.59	214.90
835.90	214.52
836.22	214.26
836.53	213.95
836.85	213.52
837.16	215.55
837.48	215.57
837.79	216.29
838.11	216.38
838.42	216.21
838.74	216.31
839.05	216.21
839.37	216.19
839.68	215.00
840.00	214.86
840.31	215.24
840.63	214.95
840.94	214.98
841.26	215.19
841.57	215.12
841.88	215.43
842.20	215.17
842.51	214.95
842.83	214.90
843.14	216.45
843.46	216.60
843.77	215.36
844.08	215.55
844.40	214.81
844.71	214.50
845.03	214.33
845.34	214.14
845.65	214.12
845.97	214.29
846.28	214.45
846.60	214.67
846.91	214.38
847.22	214.21
847.54	214.57
847.85	214.55
848.16	214.24
848.48	213.93
848.79	214.74
849.10	215.02
849.42	215.14
849.73	213.19
850.04	213.02
850.36	212.21
850.67	212.21
850.98	212.19
851.30	212.57
851.61	212.90
851.92	212.93
852.23	213.50
852.55	213.43
852.86	213.36
853.17	213.55
853.49	213.93
853.80	214.33
854.11	214.57
854.42	214.90
854.74	214.76
855.05	214.88
855.36	213.88
855.67	213.83
855.99	213.90
856.30	216.48
856.61	216.45
856.92	216.64
857.23	216.71
857.55	216.83
857.86	216.69
858.17	216.81
858.48	216.33
858.79	216.05
859.11	215.88
859.42	215.81
859.73	215.52
860.04	215.26
860.35	214.57
860.66	213.86
860.98	213.69
861.29	214.07
861.60	213.98
861.91	214.52
862.22	214.45
862.53	214.07
862.84	211.76
863.16	212.48
863.47	211.90
863.78	212.05
864.09	212.02
864.40	212.19
864.71	212.19
865.02	212.83
865.33	212.40
865.64	212.52
865.95	212.48
866.27	213.71
866.58	213.36
866.89	213.81
867.20	213.71
867.51	213.29
867.82	212.69
868.13	213.45
868.44	212.83
868.75	213.02
869.06	213.29
869.37	213.45
869.68	212.55
869.99	213.14
870.30	212.81
870.61	212.76
870.92	212.36
871.23	212.17
871.54	212.29
871.85	212.93
872.16	212.98
872.47	212.62
872.78	211.26
873.09	211.79
873.40	211.43
873.71	211.50
874.02	211.88
874.33	212.02
874.64	211.12
874.95	211.52
875.26	211.05
875.56	211.12
875.87	210.83
876.18	210.88
876.49	212.88
876.80	212.83
877.11	212.50
877.42	212.67
877.73	212.74
878.04	212.48
878.35	212.57
878.66	212.69
878.96	212.71
879.27	212.81
879.58	212.57
879.89	212.62
880.20	213.31
880.51	213.24
880.82	213.33
881.12	213.76
881.43	213.40
881.74	213.45
882.05	213.33
882.36	213.60
882.67	213.76
882.97	211.55
883.28	211.48
883.59	211.60
883.90	211.69
884.21	211.93
884.51	211.60
884.82	211.02
885.13	211.00
885.44	211.52
885.74	211.71
886.05	211.67
886.36	211.67
886.67	211.12
886.98	212.12
887.28	212.31
887.59	212.17
887.90	212.24
888.20	211.98
888.51	212.17
888.82	211.71
889.13	212.07
889.43	213.86
889.74	213.67
890.05	213.64
890.35	213.31
890.66	213.05
890.97	213.07
891.28	212.90
891.58	212.93
891.89	212.48
892.20	212.02
892.50	211.86
892.81	211.69
893.12	211.62
893.42	210.43
893.73	210.45
894.04	210.60
894.34	210.79
894.65	211.00
894.95	210.76
895.26	211.19
895.57	212.02
895.87	210.17
896.18	210.76
896.48	211.00
896.79	211.43
897.10	211.64
897.40	211.64
897.71	212.07
898.01	211.83
898.32	212.02
898.63	212.05
898.93	212.33
899.24	212.36
899.54	212.24
899.85	212.36
900.15	212.07
900.46	212.07
900.76	212.33
901.07	212.05
901.38	212.02
901.68	211.88
901.99	210.81
902.29	210.81
902.60	210.43
902.90	210.21
903.21	210.12
903.51	209.93
903.82	210.38
904.12	210.40
904.43	210.86
904.73	210.95
905.03	211.40
905.34	213.31
905.64	213.38
905.95	213.40
906.25	213.19
906.56	213.50
906.86	213.45
907.17	213.10
907.47	213.38
907.77	213.19
908.08	212.90
908.38	212.98
908.69	213.14
908.99	213.64
909.30	213.71
909.60	213.67
909.90	213.88
910.21	213.43
910.51	212.93
910.81	212.86
911.12	213.02
911.42	212.79
911.73	210.71
912.03	210.81
912.33	211.19
912.64	211.33
912.94	211.17
913.24	211.00
913.55	210.83
913.85	210.71
914.15	211.21
914.46	211.57
914.76	211.55
915.06	211.43
915.37	210.93
915.67	210.79
915.97	210.76
916.27	210.12
916.58	210.33
916.88	210.26
917.18	210.00
917.49	211.45
917.79	211.45
918.09	211.81
918.39	212.17
918.70	211.90
919.00	212.12
919.30	212.71
919.60	212.38
919.91	212.31
920.21	212.40
920.51	211.79
920.81	211.62
921.12	211.83
921.42	211.86
921.72	212.14
922.02	212.36
922.32	212.74
922.63	213.00
922.93	213.88
923.23	214.02
923.53	213.71
923.83	212.21
924.13	212.45
924.44	212.38
924.74	212.79
925.04	213.40
925.34	213.14
925.64	212.55
925.94	212.62
926.24	213.98
926.55	213.86
926.85	214.21
927.15	214.26
927.45	214.14
927.75	214.12
928.05	214.07
928.35	213.98
928.65	214.24
928.95	214.36
929.26	213.64
929.56	214.21
929.86	214.67
930.16	214.45
930.46	214.12
930.76	214.17
931.06	213.36
931.36	212.69
931.66	212.90
931.96	213.02
932.26	213.12
932.56	212.02
932.86	212.29
933.16	212.17
933.46	212.14
933.76	212.10
934.06	212.71
934.36	213.60
934.66	213.64
934.96	213.26
935.26	213.45
935.56	213.57
935.86	213.02
936.16	212.67
936.46	212.69
936.76	212.60
937.06	212.12
937.36	212.05
937.66	212.14
937.96	212.02
938.26	211.64
938.56	211.62
938.86	211.67
939.16	212.05
939.46	212.55
939.76	212.50
940.06	212.40
940.35	211.74
940.65	210.64
940.95	210.71
941.25	210.24
941.55	210.17
941.85	210.17
942.15	210.64
942.45	211.19
942.75	211.24
943.04	211.50
943.34	212.17
943.64	212.12
943.94	211.83
944.24	212.33
944.54	212.79
944.84	212.74
945.13	212.57
945.43	212.26
945.73	211.95
946.03	211.90
946.33	211.69
946.62	211.74
946.92	211.60
947.22	211.50
947.52	211.67
947.82	211.60
948.11	211.21
948.41	210.74
948.71	210.21
949.01	210.14
949.31	209.81
949.60	209.57
949.90	209.79
950.20	209.93
950.50	209.62
950.79	209.21
951.09	209.62
951.39	209.71
951.69	209.55
951.98	209.90
952.28	210.05
952.58	210.07
952.87	209.95
953.17	210.50
953.47	210.29
953.76	210.48
954.06	210.00
954.36	209.93
954.66	209.83
954.95	210.50
955.25	210.71
955.55	210.88
955.84	210.45
956.14	210.71
956.44	210.67
956.73	210.33
957.03	210.48
957.32	210.38
957.62	210.17
957.92	210.64
958.21	210.52
958.51	213.00
958.81	213.19
959.10	213.48
959.40	213.60
959.69	213.74
959.99	213.81
960.29	214.07
960.58	214.05
960.88	215.02
961.17	214.50
961.47	214.55
961.76	214.62
962.06	215.05
962.36	214.62
962.65	214.79
962.95	214.74
963.24	214.71
963.54	214.86
963.83	214.90
964.13	214.69
964.42	214.29
964.72	212.38
965.01	212.31
965.31	211.93
965.60	211.74
965.90	213.12
966.19	212.60
966.49	212.64
966.78	212.60
967.08	212.52
967.37	212.62
967.67	212.38
967.96	212.74
968.26	212.57
968.55	213.05
968.85	213.05
969.14	213.17
969.43	212.98
969.73	212.69
970.02	212.76
970.32	212.55
970.61	212.48
970.91	211.98
971.20	211.86
971.49	211.95
971.79	211.88
972.08	210.43
972.38	210.69
972.67	210.52
972.96	210.83
973.26	210.21
973.55	210.90
973.85	210.64
974.14	210.43
974.43	210.74
974.73	210.38
975.02	210.05
975.31	210.10
975.61	210.07
975.90	209.98
976.19	209.86
976.49	210.02
976.78	210.38
977.07	210.07
977.37	210.21
977.66	210.05
977.95	209.86
978.24	210.00
978.54	210.40
978.83	210.43
979.12	210.40
979.42	210.26
979.71	210.05
980.00	210.10
980.29	210.05
980.59	209.48
980.88	210.12
981.17	210.26
981.46	210.19
981.76	210.24
982.05	210.83
982.34	210.95
982.63	210.81
982.93	210.60
983.22	211.33
983.51	211.24
983.80	212.05
984.09	212.19
984.39	212.21
984.68	211.74
984.97	211.88
985.26	211.67
985.55	211.88
985.85	211.21
986.14	211.74
986.43	211.93
986.72	211.88
987.01	211.24
987.30	211.12
987.59	211.02
987.89	211.14
988.18	210.62
988.47	210.52
988.76	210.52
989.05	210.36
989.34	210.02
989.63	210.67
989.92	210.05
990.22	209.93
990.51	209.88
990.80	210.07
991.09	210.19
991.38	210.45
991.67	210.31
991.96	210.21
992.25	210.05
992.54	209.81
992.83	210.14
993.12	209.90
993.41	210.21
993.70	211.14
993.99	211.29
994.28	211.33
994.58	211.55
994.87	211.40
995.16	211.38
995.45	211.26
995.74	210.50
996.03	211.07
996.32	211.21
996.61	211.45
996.90	211.12
997.19	211.12
997.48	211.10
997.77	211.07
998.06	211.29
998.34	211.21
998.63	211.10
998.92	211.05
999.21	211.52
999.50	211.76
999.79	210.86
1000.08	210.83
1000.37	210.98
1000.66	210.67
1000.95	211.05
1001.24	211.12
1001.53	211.10
1001.82	211.17
1002.11	210.60
1002.40	210.93
1002.68	211.36
1002.97	213.10
1003.26	212.95
1003.55	212.64
1003.84	212.76
1004.13	213.57
1004.42	213.43
1004.71	213.55
1004.99	213.33
1005.28	213.79
1005.57	213.45
1005.86	213.48
1006.15	213.43
1006.44	213.40
1006.72	213.71
1007.01	213.45
1007.30	213.50
1007.59	213.67
1007.88	213.50
1008.17	213.62
1008.45	213.24
1008.74	212.36
1009.03	211.33
1009.32	211.29
1009.60	211.21
1009.89	211.17
1010.18	209.93
1010.47	209.69
1010.76	209.62
1011.04	209.71
1011.33	209.83
1011.62	210.07
1011.91	210.14
1012.19	210.12
1012.48	209.76
1012.77	209.81
1013.05	210.76
1013.34	210.90
1013.63	210.57
1013.92	211.00
1014.20	210.71
1014.49	210.67
1014.78	210.93
1015.06	210.38
1015.35	210.48
1015.64	210.81
1015.92	210.88
1016.21	211.17
1016.50	211.43
1016.78	211.62
1017.07	211.50
1017.36	210.86
1017.64	210.57
1017.93	210.81
1018.22	210.71
1018.50	210.86
1018.79	210.52
1019.08	209.57
1019.36	209.69
1019.65	209.81
1019.93	210.19
1020.22	210.64
1020.51	211.64
1020.79	211.40
1021.08	207.50
1021.36	207.50
1021.65	206.50
1021.94	210.00
1022.22	214.00
1022.51	209.50
1022.79	220.50
1023.08	214.50
1023.36	232.00
1023.65	205.00
>>>>>End Processed Spectral Data<<<<<
