SpectraSuite Data File
++++++++++++++++++++++++++++++++++++
Date: Tue Apr 02 18:41:21 EDT 2013
User: group
Dark Spectrum Present: No
Reference Spectrum Present: No
Number of Sampled Component Spectra: 1
Spectrometers: USB2E7196
Integration Time (usec): 580000 (USB2E7196)
Spectra Averaged: 2 (USB2E7196)
Boxcar Smoothing: 10 (USB2E7196)
Correct for Electrical Dark: No (USB2E7196)
Strobe/Lamp Enabled: No (USB2E7196)
Correct for Detector Non-linearity: No (USB2E7196)
Correct for Stray Light: No (USB2E7196)
Number of Pixels in Processed Spectrum: 2048
>>>>>Begin Processed Spectral Data<<<<<
339.09	0.00
339.48	187.00
339.86	195.00
340.24	194.00
340.63	195.50
341.01	234.00
341.39	201.50
341.78	201.50
342.16	205.00
342.54	206.00
342.93	195.74
343.31	205.50
343.69	206.21
344.07	206.67
344.46	207.45
344.84	208.33
345.22	206.95
345.60	207.50
345.99	208.02
346.37	208.17
346.75	208.33
347.13	208.52
347.52	208.95
347.90	209.90
348.28	210.24
348.66	210.81
349.05	210.00
349.43	210.33
349.81	210.74
350.19	210.79
350.57	210.81
350.96	211.00
351.34	211.21
351.72	211.69
352.10	211.86
352.48	211.93
352.87	211.79
353.25	212.12
353.63	211.95
354.01	212.05
354.39	212.31
354.77	212.38
355.15	212.93
355.54	212.69
355.92	212.02
356.30	212.17
356.68	213.48
357.06	213.95
357.44	213.81
357.82	213.81
358.20	214.81
358.58	214.71
358.97	214.83
359.35	215.40
359.73	215.64
360.11	215.67
360.49	215.60
360.87	215.69
361.25	215.81
361.63	216.62
362.01	216.69
362.39	216.64
362.77	216.95
363.15	217.05
363.53	216.98
363.91	217.17
364.29	217.05
364.67	215.19
365.05	215.12
365.43	215.43
365.81	215.40
366.19	215.62
366.57	216.67
366.95	216.50
367.33	215.88
367.71	215.81
368.09	216.17
368.47	216.24
368.85	216.12
369.23	216.60
369.61	215.88
369.99	216.52
370.37	216.62
370.75	217.40
371.13	217.02
371.51	216.86
371.89	217.14
372.27	217.26
372.65	217.19
373.03	217.50
373.41	217.52
373.78	217.55
374.16	216.26
374.54	215.50
374.92	215.62
375.30	215.83
375.68	215.43
376.06	215.60
376.44	215.52
376.82	215.57
377.19	215.29
377.57	215.19
377.95	214.48
378.33	214.33
378.71	213.12
379.09	213.36
379.47	213.71
379.84	213.17
380.22	212.88
380.60	212.79
380.98	212.33
381.36	212.12
381.73	211.71
382.11	212.21
382.49	212.52
382.87	212.00
383.25	212.21
383.62	214.71
384.00	214.14
384.38	214.19
384.76	214.55
385.13	215.36
385.51	215.38
385.89	215.19
386.27	215.31
386.64	215.67
387.02	215.40
387.40	215.02
387.78	215.24
388.15	215.55
388.53	215.33
388.91	215.57
389.29	215.24
389.66	215.62
390.04	215.52
390.42	215.71
390.79	216.10
391.17	215.74
391.55	213.62
391.92	213.93
392.30	214.07
392.68	213.74
393.05	213.60
393.43	213.71
393.81	214.00
394.18	213.74
394.56	213.88
394.94	214.33
395.31	214.31
395.69	215.10
396.06	215.07
396.44	215.43
396.82	215.05
397.19	216.45
397.57	216.36
397.95	216.81
398.32	216.31
398.70	216.36
399.07	217.10
399.45	216.79
399.82	216.74
400.20	216.48
400.58	216.52
400.95	215.71
401.33	216.24
401.70	217.52
402.08	217.79
402.45	217.79
402.83	218.38
403.20	218.79
403.58	218.79
403.95	219.24
404.33	219.74
404.71	220.24
405.08	221.26
405.46	221.69
405.83	221.71
406.21	221.98
406.58	222.50
406.96	222.52
407.33	223.14
407.70	223.76
408.08	226.02
408.45	226.88
408.83	227.86
409.20	228.12
409.58	227.88
409.95	229.26
410.33	230.36
410.70	230.48
411.08	231.71
411.45	232.93
411.82	233.86
412.20	235.33
412.57	237.64
412.95	237.33
413.32	239.10
413.69	240.38
414.07	242.07
414.44	244.02
414.82	245.95
415.19	248.45
415.56	250.69
415.94	251.88
416.31	254.93
416.68	257.79
417.06	260.93
417.43	264.52
417.81	267.86
418.18	271.10
418.55	275.43
418.93	279.50
419.30	283.40
419.67	287.95
420.04	292.29
420.42	297.00
420.79	304.17
421.16	309.98
421.54	317.57
421.91	324.26
422.28	330.71
422.66	337.81
423.03	345.98
423.40	353.17
423.77	360.62
424.15	367.86
424.52	376.00
424.89	385.12
425.26	392.71
425.64	400.43
426.01	409.45
426.38	417.88
426.75	427.74
427.13	437.19
427.50	446.83
427.87	457.50
428.24	467.62
428.61	476.62
428.99	488.67
429.36	498.93
429.73	510.45
430.10	522.33
430.47	533.98
430.85	544.88
431.22	557.62
431.59	572.95
431.96	585.86
432.33	600.14
432.70	614.12
433.08	630.62
433.45	646.48
433.82	662.45
434.19	679.74
434.56	696.88
434.93	712.62
435.30	729.83
435.68	748.29
436.05	766.19
436.42	783.71
436.79	799.50
437.16	817.81
437.53	835.50
437.90	854.07
438.27	872.98
438.64	892.00
439.01	909.79
439.38	924.29
439.75	939.67
440.13	957.36
440.50	973.52
440.87	987.40
441.24	1001.02
441.61	1015.69
441.98	1027.24
442.35	1039.76
442.72	1054.12
443.09	1068.00
443.46	1075.38
443.83	1080.33
444.20	1085.17
444.57	1091.76
444.94	1094.57
445.31	1098.79
445.68	1104.48
446.05	1105.62
446.42	1103.31
446.79	1102.40
447.16	1100.38
447.53	1100.02
447.90	1093.43
448.27	1086.76
448.64	1077.29
449.01	1071.17
449.37	1059.71
449.74	1048.00
450.11	1036.33
450.48	1020.52
450.85	1003.36
451.22	989.86
451.59	978.10
451.96	966.43
452.33	949.98
452.70	935.71
453.07	917.86
453.43	897.69
453.80	880.52
454.17	865.12
454.54	849.12
454.91	832.26
455.28	814.90
455.65	799.19
456.02	787.24
456.38	774.05
456.75	757.79
457.12	743.95
457.49	731.36
457.86	716.14
458.23	705.93
458.59	693.79
458.96	681.86
459.33	670.07
459.70	659.00
460.07	649.90
460.43	639.90
460.80	631.24
461.17	623.36
461.54	614.93
461.91	606.10
462.27	597.31
462.64	589.90
463.01	582.24
463.38	575.48
463.74	564.45
464.11	557.43
464.48	551.74
464.85	545.48
465.21	540.95
465.58	535.76
465.95	528.79
466.32	524.00
466.68	518.81
467.05	514.21
467.42	508.67
467.78	503.64
468.15	498.55
468.52	494.71
468.88	488.95
469.25	483.76
469.62	480.88
469.98	476.93
470.35	473.33
470.72	469.83
471.08	464.95
471.45	462.05
471.82	459.67
472.18	455.86
472.55	453.31
472.92	449.38
473.28	446.64
473.65	443.83
474.02	441.14
474.38	438.67
474.75	436.14
475.11	434.10
475.48	432.52
475.85	430.45
476.21	428.64
476.58	427.57
476.94	426.76
477.31	425.26
477.67	424.10
478.04	423.00
478.41	422.21
478.77	423.79
479.14	422.52
479.50	421.64
479.87	421.14
480.23	420.69
480.60	420.07
480.96	419.67
481.33	420.52
481.69	420.17
482.06	420.31
482.42	420.79
482.79	421.12
483.15	421.10
483.52	422.24
483.88	422.26
484.25	422.67
484.61	423.57
484.98	424.14
485.34	425.81
485.71	427.29
486.07	428.50
486.44	428.02
486.80	429.93
487.17	431.36
487.53	433.69
487.90	435.93
488.26	439.62
488.62	442.36
488.99	444.45
489.35	447.64
489.72	450.36
490.08	452.74
490.44	455.79
490.81	458.98
491.17	461.86
491.54	465.55
491.90	469.19
492.26	472.81
492.63	476.76
492.99	480.43
493.36	484.52
493.72	489.00
494.08	493.86
494.45	498.79
494.81	503.90
495.17	508.67
495.54	514.05
495.90	518.19
496.26	523.31
496.63	528.81
496.99	534.24
497.35	540.57
497.72	547.40
498.08	553.19
498.44	559.38
498.80	566.36
499.17	573.14
499.53	579.12
499.89	586.31
500.26	592.90
500.62	599.55
500.98	607.36
501.34	614.50
501.71	622.07
502.07	629.33
502.43	636.69
502.79	643.31
503.16	650.21
503.52	657.64
503.88	665.10
504.24	672.76
504.60	680.19
504.97	687.90
505.33	695.38
505.69	704.36
506.05	712.76
506.41	720.26
506.78	728.62
507.14	736.69
507.50	744.31
507.86	753.00
508.22	761.29
508.59	768.24
508.95	776.90
509.31	785.64
509.67	793.43
510.03	801.19
510.39	809.98
510.75	818.02
511.12	826.57
511.48	834.33
511.84	841.95
512.20	849.64
512.56	857.19
512.92	864.86
513.28	872.31
513.64	879.76
514.00	887.83
514.37	895.24
514.73	903.83
515.09	912.17
515.45	918.90
515.81	925.88
516.17	933.74
516.53	940.24
516.89	945.64
517.25	952.50
517.61	961.02
517.97	967.71
518.33	974.17
518.69	981.07
519.05	988.64
519.41	995.69
519.77	1003.74
520.13	1009.90
520.49	1016.62
520.85	1021.95
521.21	1028.88
521.57	1034.55
521.93	1039.52
522.29	1045.33
522.65	1050.74
523.01	1056.67
523.37	1062.00
523.73	1066.98
524.09	1072.69
524.45	1079.07
524.81	1084.74
525.17	1089.29
525.53	1094.00
525.89	1099.21
526.25	1104.29
526.61	1108.48
526.97	1112.38
527.33	1116.98
527.68	1124.31
528.04	1128.48
528.40	1133.02
528.76	1136.81
529.12	1142.26
529.48	1147.12
529.84	1150.76
530.20	1154.83
530.56	1159.52
530.91	1164.52
531.27	1169.12
531.63	1173.64
531.99	1177.00
532.35	1181.57
532.71	1184.55
533.07	1190.71
533.42	1197.60
533.78	1201.62
534.14	1206.38
534.50	1211.24
534.86	1215.29
535.21	1217.31
535.57	1222.55
535.93	1226.90
536.29	1232.43
536.65	1236.48
537.00	1240.71
537.36	1244.48
537.72	1248.14
538.08	1251.81
538.44	1255.02
538.79	1258.90
539.15	1261.48
539.51	1265.55
539.87	1268.57
540.22	1272.86
540.58	1274.93
540.94	1275.90
541.29	1279.48
541.65	1281.88
542.01	1285.81
542.37	1288.98
542.72	1291.71
543.08	1294.21
543.44	1298.74
543.79	1300.45
544.15	1303.60
544.51	1307.64
544.87	1312.19
545.22	1315.64
545.58	1319.21
545.94	1323.26
546.29	1326.67
546.65	1330.93
547.01	1333.98
547.36	1337.36
547.72	1340.31
548.07	1343.71
548.43	1346.50
548.79	1349.17
549.14	1352.83
549.50	1355.86
549.86	1358.02
550.21	1361.79
550.57	1365.50
550.92	1367.31
551.28	1371.48
551.64	1373.43
551.99	1376.81
552.35	1380.14
552.70	1383.67
553.06	1386.64
553.41	1389.26
553.77	1394.29
554.13	1397.33
554.48	1402.12
554.84	1407.33
555.19	1412.24
555.55	1418.12
555.90	1423.38
556.26	1428.05
556.61	1431.95
556.97	1435.21
557.32	1439.86
557.68	1443.40
558.03	1447.67
558.39	1453.40
558.74	1457.93
559.10	1462.57
559.45	1466.90
559.81	1471.07
560.16	1475.48
560.52	1481.00
560.87	1486.93
561.23	1490.29
561.58	1497.90
561.94	1501.86
562.29	1505.52
562.64	1510.21
563.00	1513.81
563.35	1518.64
563.71	1523.62
564.06	1529.86
564.42	1535.74
564.77	1541.45
565.12	1548.12
565.48	1555.50
565.83	1560.55
566.19	1566.12
566.54	1571.98
566.89	1577.19
567.25	1583.64
567.60	1590.93
567.96	1597.98
568.31	1603.86
568.66	1610.36
569.02	1613.50
569.37	1619.10
569.72	1624.95
570.08	1630.86
570.43	1636.12
570.78	1641.64
571.14	1647.10
571.49	1651.52
571.84	1657.31
572.20	1662.76
572.55	1667.79
572.90	1670.60
573.26	1675.02
573.61	1679.26
573.96	1684.21
574.31	1688.55
574.67	1691.67
575.02	1694.52
575.37	1696.60
575.72	1699.43
576.08	1702.64
576.43	1706.12
576.78	1709.31
577.13	1712.10
577.49	1714.21
577.84	1717.79
578.19	1720.98
578.54	1723.90
578.90	1727.88
579.25	1730.48
579.60	1733.14
579.95	1734.57
580.30	1737.36
580.66	1740.55
581.01	1742.95
581.36	1744.90
581.71	1748.07
582.06	1752.17
582.42	1754.88
582.77	1756.69
583.12	1759.69
583.47	1762.31
583.82	1764.71
584.17	1767.38
584.53	1771.14
584.88	1773.31
585.23	1775.43
585.58	1777.24
585.93	1778.29
586.28	1779.36
586.63	1781.10
586.98	1782.17
587.34	1785.45
587.69	1786.40
588.04	1787.79
588.39	1789.69
588.74	1790.55
589.09	1791.79
589.44	1791.19
589.79	1792.67
590.14	1795.12
590.49	1795.45
590.84	1796.07
591.19	1797.19
591.54	1798.55
591.89	1797.60
592.25	1800.83
592.60	1801.21
592.95	1801.90
593.30	1803.74
593.65	1804.17
594.00	1803.57
594.35	1809.79
594.70	1807.83
595.05	1808.55
595.40	1808.98
595.75	1808.52
596.10	1809.52
596.45	1809.12
596.80	1809.95
597.15	1810.05
597.50	1809.31
597.85	1810.36
598.19	1809.17
598.54	1808.81
598.89	1808.88
599.24	1809.71
599.59	1807.62
599.94	1806.98
600.29	1806.24
600.64	1805.00
600.99	1804.19
601.34	1805.52
601.69	1798.74
602.04	1799.02
602.39	1798.38
602.74	1797.02
603.08	1796.14
603.43	1795.43
603.78	1794.74
604.13	1793.19
604.48	1791.17
604.83	1790.67
605.18	1788.62
605.53	1787.38
605.87	1785.12
606.22	1782.33
606.57	1779.40
606.92	1777.45
607.27	1775.36
607.62	1773.40
607.96	1772.50
608.31	1771.36
608.66	1768.43
609.01	1766.81
609.36	1764.74
609.70	1762.62
610.05	1760.14
610.40	1757.48
610.75	1753.90
611.10	1750.57
611.44	1747.14
611.79	1743.45
612.14	1738.83
612.49	1734.60
612.83	1730.79
613.18	1727.69
613.53	1723.43
613.88	1719.67
614.22	1714.26
614.57	1710.83
614.92	1706.48
615.27	1701.29
615.61	1695.83
615.96	1690.90
616.31	1686.14
616.65	1683.60
617.00	1678.19
617.35	1674.38
617.70	1669.31
618.04	1665.07
618.39	1660.02
618.74	1655.14
619.08	1650.57
619.43	1645.81
619.78	1641.93
620.12	1638.52
620.47	1633.95
620.82	1629.26
621.16	1623.69
621.51	1620.83
621.85	1614.62
622.20	1609.74
622.55	1604.24
622.89	1599.79
623.24	1595.14
623.59	1590.21
623.93	1583.38
624.28	1578.93
624.62	1575.17
624.97	1571.52
625.32	1567.05
625.66	1562.55
626.01	1557.52
626.35	1553.38
626.70	1548.93
627.04	1544.98
627.39	1539.57
627.73	1536.07
628.08	1532.12
628.43	1528.17
628.77	1523.21
629.12	1519.60
629.46	1514.62
629.81	1510.52
630.15	1505.29
630.50	1500.33
630.84	1494.93
631.19	1490.36
631.53	1484.93
631.88	1476.57
632.22	1470.43
632.57	1464.64
632.91	1458.67
633.26	1454.29
633.60	1448.26
633.95	1442.17
634.29	1434.88
634.64	1429.62
634.98	1422.07
635.32	1416.57
635.67	1411.74
636.01	1406.33
636.36	1400.60
636.70	1395.83
637.05	1389.69
637.39	1384.67
637.73	1379.14
638.08	1373.79
638.42	1368.07
638.77	1361.98
639.11	1357.43
639.45	1351.83
639.80	1345.52
640.14	1339.50
640.49	1333.31
640.83	1327.24
641.17	1321.62
641.52	1317.07
641.86	1311.00
642.20	1306.64
642.55	1299.98
642.89	1293.12
643.23	1286.83
643.58	1280.83
643.92	1273.62
644.26	1267.26
644.61	1261.48
644.95	1254.45
645.29	1247.64
645.64	1241.19
645.98	1235.76
646.32	1229.48
646.66	1222.50
647.01	1216.05
647.35	1210.29
647.69	1203.93
648.04	1197.95
648.38	1192.02
648.72	1185.55
649.06	1178.43
649.41	1171.19
649.75	1164.48
650.09	1158.55
650.43	1150.79
650.78	1143.21
651.12	1136.71
651.46	1129.98
651.80	1122.98
652.14	1116.76
652.49	1111.36
652.83	1104.10
653.17	1096.64
653.51	1089.19
653.85	1083.02
654.20	1076.67
654.54	1069.26
654.88	1061.48
655.22	1055.60
655.56	1048.71
655.90	1041.48
656.25	1034.95
656.59	1028.10
656.93	1021.93
657.27	1016.21
657.61	1010.12
657.95	1004.67
658.29	998.38
658.64	993.12
658.98	986.21
659.32	980.21
659.66	973.05
660.00	967.40
660.34	961.81
660.68	956.21
661.02	949.50
661.36	943.60
661.70	938.67
662.05	933.83
662.39	928.07
662.73	922.79
663.07	917.90
663.41	912.36
663.75	906.64
664.09	901.07
664.43	894.02
664.77	888.31
665.11	881.48
665.45	876.26
665.79	870.00
666.13	864.52
666.47	858.45
666.81	853.40
667.15	847.33
667.49	842.19
667.83	837.26
668.17	832.21
668.51	826.93
668.85	821.81
669.19	817.17
669.53	810.45
669.87	804.21
670.21	797.62
670.55	792.05
670.89	787.45
671.23	781.81
671.57	776.98
671.91	771.74
672.25	767.40
672.58	762.45
672.92	757.48
673.26	752.50
673.60	747.26
673.94	742.21
674.28	737.90
674.62	733.00
674.96	727.93
675.30	723.02
675.64	718.50
675.97	713.12
676.31	707.60
676.65	703.40
676.99	699.83
677.33	695.29
677.67	691.36
678.01	686.10
678.34	682.07
678.68	678.05
679.02	673.24
679.36	668.19
679.70	663.12
680.04	658.83
680.37	654.10
680.71	649.88
681.05	646.07
681.39	641.55
681.73	636.79
682.06	632.36
682.40	628.02
682.74	623.57
683.08	619.95
683.42	615.43
683.75	611.33
684.09	606.05
684.43	601.98
684.77	597.00
685.10	592.67
685.44	587.88
685.78	583.14
686.12	579.48
686.45	575.43
686.79	571.43
687.13	567.07
687.46	563.21
687.80	560.07
688.14	555.88
688.48	551.86
688.81	547.81
689.15	544.02
689.49	540.31
689.82	536.86
690.16	532.21
690.50	528.57
690.83	524.50
691.17	520.62
691.51	517.00
691.84	513.79
692.18	510.38
692.52	507.07
692.85	503.76
693.19	500.90
693.52	497.48
693.86	494.02
694.20	491.05
694.53	487.62
694.87	483.14
695.21	479.14
695.54	475.88
695.88	472.29
696.21	468.29
696.55	464.76
696.88	460.95
697.22	457.93
697.56	455.14
697.89	451.74
698.23	449.31
698.56	445.95
698.90	443.24
699.23	440.02
699.57	437.45
699.90	434.52
700.24	430.81
700.58	428.12
700.91	425.74
701.25	424.33
701.58	422.40
701.92	420.95
702.25	418.74
702.59	416.17
702.92	413.74
703.26	411.81
703.59	409.50
703.93	408.95
704.26	406.57
704.60	404.10
704.93	401.64
705.26	399.24
705.60	397.45
705.93	394.79
706.27	393.21
706.60	391.17
706.94	389.57
707.27	387.64
707.61	385.62
707.94	383.02
708.27	379.12
708.61	376.40
708.94	373.90
709.28	371.83
709.61	369.64
709.94	367.95
710.28	365.60
710.61	363.64
710.95	359.98
711.28	359.55
711.61	357.50
711.95	356.48
712.28	354.52
712.61	352.86
712.95	352.21
713.28	351.05
713.61	349.10
713.95	346.60
714.28	345.19
714.61	343.55
714.95	342.00
715.28	340.07
715.61	338.52
715.95	336.81
716.28	335.38
716.61	334.26
716.95	332.50
717.28	330.95
717.61	329.12
717.94	327.57
718.28	324.21
718.61	322.81
718.94	320.71
719.27	319.24
719.61	317.60
719.94	315.52
720.27	313.10
720.60	311.57
720.94	310.50
721.27	309.05
721.60	307.90
721.93	306.64
722.27	306.55
722.60	305.36
722.93	304.14
723.26	302.86
723.59	301.17
723.93	300.12
724.26	299.62
724.59	298.74
724.92	297.69
725.25	297.67
725.59	296.64
725.92	296.38
726.25	295.38
726.58	294.36
726.91	293.33
727.24	292.83
727.57	292.07
727.91	290.86
728.24	289.81
728.57	289.02
728.90	288.45
729.23	287.02
729.56	286.95
729.89	286.10
730.22	285.24
730.55	284.40
730.89	283.52
731.22	282.38
731.55	281.62
731.88	281.24
732.21	279.90
732.54	279.07
732.87	277.86
733.20	277.40
733.53	276.71
733.86	275.86
734.19	274.83
734.52	274.26
734.85	275.17
735.18	274.60
735.51	274.55
735.84	273.88
736.17	273.88
736.50	272.38
736.83	274.05
737.16	273.57
737.49	272.93
737.82	272.43
738.15	272.10
738.48	271.33
738.81	270.38
739.14	269.81
739.47	268.93
739.80	268.31
740.13	267.52
740.46	266.62
740.79	265.88
741.12	265.40
741.45	264.38
741.78	262.48
742.11	262.40
742.44	261.02
742.77	260.79
743.10	259.48
743.43	258.71
743.75	256.00
744.08	258.02
744.41	257.38
744.74	256.71
745.07	255.48
745.40	255.24
745.73	255.76
746.06	255.12
746.39	254.98
746.71	254.57
747.04	254.05
747.37	253.69
747.70	253.79
748.03	253.40
748.36	253.29
748.68	252.93
749.01	251.60
749.34	251.07
749.67	250.57
750.00	250.69
750.33	251.79
750.65	251.62
750.98	248.40
751.31	247.93
751.64	247.62
751.97	248.55
752.29	248.07
752.62	246.62
752.95	246.29
753.28	245.64
753.60	245.00
753.93	244.93
754.26	244.50
754.59	243.43
754.91	242.71
755.24	242.19
755.57	241.76
755.90	241.43
756.22	241.24
756.55	240.50
756.88	239.71
757.20	238.10
757.53	237.00
757.86	236.79
758.19	236.86
758.51	236.45
758.84	235.07
759.17	234.43
759.49	234.36
759.82	235.19
760.15	235.29
760.47	234.88
760.80	234.21
761.13	234.38
761.45	234.14
761.78	233.81
762.11	233.69
762.43	233.21
762.76	233.02
763.08	232.90
763.41	232.71
763.74	232.45
764.06	232.60
764.39	232.83
764.71	232.48
765.04	231.83
765.37	231.60
765.69	231.33
766.02	231.36
766.34	231.02
766.67	230.10
767.00	229.90
767.32	230.90
767.65	232.17
767.97	231.95
768.30	231.93
768.62	231.90
768.95	231.31
769.27	230.98
769.60	231.21
769.92	230.62
770.25	229.88
770.57	229.33
770.90	228.93
771.22	228.36
771.55	228.26
771.87	228.19
772.20	227.83
772.52	229.43
772.85	231.88
773.17	231.74
773.50	231.40
773.82	231.10
774.15	230.05
774.47	228.48
774.80	227.95
775.12	227.76
775.45	227.71
775.77	227.74
776.09	227.90
776.42	227.74
776.74	228.38
777.07	228.64
777.39	228.69
777.72	228.07
778.04	228.38
778.36	227.98
778.69	228.12
779.01	228.24
779.33	226.33
779.66	223.71
779.98	223.21
780.31	223.07
780.63	223.74
780.95	223.83
781.28	223.64
781.60	223.48
781.92	223.33
782.25	223.24
782.57	223.21
782.89	222.93
783.22	222.45
783.54	221.98
783.86	222.19
784.19	221.95
784.51	222.57
784.83	222.00
785.16	222.14
785.48	221.93
785.80	221.88
786.12	222.31
786.45	222.19
786.77	222.45
787.09	222.31
787.42	221.52
787.74	221.45
788.06	221.50
788.38	221.33
788.71	221.02
789.03	220.93
789.35	221.10
789.67	220.88
789.99	221.17
790.32	220.79
790.64	220.52
790.96	222.31
791.28	221.43
791.61	221.31
791.93	221.24
792.25	221.14
792.57	222.40
792.89	221.71
793.21	221.90
793.54	221.55
793.86	221.43
794.18	221.69
794.50	221.33
794.82	221.29
795.14	221.55
795.47	221.95
795.79	221.67
796.11	221.29
796.43	221.07
796.75	221.00
797.07	221.00
797.39	220.93
797.71	219.33
798.04	219.76
798.36	219.98
798.68	219.95
799.00	220.12
799.32	218.93
799.64	219.26
799.96	219.14
800.28	219.62
800.60	219.31
800.92	219.19
801.24	219.07
801.56	219.21
801.89	218.98
802.21	218.95
802.53	218.88
802.85	219.31
803.17	220.45
803.49	219.86
803.81	219.71
804.13	219.50
804.45	219.26
804.77	219.29
805.09	219.26
805.41	218.90
805.73	218.38
806.05	218.10
806.37	218.17
806.69	218.02
807.01	217.83
807.33	217.95
807.65	217.24
807.97	218.07
808.28	217.76
808.60	217.79
808.92	217.64
809.24	218.69
809.56	218.14
809.88	217.29
810.20	217.31
810.52	217.81
810.84	217.55
811.16	217.26
811.48	217.21
811.80	218.14
812.12	218.12
812.43	218.50
812.75	218.74
813.07	218.26
813.39	218.36
813.71	218.07
814.03	217.76
814.35	218.07
814.67	217.31
814.98	217.14
815.30	217.05
815.62	216.67
815.94	215.48
816.26	215.55
816.58	215.31
816.89	215.45
817.21	214.81
817.53	215.12
817.85	215.26
818.17	215.07
818.48	213.86
818.80	214.52
819.12	214.24
819.44	213.86
819.76	213.64
820.07	213.45
820.39	213.43
820.71	213.88
821.03	213.62
821.34	213.52
821.66	214.05
821.98	214.21
822.30	214.12
822.61	215.29
822.93	215.17
823.25	214.95
823.57	214.88
823.88	215.43
824.20	215.24
824.52	215.67
824.83	215.45
825.15	215.38
825.47	215.07
825.79	215.29
826.10	215.02
826.42	215.26
826.74	215.45
827.05	215.45
827.37	215.36
827.69	215.40
828.00	215.36
828.32	215.02
828.64	214.67
828.95	215.71
829.27	215.31
829.58	215.36
829.90	215.74
830.22	216.02
830.53	215.45
830.85	215.33
831.17	214.81
831.48	214.95
831.80	215.21
832.11	215.21
832.43	214.90
832.75	214.67
833.06	215.76
833.38	215.24
833.69	215.12
834.01	214.90
834.32	214.83
834.64	214.74
834.96	214.67
835.27	214.71
835.59	213.95
835.90	213.36
836.22	213.26
836.53	212.83
836.85	212.38
837.16	214.33
837.48	214.43
837.79	215.02
838.11	215.02
838.42	214.86
838.74	215.12
839.05	214.93
839.37	215.17
839.68	213.76
840.00	213.64
840.31	214.10
840.63	214.26
840.94	214.33
841.26	214.14
841.57	214.05
841.88	214.40
842.20	214.24
842.51	213.93
842.83	213.95
843.14	215.90
843.46	216.05
843.77	214.98
844.08	215.00
844.40	214.12
844.71	214.02
845.03	213.83
845.34	213.62
845.65	213.74
845.97	213.93
846.28	214.14
846.60	214.43
846.91	213.83
847.22	213.76
847.54	213.81
847.85	214.07
848.16	214.17
848.48	213.67
848.79	214.50
849.10	214.79
849.42	214.88
849.73	213.02
850.04	212.95
850.36	212.10
850.67	212.45
850.98	212.71
851.30	212.90
851.61	213.05
851.92	212.74
852.23	213.29
852.55	213.26
852.86	213.21
853.17	213.57
853.49	214.10
853.80	214.45
854.11	215.00
854.42	215.21
854.74	215.29
855.05	215.67
855.36	214.62
855.67	214.81
855.99	214.86
856.30	217.36
856.61	217.29
856.92	217.57
857.23	217.43
857.55	217.31
857.86	217.26
858.17	217.50
858.48	217.14
858.79	216.90
859.11	217.05
859.42	217.07
859.73	216.48
860.04	216.33
860.35	215.52
860.66	214.76
860.98	214.60
861.29	214.55
861.60	214.26
861.91	214.98
862.22	214.67
862.53	214.19
862.84	211.79
863.16	212.55
863.47	212.29
863.78	212.10
864.09	212.24
864.40	212.38
864.71	212.45
865.02	213.07
865.33	212.86
865.64	212.57
865.95	212.55
866.27	214.02
866.58	214.02
866.89	214.48
867.20	214.38
867.51	214.12
867.82	214.00
868.13	214.81
868.44	214.12
868.75	214.43
869.06	214.76
869.37	214.88
869.68	214.12
869.99	214.24
870.30	214.36
870.61	214.29
870.92	214.00
871.23	213.69
871.54	213.95
871.85	214.48
872.16	214.76
872.47	214.67
872.78	213.33
873.09	213.62
873.40	213.67
873.71	213.90
874.02	214.00
874.33	213.86
874.64	212.98
874.95	213.38
875.26	212.93
875.56	212.71
875.87	212.64
876.18	212.50
876.49	214.67
876.80	214.55
877.11	214.45
877.42	214.55
877.73	214.69
878.04	214.24
878.35	214.07
878.66	214.38
878.96	214.36
879.27	214.48
879.58	214.00
879.89	213.81
880.20	214.50
880.51	214.40
880.82	214.40
881.12	214.71
881.43	214.40
881.74	214.21
882.05	214.31
882.36	214.45
882.67	214.83
882.97	212.52
883.28	212.45
883.59	212.43
883.90	212.52
884.21	212.62
884.51	212.45
884.82	212.02
885.13	211.52
885.44	211.48
885.74	211.40
886.05	211.36
886.36	211.55
886.67	210.55
886.98	211.50
887.28	211.79
887.59	211.76
887.90	211.79
888.20	211.95
888.51	212.36
888.82	212.02
889.13	212.10
889.43	213.62
889.74	213.50
890.05	213.45
890.35	213.14
890.66	212.88
890.97	212.79
891.28	212.50
891.58	212.67
891.89	212.71
892.20	212.36
892.50	212.40
892.81	212.07
893.12	212.14
893.42	211.24
893.73	211.10
894.04	211.17
894.34	211.21
894.65	211.17
894.95	210.88
895.26	211.07
895.57	211.95
895.87	210.26
896.18	210.52
896.48	210.76
896.79	211.05
897.10	211.52
897.40	211.55
897.71	212.00
898.01	211.93
898.32	212.00
898.63	212.31
898.93	212.14
899.24	212.02
899.54	211.95
899.85	211.90
900.15	211.90
900.46	211.86
900.76	211.93
901.07	211.83
901.38	211.64
901.68	211.74
901.99	210.52
902.29	210.69
902.60	210.60
902.90	210.33
903.21	210.07
903.51	209.81
903.82	210.38
904.12	210.45
904.43	210.57
904.73	210.40
905.03	210.45
905.34	212.40
905.64	212.31
905.95	212.43
906.25	212.48
906.56	212.38
906.86	212.12
907.17	212.05
907.47	212.14
907.77	211.88
908.08	211.57
908.38	211.93
908.69	212.10
908.99	212.40
909.30	212.62
909.60	212.81
909.90	212.83
910.21	212.26
910.51	211.86
910.81	211.93
911.12	212.29
911.42	212.19
911.73	210.38
912.03	210.76
912.33	211.17
912.64	211.10
912.94	211.00
913.24	210.88
913.55	210.83
913.85	210.69
914.15	211.52
914.46	211.71
914.76	211.29
915.06	211.19
915.37	210.74
915.67	210.52
915.97	210.57
916.27	210.21
916.58	210.31
916.88	210.31
917.18	209.93
917.49	211.33
917.79	211.36
918.09	211.74
918.39	212.29
918.70	212.12
919.00	212.14
919.30	213.10
919.60	213.07
919.91	212.81
920.21	213.14
920.51	212.33
920.81	212.29
921.12	212.83
921.42	212.81
921.72	212.93
922.02	212.88
922.32	213.19
922.63	213.33
922.93	214.50
923.23	214.76
923.53	214.67
923.83	212.88
924.13	212.98
924.44	212.93
924.74	213.26
925.04	213.52
925.34	213.38
925.64	212.62
925.94	212.74
926.24	214.00
926.55	213.71
926.85	214.24
927.15	213.95
927.45	213.95
927.75	213.90
928.05	213.88
928.35	214.07
928.65	214.10
928.95	214.29
929.26	213.29
929.56	213.64
929.86	214.02
930.16	214.02
930.46	213.86
930.76	213.64
931.06	212.48
931.36	211.83
931.66	212.21
931.96	212.17
932.26	212.21
932.56	211.26
932.86	211.43
933.16	211.29
933.46	211.31
933.76	210.90
934.06	211.31
934.36	212.14
934.66	212.24
934.96	211.98
935.26	212.10
935.56	212.24
935.86	211.74
936.16	211.48
936.46	211.57
936.76	211.60
937.06	211.52
937.36	211.90
937.66	212.10
937.96	212.00
938.26	211.86
938.56	211.67
938.86	211.86
939.16	212.14
939.46	212.29
939.76	212.64
940.06	212.57
940.35	212.14
940.65	210.93
940.95	210.93
941.25	210.57
941.55	210.00
941.85	209.67
942.15	210.10
942.45	210.67
942.75	210.52
943.04	210.67
943.34	211.02
943.64	210.67
943.94	210.57
944.24	210.64
944.54	210.83
944.84	210.71
945.13	210.29
945.43	210.00
945.73	209.93
946.03	209.64
946.33	209.43
946.62	209.40
946.92	209.60
947.22	209.83
947.52	209.86
947.82	210.21
948.11	210.40
948.41	210.05
948.71	209.29
949.01	209.26
949.31	209.02
949.60	209.07
949.90	209.29
950.20	209.21
950.50	209.17
950.79	209.02
951.09	209.48
951.39	209.57
951.69	209.40
951.98	209.76
952.28	209.81
952.58	209.98
952.87	210.00
953.17	210.45
953.47	209.98
953.76	210.12
954.06	209.98
954.36	209.74
954.66	209.48
954.95	210.19
955.25	210.52
955.55	210.67
955.84	210.07
956.14	210.24
956.44	210.45
956.73	210.24
957.03	210.50
957.32	210.21
957.62	210.21
957.92	210.57
958.21	210.31
958.51	212.62
958.81	212.71
959.10	213.02
959.40	213.36
959.69	213.50
959.99	213.69
960.29	213.79
960.58	213.74
960.88	214.74
961.17	214.38
961.47	214.71
961.76	214.52
962.06	215.07
962.36	215.07
962.65	215.00
962.95	215.17
963.24	214.93
963.54	215.17
963.83	215.38
964.13	215.31
964.42	214.95
964.72	213.33
965.01	213.45
965.31	213.31
965.60	212.86
965.90	214.17
966.19	213.67
966.49	213.67
966.78	213.74
967.08	213.40
967.37	213.64
967.67	213.12
967.96	213.67
968.26	213.52
968.55	213.81
968.85	213.62
969.14	213.33
969.43	213.33
969.73	213.10
970.02	212.74
970.32	212.45
970.61	212.19
970.91	211.36
971.20	211.26
971.49	211.02
971.79	211.02
972.08	209.57
972.38	209.81
972.67	209.74
972.96	209.98
973.26	209.55
973.55	209.95
973.85	210.05
974.14	209.93
974.43	209.93
974.73	209.45
975.02	209.45
975.31	209.71
975.61	209.69
975.90	209.62
976.19	209.71
976.49	210.14
976.78	210.57
977.07	210.79
977.37	210.81
977.66	211.00
977.95	210.79
978.24	210.86
978.54	211.50
978.83	211.40
979.12	211.12
979.42	211.26
979.71	210.83
980.00	210.71
980.29	210.60
980.59	210.29
980.88	210.86
981.17	211.02
981.46	211.10
981.76	210.86
982.05	211.50
982.34	211.64
982.63	211.64
982.93	211.64
983.22	212.14
983.51	212.00
983.80	212.21
984.09	212.31
984.39	212.17
984.68	211.60
984.97	211.57
985.26	211.48
985.55	211.64
985.85	211.29
986.14	211.71
986.43	211.79
986.72	211.67
987.01	210.98
987.30	211.05
987.59	210.71
987.89	210.86
988.18	210.14
988.47	210.02
988.76	209.79
989.05	209.64
989.34	209.40
989.63	210.12
989.92	209.67
990.22	209.48
990.51	209.60
990.80	209.69
991.09	209.88
991.38	210.14
991.67	209.83
991.96	209.76
992.25	209.45
992.54	209.21
992.83	209.29
993.12	209.31
993.41	209.50
993.70	210.45
993.99	210.76
994.28	211.31
994.58	211.71
994.87	211.38
995.16	211.26
995.45	211.17
995.74	210.31
996.03	210.81
996.32	211.36
996.61	211.95
996.90	211.76
997.19	211.67
997.48	211.71
997.77	211.74
998.06	212.00
998.34	211.76
998.63	211.74
998.92	211.86
999.21	212.38
999.50	212.21
999.79	211.45
1000.08	211.36
1000.37	211.14
1000.66	210.71
1000.95	211.24
1001.24	211.40
1001.53	211.55
1001.82	211.52
1002.11	210.98
1002.40	210.93
1002.68	211.10
1002.97	212.55
1003.26	212.38
1003.55	212.05
1003.84	211.90
1004.13	212.31
1004.42	212.50
1004.71	212.57
1004.99	212.31
1005.28	212.76
1005.57	212.55
1005.86	212.48
1006.15	212.52
1006.44	212.40
1006.72	212.71
1007.01	212.50
1007.30	212.40
1007.59	212.29
1007.88	212.40
1008.17	212.69
1008.45	212.21
1008.74	211.43
1009.03	210.36
1009.32	210.36
1009.60	210.48
1009.89	210.48
1010.18	209.81
1010.47	209.81
1010.76	209.83
1011.04	209.95
1011.33	209.86
1011.62	210.48
1011.91	210.43
1012.19	210.48
1012.48	210.52
1012.77	210.45
1013.05	211.33
1013.34	211.43
1013.63	211.19
1013.92	211.19
1014.20	210.93
1014.49	211.24
1014.78	211.45
1015.06	210.98
1015.35	210.88
1015.64	211.10
1015.92	211.55
1016.21	211.64
1016.50	211.60
1016.78	211.95
1017.07	212.17
1017.36	211.64
1017.64	210.98
1017.93	211.55
1018.22	211.36
1018.50	211.31
1018.79	211.24
1019.08	210.38
1019.36	210.45
1019.65	210.50
1019.93	211.10
1020.22	211.57
1020.51	212.50
1020.79	212.38
1021.08	209.00
1021.36	208.50
1021.65	211.50
1021.94	210.50
1022.22	210.50
1022.51	209.50
1022.79	219.00
1023.08	216.00
1023.36	233.50
1023.65	208.00
>>>>>End Processed Spectral Data<<<<<
