SpectraSuite Data File
++++++++++++++++++++++++++++++++++++
Date: Tue Apr 02 18:42:17 EDT 2013
User: group
Dark Spectrum Present: No
Reference Spectrum Present: No
Number of Sampled Component Spectra: 1
Spectrometers: USB2E7196
Integration Time (usec): 580000 (USB2E7196)
Spectra Averaged: 2 (USB2E7196)
Boxcar Smoothing: 10 (USB2E7196)
Correct for Electrical Dark: No (USB2E7196)
Strobe/Lamp Enabled: No (USB2E7196)
Correct for Detector Non-linearity: No (USB2E7196)
Correct for Stray Light: No (USB2E7196)
Number of Pixels in Processed Spectrum: 2048
>>>>>Begin Processed Spectral Data<<<<<
339.09	0.00
339.48	192.50
339.86	199.00
340.24	197.00
340.63	201.00
341.01	235.50
341.39	204.50
341.78	209.50
342.16	211.00
342.54	209.00
342.93	199.12
343.31	208.81
343.69	209.36
344.07	209.57
344.46	210.29
344.84	210.55
345.22	209.10
345.60	209.43
345.99	209.48
346.37	209.36
346.75	209.00
347.13	209.02
347.52	209.10
347.90	209.76
348.28	209.48
348.66	209.95
349.05	209.17
349.43	209.29
349.81	209.24
350.19	209.48
350.57	209.48
350.96	209.45
351.34	209.71
351.72	209.83
352.10	209.88
352.48	209.76
352.87	209.60
353.25	209.67
353.63	209.43
354.01	209.17
354.39	209.17
354.77	209.40
355.15	209.93
355.54	209.90
355.92	209.19
356.30	209.45
356.68	210.71
357.06	210.81
357.44	210.38
357.82	210.29
358.20	210.95
358.58	210.98
358.97	210.93
359.35	211.38
359.73	212.00
360.11	212.12
360.49	212.19
360.87	212.48
361.25	212.71
361.63	213.33
362.01	213.64
362.39	213.69
362.77	213.98
363.15	213.81
363.53	213.83
363.91	214.00
364.29	213.95
364.67	212.05
365.05	212.21
365.43	212.62
365.81	213.14
366.19	213.45
366.57	214.26
366.95	214.31
367.33	213.76
367.71	213.43
368.09	213.88
368.47	213.88
368.85	213.71
369.23	214.45
369.61	213.88
369.99	214.31
370.37	214.76
370.75	215.98
371.13	215.69
371.51	215.43
371.89	215.74
372.27	215.69
372.65	215.88
373.03	216.02
373.41	216.02
373.78	215.83
374.16	214.86
374.54	214.36
374.92	214.26
375.30	214.45
375.68	214.24
376.06	214.36
376.44	214.24
376.82	214.69
377.19	214.43
377.57	214.40
377.95	213.90
378.33	213.74
378.71	212.43
379.09	212.79
379.47	213.19
379.84	212.90
380.22	213.05
380.60	212.98
380.98	212.76
381.36	212.69
381.73	212.31
382.11	212.64
382.49	212.71
382.87	212.60
383.25	212.79
383.62	215.38
384.00	215.05
384.38	215.12
384.76	215.24
385.13	215.76
385.51	215.95
385.89	215.81
386.27	215.64
386.64	215.90
387.02	215.64
387.40	215.45
387.78	215.67
388.15	215.81
388.53	215.64
388.91	215.79
389.29	215.60
389.66	216.07
390.04	215.74
390.42	216.12
390.79	216.31
391.17	216.14
391.55	213.52
391.92	213.55
392.30	213.74
392.68	213.43
393.05	213.29
393.43	213.33
393.81	213.69
394.18	213.50
394.56	213.45
394.94	213.83
395.31	213.62
395.69	214.14
396.06	214.36
396.44	214.64
396.82	214.57
397.19	215.57
397.57	215.45
397.95	215.79
398.32	215.10
398.70	215.26
399.07	215.67
399.45	215.76
399.82	215.69
400.20	215.57
400.58	215.64
400.95	215.02
401.33	215.43
401.70	216.98
402.08	217.12
402.45	217.29
402.83	217.88
403.20	218.24
403.58	218.07
403.95	218.52
404.33	218.98
404.71	219.33
405.08	220.29
405.46	220.31
405.83	220.76
406.21	221.29
406.58	221.64
406.96	221.95
407.33	222.62
407.70	223.45
408.08	225.50
408.45	226.19
408.83	227.31
409.20	227.69
409.58	227.00
409.95	228.24
410.33	229.02
410.70	229.29
411.08	230.29
411.45	231.29
411.82	232.05
412.20	233.74
412.57	236.02
412.95	235.90
413.32	238.00
413.69	239.40
414.07	241.05
414.44	243.02
414.82	245.07
415.19	247.50
415.56	249.52
415.94	250.74
416.31	253.88
416.68	256.50
417.06	259.76
417.43	263.19
417.81	266.52
418.18	270.40
418.55	274.55
418.93	278.76
419.30	282.95
419.67	287.52
420.04	291.67
420.42	295.74
420.79	303.33
421.16	308.95
421.54	316.19
421.91	322.40
422.28	328.67
422.66	335.29
423.03	343.33
423.40	350.60
423.77	358.21
424.15	365.21
424.52	372.71
424.89	381.05
425.26	388.83
425.64	397.00
426.01	405.52
426.38	414.38
426.75	424.48
427.13	433.93
427.50	444.02
427.87	454.00
428.24	463.98
428.61	472.07
428.99	483.24
429.36	493.98
429.73	505.33
430.10	516.88
430.47	529.19
430.85	539.90
431.22	552.17
431.59	567.26
431.96	580.52
432.33	595.21
432.70	609.50
433.08	625.90
433.45	641.07
433.82	656.50
434.19	673.57
434.56	690.05
434.93	705.93
435.30	721.26
435.68	739.83
436.05	757.60
436.42	775.05
436.79	791.52
437.16	808.60
437.53	827.00
437.90	844.64
438.27	862.29
438.64	880.62
439.01	898.69
439.38	912.55
439.75	927.55
440.13	944.50
440.50	960.43
440.87	974.17
441.24	987.24
441.61	1001.83
441.98	1013.17
442.35	1024.64
442.72	1038.10
443.09	1051.98
443.46	1059.12
443.83	1064.79
444.20	1069.17
444.57	1074.90
444.94	1078.24
445.31	1081.95
445.68	1088.40
446.05	1089.62
446.42	1088.24
446.79	1086.29
447.16	1084.38
447.53	1083.12
447.90	1076.88
448.27	1070.95
448.64	1061.00
449.01	1054.81
449.37	1043.40
449.74	1032.48
450.11	1021.43
450.48	1006.40
450.85	990.21
451.22	977.17
451.59	964.88
451.96	953.60
452.33	937.86
452.70	923.36
453.07	905.90
453.43	885.40
453.80	868.62
454.17	852.52
454.54	837.55
454.91	820.81
455.28	804.45
455.65	789.10
456.02	776.74
456.38	764.05
456.75	748.62
457.12	735.00
457.49	721.45
457.86	707.43
458.23	697.21
458.59	685.74
458.96	673.57
459.33	662.67
459.70	652.07
460.07	643.71
460.43	633.74
460.80	624.79
461.17	617.57
461.54	609.26
461.91	601.21
462.27	592.17
462.64	585.21
463.01	577.69
463.38	571.19
463.74	560.21
464.11	553.71
464.48	547.69
464.85	541.62
465.21	537.52
465.58	532.40
465.95	525.79
466.32	520.60
466.68	515.40
467.05	510.52
467.42	505.60
467.78	499.95
468.15	495.17
468.52	491.55
468.88	485.98
469.25	481.38
469.62	477.95
469.98	474.50
470.35	470.57
470.72	466.71
471.08	462.31
471.45	459.76
471.82	457.02
472.18	453.79
472.55	451.26
472.92	446.98
473.28	443.95
473.65	440.95
474.02	438.07
474.38	436.21
474.75	434.07
475.11	431.52
475.48	430.05
475.85	428.29
476.21	426.57
476.58	425.76
476.94	424.64
477.31	423.33
477.67	421.76
478.04	421.10
478.41	420.57
478.77	421.40
479.14	420.05
479.50	419.40
479.87	418.67
480.23	418.71
480.60	418.38
480.96	418.12
481.33	418.93
481.69	418.93
482.06	419.07
482.42	419.24
482.79	419.62
483.15	419.50
483.52	420.40
483.88	420.31
484.25	420.21
484.61	421.24
484.98	421.86
485.34	423.79
485.71	425.17
486.07	426.38
486.44	426.26
486.80	427.76
487.17	429.38
487.53	431.95
487.90	433.57
488.26	436.52
488.62	439.38
488.99	441.24
489.35	443.79
489.72	446.45
490.08	449.19
490.44	451.69
490.81	455.26
491.17	458.00
491.54	461.38
491.90	465.43
492.26	468.83
492.63	472.83
492.99	475.71
493.36	479.71
493.72	484.02
494.08	488.21
494.45	493.12
494.81	498.48
495.17	503.07
495.54	508.38
495.90	512.83
496.26	517.79
496.63	523.24
496.99	529.00
497.35	534.95
497.72	540.90
498.08	546.83
498.44	552.48
498.80	559.40
499.17	566.21
499.53	572.50
499.89	579.43
500.26	585.55
500.62	593.26
500.98	600.38
501.34	607.83
501.71	615.60
502.07	622.57
502.43	628.88
502.79	636.50
503.16	643.79
503.52	651.07
503.88	658.33
504.24	666.05
504.60	673.33
504.97	681.43
505.33	689.24
505.69	698.21
506.05	706.69
506.41	713.90
506.78	721.07
507.14	728.55
507.50	736.29
507.86	744.55
508.22	751.90
508.59	759.33
508.95	767.02
509.31	775.69
509.67	783.90
510.03	791.86
510.39	799.10
510.75	806.71
511.12	814.81
511.48	823.02
511.84	830.00
512.20	837.38
512.56	844.00
512.92	851.45
513.28	858.57
513.64	865.81
514.00	873.31
514.37	880.57
514.73	888.36
515.09	895.88
515.45	903.12
515.81	910.50
516.17	917.38
516.53	924.05
516.89	929.60
517.25	936.33
517.61	943.69
517.97	949.64
518.33	956.36
518.69	962.79
519.05	969.19
519.41	976.10
519.77	984.05
520.13	990.40
520.49	996.48
520.85	1002.07
521.21	1008.86
521.57	1014.69
521.93	1020.33
522.29	1026.12
522.65	1030.98
523.01	1036.64
523.37	1042.02
523.73	1047.26
524.09	1052.45
524.45	1057.29
524.81	1062.14
525.17	1066.93
525.53	1072.76
525.89	1077.50
526.25	1083.02
526.61	1087.48
526.97	1091.76
527.33	1094.93
527.68	1101.45
528.04	1105.43
528.40	1109.38
528.76	1113.57
529.12	1118.55
529.48	1123.88
529.84	1127.90
530.20	1132.60
530.56	1137.10
530.91	1141.43
531.27	1146.40
531.63	1150.86
531.99	1155.38
532.35	1159.17
532.71	1162.57
533.07	1167.17
533.42	1173.81
533.78	1177.69
534.14	1181.76
534.50	1186.07
534.86	1191.55
535.21	1193.64
535.57	1198.40
535.93	1202.79
536.29	1207.24
536.65	1211.48
537.00	1214.64
537.36	1218.17
537.72	1221.57
538.08	1225.33
538.44	1228.21
538.79	1231.17
539.15	1234.05
539.51	1237.55
539.87	1241.79
540.22	1245.64
540.58	1249.02
540.94	1250.43
541.29	1253.29
541.65	1255.81
542.01	1259.00
542.37	1261.60
542.72	1264.19
543.08	1265.90
543.44	1269.12
543.79	1270.50
544.15	1273.07
544.51	1277.10
544.87	1280.79
545.22	1284.67
545.58	1287.64
545.94	1290.60
546.29	1293.88
546.65	1297.48
547.01	1299.88
547.36	1302.81
547.72	1305.57
548.07	1308.12
548.43	1309.50
548.79	1311.95
549.14	1315.17
549.50	1318.55
549.86	1320.76
550.21	1324.00
550.57	1328.02
550.92	1330.81
551.28	1334.81
551.64	1337.88
551.99	1339.95
552.35	1342.26
552.70	1344.45
553.06	1347.10
553.41	1350.57
553.77	1355.86
554.13	1359.88
554.48	1364.24
554.84	1368.02
555.19	1372.17
555.55	1376.69
555.90	1381.38
556.26	1385.57
556.61	1389.57
556.97	1392.50
557.32	1396.64
557.68	1401.00
558.03	1405.74
558.39	1409.60
558.74	1413.29
559.10	1417.14
559.45	1422.05
559.81	1427.24
560.16	1432.31
560.52	1437.17
560.87	1441.81
561.23	1444.31
561.58	1449.74
561.94	1453.50
562.29	1457.79
562.64	1462.62
563.00	1466.48
563.35	1471.64
563.71	1477.17
564.06	1481.95
564.42	1487.48
564.77	1493.19
565.12	1499.43
565.48	1505.45
565.83	1511.40
566.19	1516.62
566.54	1522.12
566.89	1526.98
567.25	1532.95
567.60	1539.83
567.96	1547.12
568.31	1553.86
568.66	1560.33
569.02	1564.29
569.37	1569.69
569.72	1575.05
570.08	1579.90
570.43	1585.17
570.78	1590.55
571.14	1595.43
571.49	1600.12
571.84	1605.55
572.20	1610.07
572.55	1614.26
572.90	1617.38
573.26	1621.57
573.61	1627.05
573.96	1631.83
574.31	1636.69
574.67	1640.02
575.02	1642.95
575.37	1644.79
575.72	1647.52
576.08	1651.64
576.43	1654.95
576.78	1659.43
577.13	1662.83
577.49	1665.26
577.84	1669.02
578.19	1672.48
578.54	1676.64
578.90	1680.74
579.25	1684.31
579.60	1687.19
579.95	1690.07
580.30	1693.71
580.66	1697.26
581.01	1700.26
581.36	1702.36
581.71	1705.45
582.06	1709.81
582.42	1712.67
582.77	1715.43
583.12	1718.05
583.47	1720.12
583.82	1723.67
584.17	1726.26
584.53	1730.76
584.88	1734.40
585.23	1737.07
585.58	1739.62
585.93	1740.55
586.28	1743.57
586.63	1745.05
586.98	1748.31
587.34	1750.98
587.69	1752.95
588.04	1755.71
588.39	1757.12
588.74	1758.74
589.09	1759.86
589.44	1759.36
589.79	1761.38
590.14	1763.74
590.49	1764.88
590.84	1765.36
591.19	1766.40
591.54	1767.12
591.89	1765.95
592.25	1768.76
592.60	1769.60
592.95	1769.74
593.30	1771.21
593.65	1770.79
594.00	1771.40
594.35	1777.67
594.70	1777.57
595.05	1778.43
595.40	1777.86
595.75	1778.07
596.10	1779.43
596.45	1780.17
596.80	1781.07
597.15	1781.10
597.50	1781.07
597.85	1782.76
598.19	1784.07
598.54	1783.95
598.89	1784.14
599.24	1785.40
599.59	1784.48
599.94	1784.52
600.29	1785.21
600.64	1785.67
600.99	1785.90
601.34	1787.26
601.69	1780.79
602.04	1779.79
602.39	1779.17
602.74	1779.67
603.08	1778.67
603.43	1778.88
603.78	1778.55
604.13	1778.40
604.48	1777.38
604.83	1777.17
605.18	1776.88
605.53	1775.52
605.87	1775.31
606.22	1773.90
606.57	1772.40
606.92	1770.93
607.27	1769.50
607.62	1768.10
607.96	1767.50
608.31	1767.45
608.66	1765.38
609.01	1763.17
609.36	1762.50
609.70	1759.83
610.05	1757.14
610.40	1755.40
610.75	1752.33
611.10	1750.26
611.44	1747.36
611.79	1744.48
612.14	1741.24
612.49	1736.55
612.83	1733.21
613.18	1729.29
613.53	1726.00
613.88	1722.55
614.22	1718.36
614.57	1714.40
614.92	1710.26
615.27	1705.21
615.61	1699.60
615.96	1695.12
616.31	1691.98
616.65	1688.79
617.00	1685.86
617.35	1682.95
617.70	1679.38
618.04	1675.67
618.39	1671.21
618.74	1667.31
619.08	1663.64
619.43	1659.74
619.78	1656.43
620.12	1652.60
620.47	1648.83
620.82	1644.57
621.16	1639.43
621.51	1636.48
621.85	1631.69
622.20	1627.12
622.55	1622.79
622.89	1619.24
623.24	1616.00
623.59	1611.21
623.93	1605.86
624.28	1601.81
624.62	1598.43
624.97	1594.86
625.32	1590.43
625.66	1586.43
626.01	1581.93
626.35	1577.81
626.70	1572.93
627.04	1569.19
627.39	1564.86
627.73	1560.83
628.08	1557.48
628.43	1553.62
628.77	1548.36
629.12	1545.79
629.46	1542.43
629.81	1538.26
630.15	1533.02
630.50	1527.43
630.84	1522.31
631.19	1517.12
631.53	1511.57
631.88	1503.19
632.22	1496.57
632.57	1491.79
632.91	1486.48
633.26	1482.36
633.60	1476.52
633.95	1471.36
634.29	1464.31
634.64	1459.02
634.98	1453.26
635.32	1448.71
635.67	1444.88
636.01	1439.83
636.36	1433.40
636.70	1428.43
637.05	1423.14
637.39	1418.45
637.73	1413.50
638.08	1409.88
638.42	1405.62
638.77	1400.71
639.11	1396.88
639.45	1392.02
639.80	1385.76
640.14	1380.19
640.49	1372.90
640.83	1367.26
641.17	1361.12
641.52	1356.52
641.86	1350.98
642.20	1346.48
642.55	1339.43
642.89	1332.83
643.23	1327.00
643.58	1322.10
643.92	1315.43
644.26	1309.21
644.61	1302.55
644.95	1295.40
645.29	1288.07
645.64	1281.74
645.98	1275.57
646.32	1269.88
646.66	1263.38
647.01	1256.71
647.35	1251.29
647.69	1246.52
648.04	1241.12
648.38	1235.62
648.72	1229.52
649.06	1222.90
649.41	1215.45
649.75	1209.33
650.09	1202.81
650.43	1195.79
650.78	1188.02
651.12	1180.67
651.46	1173.81
651.80	1168.02
652.14	1161.98
652.49	1155.95
652.83	1148.95
653.17	1141.86
653.51	1134.50
653.85	1127.95
654.20	1121.38
654.54	1113.79
654.88	1106.12
655.22	1099.21
655.56	1092.26
655.90	1085.31
656.25	1079.07
656.59	1072.95
656.93	1066.10
657.27	1060.07
657.61	1053.52
657.95	1047.64
658.29	1041.45
658.64	1035.86
658.98	1028.74
659.32	1022.07
659.66	1015.71
660.00	1009.38
660.34	1003.21
660.68	996.50
661.02	990.21
661.36	984.26
661.70	978.29
662.05	972.79
662.39	966.83
662.73	961.74
663.07	956.64
663.41	950.71
663.75	944.64
664.09	939.05
664.43	931.90
664.77	926.52
665.11	920.26
665.45	915.29
665.79	908.98
666.13	903.48
666.47	897.60
666.81	891.67
667.15	885.74
667.49	880.83
667.83	876.24
668.17	870.40
668.51	865.43
668.85	860.60
669.19	856.10
669.53	849.71
669.87	843.19
670.21	836.50
670.55	829.98
670.89	824.83
671.23	819.76
671.57	815.05
671.91	809.93
672.25	804.86
672.58	799.95
672.92	794.60
673.26	789.38
673.60	784.60
673.94	779.62
674.28	775.12
674.62	769.90
674.96	764.60
675.30	760.43
675.64	755.83
675.97	750.71
676.31	744.88
676.65	740.31
676.99	736.76
677.33	732.21
677.67	728.95
678.01	723.69
678.34	718.69
678.68	714.14
679.02	708.93
679.36	704.07
679.70	698.62
680.04	693.67
680.37	688.86
680.71	684.26
681.05	679.50
681.39	675.07
681.73	670.19
682.06	665.62
682.40	660.81
682.74	655.88
683.08	651.79
683.42	646.95
683.75	642.90
684.09	637.67
684.43	633.40
684.77	628.33
685.10	624.00
685.44	619.74
685.78	615.29
686.12	611.45
686.45	607.19
686.79	603.14
687.13	599.67
687.46	595.67
687.80	592.05
688.14	587.98
688.48	583.74
688.81	579.64
689.15	576.00
689.49	572.26
689.82	568.33
690.16	562.98
690.50	559.40
690.83	555.24
691.17	550.83
691.51	547.07
691.84	543.67
692.18	539.86
692.52	535.98
692.85	532.79
693.19	529.93
693.52	526.43
693.86	522.48
694.20	518.33
694.53	515.24
694.87	511.36
695.21	507.26
695.54	503.55
695.88	499.88
696.21	495.67
696.55	492.12
696.88	488.93
697.22	486.00
697.56	482.64
697.89	478.71
698.23	476.02
698.56	472.88
698.90	469.45
699.23	465.95
699.57	462.69
699.90	458.95
700.24	455.38
700.58	452.36
700.91	449.83
701.25	448.74
701.58	446.21
701.92	444.02
702.25	441.60
702.59	438.90
702.92	436.26
703.26	433.81
703.59	430.95
703.93	429.86
704.26	427.26
704.60	425.07
704.93	422.90
705.26	420.19
705.60	417.83
705.93	414.83
706.27	413.05
706.60	411.21
706.94	410.02
707.27	407.05
707.61	404.52
707.94	401.88
708.27	397.98
708.61	395.38
708.94	392.83
709.28	390.79
709.61	388.40
709.94	386.48
710.28	384.60
710.61	382.57
710.95	378.52
711.28	377.88
711.61	375.38
711.95	373.86
712.28	372.12
712.61	369.90
712.95	369.48
713.28	368.14
713.61	366.00
713.95	363.14
714.28	361.55
714.61	359.95
714.95	358.10
715.28	356.05
715.61	353.86
715.95	352.14
716.28	350.05
716.61	348.55
716.95	346.38
717.28	344.43
717.61	342.88
717.94	341.43
718.28	338.19
718.61	336.76
718.94	334.83
719.27	332.93
719.61	331.40
719.94	329.07
720.27	326.83
720.60	325.21
720.94	324.31
721.27	322.81
721.60	321.93
721.93	320.48
722.27	320.07
722.60	318.79
722.93	317.07
723.26	316.07
723.59	314.57
723.93	313.95
724.26	313.12
724.59	311.81
724.92	310.71
725.25	310.40
725.59	309.12
725.92	308.12
726.25	307.19
726.58	306.52
726.91	305.48
727.24	304.52
727.57	303.48
727.91	301.62
728.24	300.67
728.57	299.14
728.90	298.40
729.23	296.55
729.56	296.55
729.89	295.62
730.22	294.52
730.55	293.62
730.89	292.71
731.22	291.29
731.55	290.10
731.88	289.17
732.21	287.79
732.54	286.67
732.87	285.60
733.20	284.76
733.53	283.62
733.86	282.88
734.19	281.86
734.52	281.24
734.85	282.17
735.18	280.95
735.51	281.17
735.84	280.69
736.17	280.62
736.50	278.83
736.83	280.52
737.16	279.83
737.49	279.24
737.82	278.14
738.15	278.07
738.48	277.48
738.81	276.76
739.14	275.88
739.47	275.05
739.80	274.60
740.13	274.19
740.46	273.21
740.79	271.98
741.12	270.98
741.45	270.14
741.78	267.95
742.11	268.24
742.44	266.74
742.77	266.10
743.10	265.29
743.43	264.52
743.75	261.64
744.08	263.79
744.41	263.21
744.74	262.45
745.07	261.10
745.40	260.93
745.73	260.95
746.06	260.31
746.39	260.19
746.71	259.36
747.04	258.36
747.37	257.76
747.70	258.07
748.03	257.98
748.36	257.67
748.68	257.40
749.01	256.17
749.34	255.62
749.67	254.86
750.00	254.45
750.33	255.79
750.65	255.81
750.98	252.43
751.31	251.93
751.64	251.64
751.97	252.69
752.29	252.00
752.62	250.74
752.95	250.62
753.28	249.95
753.60	249.50
753.93	249.67
754.26	249.50
754.59	248.14
754.91	247.36
755.24	246.76
755.57	246.26
755.90	245.93
756.22	245.52
756.55	245.07
756.88	244.26
757.20	242.48
757.53	241.26
757.86	241.07
758.19	240.76
758.51	240.14
758.84	238.52
759.17	238.21
759.49	238.07
759.82	238.55
760.15	238.36
760.47	237.98
760.80	236.88
761.13	236.76
761.45	236.43
761.78	236.50
762.11	236.21
762.43	235.74
762.76	235.55
763.08	235.40
763.41	235.26
763.74	235.14
764.06	234.88
764.39	234.79
764.71	234.40
765.04	233.86
765.37	233.74
765.69	233.45
766.02	232.81
766.34	232.33
766.67	231.24
767.00	231.43
767.32	232.36
767.65	233.74
767.97	233.45
768.30	233.50
768.62	232.98
768.95	232.71
769.27	232.62
769.60	232.40
769.92	232.00
770.25	231.64
770.57	231.29
770.90	231.00
771.22	230.60
771.55	230.67
771.87	230.45
772.20	230.21
772.52	231.76
772.85	234.12
773.17	234.21
773.50	233.76
773.82	233.07
774.15	232.02
774.47	230.33
774.80	230.02
775.12	229.81
775.45	229.48
775.77	229.21
776.09	229.05
776.42	229.12
776.74	229.40
777.07	229.17
777.39	229.10
777.72	228.69
778.04	228.55
778.36	228.19
778.69	228.31
779.01	228.14
779.33	226.40
779.66	224.24
779.98	223.81
780.31	223.74
780.63	224.62
780.95	224.62
781.28	224.64
781.60	224.31
781.92	224.12
782.25	224.17
782.57	224.29
782.89	224.05
783.22	223.62
783.54	223.26
783.86	223.14
784.19	222.74
784.51	223.38
784.83	223.14
785.16	222.95
785.48	222.86
785.80	222.69
786.12	222.64
786.45	222.31
786.77	222.24
787.09	222.21
787.42	221.38
787.74	221.50
788.06	221.38
788.38	221.24
788.71	221.02
789.03	221.14
789.35	221.24
789.67	220.88
789.99	220.79
790.32	220.40
790.64	220.79
790.96	222.48
791.28	221.50
791.61	221.50
791.93	221.38
792.25	221.07
792.57	222.43
792.89	222.02
793.21	222.17
793.54	221.83
793.86	221.60
794.18	221.67
794.50	221.17
794.82	221.05
795.14	221.26
795.47	221.57
795.79	221.43
796.11	220.71
796.43	220.69
796.75	220.88
797.07	220.86
797.39	220.69
797.71	219.12
798.04	219.36
798.36	219.50
798.68	219.55
799.00	219.81
799.32	218.57
799.64	218.81
799.96	218.74
800.28	219.36
800.60	219.19
800.92	219.24
801.24	218.98
801.56	219.14
801.89	218.67
802.21	218.90
802.53	218.62
802.85	219.26
803.17	220.14
803.49	219.76
803.81	219.64
804.13	219.31
804.45	219.19
804.77	219.14
805.09	219.05
805.41	218.93
805.73	218.48
806.05	218.21
806.37	218.21
806.69	218.05
807.01	217.90
807.33	217.95
807.65	217.19
807.97	218.40
808.28	218.10
808.60	218.17
808.92	217.74
809.24	219.29
809.56	218.76
809.88	218.14
810.20	218.10
810.52	218.76
810.84	218.43
811.16	218.24
811.48	218.19
811.80	218.95
812.12	218.76
812.43	219.21
812.75	219.36
813.07	218.93
813.39	219.05
813.71	218.60
814.03	218.52
814.35	218.48
814.67	217.38
814.98	217.38
815.30	217.45
815.62	217.24
815.94	215.50
816.26	215.83
816.58	215.38
816.89	215.52
817.21	214.79
817.53	215.00
817.85	215.12
818.17	215.05
818.48	214.17
818.80	214.62
819.12	214.10
819.44	213.88
819.76	213.64
820.07	213.52
820.39	213.57
820.71	213.76
821.03	213.90
821.34	213.86
821.66	214.10
821.98	214.57
822.30	214.48
822.61	215.88
822.93	215.45
823.25	215.43
823.57	215.24
823.88	215.81
824.20	215.76
824.52	215.93
824.83	215.88
825.15	215.67
825.47	215.74
825.79	216.07
826.10	215.95
826.42	216.10
826.74	216.26
827.05	216.19
827.37	216.19
827.69	216.00
828.00	216.07
828.32	215.93
828.64	215.40
828.95	216.48
829.27	215.74
829.58	215.74
829.90	216.07
830.22	216.19
830.53	215.38
830.85	215.29
831.17	214.83
831.48	214.74
831.80	214.81
832.11	214.33
832.43	214.05
832.75	213.76
833.06	214.93
833.38	214.38
833.69	214.14
834.01	214.07
834.32	214.12
834.64	213.83
834.96	213.81
835.27	213.69
835.59	213.05
835.90	212.57
836.22	212.57
836.53	212.14
836.85	212.05
837.16	214.14
837.48	214.05
837.79	214.64
838.11	214.71
838.42	214.57
838.74	214.83
839.05	214.83
839.37	214.93
839.68	213.62
840.00	213.33
840.31	213.81
840.63	213.88
840.94	213.38
841.26	213.43
841.57	213.19
841.88	213.38
842.20	212.86
842.51	212.81
842.83	212.93
843.14	214.79
843.46	214.71
843.77	213.62
844.08	213.60
844.40	212.90
844.71	212.90
845.03	212.88
845.34	212.67
845.65	212.62
845.97	212.71
846.28	213.12
846.60	213.31
846.91	212.79
847.22	212.52
847.54	213.24
847.85	213.29
848.16	213.12
848.48	212.76
848.79	213.76
849.10	213.93
849.42	213.69
849.73	212.02
850.04	212.14
850.36	211.43
850.67	211.81
850.98	212.00
851.30	212.12
851.61	212.02
851.92	212.00
852.23	212.52
852.55	212.86
852.86	212.90
853.17	213.40
853.49	213.81
853.80	214.24
854.11	214.48
854.42	214.79
854.74	215.00
855.05	215.10
855.36	213.76
855.67	213.83
855.99	214.07
856.30	216.38
856.61	216.21
856.92	216.55
857.23	216.60
857.55	216.29
857.86	216.10
858.17	216.52
858.48	216.40
858.79	215.69
859.11	215.64
859.42	215.19
859.73	214.79
860.04	214.86
860.35	214.31
860.66	213.62
860.98	213.36
861.29	213.45
861.60	213.24
861.91	213.76
862.22	213.48
862.53	213.07
862.84	210.57
863.16	211.17
863.47	210.64
863.78	210.45
864.09	210.81
864.40	210.88
864.71	210.86
865.02	211.14
865.33	211.26
865.64	210.90
865.95	211.12
866.27	212.21
866.58	212.00
866.89	212.43
867.20	212.36
867.51	212.31
867.82	212.14
868.13	213.00
868.44	212.83
868.75	213.31
869.06	213.57
869.37	213.93
869.68	213.19
869.99	213.69
870.30	213.71
870.61	213.69
870.92	213.45
871.23	213.29
871.54	213.62
871.85	214.26
872.16	214.69
872.47	214.43
872.78	213.38
873.09	213.76
873.40	213.36
873.71	213.60
874.02	213.71
874.33	213.60
874.64	212.86
874.95	213.31
875.26	212.69
875.56	212.48
875.87	212.31
876.18	212.26
876.49	214.17
876.80	213.88
877.11	213.52
877.42	213.69
877.73	213.81
878.04	213.26
878.35	213.07
878.66	213.02
878.96	213.07
879.27	213.14
879.58	212.90
879.89	212.98
880.20	213.38
880.51	213.48
880.82	213.57
881.12	213.98
881.43	213.48
881.74	213.40
882.05	213.50
882.36	213.57
882.67	213.88
882.97	211.60
883.28	211.52
883.59	211.67
883.90	211.98
884.21	212.26
884.51	212.17
884.82	211.81
885.13	211.83
885.44	211.79
885.74	211.93
886.05	211.74
886.36	211.90
886.67	211.24
886.98	211.93
887.28	212.21
887.59	212.10
887.90	212.36
888.20	212.21
888.51	212.48
888.82	212.33
889.13	212.55
889.43	214.10
889.74	214.19
890.05	214.00
890.35	213.60
890.66	213.36
890.97	213.36
891.28	213.00
891.58	212.95
891.89	213.00
892.20	212.60
892.50	212.45
892.81	212.19
893.12	212.31
893.42	211.48
893.73	211.67
894.04	211.67
894.34	211.62
894.65	211.74
894.95	211.36
895.26	211.45
895.57	212.10
895.87	210.33
896.18	210.40
896.48	210.52
896.79	210.57
897.10	210.74
897.40	210.93
897.71	211.33
898.01	210.90
898.32	211.14
898.63	210.95
898.93	211.10
899.24	211.21
899.54	211.38
899.85	211.21
900.15	210.83
900.46	210.86
900.76	211.17
901.07	211.19
901.38	211.43
901.68	211.55
901.99	210.45
902.29	210.64
902.60	210.57
902.90	210.62
903.21	210.60
903.51	210.52
903.82	210.81
904.12	210.90
904.43	211.43
904.73	211.21
905.03	211.55
905.34	213.55
905.64	213.45
905.95	213.33
906.25	213.33
906.56	213.21
906.86	213.24
907.17	212.93
907.47	213.10
907.77	212.90
908.08	212.55
908.38	213.00
908.69	213.38
908.99	213.86
909.30	213.95
909.60	214.00
909.90	213.93
910.21	213.52
910.51	213.10
910.81	213.10
911.12	213.36
911.42	213.48
911.73	211.48
912.03	211.36
912.33	211.79
912.64	211.88
912.94	211.81
913.24	211.48
913.55	211.26
913.85	211.12
914.15	211.57
914.46	211.69
914.76	211.33
915.06	210.98
915.37	210.57
915.67	210.57
915.97	210.52
916.27	210.21
916.58	210.19
916.88	210.38
917.18	210.07
917.49	211.50
917.79	211.40
918.09	211.69
918.39	212.33
918.70	212.10
919.00	212.10
919.30	213.24
919.60	213.29
919.91	213.07
920.21	213.10
920.51	212.62
920.81	212.43
921.12	212.81
921.42	212.74
921.72	212.81
922.02	212.62
922.32	212.98
922.63	213.14
922.93	214.17
923.23	214.26
923.53	214.05
923.83	212.83
924.13	213.02
924.44	213.00
924.74	213.36
925.04	213.79
925.34	213.52
925.64	212.48
925.94	212.40
926.24	213.50
926.55	213.52
926.85	214.00
927.15	214.17
927.45	214.05
927.75	214.24
928.05	214.19
928.35	214.36
928.65	214.67
928.95	214.88
929.26	214.07
929.56	214.33
929.86	214.76
930.16	214.55
930.46	214.45
930.76	214.52
931.06	213.57
931.36	213.02
931.66	213.45
931.96	213.90
932.26	214.12
932.56	213.43
932.86	213.52
933.16	213.52
933.46	213.45
933.76	213.24
934.06	213.64
934.36	214.55
934.66	214.29
934.96	213.88
935.26	213.95
935.56	214.21
935.86	213.67
936.16	213.38
936.46	213.17
936.76	213.07
937.06	212.57
937.36	212.90
937.66	213.14
937.96	213.07
938.26	212.50
938.56	212.26
938.86	212.40
939.16	212.83
939.46	212.71
939.76	212.98
940.06	213.12
940.35	212.57
940.65	211.69
940.95	211.98
941.25	211.52
941.55	211.29
941.85	211.36
942.15	212.14
942.45	212.71
942.75	212.79
943.04	212.90
943.34	213.43
943.64	213.12
943.94	212.62
944.24	212.60
944.54	212.71
944.84	212.57
945.13	212.45
945.43	212.05
945.73	211.93
946.03	211.43
946.33	211.29
946.62	211.17
946.92	211.05
947.22	211.14
947.52	211.36
947.82	211.60
948.11	211.14
948.41	210.62
948.71	210.14
949.01	210.40
949.31	210.07
949.60	209.88
949.90	210.19
950.20	210.48
950.50	210.43
950.79	210.38
951.09	210.88
951.39	210.62
951.69	210.21
951.98	210.55
952.28	210.86
952.58	210.62
952.87	210.74
953.17	210.81
953.47	210.62
953.76	210.76
954.06	210.36
954.36	210.14
954.66	209.90
954.95	210.48
955.25	210.38
955.55	210.62
955.84	210.33
956.14	210.50
956.44	210.31
956.73	210.14
957.03	210.17
957.32	210.02
957.62	210.12
957.92	210.55
958.21	210.55
958.51	212.90
958.81	213.10
959.10	213.17
959.40	213.69
959.69	213.69
959.99	213.74
960.29	213.74
960.58	213.74
960.88	214.55
961.17	213.98
961.47	214.14
961.76	214.10
962.06	214.64
962.36	214.55
962.65	214.33
962.95	214.45
963.24	214.38
963.54	214.40
963.83	214.43
964.13	214.76
964.42	214.10
964.72	212.31
965.01	212.40
965.31	212.24
965.60	211.76
965.90	213.07
966.19	212.76
966.49	213.02
966.78	213.07
967.08	212.74
967.37	213.00
967.67	212.57
967.96	212.81
968.26	212.50
968.55	212.69
968.85	213.02
969.14	212.76
969.43	212.79
969.73	212.88
970.02	212.98
970.32	212.45
970.61	212.29
970.91	211.90
971.20	211.52
971.49	211.48
971.79	211.81
972.08	210.48
972.38	210.76
972.67	210.36
972.96	210.81
973.26	210.81
973.55	211.17
973.85	211.02
974.14	210.76
974.43	210.98
974.73	210.40
975.02	210.14
975.31	210.36
975.61	210.29
975.90	209.90
976.19	209.52
976.49	209.93
976.78	210.31
977.07	210.10
977.37	210.38
977.66	210.52
977.95	210.24
978.24	210.31
978.54	210.67
978.83	210.81
979.12	210.38
979.42	210.05
979.71	209.93
980.00	210.21
980.29	210.43
980.59	210.12
980.88	210.86
981.17	211.10
981.46	211.10
981.76	211.19
982.05	211.95
982.34	212.17
982.63	212.00
982.93	212.19
983.22	212.81
983.51	213.05
983.80	213.36
984.09	213.69
984.39	213.55
984.68	213.31
984.97	213.50
985.26	213.29
985.55	213.52
985.85	212.88
986.14	213.05
986.43	213.24
986.72	213.14
987.01	212.33
987.30	212.21
987.59	212.10
987.89	212.21
988.18	211.64
988.47	211.43
988.76	211.29
989.05	210.88
989.34	210.36
989.63	210.45
989.92	210.14
990.22	209.76
990.51	209.90
990.80	209.83
991.09	209.74
991.38	210.17
991.67	209.95
991.96	210.10
992.25	209.95
992.54	209.57
992.83	209.55
993.12	209.48
993.41	209.83
993.70	210.81
993.99	211.12
994.28	211.19
994.58	211.76
994.87	211.60
995.16	211.55
995.45	211.52
995.74	211.19
996.03	211.55
996.32	211.88
996.61	212.29
996.90	212.17
997.19	212.07
997.48	212.05
997.77	211.98
998.06	212.00
998.34	212.00
998.63	211.88
998.92	212.07
999.21	212.74
999.50	212.79
999.79	211.88
1000.08	211.79
1000.37	211.86
1000.66	211.43
1000.95	211.86
1001.24	211.95
1001.53	212.24
1001.82	211.83
1002.11	211.48
1002.40	211.69
1002.68	211.83
1002.97	213.17
1003.26	212.95
1003.55	212.62
1003.84	212.67
1004.13	213.43
1004.42	213.31
1004.71	213.38
1004.99	213.05
1005.28	213.40
1005.57	213.24
1005.86	213.19
1006.15	213.00
1006.44	212.62
1006.72	212.83
1007.01	212.64
1007.30	212.74
1007.59	212.55
1007.88	212.90
1008.17	213.17
1008.45	212.38
1008.74	211.90
1009.03	210.98
1009.32	211.07
1009.60	211.10
1009.89	211.12
1010.18	210.12
1010.47	210.02
1010.76	210.02
1011.04	210.17
1011.33	209.95
1011.62	209.95
1011.91	209.93
1012.19	209.86
1012.48	210.00
1012.77	209.95
1013.05	210.69
1013.34	210.95
1013.63	210.90
1013.92	210.86
1014.20	210.55
1014.49	210.88
1014.78	211.00
1015.06	210.45
1015.35	210.43
1015.64	210.67
1015.92	210.74
1016.21	211.07
1016.50	211.12
1016.78	211.43
1017.07	211.52
1017.36	210.98
1017.64	210.64
1017.93	210.95
1018.22	210.93
1018.50	211.02
1018.79	211.00
1019.08	210.31
1019.36	210.29
1019.65	210.02
1019.93	210.60
1020.22	210.62
1020.51	211.67
1020.79	211.31
1021.08	208.50
1021.36	209.00
1021.65	211.50
1021.94	212.50
1022.22	213.00
1022.51	205.50
1022.79	220.00
1023.08	209.00
1023.36	235.00
1023.65	205.00
>>>>>End Processed Spectral Data<<<<<
