SpectraSuite Data File
++++++++++++++++++++++++++++++++++++
Date: Tue Apr 02 18:39:47 EDT 2013
User: group
Dark Spectrum Present: No
Reference Spectrum Present: No
Number of Sampled Component Spectra: 1
Spectrometers: USB2E7196
Integration Time (usec): 580000 (USB2E7196)
Spectra Averaged: 2 (USB2E7196)
Boxcar Smoothing: 10 (USB2E7196)
Correct for Electrical Dark: No (USB2E7196)
Strobe/Lamp Enabled: No (USB2E7196)
Correct for Detector Non-linearity: No (USB2E7196)
Correct for Stray Light: No (USB2E7196)
Number of Pixels in Processed Spectrum: 2048
>>>>>Begin Processed Spectral Data<<<<<
339.09	0.00
339.48	194.50
339.86	193.50
340.24	197.50
340.63	199.50
341.01	231.50
341.39	201.50
341.78	206.00
342.16	211.00
342.54	210.00
342.93	198.26
343.31	208.29
343.69	208.93
344.07	209.31
344.46	210.07
344.84	210.71
345.22	209.50
345.60	209.93
345.99	210.24
346.37	210.29
346.75	210.38
347.13	210.62
347.52	210.69
347.90	211.60
348.28	211.40
348.66	211.86
349.05	211.19
349.43	211.57
349.81	211.57
350.19	211.69
350.57	211.67
350.96	211.95
351.34	211.98
351.72	211.93
352.10	212.19
352.48	212.12
352.87	211.76
353.25	211.67
353.63	211.55
354.01	211.36
354.39	211.43
354.77	211.24
355.15	211.71
355.54	211.36
355.92	210.45
356.30	210.52
356.68	211.74
357.06	211.55
357.44	211.02
357.82	210.83
358.20	211.52
358.58	211.52
358.97	211.60
359.35	211.55
359.73	211.98
360.11	212.07
360.49	211.90
360.87	212.07
361.25	212.57
361.63	213.33
362.01	213.45
362.39	213.17
362.77	213.48
363.15	213.26
363.53	213.48
363.91	213.71
364.29	213.74
364.67	211.81
365.05	212.05
365.43	212.57
365.81	212.81
366.19	213.17
366.57	213.86
366.95	213.79
367.33	213.71
367.71	213.55
368.09	213.93
368.47	214.02
368.85	213.93
369.23	214.12
369.61	213.29
369.99	213.98
370.37	214.19
370.75	215.12
371.13	214.81
371.51	214.57
371.89	214.79
372.27	215.07
372.65	215.24
373.03	215.33
373.41	215.02
373.78	214.83
374.16	213.71
374.54	213.14
374.92	213.00
375.30	213.12
375.68	212.71
376.06	212.64
376.44	212.60
376.82	212.62
377.19	212.50
377.57	212.57
377.95	211.83
378.33	211.69
378.71	210.31
379.09	210.71
379.47	210.95
379.84	210.71
380.22	210.55
380.60	210.50
380.98	210.43
381.36	210.26
381.73	210.33
382.11	210.71
382.49	210.81
382.87	210.48
383.25	210.52
383.62	213.12
384.00	212.90
384.38	212.86
384.76	213.50
385.13	214.45
385.51	214.64
385.89	214.60
386.27	215.02
386.64	215.62
387.02	215.57
387.40	215.36
387.78	215.55
388.15	215.64
388.53	215.45
388.91	215.50
389.29	215.62
389.66	215.88
390.04	215.71
390.42	216.12
390.79	216.40
391.17	216.29
391.55	214.19
391.92	214.19
392.30	214.40
392.68	213.98
393.05	213.74
393.43	213.74
393.81	213.83
394.18	213.43
394.56	213.24
394.94	213.62
395.31	213.69
395.69	214.10
396.06	214.52
396.44	214.98
396.82	214.79
397.19	215.88
397.57	215.62
397.95	215.88
398.32	215.43
398.70	215.62
399.07	216.36
399.45	216.17
399.82	216.05
400.20	215.98
400.58	216.19
400.95	215.57
401.33	216.00
401.70	217.71
402.08	217.95
402.45	217.93
402.83	218.07
403.20	218.24
403.58	218.19
403.95	218.67
404.33	218.90
404.71	219.19
405.08	220.48
405.46	221.19
405.83	221.60
406.21	221.95
406.58	222.45
406.96	222.52
407.33	223.29
407.70	224.26
408.08	226.57
408.45	227.45
408.83	228.29
409.20	228.79
409.58	228.24
409.95	229.38
410.33	230.57
410.70	231.60
411.08	233.14
411.45	234.36
411.82	235.12
412.20	236.76
412.57	239.40
412.95	239.02
413.32	240.74
413.69	242.21
414.07	244.05
414.44	246.21
414.82	248.31
415.19	251.00
415.56	253.26
415.94	254.64
416.31	257.52
416.68	260.71
417.06	264.36
417.43	268.07
417.81	271.88
418.18	275.98
418.55	279.93
418.93	284.26
419.30	288.74
419.67	293.52
420.04	298.52
420.42	303.38
420.79	311.21
421.16	317.40
421.54	325.02
421.91	331.86
422.28	338.50
422.66	346.10
423.03	354.36
423.40	362.00
423.77	369.64
424.15	377.43
424.52	385.93
424.89	394.98
425.26	403.69
425.64	412.14
426.01	421.14
426.38	430.67
426.75	440.83
427.13	451.24
427.50	461.67
427.87	472.40
428.24	482.95
428.61	492.12
428.99	503.95
429.36	515.81
429.73	528.00
430.10	540.62
430.47	553.48
430.85	565.00
431.22	578.76
431.59	595.26
431.96	609.14
432.33	624.45
432.70	639.93
433.08	657.33
433.45	674.24
433.82	690.74
434.19	709.45
434.56	727.52
434.93	744.67
435.30	762.50
435.68	782.29
436.05	801.26
436.42	819.98
436.79	837.36
437.16	856.05
437.53	876.05
437.90	895.71
438.27	914.40
438.64	934.52
439.01	953.24
439.38	968.26
439.75	984.69
440.13	1003.33
440.50	1020.33
440.87	1034.62
441.24	1049.60
441.61	1065.57
441.98	1077.76
442.35	1091.52
442.72	1105.74
443.09	1120.45
443.46	1128.52
443.83	1134.33
444.20	1139.36
444.57	1146.60
444.94	1150.02
445.31	1153.79
445.68	1159.76
446.05	1161.93
446.42	1159.88
446.79	1159.00
447.16	1157.07
447.53	1155.48
447.90	1147.90
448.27	1140.90
448.64	1130.90
449.01	1123.55
449.37	1111.81
449.74	1099.31
450.11	1086.57
450.48	1070.31
450.85	1052.83
451.22	1038.74
451.59	1025.33
451.96	1012.86
452.33	995.48
452.70	980.00
453.07	960.69
453.43	939.43
453.80	921.52
454.17	904.81
454.54	887.64
454.91	869.40
455.28	852.12
455.65	835.93
456.02	823.17
456.38	809.40
456.75	792.36
457.12	777.55
457.49	763.26
457.86	747.71
458.23	736.31
458.59	723.50
458.96	710.38
459.33	699.19
459.70	687.67
460.07	678.40
460.43	668.29
460.80	659.14
461.17	650.50
461.54	641.31
461.91	632.60
462.27	623.40
462.64	616.05
463.01	608.14
463.38	601.21
463.74	589.19
464.11	582.14
464.48	575.98
464.85	569.17
465.21	564.67
465.58	559.07
465.95	552.05
466.32	546.55
466.68	541.07
467.05	535.07
467.42	529.29
467.78	523.36
468.15	517.38
468.52	513.21
468.88	507.29
469.25	502.02
469.62	498.29
469.98	494.07
470.35	490.05
470.72	485.86
471.08	481.10
471.45	478.52
471.82	475.76
472.18	471.67
472.55	469.07
472.92	464.90
473.28	461.76
473.65	459.00
474.02	455.57
474.38	452.86
474.75	450.93
475.11	448.76
475.48	446.76
475.85	444.90
476.21	443.02
476.58	441.76
476.94	440.40
477.31	438.74
477.67	437.07
478.04	435.76
478.41	434.88
478.77	435.81
479.14	434.10
479.50	433.05
479.87	432.57
480.23	431.81
480.60	431.48
480.96	431.67
481.33	432.38
481.69	433.07
482.06	433.52
482.42	433.79
482.79	434.02
483.15	434.45
483.52	435.29
483.88	435.55
484.25	436.24
484.61	437.26
484.98	438.17
485.34	440.10
485.71	441.98
486.07	443.60
486.44	443.45
486.80	445.48
487.17	447.05
487.53	449.36
487.90	452.00
488.26	455.45
488.62	458.05
488.99	459.98
489.35	462.52
489.72	465.57
490.08	468.26
490.44	471.48
490.81	474.98
491.17	478.05
491.54	482.24
491.90	486.31
492.26	490.02
492.63	494.31
492.99	498.57
493.36	503.14
493.72	508.33
494.08	513.17
494.45	518.50
494.81	523.81
495.17	529.40
495.54	535.21
495.90	539.90
496.26	545.19
496.63	551.00
496.99	557.26
497.35	563.55
497.72	570.57
498.08	576.93
498.44	583.88
498.80	591.40
499.17	598.24
499.53	605.14
499.89	613.14
500.26	620.81
500.62	627.81
500.98	636.17
501.34	643.50
501.71	651.86
502.07	659.69
502.43	667.74
502.79	675.43
503.16	683.45
503.52	691.71
503.88	699.52
504.24	708.43
504.60	717.19
504.97	725.88
505.33	734.26
505.69	743.83
506.05	752.62
506.41	760.88
506.78	769.43
507.14	778.14
507.50	787.05
507.86	796.12
508.22	806.05
508.59	813.57
508.95	822.43
509.31	831.64
509.67	840.55
510.03	849.33
510.39	858.10
510.75	866.88
511.12	875.88
511.48	885.50
511.84	893.95
512.20	902.29
512.56	911.12
512.92	919.74
513.28	928.50
513.64	937.17
514.00	945.69
514.37	954.95
514.73	964.07
515.09	972.64
515.45	980.74
515.81	988.38
516.17	997.14
516.53	1004.69
516.89	1012.29
517.25	1020.05
517.61	1028.88
517.97	1037.21
518.33	1045.07
518.69	1053.40
519.05	1061.29
519.41	1068.93
519.77	1077.43
520.13	1084.33
520.49	1091.98
520.85	1098.57
521.21	1106.38
521.57	1114.12
521.93	1120.33
522.29	1127.12
522.65	1133.69
523.01	1140.36
523.37	1147.10
523.73	1154.29
524.09	1160.98
524.45	1167.19
524.81	1173.02
525.17	1179.10
525.53	1185.14
525.89	1190.62
526.25	1196.12
526.61	1201.29
526.97	1207.17
527.33	1212.81
527.68	1220.52
528.04	1226.02
528.40	1231.69
528.76	1237.31
529.12	1243.69
529.48	1249.74
529.84	1254.90
530.20	1260.74
530.56	1266.26
530.91	1272.02
531.27	1277.05
531.63	1282.90
531.99	1288.95
532.35	1294.90
532.71	1300.74
533.07	1306.64
533.42	1315.12
533.78	1320.86
534.14	1327.00
534.50	1332.33
534.86	1338.17
535.21	1342.00
535.57	1347.76
535.93	1352.74
536.29	1358.17
536.65	1362.98
537.00	1368.29
537.36	1373.26
537.72	1377.88
538.08	1383.55
538.44	1388.31
538.79	1393.64
539.15	1398.14
539.51	1402.31
539.87	1407.29
540.22	1411.29
540.58	1415.76
540.94	1418.29
541.29	1423.33
541.65	1427.07
542.01	1431.71
542.37	1435.14
542.72	1438.81
543.08	1441.95
543.44	1446.98
543.79	1450.00
544.15	1454.69
544.51	1459.14
544.87	1463.83
545.22	1468.21
545.58	1471.90
545.94	1475.90
546.29	1479.95
546.65	1484.21
547.01	1487.69
547.36	1491.14
547.72	1495.21
548.07	1499.40
548.43	1502.55
548.79	1505.26
549.14	1508.93
549.50	1513.33
549.86	1516.21
550.21	1520.17
550.57	1524.21
550.92	1526.71
551.28	1530.50
551.64	1533.07
551.99	1536.17
552.35	1539.69
552.70	1543.50
553.06	1547.55
553.41	1550.83
553.77	1555.43
554.13	1559.64
554.48	1564.95
554.84	1570.48
555.19	1574.57
555.55	1579.10
555.90	1583.69
556.26	1588.36
556.61	1592.43
556.97	1596.38
557.32	1601.74
557.68	1605.95
558.03	1611.02
558.39	1616.24
558.74	1620.60
559.10	1624.36
559.45	1629.33
559.81	1633.88
560.16	1637.31
560.52	1641.12
560.87	1646.29
561.23	1649.64
561.58	1655.43
561.94	1658.55
562.29	1661.52
562.64	1666.52
563.00	1670.00
563.35	1674.76
563.71	1679.29
564.06	1684.79
564.42	1688.71
564.77	1693.67
565.12	1699.71
565.48	1705.76
565.83	1710.29
566.19	1715.64
566.54	1720.95
566.89	1725.40
567.25	1730.98
567.60	1737.60
567.96	1744.19
568.31	1749.29
568.66	1754.60
569.02	1757.74
569.37	1761.50
569.72	1766.24
570.08	1769.12
570.43	1773.05
570.78	1776.90
571.14	1780.69
571.49	1784.10
571.84	1788.69
572.20	1791.81
572.55	1794.05
572.90	1795.31
573.26	1798.83
573.61	1800.69
573.96	1804.55
574.31	1807.48
574.67	1809.50
575.02	1810.81
575.37	1811.24
575.72	1812.40
576.08	1813.93
576.43	1815.24
576.78	1817.43
577.13	1819.38
577.49	1820.33
577.84	1822.24
578.19	1822.90
578.54	1824.31
578.90	1827.05
579.25	1827.48
579.60	1827.52
579.95	1828.21
580.30	1830.07
580.66	1830.69
581.01	1831.29
581.36	1830.60
581.71	1830.71
582.06	1831.83
582.42	1832.60
582.77	1832.93
583.12	1833.50
583.47	1832.74
583.82	1833.21
584.17	1833.62
584.53	1834.05
584.88	1834.71
585.23	1834.83
585.58	1834.88
585.93	1833.52
586.28	1831.60
586.63	1831.95
586.98	1832.24
587.34	1831.93
587.69	1831.29
588.04	1829.71
588.39	1830.50
588.74	1828.57
589.09	1827.67
589.44	1824.21
589.79	1822.64
590.14	1821.21
590.49	1818.57
590.84	1817.52
591.19	1816.05
591.54	1815.05
591.89	1813.17
592.25	1813.24
592.60	1810.74
592.95	1809.12
593.30	1809.38
593.65	1807.19
594.00	1803.55
594.35	1806.24
594.70	1803.45
595.05	1801.07
595.40	1799.52
595.75	1796.38
596.10	1796.26
596.45	1794.02
596.80	1793.55
597.15	1790.64
597.50	1787.79
597.85	1787.07
598.19	1784.86
598.54	1782.48
598.89	1780.14
599.24	1778.29
599.59	1774.29
599.94	1771.81
600.29	1769.10
600.64	1765.26
600.99	1762.43
601.34	1760.95
601.69	1752.71
602.04	1750.69
602.39	1747.55
602.74	1745.24
603.08	1742.07
603.43	1739.57
603.78	1736.86
604.13	1733.64
604.48	1731.19
604.83	1729.21
605.18	1726.17
605.53	1723.50
605.87	1719.31
606.22	1715.55
606.57	1710.76
606.92	1706.69
607.27	1703.71
607.62	1700.79
607.96	1697.83
608.31	1695.48
608.66	1691.31
609.01	1688.98
609.36	1685.38
609.70	1681.07
610.05	1675.79
610.40	1672.14
610.75	1666.24
611.10	1661.52
611.44	1656.00
611.79	1650.90
612.14	1646.00
612.49	1639.79
612.83	1633.83
613.18	1628.90
613.53	1623.50
613.88	1618.19
614.22	1613.26
614.57	1607.64
614.92	1601.36
615.27	1595.81
615.61	1588.90
615.96	1583.64
616.31	1576.50
616.65	1571.00
617.00	1565.69
617.35	1560.50
617.70	1554.76
618.04	1548.88
618.39	1543.17
618.74	1537.64
619.08	1531.40
619.43	1525.40
619.78	1520.83
620.12	1516.02
620.47	1511.10
620.82	1504.62
621.16	1498.12
621.51	1492.95
621.85	1486.02
622.20	1479.88
622.55	1473.21
622.89	1467.48
623.24	1462.10
623.59	1456.83
623.93	1451.12
624.28	1445.86
624.62	1442.33
624.97	1437.88
625.32	1432.19
625.66	1426.31
626.01	1420.05
626.35	1414.86
626.70	1409.71
627.04	1404.31
627.39	1397.62
627.73	1392.79
628.08	1388.57
628.43	1383.38
628.77	1377.43
629.12	1373.12
629.46	1367.88
629.81	1362.17
630.15	1355.69
630.50	1348.79
630.84	1342.79
631.19	1336.43
631.53	1329.45
631.88	1321.12
632.22	1313.02
632.57	1308.07
632.91	1301.43
633.26	1296.24
633.60	1290.43
633.95	1283.00
634.29	1275.74
634.64	1269.45
634.98	1261.48
635.32	1255.67
635.67	1250.24
636.01	1243.74
636.36	1237.02
636.70	1230.83
637.05	1224.50
637.39	1219.38
637.73	1214.43
638.08	1208.62
638.42	1202.17
638.77	1196.43
639.11	1190.07
639.45	1183.74
639.80	1177.19
640.14	1170.93
640.49	1163.74
640.83	1157.02
641.17	1151.64
641.52	1145.67
641.86	1140.12
642.20	1134.81
642.55	1127.19
642.89	1120.43
643.23	1113.86
643.58	1107.98
643.92	1101.52
644.26	1094.95
644.61	1088.31
644.95	1080.60
645.29	1072.98
645.64	1067.00
645.98	1060.10
646.32	1053.74
646.66	1047.31
647.01	1040.12
647.35	1033.64
647.69	1027.48
648.04	1021.10
648.38	1014.52
648.72	1007.98
649.06	1001.26
649.41	994.81
649.75	988.55
650.09	982.55
650.43	976.19
650.78	968.60
651.12	961.98
651.46	955.19
651.80	948.76
652.14	942.43
652.49	937.69
652.83	930.86
653.17	925.00
653.51	918.38
653.85	912.10
654.20	906.10
654.54	899.98
654.88	893.90
655.22	887.86
655.56	881.02
655.90	874.45
656.25	867.98
656.59	861.74
656.93	856.21
657.27	850.45
657.61	844.21
657.95	839.43
658.29	833.98
658.64	829.00
658.98	823.26
659.32	817.52
659.66	811.12
660.00	805.83
660.34	799.98
660.68	794.62
661.02	789.26
661.36	783.40
661.70	778.40
662.05	772.88
662.39	768.17
662.73	763.55
663.07	759.69
663.41	755.10
663.75	749.67
664.09	743.83
664.43	738.07
664.77	732.86
665.11	726.50
665.45	721.26
665.79	715.81
666.13	710.88
666.47	705.95
666.81	700.79
667.15	694.90
667.49	689.95
667.83	685.62
668.17	680.79
668.51	675.98
668.85	671.33
669.19	667.40
669.53	661.19
669.87	656.29
670.21	650.81
670.55	645.86
670.89	642.19
671.23	637.24
671.57	633.07
671.91	629.38
672.25	625.83
672.58	622.05
672.92	618.05
673.26	614.00
673.60	609.83
673.94	605.95
674.28	602.64
674.62	599.14
674.96	594.83
675.30	591.05
675.64	587.36
675.97	582.86
676.31	578.45
676.65	575.02
676.99	572.19
677.33	568.10
677.67	564.69
678.01	560.02
678.34	556.74
678.68	553.12
679.02	549.17
679.36	545.05
679.70	540.52
680.04	536.40
680.37	532.48
680.71	528.64
681.05	525.17
681.39	521.55
681.73	517.62
682.06	514.29
682.40	510.88
682.74	507.79
683.08	505.48
683.42	502.19
683.75	499.10
684.09	494.83
684.43	491.38
684.77	487.31
685.10	484.50
685.44	481.55
685.78	478.26
686.12	474.93
686.45	471.83
686.79	468.57
687.13	465.90
687.46	462.40
687.80	460.07
688.14	456.76
688.48	453.90
688.81	450.90
689.15	448.38
689.49	445.40
689.82	442.17
690.16	438.29
690.50	435.43
690.83	432.50
691.17	429.40
691.51	426.74
691.84	424.55
692.18	421.76
692.52	418.76
692.85	416.57
693.19	414.86
693.52	412.50
693.86	410.21
694.20	407.81
694.53	405.43
694.87	402.67
695.21	399.86
695.54	397.24
695.88	394.71
696.21	391.31
696.55	389.02
696.88	386.83
697.22	384.67
697.56	382.67
697.89	380.69
698.23	378.88
698.56	376.62
698.90	374.48
699.23	371.98
699.57	370.24
699.90	367.52
700.24	364.86
700.58	362.90
700.91	361.43
701.25	361.43
701.58	360.52
701.92	359.10
702.25	357.90
702.59	355.88
702.92	354.29
703.26	352.81
703.59	351.14
703.93	351.31
704.26	349.76
704.60	347.98
704.93	346.14
705.26	344.12
705.60	343.14
705.93	341.24
706.27	340.52
706.60	339.38
706.94	338.83
707.27	336.93
707.61	335.57
707.94	333.60
708.27	330.12
708.61	328.05
708.94	326.43
709.28	325.02
709.61	323.71
709.94	322.38
710.28	321.17
710.61	319.76
710.95	316.29
711.28	316.38
711.61	315.02
711.95	314.33
712.28	312.98
712.61	311.57
712.95	311.31
713.28	310.93
713.61	309.24
713.95	307.24
714.28	306.48
714.61	305.36
714.95	304.12
715.28	302.71
715.61	301.79
715.95	300.83
716.28	299.67
716.61	298.86
716.95	297.57
717.28	296.43
717.61	295.21
717.94	294.19
718.28	291.71
718.61	290.64
718.94	288.81
719.27	288.07
719.61	287.02
719.94	285.33
720.27	283.05
720.60	282.05
720.94	281.31
721.27	280.26
721.60	279.50
721.93	278.95
722.27	279.24
722.60	278.57
722.93	277.40
723.26	276.62
723.59	275.45
723.93	274.79
724.26	274.55
724.59	274.00
724.92	273.36
725.25	273.24
725.59	272.55
725.92	272.38
726.25	271.50
726.58	270.79
726.91	270.31
727.24	270.10
727.57	269.69
727.91	268.74
728.24	268.50
728.57	267.50
728.90	267.12
729.23	265.60
729.56	265.69
729.89	265.21
730.22	264.40
730.55	263.93
730.89	263.40
731.22	262.36
731.55	261.60
731.88	261.31
732.21	260.36
732.54	259.69
732.87	259.14
733.20	259.19
733.53	259.10
733.86	258.79
734.19	257.81
734.52	257.36
734.85	258.14
735.18	257.45
735.51	257.74
735.84	257.29
736.17	257.55
736.50	256.24
736.83	258.00
737.16	257.88
737.49	257.45
737.82	257.24
738.15	257.14
738.48	256.81
738.81	256.00
739.14	255.14
739.47	254.67
739.80	254.17
740.13	253.67
740.46	252.79
740.79	251.98
741.12	251.67
741.45	251.07
741.78	249.60
742.11	249.71
742.44	248.74
742.77	248.62
743.10	247.50
743.43	247.02
743.75	244.57
744.08	246.69
744.41	246.43
744.74	245.86
745.07	244.93
745.40	244.83
745.73	245.60
746.06	245.31
746.39	245.17
746.71	244.55
747.04	244.07
747.37	243.50
747.70	243.81
748.03	243.52
748.36	243.45
748.68	243.33
749.01	242.48
749.34	242.19
749.67	241.90
750.00	242.43
750.33	243.48
750.65	243.52
750.98	240.71
751.31	240.57
751.64	240.29
751.97	241.45
752.29	241.12
752.62	239.93
752.95	239.64
753.28	239.12
753.60	238.95
753.93	239.10
754.26	239.24
754.59	238.21
754.91	237.52
755.24	237.21
755.57	236.76
755.90	236.40
756.22	236.24
756.55	235.67
756.88	234.67
757.20	233.07
757.53	232.05
757.86	231.74
758.19	231.43
758.51	231.26
758.84	229.88
759.17	229.29
759.49	229.36
759.82	230.36
760.15	230.50
760.47	230.36
760.80	229.50
761.13	229.50
761.45	229.19
761.78	229.36
762.11	229.12
762.43	228.74
762.76	228.64
763.08	228.55
763.41	228.36
763.74	228.29
764.06	228.36
764.39	228.38
764.71	228.21
765.04	227.86
765.37	227.43
765.69	227.33
766.02	227.33
766.34	226.67
766.67	225.74
767.00	225.98
767.32	226.95
767.65	228.12
767.97	227.74
768.30	227.86
768.62	227.45
768.95	227.19
769.27	227.00
769.60	227.02
769.92	226.50
770.25	225.83
770.57	225.19
770.90	224.74
771.22	224.69
771.55	224.60
771.87	224.57
772.20	224.38
772.52	225.83
772.85	228.05
773.17	228.00
773.50	227.55
773.82	226.93
774.15	225.43
774.47	224.02
774.80	223.98
775.12	223.71
775.45	224.05
775.77	223.95
776.09	224.07
776.42	223.86
776.74	224.55
777.07	224.62
777.39	224.95
777.72	224.69
778.04	224.90
778.36	224.69
778.69	224.83
779.01	225.17
779.33	223.38
779.66	221.26
779.98	221.29
780.31	221.52
780.63	222.21
780.95	222.55
781.28	222.45
781.60	221.90
781.92	221.98
782.25	221.79
782.57	221.76
782.89	221.55
783.22	221.26
783.54	220.81
783.86	221.05
784.19	220.76
784.51	221.62
784.83	220.76
785.16	220.64
785.48	220.45
785.80	220.50
786.12	220.81
786.45	220.64
786.77	220.71
787.09	220.36
787.42	219.69
787.74	219.74
788.06	219.86
788.38	219.90
788.71	219.69
789.03	219.60
789.35	219.71
789.67	219.48
789.99	219.76
790.32	219.19
790.64	219.48
790.96	221.40
791.28	220.50
791.61	220.69
791.93	220.95
792.25	220.64
792.57	221.64
792.89	221.12
793.21	221.02
793.54	220.69
793.86	220.50
794.18	220.74
794.50	220.33
794.82	220.19
795.14	220.33
795.47	220.64
795.79	220.67
796.11	220.36
796.43	220.33
796.75	220.14
797.07	220.12
797.39	219.83
797.71	218.31
798.04	218.40
798.36	218.48
798.68	218.38
799.00	218.74
799.32	217.57
799.64	217.93
799.96	218.00
800.28	218.50
800.60	218.43
800.92	218.43
801.24	218.45
801.56	218.62
801.89	218.40
802.21	218.48
802.53	218.10
802.85	218.33
803.17	219.36
803.49	219.05
803.81	219.26
804.13	219.21
804.45	218.88
804.77	219.14
805.09	219.00
805.41	218.64
805.73	218.24
806.05	217.79
806.37	217.57
806.69	217.14
807.01	216.74
807.33	216.95
807.65	216.24
807.97	217.05
808.28	216.83
808.60	216.83
808.92	216.45
809.24	217.88
809.56	217.76
809.88	216.95
810.20	217.14
810.52	217.55
810.84	216.93
811.16	216.55
811.48	216.07
811.80	216.81
812.12	216.83
812.43	217.12
812.75	217.40
813.07	217.29
813.39	217.48
813.71	217.14
814.03	216.93
814.35	217.02
814.67	216.31
814.98	216.26
815.30	216.17
815.62	216.00
815.94	214.55
816.26	214.45
816.58	214.12
816.89	214.60
817.21	214.05
817.53	214.33
817.85	214.40
818.17	214.69
818.48	214.05
818.80	214.31
819.12	214.02
819.44	213.57
819.76	213.48
820.07	213.76
820.39	213.95
820.71	214.21
821.03	214.10
821.34	213.83
821.66	214.14
821.98	214.57
822.30	214.31
822.61	215.40
822.93	215.31
823.25	215.33
823.57	214.83
823.88	215.05
824.20	214.93
824.52	215.31
824.83	214.95
825.15	214.71
825.47	214.81
825.79	215.14
826.10	215.00
826.42	214.71
826.74	214.71
827.05	214.64
827.37	214.50
827.69	214.55
828.00	214.93
828.32	214.55
828.64	214.31
828.95	215.33
829.27	214.83
829.58	214.93
829.90	215.14
830.22	215.31
830.53	214.98
830.85	214.93
831.17	214.40
831.48	214.64
831.80	214.64
832.11	214.21
832.43	213.79
832.75	214.10
833.06	215.55
833.38	214.86
833.69	214.98
834.01	215.14
834.32	215.10
834.64	214.69
834.96	214.86
835.27	214.60
835.59	214.31
835.90	213.79
836.22	213.45
836.53	213.12
836.85	213.05
837.16	215.05
837.48	215.07
837.79	215.98
838.11	216.21
838.42	216.21
838.74	216.64
839.05	216.38
839.37	216.36
839.68	215.07
840.00	215.02
840.31	215.07
840.63	214.95
840.94	214.57
841.26	214.50
841.57	214.33
841.88	214.64
842.20	214.12
842.51	214.02
842.83	214.21
843.14	216.12
843.46	216.00
843.77	214.71
844.08	214.74
844.40	213.79
844.71	213.48
845.03	213.40
845.34	213.12
845.65	213.36
845.97	213.14
846.28	213.07
846.60	213.43
846.91	213.05
847.22	212.93
847.54	213.57
847.85	213.45
848.16	213.50
848.48	213.17
848.79	214.02
849.10	214.31
849.42	214.33
849.73	212.36
850.04	212.29
850.36	211.69
850.67	211.95
850.98	212.38
851.30	212.48
851.61	212.50
851.92	212.48
852.23	213.00
852.55	213.21
852.86	213.26
853.17	213.24
853.49	213.79
853.80	214.33
854.11	214.62
854.42	215.21
854.74	215.21
855.05	215.17
855.36	213.88
855.67	214.05
855.99	214.19
856.30	216.60
856.61	216.45
856.92	216.57
857.23	216.67
857.55	216.50
857.86	216.40
858.17	216.71
858.48	216.55
858.79	216.12
859.11	216.24
859.42	216.21
859.73	216.07
860.04	215.98
860.35	215.31
860.66	214.57
860.98	214.26
861.29	214.36
861.60	214.17
861.91	215.10
862.22	214.71
862.53	214.33
862.84	211.88
863.16	212.38
863.47	211.90
863.78	211.52
864.09	211.60
864.40	211.74
864.71	211.52
865.02	211.71
865.33	211.57
865.64	211.31
865.95	211.36
866.27	212.71
866.58	212.52
866.89	212.74
867.20	212.83
867.51	212.45
867.82	212.38
868.13	213.38
868.44	212.74
868.75	213.00
869.06	213.05
869.37	213.43
869.68	212.88
869.99	213.24
870.30	213.31
870.61	213.29
870.92	212.88
871.23	212.76
871.54	212.98
871.85	213.57
872.16	213.93
872.47	213.83
872.78	212.55
873.09	212.71
873.40	212.52
873.71	212.62
874.02	212.93
874.33	212.69
874.64	211.98
874.95	212.57
875.26	212.36
875.56	212.38
875.87	212.12
876.18	212.10
876.49	213.95
876.80	213.81
877.11	213.62
877.42	213.79
877.73	213.88
878.04	213.62
878.35	213.50
878.66	213.38
878.96	213.19
879.27	213.17
879.58	213.07
879.89	213.12
880.20	213.69
880.51	213.55
880.82	213.50
881.12	213.62
881.43	213.05
881.74	212.71
882.05	212.62
882.36	212.71
882.67	212.79
882.97	210.81
883.28	210.83
883.59	210.71
883.90	211.00
884.21	211.29
884.51	211.02
884.82	210.64
885.13	210.67
885.44	210.64
885.74	210.57
886.05	210.43
886.36	210.48
886.67	209.64
886.98	210.69
887.28	210.93
887.59	211.00
887.90	210.95
888.20	211.05
888.51	211.40
888.82	211.17
889.13	211.57
889.43	213.45
889.74	213.21
890.05	213.38
890.35	212.98
890.66	212.79
890.97	212.67
891.28	212.43
891.58	212.52
891.89	212.55
892.20	212.48
892.50	212.40
892.81	212.21
893.12	212.24
893.42	211.31
893.73	211.45
894.04	211.33
894.34	211.52
894.65	211.31
894.95	211.12
895.26	211.52
895.57	212.14
895.87	209.93
896.18	210.31
896.48	210.24
896.79	210.21
897.10	210.43
897.40	210.81
897.71	210.86
898.01	210.55
898.32	210.86
898.63	210.93
898.93	211.05
899.24	211.07
899.54	210.93
899.85	211.10
900.15	210.90
900.46	211.00
900.76	211.10
901.07	211.24
901.38	211.29
901.68	211.50
901.99	210.45
902.29	210.76
902.60	210.62
902.90	210.50
903.21	210.67
903.51	210.38
903.82	210.67
904.12	210.93
904.43	210.98
904.73	210.71
905.03	210.74
905.34	212.71
905.64	212.76
905.95	213.00
906.25	212.79
906.56	212.67
906.86	212.48
907.17	212.62
907.47	212.64
907.77	212.38
908.08	211.74
908.38	211.88
908.69	212.24
908.99	212.69
909.30	212.83
909.60	212.95
909.90	213.05
910.21	212.38
910.51	211.90
910.81	212.00
911.12	212.40
911.42	212.31
911.73	210.10
912.03	210.19
912.33	210.55
912.64	210.62
912.94	210.48
913.24	210.12
913.55	209.83
913.85	209.83
914.15	210.38
914.46	210.64
914.76	210.64
915.06	210.36
915.37	209.83
915.67	209.74
915.97	209.67
916.27	209.29
916.58	209.48
916.88	209.69
917.18	209.60
917.49	210.76
917.79	210.67
918.09	211.12
918.39	211.64
918.70	211.31
919.00	211.24
919.30	212.29
919.60	212.26
919.91	212.02
920.21	212.07
920.51	211.55
920.81	211.60
921.12	211.83
921.42	211.74
921.72	212.07
922.02	212.10
922.32	212.17
922.63	212.45
922.93	213.52
923.23	213.60
923.53	213.38
923.83	212.07
924.13	212.48
924.44	212.36
924.74	212.45
925.04	212.98
925.34	212.83
925.64	212.17
925.94	212.36
926.24	213.62
926.55	213.48
926.85	213.93
927.15	213.86
927.45	213.86
927.75	213.93
928.05	213.86
928.35	213.83
928.65	214.12
928.95	214.31
929.26	213.50
929.56	213.81
929.86	214.17
930.16	214.10
930.46	214.05
930.76	214.12
931.06	213.24
931.36	212.83
931.66	213.36
931.96	213.40
932.26	213.74
932.56	212.93
932.86	213.17
933.16	212.98
933.46	212.83
933.76	212.43
934.06	213.14
934.36	213.95
934.66	213.93
934.96	213.88
935.26	213.88
935.56	214.14
935.86	213.81
936.16	213.67
936.46	213.40
936.76	213.29
937.06	213.00
937.36	213.19
937.66	213.10
937.96	212.71
938.26	212.40
938.56	212.07
938.86	212.21
939.16	212.50
939.46	212.69
939.76	212.76
940.06	212.83
940.35	212.14
940.65	211.14
940.95	211.57
941.25	211.33
941.55	211.19
941.85	211.21
942.15	211.67
942.45	212.29
942.75	212.55
943.04	212.43
943.34	212.81
943.64	212.62
943.94	212.64
944.24	212.76
944.54	212.93
944.84	213.02
945.13	212.67
945.43	212.43
945.73	212.33
946.03	212.21
946.33	212.10
946.62	211.93
946.92	211.71
947.22	211.76
947.52	211.43
947.82	211.69
948.11	211.24
948.41	210.60
948.71	209.98
949.01	209.79
949.31	209.64
949.60	209.67
949.90	209.90
950.20	209.52
950.50	209.31
950.79	209.31
951.09	209.38
951.39	209.21
951.69	209.12
951.98	209.62
952.28	209.83
952.58	209.79
952.87	209.76
953.17	210.31
953.47	210.05
953.76	210.17
954.06	209.79
954.36	209.67
954.66	209.64
954.95	209.98
955.25	210.17
955.55	210.21
955.84	209.86
956.14	210.17
956.44	210.60
956.73	210.48
957.03	210.40
957.32	210.40
957.62	210.40
957.92	210.88
958.21	210.62
958.51	213.00
958.81	213.36
959.10	213.74
959.40	213.90
959.69	213.83
959.99	214.14
960.29	214.17
960.58	214.12
960.88	215.14
961.17	215.00
961.47	215.26
961.76	215.33
962.06	215.55
962.36	215.31
962.65	215.17
962.95	215.48
963.24	215.31
963.54	215.45
963.83	215.67
964.13	215.17
964.42	214.55
964.72	212.67
965.01	212.81
965.31	212.60
965.60	212.24
965.90	213.57
966.19	213.21
966.49	213.43
966.78	213.40
967.08	213.02
967.37	213.10
967.67	212.86
967.96	213.14
968.26	213.12
968.55	213.55
968.85	213.48
969.14	213.38
969.43	213.17
969.73	213.10
970.02	212.95
970.32	213.07
970.61	212.98
970.91	212.52
971.20	212.21
971.49	212.00
971.79	212.36
972.08	210.86
972.38	210.93
972.67	210.76
972.96	211.12
973.26	210.81
973.55	211.29
973.85	211.21
974.14	211.00
974.43	211.29
974.73	210.64
975.02	210.69
975.31	210.67
975.61	210.79
975.90	210.57
976.19	210.31
976.49	210.48
976.78	210.86
977.07	210.71
977.37	210.90
977.66	211.07
977.95	210.74
978.24	211.02
978.54	211.38
978.83	211.12
979.12	210.93
979.42	211.12
979.71	210.69
980.00	210.50
980.29	210.71
980.59	210.45
980.88	211.05
981.17	210.83
981.46	210.90
981.76	211.14
982.05	211.79
982.34	212.05
982.63	211.95
982.93	211.93
983.22	212.40
983.51	212.36
983.80	212.69
984.09	213.07
984.39	212.95
984.68	212.79
984.97	212.95
985.26	212.76
985.55	212.79
985.85	212.40
986.14	212.76
986.43	212.88
986.72	212.60
987.01	211.76
987.30	211.83
987.59	211.62
987.89	211.60
988.18	211.07
988.47	211.14
988.76	210.95
989.05	210.79
989.34	210.62
989.63	211.05
989.92	210.71
990.22	210.31
990.51	210.21
990.80	210.00
991.09	210.31
991.38	210.74
991.67	210.43
991.96	210.24
992.25	210.31
992.54	209.81
992.83	209.88
993.12	210.12
993.41	210.60
993.70	211.55
993.99	211.95
994.28	212.24
994.58	212.40
994.87	212.31
995.16	212.21
995.45	212.05
995.74	211.21
996.03	211.62
996.32	211.76
996.61	212.31
996.90	212.12
997.19	211.88
997.48	211.55
997.77	211.50
998.06	211.81
998.34	211.60
998.63	211.86
998.92	211.71
999.21	212.19
999.50	212.02
999.79	211.05
1000.08	210.88
1000.37	210.93
1000.66	210.76
1000.95	211.33
1001.24	211.55
1001.53	211.81
1001.82	211.83
1002.11	211.29
1002.40	211.67
1002.68	212.02
1002.97	213.86
1003.26	213.48
1003.55	213.48
1003.84	213.60
1004.13	214.02
1004.42	213.90
1004.71	213.88
1004.99	213.71
1005.28	214.07
1005.57	213.83
1005.86	213.93
1006.15	213.90
1006.44	213.74
1006.72	213.83
1007.01	213.45
1007.30	213.29
1007.59	213.05
1007.88	213.10
1008.17	213.24
1008.45	212.67
1008.74	211.86
1009.03	210.69
1009.32	211.00
1009.60	211.07
1009.89	211.00
1010.18	210.26
1010.47	210.21
1010.76	210.02
1011.04	210.40
1011.33	210.29
1011.62	210.52
1011.91	210.71
1012.19	210.52
1012.48	210.29
1012.77	210.10
1013.05	211.12
1013.34	211.26
1013.63	211.19
1013.92	211.36
1014.20	211.17
1014.49	211.17
1014.78	211.43
1015.06	210.88
1015.35	210.64
1015.64	210.83
1015.92	211.00
1016.21	211.14
1016.50	211.21
1016.78	211.67
1017.07	211.50
1017.36	211.05
1017.64	210.83
1017.93	210.93
1018.22	210.71
1018.50	210.52
1018.79	210.57
1019.08	209.60
1019.36	209.69
1019.65	209.43
1019.93	209.98
1020.22	210.36
1020.51	211.36
1020.79	210.90
1021.08	205.00
1021.36	203.50
1021.65	209.00
1021.94	212.50
1022.22	212.50
1022.51	205.50
1022.79	221.00
1023.08	213.50
1023.36	232.00
1023.65	204.50
>>>>>End Processed Spectral Data<<<<<
