SpectraSuite Data File
++++++++++++++++++++++++++++++++++++
Date: Tue Apr 02 18:45:32 EDT 2013
User: group
Dark Spectrum Present: No
Reference Spectrum Present: No
Number of Sampled Component Spectra: 1
Spectrometers: USB2E7196
Integration Time (usec): 580000 (USB2E7196)
Spectra Averaged: 2 (USB2E7196)
Boxcar Smoothing: 10 (USB2E7196)
Correct for Electrical Dark: No (USB2E7196)
Strobe/Lamp Enabled: No (USB2E7196)
Correct for Detector Non-linearity: No (USB2E7196)
Correct for Stray Light: No (USB2E7196)
Number of Pixels in Processed Spectrum: 2048
>>>>>Begin Processed Spectral Data<<<<<
339.09	0.00
339.48	193.50
339.86	192.00
340.24	191.00
340.63	197.50
341.01	230.00
341.39	194.50
341.78	204.50
342.16	211.00
342.54	202.50
342.93	195.93
343.31	205.69
343.69	206.17
344.07	206.90
344.46	207.81
344.84	208.31
345.22	207.17
345.60	207.69
345.99	207.81
346.37	207.55
346.75	207.76
347.13	207.86
347.52	207.93
347.90	208.74
348.28	208.90
348.66	209.48
349.05	209.00
349.43	209.36
349.81	209.71
350.19	209.81
350.57	210.05
350.96	210.33
351.34	210.69
351.72	210.81
352.10	211.14
352.48	211.12
352.87	211.36
353.25	211.48
353.63	211.57
354.01	211.90
354.39	212.33
354.77	212.48
355.15	213.02
355.54	212.88
355.92	212.43
356.30	212.45
356.68	213.86
357.06	214.10
357.44	213.60
357.82	213.57
358.20	214.67
358.58	214.64
358.97	214.74
359.35	215.31
359.73	215.90
360.11	215.71
360.49	215.64
360.87	215.40
361.25	215.86
361.63	216.64
362.01	216.67
362.39	216.43
362.77	216.50
363.15	216.48
363.53	216.71
363.91	217.02
364.29	217.21
364.67	215.05
365.05	215.07
365.43	215.67
365.81	215.81
366.19	215.90
366.57	216.95
366.95	216.98
367.33	216.45
367.71	216.31
368.09	216.64
368.47	217.00
368.85	216.93
369.23	217.29
369.61	216.48
369.99	216.88
370.37	217.14
370.75	218.36
371.13	217.81
371.51	217.50
371.89	217.62
372.27	217.62
372.65	217.86
373.03	217.98
373.41	217.69
373.78	217.62
374.16	216.50
374.54	215.57
374.92	215.67
375.30	215.83
375.68	215.52
376.06	215.52
376.44	215.36
376.82	215.45
377.19	215.14
377.57	215.00
377.95	214.50
378.33	214.43
378.71	213.07
379.09	213.45
379.47	213.60
379.84	213.17
380.22	212.98
380.60	212.57
380.98	212.64
381.36	212.57
381.73	212.10
382.11	212.52
382.49	212.69
382.87	212.14
383.25	211.98
383.62	214.19
384.00	213.98
384.38	214.10
384.76	214.71
385.13	215.43
385.51	215.55
385.89	215.24
386.27	215.26
386.64	215.52
387.02	215.29
387.40	215.31
387.78	215.79
388.15	215.76
388.53	215.93
388.91	215.83
389.29	215.60
389.66	216.07
390.04	215.79
390.42	216.02
390.79	216.17
391.17	215.86
391.55	213.74
391.92	213.55
392.30	213.74
392.68	213.31
393.05	213.19
393.43	213.45
393.81	213.81
394.18	213.55
394.56	213.74
394.94	214.14
395.31	213.90
395.69	214.40
396.06	214.71
396.44	214.74
396.82	214.45
397.19	215.64
397.57	215.52
397.95	216.07
398.32	215.50
398.70	215.71
399.07	216.31
399.45	216.26
399.82	216.24
400.20	215.88
400.58	215.90
400.95	215.26
401.33	215.69
401.70	217.02
402.08	217.21
402.45	217.02
402.83	217.57
403.20	217.83
403.58	217.50
403.95	217.95
404.33	218.33
404.71	218.71
405.08	219.76
405.46	220.12
405.83	220.55
406.21	221.10
406.58	221.43
406.96	221.76
407.33	222.43
407.70	223.40
408.08	225.62
408.45	226.60
408.83	227.50
409.20	227.88
409.58	227.48
409.95	228.38
410.33	229.69
410.70	229.81
411.08	231.10
411.45	232.14
411.82	232.83
412.20	234.38
412.57	236.88
412.95	236.43
413.32	238.17
413.69	239.07
414.07	240.90
414.44	242.71
414.82	244.69
415.19	247.14
415.56	249.26
415.94	250.43
416.31	252.86
416.68	255.50
417.06	258.79
417.43	262.12
417.81	265.45
418.18	268.90
418.55	272.81
418.93	276.79
419.30	281.00
419.67	285.62
420.04	289.98
420.42	293.79
420.79	300.74
421.16	306.26
421.54	313.62
421.91	319.52
422.28	325.74
422.66	332.31
423.03	339.86
423.40	346.62
423.77	353.83
424.15	360.98
424.52	368.55
424.89	376.98
425.26	384.64
425.64	392.33
426.01	400.45
426.38	409.38
426.75	418.81
427.13	428.05
427.50	437.48
427.87	447.62
428.24	457.67
428.61	466.19
428.99	477.33
429.36	487.90
429.73	498.83
430.10	510.00
430.47	521.86
430.85	532.86
431.22	545.60
431.59	560.52
431.96	573.19
432.33	587.05
432.70	600.36
433.08	615.74
433.45	630.90
433.82	645.95
434.19	662.76
434.56	679.36
434.93	694.88
435.30	710.36
435.68	727.50
436.05	745.07
436.42	761.69
436.79	777.71
437.16	794.71
437.53	813.12
437.90	831.12
438.27	848.12
438.64	864.81
439.01	881.31
439.38	894.60
439.75	909.81
440.13	926.83
440.50	942.95
440.87	956.45
441.24	969.90
441.61	984.74
441.98	995.24
442.35	1006.90
442.72	1020.07
443.09	1033.24
443.46	1040.64
443.83	1045.24
444.20	1050.55
444.57	1055.98
444.94	1058.48
445.31	1061.76
445.68	1067.12
446.05	1069.00
446.42	1068.60
446.79	1067.48
447.16	1066.10
447.53	1064.60
447.90	1058.31
448.27	1051.83
448.64	1042.86
449.01	1037.29
449.37	1026.14
449.74	1015.33
450.11	1004.14
450.48	989.14
450.85	974.00
451.22	961.69
451.59	950.17
451.96	938.36
452.33	923.17
452.70	909.36
453.07	892.24
453.43	873.17
453.80	857.10
454.17	841.55
454.54	826.83
454.91	810.14
455.28	793.86
455.65	779.19
456.02	767.93
456.38	755.40
456.75	739.43
457.12	726.26
457.49	713.43
457.86	699.29
458.23	689.26
458.59	677.48
458.96	666.05
459.33	655.21
459.70	644.55
460.07	636.29
460.43	627.05
460.80	618.83
461.17	611.19
461.54	602.79
461.91	594.74
462.27	586.74
462.64	579.79
463.01	572.69
463.38	565.95
463.74	554.69
464.11	548.26
464.48	542.45
464.85	536.00
465.21	531.98
465.58	527.07
465.95	520.57
466.32	515.81
466.68	510.05
467.05	505.24
467.42	500.14
467.78	494.50
468.15	489.45
468.52	485.64
468.88	480.29
469.25	475.45
469.62	472.40
469.98	467.98
470.35	464.57
470.72	460.95
471.08	456.43
471.45	453.67
471.82	451.21
472.18	447.64
472.55	445.45
472.92	441.79
473.28	438.64
473.65	436.05
474.02	433.24
474.38	431.33
474.75	429.57
475.11	427.93
475.48	426.67
475.85	424.50
476.21	422.52
476.58	421.29
476.94	420.26
477.31	418.40
477.67	417.00
478.04	416.05
478.41	415.69
478.77	417.07
479.14	416.31
479.50	415.24
479.87	415.36
480.23	415.07
480.60	414.62
480.96	414.95
481.33	415.67
481.69	416.02
482.06	416.29
482.42	416.45
482.79	416.98
483.15	417.00
483.52	418.71
483.88	418.93
484.25	419.31
484.61	420.07
484.98	420.86
485.34	422.88
485.71	424.33
486.07	425.21
486.44	424.71
486.80	426.40
487.17	428.02
487.53	430.14
487.90	432.12
488.26	435.02
488.62	437.52
488.99	439.38
489.35	442.10
489.72	444.48
490.08	447.07
490.44	449.33
490.81	452.69
491.17	455.21
491.54	459.19
491.90	463.05
492.26	466.60
492.63	470.79
492.99	473.74
493.36	478.07
493.72	482.76
494.08	487.29
494.45	492.02
494.81	497.26
495.17	501.55
495.54	506.69
495.90	511.00
496.26	515.81
496.63	520.88
496.99	526.45
497.35	531.93
497.72	538.10
498.08	544.38
498.44	550.29
498.80	557.05
499.17	562.71
499.53	568.74
499.89	575.45
500.26	582.29
500.62	589.29
500.98	596.24
501.34	603.29
501.71	610.24
502.07	617.40
502.43	624.29
502.79	631.74
503.16	638.57
503.52	646.02
503.88	652.90
504.24	660.55
504.60	668.00
504.97	676.31
505.33	683.79
505.69	692.48
506.05	700.69
506.41	708.24
506.78	715.88
507.14	723.67
507.50	731.45
507.86	738.43
508.22	746.12
508.59	753.12
508.95	760.69
509.31	769.57
509.67	776.93
510.03	784.48
510.39	792.05
510.75	800.02
511.12	807.74
511.48	816.33
511.84	824.07
512.20	831.86
512.56	838.98
512.92	846.40
513.28	853.17
513.64	860.17
514.00	867.19
514.37	874.26
514.73	882.02
515.09	889.60
515.45	896.57
515.81	903.19
516.17	909.93
516.53	916.05
516.89	921.57
517.25	928.55
517.61	935.52
517.97	941.88
518.33	948.14
518.69	954.10
519.05	960.21
519.41	966.36
519.77	972.98
520.13	979.26
520.49	984.71
520.85	990.33
521.21	997.55
521.57	1003.21
521.93	1008.64
522.29	1013.76
522.65	1018.26
523.01	1024.43
523.37	1029.76
523.73	1035.36
524.09	1040.67
524.45	1046.00
524.81	1050.38
525.17	1055.62
525.53	1060.29
525.89	1065.40
526.25	1070.40
526.61	1074.48
526.97	1079.14
527.33	1083.14
527.68	1089.33
528.04	1094.29
528.40	1097.90
528.76	1101.19
529.12	1105.17
529.48	1110.31
529.84	1114.24
530.20	1119.00
530.56	1122.79
530.91	1127.12
531.27	1131.05
531.63	1135.50
531.99	1138.88
532.35	1142.57
532.71	1145.48
533.07	1149.74
533.42	1155.98
533.78	1160.43
534.14	1164.86
534.50	1168.62
534.86	1172.64
535.21	1174.57
535.57	1178.60
535.93	1182.19
536.29	1186.02
536.65	1189.79
537.00	1192.69
537.36	1196.38
537.72	1199.48
538.08	1203.24
538.44	1206.71
538.79	1210.14
539.15	1213.19
539.51	1216.31
539.87	1220.31
540.22	1224.02
540.58	1227.57
540.94	1227.81
541.29	1230.55
541.65	1232.62
542.01	1235.74
542.37	1237.62
542.72	1239.76
543.08	1242.24
543.44	1245.21
543.79	1247.07
544.15	1250.71
544.51	1254.43
544.87	1258.10
545.22	1261.69
545.58	1263.83
545.94	1266.29
546.29	1269.14
546.65	1271.40
547.01	1274.07
547.36	1276.31
547.72	1278.79
548.07	1281.21
548.43	1284.02
548.79	1286.12
549.14	1288.90
549.50	1290.86
549.86	1293.00
550.21	1295.45
550.57	1297.86
550.92	1300.60
551.28	1304.10
551.64	1306.31
551.99	1308.90
552.35	1311.38
552.70	1313.17
553.06	1316.17
553.41	1320.14
553.77	1323.90
554.13	1327.31
554.48	1332.14
554.84	1336.36
555.19	1339.55
555.55	1344.31
555.90	1347.98
556.26	1351.69
556.61	1354.95
556.97	1358.83
557.32	1363.21
557.68	1367.00
558.03	1371.38
558.39	1375.12
558.74	1379.19
559.10	1383.67
559.45	1387.52
559.81	1390.52
560.16	1394.48
560.52	1398.43
560.87	1401.79
561.23	1404.81
561.58	1411.00
561.94	1414.21
562.29	1418.48
562.64	1423.05
563.00	1426.52
563.35	1431.31
563.71	1435.55
564.06	1441.48
564.42	1446.31
564.77	1452.69
565.12	1458.95
565.48	1466.36
565.83	1473.10
566.19	1478.26
566.54	1482.02
566.89	1487.07
567.25	1493.67
567.60	1501.24
567.96	1508.83
568.31	1516.26
568.66	1523.17
569.02	1527.38
569.37	1533.10
569.72	1537.62
570.08	1541.79
570.43	1546.76
570.78	1553.10
571.14	1559.98
571.49	1565.19
571.84	1570.76
572.20	1574.36
572.55	1579.57
572.90	1581.60
573.26	1585.29
573.61	1589.02
573.96	1594.57
574.31	1599.05
574.67	1603.17
575.02	1605.60
575.37	1607.86
575.72	1610.17
576.08	1614.12
576.43	1617.76
576.78	1621.26
577.13	1625.95
577.49	1632.05
577.84	1636.69
578.19	1639.33
578.54	1642.71
578.90	1645.81
579.25	1649.38
579.60	1652.93
579.95	1655.69
580.30	1659.95
580.66	1663.24
581.01	1667.12
581.36	1670.24
581.71	1673.43
582.06	1677.26
582.42	1681.55
582.77	1685.14
583.12	1688.31
583.47	1691.48
583.82	1694.64
584.17	1698.05
584.53	1701.45
584.88	1704.02
585.23	1707.26
585.58	1709.81
585.93	1712.60
586.28	1716.52
586.63	1719.43
586.98	1722.45
587.34	1725.83
587.69	1728.00
588.04	1730.95
588.39	1733.71
588.74	1735.36
589.09	1738.71
589.44	1739.19
589.79	1740.93
590.14	1743.76
590.49	1745.67
590.84	1746.90
591.19	1748.62
591.54	1749.71
591.89	1750.90
592.25	1753.52
592.60	1754.26
592.95	1757.07
593.30	1758.21
593.65	1758.31
594.00	1758.83
594.35	1766.02
594.70	1766.52
595.05	1768.45
595.40	1769.29
595.75	1769.45
596.10	1771.67
596.45	1772.50
596.80	1774.33
597.15	1776.60
597.50	1776.71
597.85	1778.36
598.19	1779.05
598.54	1780.83
598.89	1781.88
599.24	1783.43
599.59	1783.79
599.94	1783.67
600.29	1783.64
600.64	1783.95
600.99	1784.74
601.34	1786.36
601.69	1780.00
602.04	1779.02
602.39	1778.02
602.74	1778.57
603.08	1778.60
603.43	1779.17
603.78	1778.45
604.13	1778.29
604.48	1776.64
604.83	1776.74
605.18	1777.31
605.53	1776.83
605.87	1775.67
606.22	1775.24
606.57	1773.60
606.92	1770.62
607.27	1769.86
607.62	1768.48
607.96	1768.45
608.31	1767.88
608.66	1766.07
609.01	1765.86
609.36	1766.29
609.70	1765.50
610.05	1762.60
610.40	1760.93
610.75	1758.64
611.10	1756.67
611.44	1754.26
611.79	1752.26
612.14	1750.00
612.49	1744.83
612.83	1742.05
613.18	1738.64
613.53	1735.38
613.88	1731.81
614.22	1729.07
614.57	1725.38
614.92	1721.55
615.27	1716.86
615.61	1712.76
615.96	1709.48
616.31	1705.52
616.65	1702.88
617.00	1699.98
617.35	1698.45
617.70	1696.21
618.04	1692.48
618.39	1688.19
618.74	1685.31
619.08	1680.14
619.43	1676.26
619.78	1674.43
620.12	1671.69
620.47	1669.45
620.82	1665.88
621.16	1662.31
621.51	1660.62
621.85	1657.48
622.20	1653.50
622.55	1649.88
622.89	1646.57
623.24	1643.62
623.59	1640.45
623.93	1635.62
624.28	1631.29
624.62	1628.90
624.97	1625.36
625.32	1621.31
625.66	1618.14
626.01	1613.74
626.35	1612.02
626.70	1607.74
627.04	1604.00
627.39	1599.86
627.73	1596.05
628.08	1592.98
628.43	1589.83
628.77	1585.10
629.12	1581.36
629.46	1578.83
629.81	1575.02
630.15	1570.88
630.50	1565.12
630.84	1559.95
631.19	1555.07
631.53	1550.62
631.88	1542.86
632.22	1537.00
632.57	1533.14
632.91	1527.55
633.26	1523.45
633.60	1517.55
633.95	1512.88
634.29	1507.57
634.64	1503.17
634.98	1497.45
635.32	1493.64
635.67	1489.38
636.01	1484.45
636.36	1479.60
636.70	1474.86
637.05	1470.02
637.39	1465.33
637.73	1460.74
638.08	1457.05
638.42	1453.45
638.77	1449.10
639.11	1445.33
639.45	1440.33
639.80	1434.88
640.14	1431.26
640.49	1426.67
640.83	1421.81
641.17	1418.48
641.52	1413.43
641.86	1407.55
642.20	1403.33
642.55	1397.07
642.89	1391.71
643.23	1386.50
643.58	1381.71
643.92	1375.60
644.26	1370.26
644.61	1365.17
644.95	1360.60
645.29	1354.19
645.64	1348.69
645.98	1342.86
646.32	1337.50
646.66	1332.10
647.01	1326.60
647.35	1321.21
647.69	1315.05
648.04	1310.10
648.38	1303.60
648.72	1297.40
649.06	1291.88
649.41	1286.00
649.75	1279.67
650.09	1273.55
650.43	1267.62
650.78	1261.67
651.12	1256.02
651.46	1250.50
651.80	1244.14
652.14	1237.71
652.49	1232.24
652.83	1225.12
653.17	1217.64
653.51	1210.88
653.85	1205.60
654.20	1198.33
654.54	1192.36
654.88	1186.38
655.22	1180.17
655.56	1173.48
655.90	1167.90
656.25	1161.36
656.59	1155.02
656.93	1149.10
657.27	1143.69
657.61	1136.71
657.95	1130.57
658.29	1124.57
658.64	1118.76
658.98	1112.24
659.32	1105.74
659.66	1098.71
660.00	1093.10
660.34	1087.64
660.68	1082.45
661.02	1075.71
661.36	1070.55
661.70	1063.52
662.05	1057.00
662.39	1051.45
662.73	1045.69
663.07	1040.36
663.41	1035.00
663.75	1028.83
664.09	1023.19
664.43	1016.81
664.77	1011.36
665.11	1004.83
665.45	999.45
665.79	993.55
666.13	987.90
666.47	982.69
666.81	977.93
667.15	972.12
667.49	967.14
667.83	961.69
668.17	956.29
668.51	950.69
668.85	945.86
669.19	941.90
669.53	935.50
669.87	929.48
670.21	923.36
670.55	917.45
670.89	912.50
671.23	907.21
671.57	900.98
671.91	896.21
672.25	891.81
672.58	886.95
672.92	881.05
673.26	875.62
673.60	870.64
673.94	865.02
674.28	860.05
674.62	855.19
674.96	849.64
675.30	844.83
675.64	839.48
675.97	834.05
676.31	828.00
676.65	822.81
676.99	819.48
677.33	814.31
677.67	809.43
678.01	804.21
678.34	799.45
678.68	795.17
679.02	789.45
679.36	784.38
679.70	778.36
680.04	773.19
680.37	768.10
680.71	762.67
681.05	758.76
681.39	754.02
681.73	748.86
682.06	743.93
682.40	738.86
682.74	734.40
683.08	730.36
683.42	724.93
683.75	720.48
684.09	714.26
684.43	709.60
684.77	704.57
685.10	699.52
685.44	694.71
685.78	690.07
686.12	686.14
686.45	681.14
686.79	676.31
687.13	672.48
687.46	668.24
687.80	664.40
688.14	659.05
688.48	654.60
688.81	650.24
689.15	646.00
689.49	641.19
689.82	637.10
690.16	632.10
690.50	628.43
690.83	623.90
691.17	619.67
691.51	615.38
691.84	611.90
692.18	607.79
692.52	603.45
692.85	599.26
693.19	595.69
693.52	591.64
693.86	587.31
694.20	582.81
694.53	579.14
694.87	574.33
695.21	570.07
695.54	566.00
695.88	561.05
696.21	556.98
696.55	553.33
696.88	549.50
697.22	545.64
697.56	541.71
697.89	538.00
698.23	534.52
698.56	531.07
698.90	526.95
699.23	523.26
699.57	519.83
699.90	515.57
700.24	511.14
700.58	507.55
700.91	504.86
701.25	503.31
701.58	500.19
701.92	498.17
702.25	495.00
702.59	491.43
702.92	488.88
703.26	485.48
703.59	482.29
703.93	480.64
704.26	477.81
704.60	475.12
704.93	471.86
705.26	468.93
705.60	466.31
705.93	463.50
706.27	461.21
706.60	458.64
706.94	456.90
707.27	454.14
707.61	451.19
707.94	448.19
708.27	443.48
708.61	440.10
708.94	436.60
709.28	433.95
709.61	431.14
709.94	428.43
710.28	426.12
710.61	423.74
710.95	419.50
711.28	418.29
711.61	415.31
711.95	413.57
712.28	410.71
712.61	407.79
712.95	406.36
713.28	404.76
713.61	402.05
713.95	399.12
714.28	396.98
714.61	394.93
714.95	392.74
715.28	390.64
715.61	388.33
715.95	386.55
716.28	384.40
716.61	382.90
716.95	380.64
717.28	378.67
717.61	376.33
717.94	374.40
718.28	370.98
718.61	369.00
718.94	366.64
719.27	364.76
719.61	363.36
719.94	360.83
720.27	357.76
720.60	355.79
720.94	354.26
721.27	352.57
721.60	351.07
721.93	349.33
722.27	348.86
722.60	347.67
722.93	345.40
723.26	343.95
723.59	341.76
723.93	340.60
724.26	338.71
724.59	337.31
724.92	336.00
725.25	335.14
725.59	333.76
725.92	332.57
726.25	331.40
726.58	329.88
726.91	328.45
727.24	327.38
727.57	326.19
727.91	324.50
728.24	323.48
728.57	321.88
728.90	320.86
729.23	318.36
729.56	317.90
729.89	316.95
730.22	315.67
730.55	314.81
730.89	313.60
731.22	312.48
731.55	311.43
731.88	310.26
732.21	308.69
732.54	307.33
732.87	306.19
733.20	305.29
733.53	304.19
733.86	303.26
734.19	301.81
734.52	300.86
734.85	301.48
735.18	300.05
735.51	299.76
735.84	298.57
736.17	298.31
736.50	296.31
736.83	297.64
737.16	297.02
737.49	296.43
737.82	295.64
738.15	295.12
738.48	294.14
738.81	293.29
739.14	292.12
739.47	291.36
739.80	290.24
740.13	289.40
740.46	288.19
740.79	287.38
741.12	286.64
741.45	285.71
741.78	283.74
742.11	283.60
742.44	282.43
742.77	282.02
743.10	280.93
743.43	280.19
743.75	277.33
744.08	278.90
744.41	277.62
744.74	276.55
745.07	275.24
745.40	274.67
745.73	274.48
746.06	273.98
746.39	273.43
746.71	272.76
747.04	271.69
747.37	271.10
747.70	270.52
748.03	269.86
748.36	269.36
748.68	268.52
749.01	267.26
749.34	266.67
749.67	265.93
750.00	265.64
750.33	266.40
750.65	265.83
750.98	262.74
751.31	262.26
751.64	261.67
751.97	262.55
752.29	262.26
752.62	260.81
752.95	260.00
753.28	259.40
753.60	258.90
753.93	259.00
754.26	258.64
754.59	257.52
754.91	257.00
755.24	256.48
755.57	255.88
755.90	255.21
756.22	254.31
756.55	253.48
756.88	252.55
757.20	250.83
757.53	249.67
757.86	249.31
758.19	249.05
758.51	248.48
758.84	246.88
759.17	245.79
759.49	245.64
759.82	246.29
760.15	245.79
760.47	245.07
760.80	244.21
761.13	244.07
761.45	243.79
761.78	243.19
762.11	242.62
762.43	242.14
762.76	241.86
763.08	241.81
763.41	241.50
763.74	241.10
764.06	240.79
764.39	240.74
764.71	240.29
765.04	239.55
765.37	239.17
765.69	238.71
766.02	238.64
766.34	238.00
766.67	236.90
767.00	237.19
767.32	238.19
767.65	239.05
767.97	238.29
768.30	238.07
768.62	237.74
768.95	237.26
769.27	236.83
769.60	236.74
769.92	236.14
770.25	235.76
770.57	235.19
770.90	234.86
771.22	234.38
771.55	234.19
771.87	234.12
772.20	233.95
772.52	235.36
772.85	237.60
773.17	237.45
773.50	237.29
773.82	236.60
774.15	235.45
774.47	233.74
774.80	233.26
775.12	232.98
775.45	232.98
775.77	233.02
776.09	232.93
776.42	232.60
776.74	233.10
777.07	232.62
777.39	232.57
777.72	232.19
778.04	232.14
778.36	232.00
778.69	231.86
779.01	231.64
779.33	229.81
779.66	227.38
779.98	227.31
780.31	226.95
780.63	227.76
780.95	227.60
781.28	227.64
781.60	227.64
781.92	227.43
782.25	227.00
782.57	226.69
782.89	226.57
783.22	226.52
783.54	225.83
783.86	225.98
784.19	225.62
784.51	226.29
784.83	226.00
785.16	225.48
785.48	225.26
785.80	225.33
786.12	225.31
786.45	225.05
786.77	224.71
787.09	224.64
787.42	223.64
787.74	223.76
788.06	223.64
788.38	223.57
788.71	223.31
789.03	223.43
789.35	223.81
789.67	223.45
789.99	223.26
790.32	222.83
790.64	222.88
790.96	224.93
791.28	223.86
791.61	223.71
791.93	223.69
792.25	223.62
792.57	225.00
792.89	224.76
793.21	224.81
793.54	224.79
793.86	224.48
794.18	224.45
794.50	224.07
794.82	223.86
795.14	224.05
795.47	224.45
795.79	224.48
796.11	223.67
796.43	223.52
796.75	223.67
797.07	223.90
797.39	223.86
797.71	222.02
798.04	222.40
798.36	222.50
798.68	222.40
799.00	222.43
799.32	221.05
799.64	221.21
799.96	220.90
800.28	221.19
800.60	221.19
800.92	221.38
801.24	221.10
801.56	221.14
801.89	220.52
802.21	220.60
802.53	220.02
802.85	220.60
803.17	221.57
803.49	221.02
803.81	220.64
804.13	220.50
804.45	220.26
804.77	220.26
805.09	220.48
805.41	220.38
805.73	219.95
806.05	219.52
806.37	219.40
806.69	219.57
807.01	219.07
807.33	219.00
807.65	218.14
807.97	219.12
808.28	219.12
808.60	219.31
808.92	218.76
809.24	220.05
809.56	219.48
809.88	218.69
810.20	218.64
810.52	219.19
810.84	218.88
811.16	218.64
811.48	218.38
811.80	218.98
812.12	218.86
812.43	219.12
812.75	219.40
813.07	219.17
813.39	218.81
813.71	218.71
814.03	218.52
814.35	218.74
814.67	217.93
814.98	217.55
815.30	217.38
815.62	217.07
815.94	215.69
816.26	215.86
816.58	215.38
816.89	215.76
817.21	215.00
817.53	214.88
817.85	215.10
818.17	215.00
818.48	213.98
818.80	214.40
819.12	214.02
819.44	213.60
819.76	213.40
820.07	213.40
820.39	213.21
820.71	213.50
821.03	213.36
821.34	213.24
821.66	213.98
821.98	214.24
822.30	214.02
822.61	215.31
822.93	214.93
823.25	215.00
823.57	214.57
823.88	215.17
824.20	215.24
824.52	215.40
824.83	215.29
825.15	215.00
825.47	214.71
825.79	214.98
826.10	214.93
826.42	214.57
826.74	214.79
827.05	214.76
827.37	214.60
827.69	214.64
828.00	214.45
828.32	214.07
828.64	213.55
828.95	214.90
829.27	214.36
829.58	214.31
829.90	214.60
830.22	214.88
830.53	214.52
830.85	214.38
831.17	213.81
831.48	213.98
831.80	214.10
832.11	213.98
832.43	213.69
832.75	213.71
833.06	215.17
833.38	214.55
833.69	214.43
834.01	214.69
834.32	214.52
834.64	214.57
834.96	214.76
835.27	215.21
835.59	214.43
835.90	213.86
836.22	213.79
836.53	213.45
836.85	213.36
837.16	215.31
837.48	215.45
837.79	216.33
838.11	216.33
838.42	216.45
838.74	216.67
839.05	216.79
839.37	216.69
839.68	215.43
840.00	215.45
840.31	216.02
840.63	215.52
840.94	215.45
841.26	215.31
841.57	215.05
841.88	215.14
842.20	214.86
842.51	214.83
842.83	215.17
843.14	217.21
843.46	217.07
843.77	215.76
844.08	215.57
844.40	215.05
844.71	214.60
845.03	214.21
845.34	214.14
845.65	213.93
845.97	213.93
846.28	214.05
846.60	214.24
846.91	213.79
847.22	214.02
847.54	214.64
847.85	214.64
848.16	214.64
848.48	214.21
848.79	215.29
849.10	215.71
849.42	215.62
849.73	213.45
850.04	213.57
850.36	212.79
850.67	213.17
850.98	213.05
851.30	213.62
851.61	213.52
851.92	213.31
852.23	214.10
852.55	214.05
852.86	214.12
853.17	214.43
853.49	214.93
853.80	215.26
854.11	215.38
854.42	215.86
854.74	215.50
855.05	215.55
855.36	214.43
855.67	214.36
855.99	214.50
856.30	217.05
856.61	216.90
856.92	217.10
857.23	217.07
857.55	216.88
857.86	216.43
858.17	217.05
858.48	217.05
858.79	216.45
859.11	216.69
859.42	216.52
859.73	216.26
860.04	216.19
860.35	215.55
860.66	214.74
860.98	214.60
861.29	214.98
861.60	214.90
861.91	215.31
862.22	214.95
862.53	214.62
862.84	212.17
863.16	212.79
863.47	212.52
863.78	212.57
864.09	212.62
864.40	213.00
864.71	212.90
865.02	213.12
865.33	212.71
865.64	212.50
865.95	212.57
866.27	213.83
866.58	213.52
866.89	213.55
867.20	213.45
867.51	212.93
867.82	212.52
868.13	213.29
868.44	212.69
868.75	213.02
869.06	213.12
869.37	213.55
869.68	212.67
869.99	213.10
870.30	213.24
870.61	213.50
870.92	213.07
871.23	212.79
871.54	213.12
871.85	213.67
872.16	213.74
872.47	213.76
872.78	212.50
873.09	212.71
873.40	212.95
873.71	213.24
874.02	213.55
874.33	213.45
874.64	212.93
874.95	213.45
875.26	213.17
875.56	213.17
875.87	212.90
876.18	212.79
876.49	214.62
876.80	214.26
877.11	213.83
877.42	214.02
877.73	214.33
878.04	213.90
878.35	214.17
878.66	214.12
878.96	213.90
879.27	213.79
879.58	213.69
879.89	213.57
880.20	214.02
880.51	213.98
880.82	214.12
881.12	214.24
881.43	213.86
881.74	213.57
882.05	213.55
882.36	213.64
882.67	213.88
882.97	211.60
883.28	211.40
883.59	211.74
883.90	211.88
884.21	212.00
884.51	211.83
884.82	211.02
885.13	211.07
885.44	210.95
885.74	211.10
886.05	211.02
886.36	210.90
886.67	210.31
886.98	211.17
887.28	211.45
887.59	211.10
887.90	211.33
888.20	211.31
888.51	211.64
888.82	211.33
889.13	211.38
889.43	213.12
889.74	213.12
890.05	212.81
890.35	212.55
890.66	212.05
890.97	211.93
891.28	211.98
891.58	211.95
891.89	212.29
892.20	212.14
892.50	212.05
892.81	212.00
893.12	211.88
893.42	211.14
893.73	211.19
894.04	211.43
894.34	211.21
894.65	211.19
894.95	210.93
895.26	211.02
895.57	212.02
895.87	210.17
896.18	210.52
896.48	210.57
896.79	210.38
897.10	210.81
897.40	211.02
897.71	211.43
898.01	211.38
898.32	211.55
898.63	211.29
898.93	211.43
899.24	211.55
899.54	211.55
899.85	211.26
900.15	211.00
900.46	211.05
900.76	211.40
901.07	211.45
901.38	211.50
901.68	211.60
901.99	210.71
902.29	211.05
902.60	210.83
902.90	210.79
903.21	211.17
903.51	210.98
903.82	211.38
904.12	211.40
904.43	211.69
904.73	211.64
905.03	212.02
905.34	214.07
905.64	213.81
905.95	213.76
906.25	213.86
906.56	213.88
906.86	213.86
907.17	213.57
907.47	213.69
907.77	213.38
908.08	213.05
908.38	213.14
908.69	213.26
908.99	213.62
909.30	213.79
909.60	213.74
909.90	213.90
910.21	213.21
910.51	212.98
910.81	213.12
911.12	213.07
911.42	213.02
911.73	210.74
912.03	211.17
912.33	211.62
912.64	211.45
912.94	211.43
913.24	211.00
913.55	210.93
913.85	210.79
914.15	211.17
914.46	211.36
914.76	211.19
915.06	210.83
915.37	210.29
915.67	210.12
915.97	210.02
916.27	209.50
916.58	209.62
916.88	209.60
917.18	209.31
917.49	210.52
917.79	210.52
918.09	211.02
918.39	211.38
918.70	211.12
919.00	211.19
919.30	212.10
919.60	212.12
919.91	212.02
920.21	212.14
920.51	211.71
920.81	211.90
921.12	212.21
921.42	212.17
921.72	212.36
922.02	212.50
922.32	212.64
922.63	212.81
922.93	214.07
923.23	214.21
923.53	213.79
923.83	212.60
924.13	212.52
924.44	212.17
924.74	212.33
925.04	212.86
925.34	212.79
925.64	211.79
925.94	212.12
926.24	213.19
926.55	212.86
926.85	213.24
927.15	213.10
927.45	212.71
927.75	212.90
928.05	212.98
928.35	212.88
928.65	213.52
928.95	213.52
929.26	212.31
929.56	212.64
929.86	213.14
930.16	212.81
930.46	212.74
930.76	212.88
931.06	212.17
931.36	211.74
931.66	212.19
931.96	212.48
932.26	212.45
932.56	211.64
932.86	211.90
933.16	211.88
933.46	211.55
933.76	211.60
934.06	212.17
934.36	212.98
934.66	212.81
934.96	212.43
935.26	212.74
935.56	213.12
935.86	212.62
936.16	212.17
936.46	212.21
936.76	212.10
937.06	211.83
937.36	211.90
937.66	211.95
937.96	211.71
938.26	211.29
938.56	211.12
938.86	211.45
939.16	211.98
939.46	212.00
939.76	212.43
940.06	212.50
940.35	211.81
940.65	210.81
940.95	211.14
941.25	210.57
941.55	210.14
941.85	210.29
942.15	210.79
942.45	211.57
942.75	211.38
943.04	211.69
943.34	212.21
943.64	212.05
943.94	211.98
944.24	212.14
944.54	212.29
944.84	212.14
945.13	211.57
945.43	211.14
945.73	211.33
946.03	211.26
946.33	210.81
946.62	210.86
946.92	210.95
947.22	211.14
947.52	211.14
947.82	211.55
948.11	211.12
948.41	210.45
948.71	209.71
949.01	209.95
949.31	209.79
949.60	209.50
949.90	209.93
950.20	209.79
950.50	209.60
950.79	209.45
951.09	209.95
951.39	210.07
951.69	209.90
951.98	209.98
952.28	209.98
952.58	210.17
952.87	210.14
953.17	210.26
953.47	209.76
953.76	209.81
954.06	209.45
954.36	209.24
954.66	209.21
954.95	209.83
955.25	210.05
955.55	210.05
955.84	209.79
956.14	209.50
956.44	209.40
956.73	209.26
957.03	209.40
957.32	209.05
957.62	208.86
957.92	209.07
958.21	209.07
958.51	211.31
958.81	211.62
959.10	211.69
959.40	212.19
959.69	212.45
959.99	212.76
960.29	212.76
960.58	212.71
960.88	213.76
961.17	213.36
961.47	213.43
961.76	213.60
962.06	213.88
962.36	213.76
962.65	213.98
962.95	214.12
963.24	214.07
963.54	214.29
963.83	214.67
964.13	214.69
964.42	214.05
964.72	212.43
965.01	212.26
965.31	212.36
965.60	211.81
965.90	213.00
966.19	212.69
966.49	213.10
966.78	213.24
967.08	212.95
967.37	213.14
967.67	212.93
967.96	213.17
968.26	213.05
968.55	213.50
968.85	213.36
969.14	213.31
969.43	213.19
969.73	213.05
970.02	213.00
970.32	212.98
970.61	213.05
970.91	212.45
971.20	212.29
971.49	212.07
971.79	212.17
972.08	210.86
972.38	211.02
972.67	210.88
972.96	211.12
973.26	210.62
973.55	211.12
973.85	210.81
974.14	210.64
974.43	210.95
974.73	210.62
975.02	210.62
975.31	210.67
975.61	210.93
975.90	210.79
976.19	210.50
976.49	210.69
976.78	210.83
977.07	210.93
977.37	211.00
977.66	211.50
977.95	211.31
978.24	211.52
978.54	211.83
978.83	211.40
979.12	211.36
979.42	211.57
979.71	211.31
980.00	211.45
980.29	211.50
980.59	211.12
980.88	211.81
981.17	211.71
981.46	211.81
981.76	211.52
982.05	212.10
982.34	212.12
982.63	211.90
982.93	211.90
983.22	212.29
983.51	212.52
983.80	212.64
984.09	213.02
984.39	212.81
984.68	212.60
984.97	212.95
985.26	212.60
985.55	212.79
985.85	212.50
986.14	212.93
986.43	213.07
986.72	213.00
987.01	212.07
987.30	212.00
987.59	211.67
987.89	211.76
988.18	211.12
988.47	210.95
988.76	210.93
989.05	210.93
989.34	210.57
989.63	211.00
989.92	210.50
990.22	210.00
990.51	209.81
990.80	209.79
991.09	209.64
991.38	209.88
991.67	209.40
991.96	209.07
992.25	209.05
992.54	208.62
992.83	208.69
993.12	208.90
993.41	209.43
993.70	210.38
993.99	210.79
994.28	211.10
994.58	211.64
994.87	211.57
995.16	211.38
995.45	211.19
995.74	210.48
996.03	210.62
996.32	211.00
996.61	211.60
996.90	211.45
997.19	211.45
997.48	211.55
997.77	211.45
998.06	211.57
998.34	211.19
998.63	211.29
998.92	211.24
999.21	211.43
999.50	211.17
999.79	210.48
1000.08	210.45
1000.37	210.40
1000.66	209.90
1000.95	210.29
1001.24	210.45
1001.53	210.76
1001.82	210.74
1002.11	210.45
1002.40	210.74
1002.68	211.29
1002.97	212.90
1003.26	212.71
1003.55	212.43
1003.84	212.55
1004.13	213.17
1004.42	212.98
1004.71	212.83
1004.99	212.90
1005.28	213.36
1005.57	213.40
1005.86	213.17
1006.15	213.02
1006.44	212.64
1006.72	212.93
1007.01	212.74
1007.30	212.69
1007.59	212.38
1007.88	212.24
1008.17	212.31
1008.45	211.79
1008.74	210.81
1009.03	209.48
1009.32	209.74
1009.60	209.67
1009.89	209.43
1010.18	208.79
1010.47	209.07
1010.76	209.00
1011.04	208.98
1011.33	208.71
1011.62	208.79
1011.91	208.90
1012.19	208.88
1012.48	209.14
1012.77	209.24
1013.05	209.95
1013.34	209.83
1013.63	209.95
1013.92	210.14
1014.20	210.12
1014.49	210.14
1014.78	210.29
1015.06	209.76
1015.35	209.57
1015.64	209.74
1015.92	210.29
1016.21	210.26
1016.50	210.17
1016.78	210.69
1017.07	210.57
1017.36	210.26
1017.64	209.95
1017.93	210.26
1018.22	209.93
1018.50	209.67
1018.79	209.45
1019.08	208.55
1019.36	209.10
1019.65	208.81
1019.93	209.55
1020.22	209.79
1020.51	210.76
1020.79	210.62
1021.08	203.50
1021.36	203.50
1021.65	209.00
1021.94	208.50
1022.22	217.00
1022.51	206.00
1022.79	222.50
1023.08	212.50
1023.36	231.50
1023.65	207.50
>>>>>End Processed Spectral Data<<<<<
