SpectraSuite Data File
++++++++++++++++++++++++++++++++++++
Date: Tue Apr 02 18:45:35 EDT 2013
User: group
Dark Spectrum Present: No
Reference Spectrum Present: No
Number of Sampled Component Spectra: 1
Spectrometers: USB2E7196
Integration Time (usec): 580000 (USB2E7196)
Spectra Averaged: 2 (USB2E7196)
Boxcar Smoothing: 10 (USB2E7196)
Correct for Electrical Dark: No (USB2E7196)
Strobe/Lamp Enabled: No (USB2E7196)
Correct for Detector Non-linearity: No (USB2E7196)
Correct for Stray Light: No (USB2E7196)
Number of Pixels in Processed Spectrum: 2048
>>>>>Begin Processed Spectral Data<<<<<
339.09	0.00
339.48	192.00
339.86	194.50
340.24	198.00
340.63	198.00
341.01	229.50
341.39	197.50
341.78	206.00
342.16	209.50
342.54	205.50
342.93	196.17
343.31	205.88
343.69	206.31
344.07	207.07
344.46	207.86
344.84	208.36
345.22	207.19
345.60	207.76
345.99	207.83
346.37	207.90
346.75	207.93
347.13	208.10
347.52	208.26
347.90	208.98
348.28	208.98
348.66	209.26
349.05	208.88
349.43	209.19
349.81	209.71
350.19	209.74
350.57	209.79
350.96	210.17
351.34	210.62
351.72	210.90
352.10	210.95
352.48	210.74
352.87	210.74
353.25	210.81
353.63	210.81
354.01	210.79
354.39	210.74
354.77	210.95
355.15	211.50
355.54	211.31
355.92	210.90
356.30	210.90
356.68	212.38
357.06	212.74
357.44	212.45
357.82	212.57
358.20	213.74
358.58	213.60
358.97	213.83
359.35	214.00
359.73	214.55
360.11	214.45
360.49	214.45
360.87	214.43
361.25	214.98
361.63	215.50
362.01	216.00
362.39	215.93
362.77	215.93
363.15	215.71
363.53	215.90
363.91	216.05
364.29	216.26
364.67	214.29
365.05	214.43
365.43	214.76
365.81	215.12
366.19	215.10
366.57	216.24
366.95	216.19
367.33	215.86
367.71	215.76
368.09	216.07
368.47	216.10
368.85	216.24
369.23	216.48
369.61	215.79
369.99	216.29
370.37	216.67
370.75	217.55
371.13	217.33
371.51	217.00
371.89	217.14
372.27	217.26
372.65	217.50
373.03	217.43
373.41	217.31
373.78	216.98
374.16	215.95
374.54	215.12
374.92	214.76
375.30	214.93
375.68	214.40
376.06	214.62
376.44	214.60
376.82	214.88
377.19	214.90
377.57	215.05
377.95	214.36
378.33	214.12
378.71	213.10
379.09	213.24
379.47	213.57
379.84	213.14
380.22	212.81
380.60	212.57
380.98	212.24
381.36	212.36
381.73	212.19
382.11	212.57
382.49	212.71
382.87	212.55
383.25	212.45
383.62	214.90
384.00	214.50
384.38	214.64
384.76	214.71
385.13	215.43
385.51	215.38
385.89	215.26
386.27	215.57
386.64	216.07
387.02	215.86
387.40	215.64
387.78	215.88
388.15	216.05
388.53	215.83
388.91	216.05
389.29	215.81
389.66	216.05
390.04	215.81
390.42	216.10
390.79	216.31
391.17	216.40
391.55	214.24
391.92	214.19
392.30	214.50
392.68	214.29
393.05	214.05
393.43	214.00
393.81	213.93
394.18	213.40
394.56	213.26
394.94	213.81
395.31	213.67
395.69	214.43
396.06	214.81
396.44	215.17
396.82	215.05
397.19	216.26
397.57	215.83
397.95	216.21
398.32	215.69
398.70	215.83
399.07	216.10
399.45	216.02
399.82	216.07
400.20	215.90
400.58	215.93
400.95	215.00
401.33	215.52
401.70	217.12
402.08	217.14
402.45	217.40
402.83	217.71
403.20	218.00
403.58	217.67
403.95	218.02
404.33	218.45
404.71	218.60
405.08	219.43
405.46	219.86
405.83	220.17
406.21	220.50
406.58	220.93
406.96	221.21
407.33	221.81
407.70	222.57
408.08	224.60
408.45	225.36
408.83	226.40
409.20	226.90
409.58	226.60
409.95	228.10
410.33	228.83
410.70	229.43
411.08	230.60
411.45	231.52
411.82	232.29
412.20	233.81
412.57	236.33
412.95	236.00
413.32	237.79
413.69	239.10
414.07	240.67
414.44	242.57
414.82	244.55
415.19	247.07
415.56	249.43
415.94	250.50
416.31	253.26
416.68	255.93
417.06	259.33
417.43	262.52
417.81	265.71
418.18	269.24
418.55	272.90
418.93	276.86
419.30	281.17
419.67	285.74
420.04	290.10
420.42	293.98
420.79	301.40
421.16	307.12
421.54	313.88
421.91	320.14
422.28	326.38
422.66	332.90
423.03	340.64
423.40	347.24
423.77	354.55
424.15	361.45
424.52	369.62
424.89	378.02
425.26	385.74
425.64	393.14
426.01	401.48
426.38	410.38
426.75	419.76
427.13	429.10
427.50	438.50
427.87	448.50
428.24	458.55
428.61	466.21
428.99	477.29
429.36	487.64
429.73	498.64
430.10	509.76
430.47	521.57
430.85	532.33
431.22	544.45
431.59	558.88
431.96	572.00
432.33	584.98
432.70	598.31
433.08	614.43
433.45	629.83
433.82	645.17
434.19	661.50
434.56	678.19
434.93	693.50
435.30	709.31
435.68	726.55
436.05	743.98
436.42	761.36
436.79	776.43
437.16	793.76
437.53	811.36
437.90	828.79
438.27	846.05
438.64	863.71
439.01	881.17
439.38	894.86
439.75	909.48
440.13	926.33
440.50	942.45
440.87	955.21
441.24	968.43
441.61	982.69
441.98	993.76
442.35	1005.95
442.72	1018.64
443.09	1032.21
443.46	1039.69
443.83	1045.50
444.20	1050.55
444.57	1057.02
444.94	1060.26
445.31	1063.86
445.68	1070.05
446.05	1071.55
446.42	1070.12
446.79	1069.10
447.16	1067.45
447.53	1066.48
447.90	1060.81
448.27	1053.93
448.64	1045.14
449.01	1039.52
449.37	1028.55
449.74	1017.55
450.11	1006.12
450.48	991.74
450.85	976.48
451.22	963.90
451.59	951.40
451.96	939.60
452.33	924.17
452.70	909.83
453.07	892.83
453.43	873.00
453.80	856.95
454.17	841.36
454.54	825.69
454.91	809.76
455.28	793.31
455.65	778.33
456.02	767.26
456.38	754.64
456.75	738.67
457.12	725.57
457.49	712.90
457.86	698.60
458.23	689.17
458.59	676.83
458.96	665.36
459.33	654.55
459.70	644.02
460.07	635.86
460.43	626.17
460.80	617.90
461.17	610.81
461.54	602.52
461.91	595.21
462.27	587.36
462.64	580.33
463.01	573.57
463.38	567.14
463.74	556.48
464.11	549.81
464.48	544.43
464.85	538.00
465.21	533.88
465.58	529.12
465.95	522.07
466.32	517.45
466.68	511.88
467.05	507.21
467.42	502.57
467.78	497.07
468.15	491.98
468.52	488.24
468.88	482.62
469.25	477.74
469.62	474.26
469.98	469.88
470.35	466.17
470.72	462.43
471.08	457.81
471.45	454.71
471.82	452.21
472.18	448.69
472.55	446.31
472.92	442.55
473.28	439.79
473.65	436.98
474.02	433.95
474.38	432.55
474.75	430.21
475.11	427.43
475.48	425.98
475.85	424.55
476.21	423.00
476.58	422.19
476.94	421.31
477.31	419.93
477.67	418.86
478.04	417.86
478.41	417.12
478.77	418.50
479.14	417.33
479.50	416.50
479.87	415.93
480.23	415.81
480.60	415.60
480.96	415.31
481.33	416.21
481.69	416.26
482.06	416.19
482.42	417.00
482.79	417.60
483.15	417.81
483.52	418.81
483.88	418.81
484.25	419.33
484.61	419.86
484.98	420.29
485.34	422.24
485.71	423.60
486.07	424.83
486.44	424.19
486.80	426.02
487.17	427.57
487.53	430.21
487.90	432.45
488.26	435.00
488.62	437.48
488.99	439.17
489.35	442.12
489.72	444.48
490.08	446.67
490.44	449.26
490.81	452.74
491.17	455.74
491.54	459.60
491.90	463.02
492.26	466.88
492.63	470.71
492.99	474.10
493.36	478.17
493.72	482.38
494.08	486.64
494.45	491.48
494.81	496.57
495.17	500.60
495.54	505.50
495.90	510.12
496.26	514.74
496.63	520.57
496.99	525.67
497.35	531.10
497.72	536.98
498.08	542.71
498.44	548.31
498.80	554.62
499.17	560.60
499.53	566.83
499.89	573.48
500.26	580.43
500.62	586.79
500.98	593.64
501.34	600.90
501.71	608.38
502.07	615.29
502.43	622.19
502.79	629.29
503.16	636.10
503.52	643.38
503.88	650.36
504.24	657.98
504.60	665.48
504.97	673.64
505.33	681.33
505.69	690.33
506.05	698.12
506.41	705.86
506.78	713.43
507.14	720.69
507.50	728.76
507.86	736.38
508.22	744.88
508.59	751.95
508.95	759.24
509.31	767.88
509.67	775.67
510.03	783.14
510.39	790.88
510.75	799.26
511.12	807.02
511.48	815.52
511.84	823.00
512.20	830.67
512.56	838.24
512.92	845.88
513.28	853.24
513.64	860.31
514.00	867.69
514.37	875.00
514.73	883.36
515.09	891.10
515.45	897.88
515.81	904.33
516.17	911.93
516.53	918.55
516.89	924.60
517.25	931.29
517.61	938.31
517.97	944.95
518.33	951.31
518.69	957.48
519.05	963.95
519.41	969.64
519.77	977.12
520.13	982.52
520.49	987.74
520.85	993.05
521.21	1000.02
521.57	1005.83
521.93	1011.14
522.29	1015.98
522.65	1020.31
523.01	1025.76
523.37	1030.50
523.73	1035.52
524.09	1040.60
524.45	1045.02
524.81	1050.00
525.17	1055.10
525.53	1060.29
525.89	1064.43
526.25	1070.02
526.61	1073.90
526.97	1078.55
527.33	1082.38
527.68	1088.90
528.04	1093.93
528.40	1097.69
528.76	1101.26
529.12	1105.26
529.48	1110.10
529.84	1114.05
530.20	1118.62
530.56	1123.17
530.91	1127.95
531.27	1131.95
531.63	1136.64
531.99	1140.33
532.35	1144.12
532.71	1147.64
533.07	1151.50
533.42	1158.62
533.78	1162.48
534.14	1167.36
534.50	1171.52
534.86	1176.17
535.21	1178.07
535.57	1182.24
535.93	1185.88
536.29	1190.48
536.65	1194.64
537.00	1197.29
537.36	1200.69
537.72	1203.40
538.08	1206.69
538.44	1209.48
538.79	1212.83
539.15	1215.57
539.51	1219.07
539.87	1222.17
540.22	1225.38
540.58	1228.43
540.94	1229.07
541.29	1231.93
541.65	1233.69
542.01	1236.40
542.37	1237.71
542.72	1240.31
543.08	1241.90
543.44	1245.50
543.79	1246.36
544.15	1249.10
544.51	1252.79
544.87	1255.88
545.22	1259.60
545.58	1262.00
545.94	1264.81
546.29	1268.36
546.65	1270.48
547.01	1272.81
547.36	1275.17
547.72	1277.52
548.07	1280.21
548.43	1281.33
548.79	1283.29
549.14	1285.83
549.50	1288.38
549.86	1290.29
550.21	1293.17
550.57	1296.10
550.92	1297.50
551.28	1301.29
551.64	1303.88
551.99	1307.10
552.35	1310.26
552.70	1312.81
553.06	1315.62
553.41	1318.83
553.77	1322.48
554.13	1326.40
554.48	1331.26
554.84	1335.86
555.19	1339.52
555.55	1344.38
555.90	1348.95
556.26	1352.64
556.61	1355.67
556.97	1359.19
557.32	1363.55
557.68	1367.43
558.03	1371.43
558.39	1376.45
558.74	1380.31
559.10	1383.14
559.45	1386.93
559.81	1390.93
560.16	1394.57
560.52	1398.43
560.87	1402.98
561.23	1405.62
561.58	1411.52
561.94	1414.12
562.29	1417.52
562.64	1422.17
563.00	1425.55
563.35	1429.74
563.71	1434.71
564.06	1441.21
564.42	1446.14
564.77	1451.43
565.12	1457.29
565.48	1464.52
565.83	1469.67
566.19	1476.02
566.54	1482.50
566.89	1487.57
567.25	1493.67
567.60	1501.21
567.96	1509.62
568.31	1516.71
568.66	1523.36
569.02	1527.26
569.37	1533.14
569.72	1539.12
570.08	1544.38
570.43	1549.95
570.78	1555.86
571.14	1561.57
571.49	1566.00
571.84	1571.62
572.20	1576.43
572.55	1581.38
572.90	1584.12
573.26	1589.12
573.61	1592.48
573.96	1596.24
574.31	1600.29
574.67	1603.81
575.02	1606.12
575.37	1608.07
575.72	1610.48
576.08	1614.33
576.43	1618.12
576.78	1622.33
577.13	1625.71
577.49	1629.62
577.84	1633.79
578.19	1638.31
578.54	1641.57
578.90	1645.81
579.25	1649.14
579.60	1652.26
579.95	1654.52
580.30	1658.14
580.66	1662.00
581.01	1666.24
581.36	1670.71
581.71	1674.86
582.06	1680.17
582.42	1684.50
582.77	1687.00
583.12	1690.31
583.47	1693.12
583.82	1696.83
584.17	1700.86
584.53	1704.76
584.88	1708.26
585.23	1710.71
585.58	1713.07
585.93	1716.50
586.28	1719.21
586.63	1723.14
586.98	1726.62
587.34	1730.88
587.69	1733.81
588.04	1736.29
588.39	1739.19
588.74	1740.74
589.09	1742.88
589.44	1742.07
589.79	1744.64
590.14	1746.86
590.49	1748.40
590.84	1750.31
591.19	1752.31
591.54	1752.90
591.89	1753.71
592.25	1756.71
592.60	1758.07
592.95	1759.93
593.30	1761.21
593.65	1762.43
594.00	1761.76
594.35	1768.81
594.70	1768.69
595.05	1769.74
595.40	1770.93
595.75	1770.71
596.10	1772.57
596.45	1773.79
596.80	1776.05
597.15	1776.00
597.50	1777.31
597.85	1779.38
598.19	1779.71
598.54	1779.55
598.89	1780.31
599.24	1782.07
599.59	1780.95
599.94	1781.14
600.29	1781.12
600.64	1781.14
600.99	1781.83
601.34	1783.98
601.69	1778.14
602.04	1778.10
602.39	1777.90
602.74	1777.88
603.08	1778.00
603.43	1779.07
603.78	1778.60
604.13	1777.88
604.48	1777.71
604.83	1777.98
605.18	1777.81
605.53	1777.62
605.87	1777.48
606.22	1777.38
606.57	1775.45
606.92	1773.45
607.27	1772.14
607.62	1772.00
607.96	1771.71
608.31	1770.05
608.66	1768.07
609.01	1766.71
609.36	1766.07
609.70	1764.60
610.05	1761.88
610.40	1760.38
610.75	1756.71
611.10	1755.36
611.44	1753.05
611.79	1750.62
612.14	1747.40
612.49	1743.33
612.83	1740.90
613.18	1737.24
613.53	1734.33
613.88	1731.40
614.22	1728.60
614.57	1726.57
614.92	1721.43
615.27	1718.29
615.61	1715.52
615.96	1711.93
616.31	1708.36
616.65	1706.24
617.00	1703.55
617.35	1701.00
617.70	1697.95
618.04	1694.88
618.39	1690.52
618.74	1687.38
619.08	1683.52
619.43	1680.71
619.78	1678.43
620.12	1675.67
620.47	1672.98
620.82	1668.98
621.16	1664.69
621.51	1663.10
621.85	1658.67
622.20	1656.43
622.55	1651.62
622.89	1648.17
623.24	1645.36
623.59	1641.86
623.93	1637.26
624.28	1633.86
624.62	1631.50
624.97	1628.57
625.32	1624.57
625.66	1620.43
626.01	1616.57
626.35	1613.24
626.70	1609.19
627.04	1605.40
627.39	1600.67
627.73	1597.62
628.08	1594.79
628.43	1591.67
628.77	1586.67
629.12	1583.21
629.46	1579.60
629.81	1575.83
630.15	1570.57
630.50	1565.10
630.84	1561.24
631.19	1555.98
631.53	1551.62
631.88	1544.74
632.22	1538.19
632.57	1533.95
632.91	1529.86
633.26	1525.38
633.60	1519.79
633.95	1514.90
634.29	1509.62
634.64	1505.38
634.98	1499.45
635.32	1494.79
635.67	1491.14
636.01	1487.67
636.36	1482.24
636.70	1477.95
637.05	1472.81
637.39	1468.74
637.73	1465.33
638.08	1461.05
638.42	1456.38
638.77	1452.05
639.11	1448.05
639.45	1443.24
639.80	1438.45
640.14	1434.12
640.49	1429.17
640.83	1425.31
641.17	1421.33
641.52	1415.95
641.86	1410.57
642.20	1406.83
642.55	1400.90
642.89	1395.07
643.23	1388.24
643.58	1384.45
643.92	1377.36
644.26	1372.57
644.61	1367.31
644.95	1361.48
645.29	1354.86
645.64	1349.62
645.98	1342.69
646.32	1337.57
646.66	1332.36
647.01	1326.10
647.35	1320.31
647.69	1315.00
648.04	1309.57
648.38	1303.38
648.72	1297.31
649.06	1291.50
649.41	1284.98
649.75	1278.55
650.09	1271.69
650.43	1266.29
650.78	1259.31
651.12	1253.31
651.46	1246.69
651.80	1240.55
652.14	1234.45
652.49	1229.12
652.83	1222.38
653.17	1216.24
653.51	1209.48
653.85	1203.86
654.20	1197.90
654.54	1190.64
654.88	1183.69
655.22	1178.14
655.56	1171.43
655.90	1165.76
656.25	1159.60
656.59	1153.36
656.93	1147.86
657.27	1143.38
657.61	1137.12
657.95	1131.31
658.29	1125.86
658.64	1120.50
658.98	1113.79
659.32	1106.88
659.66	1100.71
660.00	1095.55
660.34	1089.00
660.68	1083.14
661.02	1076.60
661.36	1070.05
661.70	1064.79
662.05	1058.76
662.39	1051.93
662.73	1046.55
663.07	1041.74
663.41	1036.17
663.75	1029.95
664.09	1024.33
664.43	1017.90
664.77	1011.79
665.11	1006.02
665.45	999.79
665.79	993.86
666.13	988.38
666.47	982.67
666.81	976.55
667.15	970.76
667.49	965.95
667.83	960.38
668.17	954.69
668.51	950.05
668.85	944.10
669.19	940.31
669.53	934.10
669.87	928.10
670.21	921.81
670.55	915.57
670.89	911.88
671.23	906.19
671.57	900.76
671.91	895.38
672.25	889.69
672.58	885.38
672.92	880.24
673.26	875.05
673.60	870.31
673.94	865.71
674.28	860.62
674.62	856.05
674.96	850.88
675.30	846.31
675.64	840.98
675.97	836.48
676.31	830.33
676.65	825.57
676.99	821.45
677.33	816.29
677.67	811.71
678.01	805.74
678.34	801.07
678.68	796.31
679.02	791.43
679.36	786.05
679.70	780.48
680.04	775.21
680.37	770.12
680.71	765.14
681.05	760.55
681.39	755.79
681.73	750.38
682.06	745.95
682.40	740.69
682.74	736.05
683.08	731.90
683.42	726.64
683.75	721.74
684.09	716.10
684.43	711.45
684.77	706.93
685.10	701.88
685.44	696.95
685.78	691.83
686.12	687.57
686.45	683.14
686.79	678.33
687.13	674.67
687.46	670.00
687.80	666.24
688.14	661.29
688.48	656.86
688.81	652.71
689.15	648.19
689.49	643.62
689.82	638.90
690.16	633.74
690.50	629.36
690.83	625.00
691.17	620.67
691.51	615.93
691.84	611.52
692.18	607.48
692.52	603.02
692.85	599.67
693.19	595.69
693.52	591.71
693.86	587.19
694.20	582.10
694.53	578.52
694.87	573.86
695.21	569.67
695.54	565.79
695.88	561.43
696.21	556.79
696.55	553.10
696.88	549.48
697.22	545.62
697.56	542.31
697.89	538.71
698.23	535.38
698.56	531.76
698.90	528.40
699.23	524.21
699.57	521.07
699.90	516.88
700.24	513.00
700.58	509.43
700.91	506.83
701.25	505.14
701.58	502.10
701.92	499.17
702.25	496.26
702.59	492.69
702.92	489.45
703.26	486.60
703.59	483.81
703.93	482.45
704.26	479.52
704.60	476.57
704.93	473.21
705.26	469.74
705.60	467.19
705.93	463.67
706.27	461.52
706.60	458.62
706.94	456.86
707.27	454.00
707.61	451.48
707.94	448.43
708.27	443.74
708.61	440.40
708.94	437.52
709.28	434.86
709.61	431.88
709.94	429.31
710.28	426.71
710.61	423.67
710.95	418.93
711.28	417.76
711.61	415.21
711.95	413.19
712.28	410.98
712.61	408.29
712.95	406.86
713.28	405.12
713.61	402.43
713.95	399.14
714.28	396.83
714.61	394.48
714.95	392.17
715.28	390.21
715.61	388.07
715.95	385.86
716.28	383.24
716.61	381.45
716.95	379.21
717.28	377.24
717.61	375.00
717.94	373.10
718.28	369.62
718.61	367.60
718.94	365.64
719.27	363.36
719.61	361.86
719.94	359.76
720.27	356.88
720.60	355.05
720.94	353.17
721.27	351.71
721.60	350.29
721.93	348.52
722.27	347.64
722.60	346.38
722.93	344.45
723.26	343.12
723.59	341.19
723.93	339.93
724.26	338.24
724.59	337.12
724.92	335.76
725.25	334.86
725.59	333.10
725.92	331.88
726.25	330.52
726.58	329.07
726.91	327.38
727.24	326.40
727.57	324.95
727.91	323.33
728.24	321.79
728.57	320.21
728.90	319.50
729.23	317.38
729.56	317.05
729.89	315.69
730.22	314.38
730.55	313.14
730.89	311.71
731.22	310.33
731.55	309.19
731.88	308.40
732.21	306.98
732.54	305.98
732.87	304.76
733.20	304.02
733.53	302.83
733.86	301.83
734.19	300.24
734.52	299.62
734.85	300.33
735.18	299.14
735.51	298.81
735.84	297.79
736.17	297.50
736.50	295.43
736.83	296.95
737.16	296.14
737.49	295.45
737.82	294.38
738.15	293.88
738.48	292.93
738.81	291.64
739.14	290.40
739.47	289.48
739.80	288.36
740.13	287.62
740.46	286.62
740.79	285.64
741.12	285.00
741.45	283.95
741.78	281.83
742.11	281.64
742.44	280.31
742.77	279.69
743.10	278.43
743.43	277.33
743.75	274.48
744.08	276.26
744.41	275.38
744.74	274.83
745.07	273.50
745.40	273.14
745.73	273.48
746.06	273.21
746.39	272.86
746.71	272.17
747.04	271.24
747.37	270.38
747.70	269.98
748.03	269.57
748.36	269.21
748.68	268.64
749.01	267.50
749.34	266.88
749.67	266.26
750.00	265.95
750.33	266.98
750.65	266.74
750.98	263.60
751.31	263.00
751.64	262.48
751.97	263.45
752.29	262.62
752.62	261.00
752.95	260.10
753.28	259.24
753.60	258.74
753.93	258.55
754.26	258.02
754.59	256.90
754.91	256.17
755.24	255.40
755.57	254.60
755.90	254.17
756.22	253.33
756.55	252.21
756.88	251.31
757.20	249.38
757.53	248.10
757.86	247.74
758.19	247.36
758.51	246.86
758.84	245.12
759.17	244.48
759.49	244.19
759.82	244.64
760.15	244.33
760.47	243.90
760.80	243.10
761.13	243.31
761.45	242.88
761.78	242.36
762.11	241.90
762.43	241.52
762.76	240.93
763.08	240.93
763.41	241.14
763.74	240.93
764.06	240.81
764.39	240.86
764.71	240.48
765.04	239.98
765.37	239.33
765.69	238.95
766.02	238.64
766.34	237.88
766.67	236.98
767.00	236.90
767.32	237.55
767.65	238.26
767.97	237.62
768.30	237.45
768.62	237.24
768.95	236.69
769.27	236.50
769.60	236.55
769.92	235.88
770.25	234.79
770.57	234.33
770.90	233.88
771.22	233.19
771.55	233.07
771.87	232.62
772.20	232.43
772.52	233.98
772.85	236.12
773.17	236.17
773.50	235.67
773.82	235.26
774.15	234.21
774.47	232.90
774.80	232.64
775.12	232.48
775.45	232.31
775.77	232.31
776.09	232.19
776.42	231.76
776.74	232.50
777.07	232.45
777.39	232.31
777.72	232.07
778.04	232.33
778.36	231.67
778.69	231.90
779.01	231.83
779.33	230.05
779.66	227.76
779.98	227.50
780.31	227.40
780.63	228.21
780.95	228.14
781.28	227.93
781.60	227.50
781.92	227.33
782.25	227.10
782.57	226.88
782.89	226.62
783.22	226.43
783.54	225.76
783.86	225.67
784.19	225.48
784.51	225.98
784.83	225.26
785.16	225.24
785.48	225.05
785.80	225.19
786.12	225.19
786.45	225.02
786.77	225.00
787.09	224.86
787.42	223.76
787.74	223.88
788.06	224.00
788.38	224.00
788.71	223.76
789.03	223.74
789.35	223.88
789.67	223.48
789.99	223.62
790.32	223.26
790.64	223.45
790.96	225.00
791.28	224.02
791.61	224.19
791.93	224.21
792.25	223.95
792.57	225.19
792.89	224.64
793.21	224.50
793.54	224.26
793.86	224.12
794.18	224.38
794.50	223.95
794.82	223.76
795.14	223.74
795.47	224.14
795.79	224.17
796.11	223.71
796.43	223.69
796.75	223.45
797.07	223.26
797.39	223.21
797.71	221.60
798.04	221.64
798.36	221.64
798.68	221.29
799.00	221.38
799.32	220.17
799.64	220.64
799.96	220.60
800.28	220.88
800.60	220.62
800.92	220.74
801.24	220.45
801.56	220.43
801.89	220.43
802.21	220.40
802.53	219.90
802.85	220.33
803.17	221.36
803.49	220.93
803.81	220.76
804.13	220.48
804.45	220.29
804.77	220.52
805.09	220.29
805.41	220.40
805.73	220.10
806.05	219.50
806.37	219.17
806.69	218.83
807.01	218.57
807.33	218.74
807.65	217.90
807.97	219.00
808.28	218.93
808.60	218.93
808.92	218.55
809.24	220.00
809.56	219.57
809.88	218.74
810.20	218.98
810.52	219.48
810.84	219.24
811.16	219.05
811.48	218.93
811.80	219.57
812.12	219.33
812.43	219.64
812.75	219.88
813.07	219.50
813.39	219.81
813.71	219.55
814.03	219.24
814.35	219.12
814.67	217.93
814.98	217.76
815.30	217.67
815.62	217.17
815.94	215.64
816.26	215.76
816.58	215.38
816.89	215.45
817.21	214.81
817.53	214.86
817.85	214.86
818.17	214.76
818.48	214.21
818.80	214.69
819.12	214.43
819.44	214.07
819.76	214.02
820.07	214.02
820.39	213.88
820.71	214.02
821.03	214.14
821.34	214.05
821.66	214.29
821.98	214.48
822.30	214.62
822.61	215.95
822.93	215.83
823.25	215.57
823.57	215.48
823.88	215.93
824.20	216.00
824.52	216.48
824.83	216.48
825.15	216.05
825.47	215.93
825.79	216.05
826.10	215.95
826.42	215.98
826.74	216.17
827.05	216.00
827.37	216.17
827.69	216.14
828.00	216.36
828.32	216.17
828.64	215.62
828.95	216.83
829.27	216.21
829.58	216.45
829.90	217.26
830.22	217.38
830.53	216.81
830.85	216.76
831.17	216.21
831.48	215.90
831.80	216.33
832.11	215.95
832.43	215.79
832.75	215.81
833.06	216.93
833.38	216.31
833.69	216.40
834.01	216.12
834.32	216.00
834.64	215.57
834.96	215.64
835.27	215.55
835.59	214.52
835.90	214.02
836.22	213.86
836.53	213.05
836.85	212.76
837.16	214.69
837.48	214.52
837.79	215.29
838.11	215.50
838.42	215.21
838.74	215.62
839.05	215.36
839.37	215.24
839.68	213.98
840.00	213.67
840.31	213.95
840.63	213.98
840.94	213.95
841.26	214.14
841.57	213.90
841.88	214.36
842.20	214.38
842.51	214.33
842.83	214.33
843.14	216.33
843.46	216.43
843.77	215.50
844.08	215.26
844.40	214.48
844.71	214.45
845.03	214.43
845.34	214.33
845.65	214.40
845.97	214.43
846.28	214.62
846.60	214.76
846.91	214.38
847.22	214.33
847.54	214.62
847.85	214.52
848.16	214.86
848.48	214.36
848.79	215.19
849.10	215.14
849.42	215.05
849.73	213.19
850.04	212.90
850.36	212.07
850.67	212.57
850.98	212.62
851.30	212.79
851.61	212.64
851.92	212.38
852.23	212.95
852.55	213.07
852.86	213.00
853.17	213.36
853.49	214.12
853.80	214.52
854.11	214.88
854.42	215.33
854.74	214.95
855.05	215.21
855.36	213.88
855.67	214.29
855.99	214.19
856.30	216.52
856.61	216.62
856.92	216.95
857.23	217.07
857.55	216.95
857.86	216.50
858.17	216.81
858.48	216.62
858.79	216.24
859.11	216.40
859.42	216.33
859.73	215.98
860.04	215.60
860.35	214.93
860.66	214.14
860.98	213.95
861.29	214.00
861.60	213.67
861.91	214.31
862.22	213.95
862.53	213.76
862.84	211.43
863.16	211.83
863.47	211.36
863.78	211.12
864.09	211.21
864.40	211.60
864.71	211.50
865.02	211.88
865.33	211.38
865.64	211.05
865.95	211.10
866.27	212.45
866.58	212.43
866.89	212.86
867.20	212.81
867.51	212.64
867.82	212.60
868.13	213.55
868.44	212.95
868.75	213.38
869.06	213.64
869.37	213.74
869.68	213.17
869.99	213.57
870.30	213.38
870.61	213.45
870.92	213.17
871.23	213.07
871.54	213.21
871.85	214.10
872.16	214.29
872.47	214.14
872.78	212.86
873.09	212.93
873.40	212.55
873.71	212.57
874.02	212.43
874.33	212.26
874.64	211.40
874.95	211.98
875.26	211.19
875.56	211.10
875.87	211.07
876.18	211.05
876.49	212.98
876.80	212.86
877.11	212.60
877.42	212.76
877.73	212.79
878.04	212.48
878.35	212.38
878.66	212.60
878.96	212.60
879.27	212.57
879.58	212.33
879.89	212.43
880.20	213.19
880.51	213.17
880.82	213.17
881.12	213.52
881.43	213.10
881.74	213.10
882.05	212.90
882.36	212.90
882.67	213.31
882.97	211.24
883.28	211.05
883.59	211.00
883.90	211.19
884.21	211.48
884.51	211.19
884.82	210.83
885.13	210.52
885.44	210.64
885.74	210.52
886.05	210.55
886.36	210.67
886.67	210.12
886.98	210.93
887.28	211.12
887.59	211.02
887.90	211.17
888.20	211.21
888.51	211.67
888.82	211.40
889.13	211.40
889.43	212.90
889.74	213.02
890.05	212.79
890.35	212.38
890.66	212.10
890.97	212.07
891.28	212.05
891.58	212.31
891.89	212.17
892.20	212.31
892.50	212.10
892.81	211.79
893.12	211.52
893.42	210.81
893.73	210.93
894.04	211.02
894.34	211.00
894.65	210.88
894.95	210.60
895.26	210.90
895.57	211.74
895.87	209.93
896.18	210.24
896.48	210.62
896.79	210.74
897.10	211.10
897.40	211.29
897.71	211.38
898.01	211.02
898.32	211.29
898.63	211.21
898.93	211.40
899.24	211.57
899.54	211.67
899.85	211.57
900.15	211.50
900.46	211.52
900.76	211.81
901.07	211.90
901.38	212.12
901.68	212.24
901.99	211.02
902.29	211.43
902.60	211.24
902.90	211.29
903.21	211.26
903.51	211.19
903.82	211.45
904.12	211.50
904.43	211.98
904.73	211.88
905.03	212.05
905.34	214.17
905.64	214.00
905.95	214.00
906.25	214.12
906.56	214.00
906.86	213.79
907.17	213.67
907.47	213.93
907.77	213.45
908.08	213.07
908.38	213.50
908.69	213.48
908.99	214.05
909.30	214.02
909.60	214.07
909.90	213.95
910.21	213.31
910.51	213.19
910.81	213.21
911.12	213.43
911.42	213.29
911.73	211.00
912.03	211.12
912.33	211.57
912.64	211.60
912.94	211.60
913.24	211.31
913.55	211.07
913.85	210.79
914.15	211.48
914.46	211.62
914.76	211.40
915.06	211.36
915.37	210.88
915.67	210.81
915.97	210.74
916.27	210.48
916.58	210.69
916.88	210.33
917.18	209.83
917.49	211.12
917.79	211.21
918.09	211.60
918.39	212.26
918.70	212.07
919.00	212.02
919.30	212.88
919.60	213.05
919.91	212.86
920.21	212.95
920.51	212.24
920.81	212.29
921.12	212.62
921.42	212.43
921.72	212.74
922.02	212.83
922.32	213.29
922.63	213.38
922.93	214.64
923.23	214.90
923.53	214.79
923.83	213.45
924.13	213.74
924.44	213.52
924.74	213.71
925.04	214.29
925.34	214.29
925.64	213.57
925.94	213.50
926.24	214.62
926.55	214.57
926.85	215.24
927.15	215.38
927.45	215.40
927.75	215.38
928.05	215.29
928.35	214.95
928.65	215.19
928.95	215.24
929.26	214.45
929.56	214.81
929.86	215.24
930.16	214.90
930.46	214.57
930.76	215.00
931.06	214.33
931.36	213.67
931.66	213.90
931.96	214.02
932.26	214.21
932.56	213.52
932.86	213.74
933.16	213.52
933.46	213.19
933.76	212.69
934.06	213.19
934.36	213.86
934.66	214.12
934.96	213.79
935.26	213.95
935.56	214.10
935.86	213.64
936.16	213.31
936.46	213.48
936.76	213.52
937.06	212.90
937.36	212.83
937.66	212.64
937.96	212.57
938.26	212.24
938.56	212.21
938.86	212.26
939.16	212.69
939.46	212.71
939.76	212.95
940.06	213.02
940.35	212.29
940.65	211.21
940.95	211.24
941.25	210.62
941.55	210.26
941.85	210.07
942.15	210.43
942.45	210.86
942.75	210.79
943.04	210.76
943.34	211.33
943.64	211.00
943.94	210.95
944.24	210.98
944.54	211.07
944.84	210.95
945.13	210.45
945.43	209.95
945.73	209.81
946.03	209.45
946.33	209.21
946.62	209.31
946.92	209.17
947.22	209.38
947.52	209.88
947.82	210.19
948.11	210.10
948.41	209.74
948.71	209.36
949.01	209.55
949.31	209.24
949.60	208.98
949.90	209.36
950.20	209.45
950.50	209.52
950.79	209.19
951.09	209.55
951.39	209.55
951.69	209.33
951.98	209.95
952.28	210.14
952.58	210.40
952.87	210.55
953.17	210.95
953.47	210.69
953.76	210.62
954.06	210.26
954.36	209.93
954.66	209.69
954.95	210.17
955.25	209.86
955.55	210.14
955.84	209.90
956.14	210.10
956.44	210.05
956.73	209.55
957.03	209.83
957.32	209.52
957.62	209.69
957.92	210.21
958.21	209.81
958.51	212.40
958.81	212.36
959.10	212.57
959.40	212.95
959.69	213.02
959.99	212.98
960.29	213.21
960.58	213.07
960.88	214.12
961.17	214.00
961.47	214.50
961.76	214.43
962.06	214.83
962.36	214.55
962.65	214.45
962.95	214.71
963.24	214.60
963.54	214.95
963.83	215.17
964.13	215.02
964.42	214.50
964.72	212.50
965.01	212.69
965.31	212.45
965.60	212.00
965.90	213.38
966.19	213.12
966.49	213.05
966.78	213.24
967.08	213.05
967.37	212.95
967.67	212.60
967.96	213.10
968.26	213.07
968.55	213.50
968.85	213.69
969.14	213.62
969.43	213.67
969.73	213.24
970.02	213.05
970.32	212.83
970.61	212.81
970.91	212.31
971.20	211.93
971.49	212.00
971.79	212.26
972.08	210.88
972.38	211.02
972.67	210.98
972.96	211.33
973.26	210.86
973.55	211.69
973.85	211.50
974.14	211.02
974.43	211.02
974.73	210.64
975.02	210.43
975.31	210.43
975.61	210.45
975.90	210.38
976.19	210.10
976.49	210.33
976.78	210.67
977.07	210.64
977.37	210.74
977.66	210.93
977.95	210.67
978.24	210.71
978.54	211.12
978.83	211.12
979.12	210.76
979.42	210.76
979.71	210.17
980.00	210.36
980.29	210.48
980.59	210.00
980.88	210.52
981.17	210.64
981.46	210.71
981.76	210.64
982.05	211.38
982.34	211.60
982.63	211.52
982.93	211.62
983.22	212.26
983.51	212.38
983.80	212.69
984.09	213.02
984.39	212.88
984.68	212.62
984.97	212.76
985.26	212.60
985.55	212.81
985.85	212.36
986.14	212.81
986.43	212.98
986.72	212.98
987.01	212.21
987.30	212.00
987.59	211.76
987.89	211.83
988.18	210.95
988.47	211.00
988.76	210.83
989.05	210.55
989.34	210.12
989.63	210.90
989.92	210.36
990.22	210.02
990.51	210.00
990.80	210.10
991.09	210.19
991.38	210.76
991.67	210.52
991.96	210.40
992.25	210.24
992.54	210.10
992.83	210.29
993.12	210.40
993.41	210.64
993.70	211.64
993.99	211.83
994.28	212.26
994.58	212.48
994.87	212.14
995.16	212.02
995.45	211.93
995.74	211.00
996.03	211.38
996.32	211.71
996.61	211.90
996.90	211.79
997.19	211.48
997.48	211.31
997.77	211.21
998.06	211.36
998.34	211.24
998.63	211.05
998.92	211.10
999.21	211.21
999.50	211.43
999.79	210.50
1000.08	210.50
1000.37	210.52
1000.66	209.98
1000.95	210.67
1001.24	210.86
1001.53	211.00
1001.82	211.00
1002.11	210.36
1002.40	210.50
1002.68	211.12
1002.97	212.67
1003.26	212.52
1003.55	212.02
1003.84	212.31
1004.13	213.12
1004.42	212.83
1004.71	212.86
1004.99	212.69
1005.28	213.31
1005.57	212.98
1005.86	212.83
1006.15	212.76
1006.44	212.62
1006.72	213.12
1007.01	212.83
1007.30	212.74
1007.59	212.62
1007.88	212.60
1008.17	212.93
1008.45	212.31
1008.74	211.36
1009.03	210.26
1009.32	210.33
1009.60	210.36
1009.89	210.00
1010.18	208.81
1010.47	208.81
1010.76	208.67
1011.04	208.67
1011.33	208.71
1011.62	209.02
1011.91	209.19
1012.19	209.24
1012.48	209.17
1012.77	209.10
1013.05	209.93
1013.34	209.93
1013.63	209.81
1013.92	209.95
1014.20	209.71
1014.49	209.93
1014.78	210.26
1015.06	209.45
1015.35	209.38
1015.64	209.79
1015.92	210.00
1016.21	210.62
1016.50	210.64
1016.78	211.24
1017.07	211.43
1017.36	211.00
1017.64	210.79
1017.93	211.00
1018.22	210.79
1018.50	210.76
1018.79	210.67
1019.08	209.79
1019.36	210.00
1019.65	209.71
1019.93	210.02
1020.22	210.40
1020.51	211.48
1020.79	211.14
1021.08	207.00
1021.36	207.50
1021.65	209.50
1021.94	210.50
1022.22	212.00
1022.51	204.00
1022.79	215.50
1023.08	213.00
1023.36	234.50
1023.65	204.00
>>>>>End Processed Spectral Data<<<<<
