SpectraSuite Data File
++++++++++++++++++++++++++++++++++++
Date: Tue Apr 02 18:40:46 EDT 2013
User: group
Dark Spectrum Present: No
Reference Spectrum Present: No
Number of Sampled Component Spectra: 1
Spectrometers: USB2E7196
Integration Time (usec): 580000 (USB2E7196)
Spectra Averaged: 2 (USB2E7196)
Boxcar Smoothing: 10 (USB2E7196)
Correct for Electrical Dark: No (USB2E7196)
Strobe/Lamp Enabled: No (USB2E7196)
Correct for Detector Non-linearity: No (USB2E7196)
Correct for Stray Light: No (USB2E7196)
Number of Pixels in Processed Spectrum: 2048
>>>>>Begin Processed Spectral Data<<<<<
339.09	0.00
339.48	195.50
339.86	192.00
340.24	195.50
340.63	200.00
341.01	234.50
341.39	202.50
341.78	208.00
342.16	214.00
342.54	206.00
342.93	198.55
343.31	208.55
343.69	209.07
344.07	210.07
344.46	210.71
344.84	211.40
345.22	210.07
345.60	210.69
345.99	210.88
346.37	210.71
346.75	210.90
347.13	211.05
347.52	211.31
347.90	212.05
348.28	212.12
348.66	212.57
349.05	211.83
349.43	211.88
349.81	212.00
350.19	212.21
350.57	212.43
350.96	212.74
351.34	213.05
351.72	213.02
352.10	212.76
352.48	212.86
352.87	212.40
353.25	212.43
353.63	211.98
354.01	212.07
354.39	211.98
354.77	211.86
355.15	212.17
355.54	211.67
355.92	210.86
356.30	210.83
356.68	211.95
357.06	211.90
357.44	211.71
357.82	211.52
358.20	212.40
358.58	212.21
358.97	212.12
359.35	212.14
359.73	212.64
360.11	212.55
360.49	212.57
360.87	212.79
361.25	212.90
361.63	213.67
362.01	213.55
362.39	213.57
362.77	213.71
363.15	213.69
363.53	213.81
363.91	214.07
364.29	213.88
364.67	212.21
365.05	212.45
365.43	212.50
365.81	212.86
366.19	212.95
366.57	213.93
366.95	213.93
367.33	213.62
367.71	213.74
368.09	214.31
368.47	214.21
368.85	214.14
369.23	214.86
369.61	213.95
369.99	214.38
370.37	214.60
370.75	215.60
371.13	215.21
371.51	215.07
371.89	215.12
372.27	215.45
372.65	215.33
373.03	215.33
373.41	215.38
373.78	215.40
374.16	214.43
374.54	213.69
374.92	213.50
375.30	213.55
375.68	212.93
376.06	212.93
376.44	212.74
376.82	213.05
377.19	212.71
377.57	212.93
377.95	212.45
378.33	212.26
378.71	211.10
379.09	211.52
379.47	211.88
379.84	211.57
380.22	211.38
380.60	211.29
380.98	211.19
381.36	210.95
381.73	210.43
382.11	210.76
382.49	210.98
382.87	210.69
383.25	210.43
383.62	212.98
384.00	212.76
384.38	212.98
384.76	213.02
385.13	213.86
385.51	213.90
385.89	213.81
386.27	214.24
386.64	214.45
387.02	214.19
387.40	213.95
387.78	214.19
388.15	214.19
388.53	214.29
388.91	214.33
389.29	214.38
389.66	214.95
390.04	214.88
390.42	215.14
390.79	215.60
391.17	215.81
391.55	213.50
391.92	213.55
392.30	213.95
392.68	213.69
393.05	213.48
393.43	213.62
393.81	213.88
394.18	213.31
394.56	213.36
394.94	213.86
395.31	213.95
395.69	214.67
396.06	215.02
396.44	215.24
396.82	215.14
397.19	216.29
397.57	216.26
397.95	216.43
398.32	215.90
398.70	216.14
399.07	216.64
399.45	216.52
399.82	216.45
400.20	216.26
400.58	216.19
400.95	215.40
401.33	215.90
401.70	217.29
402.08	217.36
402.45	217.40
402.83	217.81
403.20	217.90
403.58	217.71
403.95	217.98
404.33	218.26
404.71	218.69
405.08	219.98
405.46	220.14
405.83	220.55
406.21	220.86
406.58	221.12
406.96	221.38
407.33	222.14
407.70	222.86
408.08	225.05
408.45	226.33
408.83	227.50
409.20	227.83
409.58	227.26
409.95	228.83
410.33	229.88
410.70	230.07
411.08	231.40
411.45	232.38
411.82	233.48
412.20	235.02
412.57	237.62
412.95	237.24
413.32	239.14
413.69	240.74
414.07	242.74
414.44	244.52
414.82	246.83
415.19	249.33
415.56	251.60
415.94	252.86
416.31	255.62
416.68	258.50
417.06	262.05
417.43	265.95
417.81	269.40
418.18	273.52
418.55	277.67
418.93	281.74
419.30	286.48
419.67	291.31
420.04	296.07
420.42	300.57
420.79	308.05
421.16	313.83
421.54	321.00
421.91	327.55
422.28	334.19
422.66	340.88
423.03	349.05
423.40	356.17
423.77	363.95
424.15	371.38
424.52	379.43
424.89	388.24
425.26	396.52
425.64	404.60
426.01	412.90
426.38	422.33
426.75	432.43
427.13	442.05
427.50	451.57
427.87	461.95
428.24	472.17
428.61	480.95
428.99	492.90
429.36	503.38
429.73	514.52
430.10	526.79
430.47	539.12
430.85	550.40
431.22	564.07
431.59	579.00
431.96	592.74
432.33	607.57
432.70	622.48
433.08	639.07
433.45	655.52
433.82	671.90
434.19	689.62
434.56	707.74
434.93	724.00
435.30	740.86
435.68	759.14
436.05	777.57
436.42	795.67
436.79	812.71
437.16	831.38
437.53	850.64
437.90	869.19
438.27	887.52
438.64	906.26
439.01	924.19
439.38	938.71
439.75	954.88
440.13	972.79
440.50	988.74
440.87	1002.62
441.24	1016.26
441.61	1031.38
441.98	1042.81
442.35	1055.19
442.72	1068.98
443.09	1083.17
443.46	1091.24
443.83	1096.52
444.20	1101.24
444.57	1106.88
444.94	1110.74
445.31	1114.62
445.68	1120.31
446.05	1122.12
446.42	1121.14
446.79	1120.05
447.16	1118.12
447.53	1116.02
447.90	1109.38
448.27	1102.64
448.64	1093.33
449.01	1086.60
449.37	1074.95
449.74	1063.71
450.11	1051.05
450.48	1035.17
450.85	1018.45
451.22	1005.45
451.59	993.40
451.96	981.38
452.33	965.21
452.70	949.98
453.07	932.00
453.43	911.14
453.80	893.67
454.17	876.57
454.54	860.12
454.91	843.74
455.28	826.93
455.65	811.33
456.02	798.64
456.38	785.10
456.75	768.74
457.12	754.79
457.49	740.55
457.86	726.29
458.23	715.98
458.59	704.31
458.96	691.95
459.33	680.36
459.70	669.36
460.07	660.45
460.43	650.14
460.80	641.17
461.17	634.10
461.54	625.95
461.91	618.02
462.27	609.24
462.64	601.05
463.01	593.38
463.38	585.95
463.74	575.33
464.11	568.45
464.48	562.48
464.85	556.19
465.21	552.19
465.58	546.79
465.95	539.98
466.32	534.02
466.68	528.07
467.05	522.88
467.42	517.67
467.78	512.14
468.15	506.67
468.52	502.31
468.88	496.00
469.25	490.69
469.62	486.90
469.98	482.26
470.35	479.05
470.72	475.10
471.08	470.48
471.45	467.69
471.82	464.62
472.18	461.00
472.55	458.14
472.92	454.12
473.28	450.90
473.65	447.69
474.02	445.55
474.38	443.76
474.75	441.55
475.11	438.88
475.48	437.17
475.85	435.69
476.21	433.76
476.58	432.67
476.94	431.36
477.31	429.95
477.67	429.33
478.04	428.00
478.41	427.19
478.77	428.74
479.14	427.50
479.50	426.90
479.87	426.45
480.23	426.07
480.60	425.81
480.96	425.36
481.33	426.57
481.69	426.26
482.06	426.02
482.42	426.57
482.79	426.76
483.15	427.05
483.52	427.76
483.88	428.10
484.25	428.79
484.61	429.79
484.98	430.50
485.34	432.05
485.71	433.55
486.07	434.95
486.44	433.93
486.80	435.38
487.17	436.93
487.53	439.26
487.90	441.19
488.26	444.17
488.62	447.21
488.99	448.95
489.35	451.86
489.72	454.62
490.08	457.10
490.44	460.29
490.81	463.64
491.17	467.00
491.54	471.31
491.90	475.26
492.26	478.90
492.63	482.81
492.99	486.26
493.36	490.33
493.72	495.29
494.08	499.88
494.45	505.55
494.81	510.62
495.17	515.36
495.54	521.00
495.90	526.17
496.26	531.60
496.63	537.57
496.99	543.36
497.35	549.43
497.72	555.71
498.08	561.74
498.44	568.05
498.80	574.50
499.17	580.79
499.53	587.12
499.89	594.38
500.26	601.60
500.62	608.62
500.98	616.57
501.34	623.14
501.71	631.38
502.07	638.02
502.43	645.48
502.79	653.07
503.16	660.57
503.52	667.71
503.88	675.19
504.24	682.81
504.60	690.40
504.97	698.98
505.33	706.29
505.69	715.50
506.05	723.71
506.41	732.12
506.78	740.31
507.14	748.24
507.50	755.83
507.86	763.81
508.22	772.45
508.59	779.64
508.95	788.40
509.31	797.24
509.67	805.86
510.03	814.05
510.39	822.40
510.75	831.14
511.12	839.24
511.48	847.48
511.84	855.48
512.20	863.86
512.56	871.67
512.92	880.45
513.28	888.21
513.64	895.90
514.00	903.71
514.37	912.26
514.73	920.55
515.09	929.26
515.45	937.36
515.81	944.83
516.17	952.62
516.53	959.38
516.89	965.74
517.25	973.12
517.61	980.79
517.97	987.60
518.33	994.90
518.69	1002.05
519.05	1008.86
519.41	1016.00
519.77	1023.07
520.13	1029.33
520.49	1035.57
520.85	1041.88
521.21	1048.90
521.57	1055.90
521.93	1061.07
522.29	1067.43
522.65	1072.64
523.01	1078.36
523.37	1084.45
523.73	1090.33
524.09	1096.33
524.45	1101.88
524.81	1107.45
525.17	1112.93
525.53	1118.71
525.89	1123.19
526.25	1128.55
526.61	1134.10
526.97	1138.43
527.33	1143.76
527.68	1150.93
528.04	1155.69
528.40	1160.43
528.76	1164.86
529.12	1168.95
529.48	1174.29
529.84	1178.48
530.20	1183.71
530.56	1189.10
530.91	1194.38
531.27	1199.74
531.63	1205.10
531.99	1209.55
532.35	1214.05
532.71	1218.90
533.07	1224.19
533.42	1231.12
533.78	1236.07
534.14	1240.74
534.50	1245.52
534.86	1250.57
535.21	1253.29
535.57	1258.64
535.93	1262.26
536.29	1266.93
536.65	1271.76
537.00	1275.62
537.36	1280.40
537.72	1284.19
538.08	1288.19
538.44	1291.17
538.79	1295.26
539.15	1298.67
539.51	1303.45
539.87	1307.55
540.22	1311.50
540.58	1315.19
540.94	1317.93
541.29	1321.83
541.65	1324.93
542.01	1329.29
542.37	1331.60
542.72	1334.86
543.08	1338.55
543.44	1343.26
543.79	1346.95
544.15	1350.43
544.51	1354.64
544.87	1357.67
545.22	1361.86
545.58	1365.88
545.94	1369.64
546.29	1373.64
546.65	1377.21
547.01	1380.83
547.36	1384.02
547.72	1387.02
548.07	1390.38
548.43	1392.98
548.79	1395.69
549.14	1398.74
549.50	1402.14
549.86	1405.05
550.21	1408.93
550.57	1412.05
550.92	1414.40
551.28	1418.00
551.64	1421.05
551.99	1424.24
552.35	1428.21
552.70	1431.14
553.06	1434.48
553.41	1437.74
553.77	1441.02
554.13	1445.33
554.48	1449.95
554.84	1454.19
555.19	1458.48
555.55	1464.26
555.90	1468.55
556.26	1472.50
556.61	1476.50
556.97	1480.79
557.32	1485.71
557.68	1489.69
558.03	1494.19
558.39	1499.31
558.74	1503.64
559.10	1508.67
559.45	1513.50
559.81	1518.36
560.16	1523.24
560.52	1527.05
560.87	1533.29
561.23	1538.00
561.58	1544.10
561.94	1547.50
562.29	1552.05
562.64	1557.52
563.00	1560.40
563.35	1565.83
563.71	1571.29
564.06	1576.88
564.42	1581.95
564.77	1587.98
565.12	1594.07
565.48	1601.26
565.83	1606.98
566.19	1612.55
566.54	1617.86
566.89	1622.83
567.25	1629.17
567.60	1636.19
567.96	1644.52
568.31	1650.48
568.66	1656.40
569.02	1659.98
569.37	1665.36
569.72	1671.07
570.08	1675.21
570.43	1679.98
570.78	1684.02
571.14	1689.10
571.49	1694.10
571.84	1699.05
572.20	1702.62
572.55	1706.52
572.90	1708.71
573.26	1712.45
573.61	1716.05
573.96	1720.07
574.31	1724.02
574.67	1726.55
575.02	1728.40
575.37	1729.67
575.72	1730.98
576.08	1733.36
576.43	1735.88
576.78	1738.81
577.13	1741.45
577.49	1744.17
577.84	1748.12
578.19	1751.79
578.54	1755.29
578.90	1758.43
579.25	1760.71
579.60	1763.07
579.95	1764.26
580.30	1766.83
580.66	1770.31
581.01	1773.29
581.36	1775.02
581.71	1777.69
582.06	1781.17
582.42	1784.26
582.77	1786.17
583.12	1788.33
583.47	1790.31
583.82	1792.95
584.17	1794.45
584.53	1796.48
584.88	1797.64
585.23	1798.69
585.58	1798.81
585.93	1798.81
586.28	1799.88
586.63	1801.45
586.98	1803.57
587.34	1806.43
587.69	1807.67
588.04	1808.24
588.39	1808.38
588.74	1808.26
589.09	1808.67
589.44	1807.40
589.79	1808.76
590.14	1809.81
590.49	1810.05
590.84	1810.62
591.19	1810.79
591.54	1811.60
591.89	1811.07
592.25	1813.45
592.60	1813.36
592.95	1813.71
593.30	1815.12
593.65	1814.71
594.00	1813.62
594.35	1819.00
594.70	1817.88
595.05	1817.10
595.40	1816.21
595.75	1815.31
596.10	1816.55
596.45	1816.10
596.80	1816.43
597.15	1814.12
597.50	1812.60
597.85	1813.10
598.19	1811.88
598.54	1811.07
598.89	1810.33
599.24	1809.69
599.59	1806.81
599.94	1805.43
600.29	1804.48
600.64	1802.05
600.99	1800.64
601.34	1800.43
601.69	1793.10
602.04	1791.10
602.39	1789.38
602.74	1787.74
603.08	1786.17
603.43	1784.90
603.78	1783.17
604.13	1780.90
604.48	1778.71
604.83	1776.86
605.18	1774.60
605.53	1772.64
605.87	1770.14
606.22	1767.71
606.57	1765.14
606.92	1763.29
607.27	1761.79
607.62	1759.88
607.96	1758.02
608.31	1756.07
608.66	1753.02
609.01	1749.50
609.36	1747.55
609.70	1745.07
610.05	1741.17
610.40	1738.17
610.75	1733.81
611.10	1730.93
611.44	1727.21
611.79	1723.40
612.14	1719.48
612.49	1714.38
612.83	1710.57
613.18	1706.95
613.53	1702.62
613.88	1698.02
614.22	1693.43
614.57	1688.26
614.92	1682.83
615.27	1677.81
615.61	1671.98
615.96	1666.60
616.31	1662.62
616.65	1658.24
617.00	1653.26
617.35	1649.67
617.70	1644.67
618.04	1639.45
618.39	1632.76
618.74	1628.10
619.08	1623.02
619.43	1618.24
619.78	1614.26
620.12	1608.71
620.47	1603.48
620.82	1598.00
621.16	1593.21
621.51	1588.21
621.85	1582.98
622.20	1578.17
622.55	1571.86
622.89	1567.24
623.24	1562.57
623.59	1557.26
623.93	1551.21
624.28	1546.19
624.62	1542.45
624.97	1539.00
625.32	1534.07
625.66	1530.74
626.01	1524.95
626.35	1520.26
626.70	1515.67
627.04	1510.88
627.39	1505.95
627.73	1501.62
628.08	1497.17
628.43	1492.88
628.77	1487.90
629.12	1483.26
629.46	1478.24
629.81	1474.14
630.15	1468.07
630.50	1462.36
630.84	1456.40
631.19	1451.52
631.53	1445.55
631.88	1437.57
632.22	1430.31
632.57	1424.98
632.91	1418.31
633.26	1413.57
633.60	1407.48
633.95	1400.83
634.29	1393.76
634.64	1388.29
634.98	1381.45
635.32	1375.69
635.67	1369.71
636.01	1364.33
636.36	1357.95
636.70	1353.21
637.05	1347.71
637.39	1343.31
637.73	1338.40
638.08	1334.07
638.42	1328.62
638.77	1323.95
639.11	1318.38
639.45	1313.52
639.80	1306.67
640.14	1299.83
640.49	1293.40
640.83	1287.57
641.17	1282.29
641.52	1277.26
641.86	1271.17
642.20	1266.24
642.55	1259.33
642.89	1251.93
643.23	1244.79
643.58	1240.14
643.92	1231.90
644.26	1224.71
644.61	1217.83
644.95	1210.48
645.29	1202.17
645.64	1195.55
645.98	1187.95
646.32	1182.36
646.66	1174.71
647.01	1168.57
647.35	1163.07
647.69	1156.00
648.04	1149.93
648.38	1143.31
648.72	1136.26
649.06	1129.69
649.41	1122.45
649.75	1115.88
650.09	1109.40
650.43	1102.31
650.78	1093.86
651.12	1087.43
651.46	1081.26
651.80	1074.05
652.14	1067.52
652.49	1062.02
652.83	1054.64
653.17	1047.88
653.51	1040.40
653.85	1034.52
654.20	1027.86
654.54	1020.83
654.88	1014.50
655.22	1008.86
655.56	1001.33
655.90	994.64
656.25	987.62
656.59	981.00
656.93	975.14
657.27	970.45
657.61	964.67
657.95	959.14
658.29	952.74
658.64	946.81
658.98	941.02
659.32	934.74
659.66	928.95
660.00	923.14
660.34	916.95
660.68	910.57
661.02	903.62
661.36	897.71
661.70	892.31
662.05	886.76
662.39	880.95
662.73	876.43
663.07	872.26
663.41	866.71
663.75	860.86
664.09	854.88
664.43	848.02
664.77	842.29
665.11	835.69
665.45	830.62
665.79	825.10
666.13	819.33
666.47	814.40
666.81	808.67
667.15	802.83
667.49	798.12
667.83	794.48
668.17	789.69
668.51	784.07
668.85	778.95
669.19	774.36
669.53	768.07
669.87	762.10
670.21	756.05
670.55	751.00
670.89	746.81
671.23	742.02
671.57	736.95
671.91	732.38
672.25	727.76
672.58	723.60
672.92	717.95
673.26	713.71
673.60	708.79
673.94	703.76
674.28	699.74
674.62	695.12
674.96	689.93
675.30	685.29
675.64	680.86
675.97	675.79
676.31	670.79
676.65	666.12
676.99	662.90
677.33	657.83
677.67	653.90
678.01	649.10
678.34	644.57
678.68	640.98
679.02	636.17
679.36	631.83
679.70	626.90
680.04	622.81
680.37	618.02
680.71	613.31
681.05	609.33
681.39	605.14
681.73	600.88
682.06	596.14
682.40	592.31
682.74	588.81
683.08	585.98
683.42	581.57
683.75	578.12
684.09	572.98
684.43	569.40
684.77	564.79
685.10	560.52
685.44	556.62
685.78	552.00
686.12	548.21
686.45	544.29
686.79	540.12
687.13	537.02
687.46	533.88
687.80	530.95
688.14	526.62
688.48	522.74
688.81	519.00
689.15	515.90
689.49	512.14
689.82	508.74
690.16	504.38
690.50	501.21
690.83	497.45
691.17	493.88
691.51	490.29
691.84	487.43
692.18	484.00
692.52	480.62
692.85	478.17
693.19	475.71
693.52	472.43
693.86	469.14
694.20	465.62
694.53	462.33
694.87	458.33
695.21	455.43
695.54	452.02
695.88	448.83
696.21	444.90
696.55	441.60
696.88	438.45
697.22	435.52
697.56	432.81
697.89	429.48
698.23	426.79
698.56	423.81
698.90	420.64
699.23	417.67
699.57	415.07
699.90	411.64
700.24	408.36
700.58	406.29
700.91	404.24
701.25	403.17
701.58	401.10
701.92	399.36
702.25	397.29
702.59	395.12
702.92	392.67
703.26	390.83
703.59	388.69
703.93	388.12
704.26	385.64
704.60	383.19
704.93	381.38
705.26	379.19
705.60	377.31
705.93	375.05
706.27	373.90
706.60	372.21
706.94	371.31
707.27	369.33
707.61	367.31
707.94	365.29
708.27	362.00
708.61	359.71
708.94	358.05
709.28	356.19
709.61	354.52
709.94	353.36
710.28	351.55
710.61	349.50
710.95	345.76
711.28	345.52
711.61	344.00
711.95	342.64
712.28	340.93
712.61	339.33
712.95	338.83
713.28	337.83
713.61	335.88
713.95	333.69
714.28	332.48
714.61	330.71
714.95	329.29
715.28	327.76
715.61	325.95
715.95	324.50
716.28	322.93
716.61	321.76
716.95	319.81
717.28	318.38
717.61	317.48
717.94	316.10
718.28	313.36
718.61	311.71
718.94	309.93
719.27	308.81
719.61	307.69
719.94	305.98
720.27	303.86
720.60	302.86
720.94	301.67
721.27	300.43
721.60	299.79
721.93	298.64
722.27	298.33
722.60	297.95
722.93	296.52
723.26	295.62
723.59	294.10
723.93	293.48
724.26	292.88
724.59	291.95
724.92	291.50
725.25	291.40
725.59	290.83
725.92	290.38
726.25	289.64
726.58	288.71
726.91	287.74
727.24	287.17
727.57	286.33
727.91	285.05
728.24	284.45
728.57	283.12
728.90	282.62
729.23	281.05
729.56	280.55
729.89	279.93
730.22	278.88
730.55	278.33
730.89	277.74
731.22	276.79
731.55	275.81
731.88	275.00
732.21	273.83
732.54	272.79
732.87	272.12
733.20	271.17
733.53	270.52
733.86	270.05
734.19	268.95
734.52	268.33
734.85	269.14
735.18	268.19
735.51	268.48
735.84	268.05
736.17	268.17
736.50	266.95
736.83	268.50
737.16	267.98
737.49	267.45
737.82	266.45
738.15	266.07
738.48	265.74
738.81	264.95
739.14	264.07
739.47	263.33
739.80	262.48
740.13	262.50
740.46	261.50
740.79	260.79
741.12	260.24
741.45	259.38
741.78	257.98
742.11	257.90
742.44	256.74
742.77	256.31
743.10	255.31
743.43	254.62
743.75	252.05
744.08	254.29
744.41	253.40
744.74	252.74
745.07	251.79
745.40	251.33
745.73	251.74
746.06	251.57
746.39	251.55
746.71	251.21
747.04	250.40
747.37	250.24
747.70	250.02
748.03	249.57
748.36	249.50
748.68	248.86
749.01	247.93
749.34	247.86
749.67	247.33
750.00	247.48
750.33	248.57
750.65	248.50
750.98	245.62
751.31	245.50
751.64	245.48
751.97	246.38
752.29	246.02
752.62	245.10
752.95	244.55
753.28	244.07
753.60	243.55
753.93	243.90
754.26	243.57
754.59	242.62
754.91	242.29
755.24	241.81
755.57	241.60
755.90	241.33
756.22	240.67
756.55	240.17
756.88	239.10
757.20	237.67
757.53	236.74
757.86	236.43
758.19	236.50
758.51	236.12
758.84	234.62
759.17	234.07
759.49	233.88
759.82	234.60
760.15	234.43
760.47	234.26
760.80	233.55
761.13	233.88
761.45	233.67
761.78	233.64
762.11	233.40
762.43	233.02
762.76	232.88
763.08	232.93
763.41	232.79
763.74	233.00
764.06	232.43
764.39	232.19
764.71	231.71
765.04	231.10
765.37	230.62
765.69	230.52
766.02	230.48
766.34	229.79
766.67	228.67
767.00	228.90
767.32	229.74
767.65	230.43
767.97	229.76
768.30	229.81
768.62	229.24
768.95	228.86
769.27	228.79
769.60	228.71
769.92	228.26
770.25	227.62
770.57	226.93
770.90	226.90
771.22	226.90
771.55	226.79
771.87	226.86
772.20	226.67
772.52	227.95
772.85	230.12
773.17	230.29
773.50	230.14
773.82	229.83
774.15	228.62
774.47	227.14
774.80	227.07
775.12	227.05
775.45	227.12
775.77	227.17
776.09	227.12
776.42	227.05
776.74	227.29
777.07	227.19
777.39	227.29
777.72	226.98
778.04	226.81
778.36	226.48
778.69	226.33
779.01	226.64
779.33	224.86
779.66	222.40
779.98	222.00
780.31	221.81
780.63	222.38
780.95	222.79
781.28	222.98
781.60	222.57
781.92	222.17
782.25	221.93
782.57	221.90
782.89	221.40
783.22	221.07
783.54	220.88
783.86	221.12
784.19	220.76
784.51	221.33
784.83	221.17
785.16	221.36
785.48	221.29
785.80	220.83
786.12	221.17
786.45	220.98
786.77	221.26
787.09	221.29
787.42	220.19
787.74	219.95
788.06	219.88
788.38	219.76
788.71	219.71
789.03	219.62
789.35	219.67
789.67	219.69
789.99	219.83
790.32	219.33
790.64	219.48
790.96	221.12
791.28	220.38
791.61	220.17
791.93	220.19
792.25	220.00
792.57	221.64
792.89	221.21
793.21	221.50
793.54	221.12
793.86	220.79
794.18	221.05
794.50	220.83
794.82	220.67
795.14	220.98
795.47	221.24
795.79	221.76
796.11	221.40
796.43	221.24
796.75	221.19
797.07	221.21
797.39	220.98
797.71	219.48
798.04	219.69
798.36	219.76
798.68	219.71
799.00	219.95
799.32	218.55
799.64	218.98
799.96	218.93
800.28	219.12
800.60	219.17
800.92	219.24
801.24	219.12
801.56	219.17
801.89	219.07
802.21	219.14
802.53	218.50
802.85	218.93
803.17	219.98
803.49	219.57
803.81	219.45
804.13	219.19
804.45	219.10
804.77	219.17
805.09	219.36
805.41	219.36
805.73	218.86
806.05	218.60
806.37	218.31
806.69	218.10
807.01	218.26
807.33	218.29
807.65	217.69
807.97	218.74
808.28	218.60
808.60	218.50
808.92	218.12
809.24	219.48
809.56	218.98
809.88	218.45
810.20	218.48
810.52	218.69
810.84	218.64
811.16	218.26
811.48	217.86
811.80	218.31
812.12	217.95
812.43	218.48
812.75	218.81
813.07	218.79
813.39	219.12
813.71	218.55
814.03	218.48
814.35	218.33
814.67	217.36
814.98	217.10
815.30	216.98
815.62	216.81
815.94	215.31
816.26	215.33
816.58	214.57
816.89	214.93
817.21	214.50
817.53	214.48
817.85	214.69
818.17	214.74
818.48	214.10
818.80	214.57
819.12	214.38
819.44	213.95
819.76	213.60
820.07	213.38
820.39	213.57
820.71	213.67
821.03	213.81
821.34	213.60
821.66	214.02
821.98	214.26
822.30	214.12
822.61	215.50
822.93	215.50
823.25	215.55
823.57	215.24
823.88	215.88
824.20	216.05
824.52	216.24
824.83	216.31
825.15	215.98
825.47	215.88
825.79	215.86
826.10	215.62
826.42	215.62
826.74	216.02
827.05	215.81
827.37	215.86
827.69	215.86
828.00	215.90
828.32	215.79
828.64	215.52
828.95	216.74
829.27	216.05
829.58	215.93
829.90	216.24
830.22	216.24
830.53	215.74
830.85	215.43
831.17	214.98
831.48	214.98
831.80	215.19
832.11	214.76
832.43	214.55
832.75	214.88
833.06	216.24
833.38	215.64
833.69	215.52
834.01	215.67
834.32	215.50
834.64	215.38
834.96	215.50
835.27	215.48
835.59	214.67
835.90	214.12
836.22	214.05
836.53	213.64
836.85	213.45
837.16	215.57
837.48	215.52
837.79	216.33
838.11	216.38
838.42	216.29
838.74	216.74
839.05	216.36
839.37	215.98
839.68	214.50
840.00	214.26
840.31	214.52
840.63	214.19
840.94	214.07
841.26	213.93
841.57	213.76
841.88	214.02
842.20	213.88
842.51	213.76
842.83	213.93
843.14	215.76
843.46	215.90
843.77	214.55
844.08	214.60
844.40	213.90
844.71	213.76
845.03	213.62
845.34	213.50
845.65	213.60
845.97	213.64
846.28	213.67
846.60	213.79
846.91	213.64
847.22	213.71
847.54	214.31
847.85	214.55
848.16	214.40
848.48	214.00
848.79	214.90
849.10	215.24
849.42	215.17
849.73	213.29
850.04	213.33
850.36	212.60
850.67	212.81
850.98	212.81
851.30	212.83
851.61	212.88
851.92	212.83
852.23	213.40
852.55	213.48
852.86	213.71
853.17	213.81
853.49	214.45
853.80	214.74
854.11	215.14
854.42	215.36
854.74	215.19
855.05	215.12
855.36	213.69
855.67	213.74
855.99	213.83
856.30	216.33
856.61	216.19
856.92	216.26
857.23	216.24
857.55	216.17
857.86	216.21
858.17	216.52
858.48	216.29
858.79	216.12
859.11	216.50
859.42	216.43
859.73	216.07
860.04	215.60
860.35	215.10
860.66	214.19
860.98	214.00
861.29	214.07
861.60	214.14
861.91	214.98
862.22	214.74
862.53	214.43
862.84	212.07
863.16	212.48
863.47	212.31
863.78	212.26
864.09	212.62
864.40	212.50
864.71	212.57
865.02	212.88
865.33	212.45
865.64	212.14
865.95	212.14
866.27	213.81
866.58	213.79
866.89	214.07
867.20	213.98
867.51	213.76
867.82	213.71
868.13	214.31
868.44	213.81
868.75	214.14
869.06	214.45
869.37	214.57
869.68	214.00
869.99	214.10
870.30	214.21
870.61	214.14
870.92	213.83
871.23	213.57
871.54	213.83
871.85	214.45
872.16	214.62
872.47	214.45
872.78	213.17
873.09	213.36
873.40	213.31
873.71	213.57
874.02	213.55
874.33	213.19
874.64	212.86
874.95	213.36
875.26	212.95
875.56	212.88
875.87	212.76
876.18	212.67
876.49	214.83
876.80	214.52
877.11	214.19
877.42	214.50
877.73	214.45
878.04	214.02
878.35	213.76
878.66	213.79
878.96	213.95
879.27	213.79
879.58	213.76
879.89	213.55
880.20	214.05
880.51	214.12
880.82	214.67
881.12	214.81
881.43	214.17
881.74	214.07
882.05	214.02
882.36	214.48
882.67	214.81
882.97	212.67
883.28	212.69
883.59	212.88
883.90	213.05
884.21	213.60
884.51	213.64
884.82	213.48
885.13	213.36
885.44	213.07
885.74	213.07
886.05	212.88
886.36	212.88
886.67	212.17
886.98	213.00
887.28	212.98
887.59	212.71
887.90	212.83
888.20	212.64
888.51	212.90
888.82	212.31
889.13	212.40
889.43	214.05
889.74	214.00
890.05	213.60
890.35	213.43
890.66	212.79
890.97	212.48
891.28	212.36
891.58	212.36
891.89	212.55
892.20	212.48
892.50	212.12
892.81	212.07
893.12	212.07
893.42	211.07
893.73	211.38
894.04	211.43
894.34	211.57
894.65	211.50
894.95	211.10
895.26	211.38
895.57	212.21
895.87	210.33
896.18	210.71
896.48	211.24
896.79	211.26
897.10	211.74
897.40	212.00
897.71	212.33
898.01	212.26
898.32	212.43
898.63	212.45
898.93	212.93
899.24	212.74
899.54	212.57
899.85	212.69
900.15	212.14
900.46	211.98
900.76	211.95
901.07	212.12
901.38	212.40
901.68	212.33
901.99	211.36
902.29	211.50
902.60	211.21
902.90	210.93
903.21	210.83
903.51	210.71
903.82	210.88
904.12	210.95
904.43	211.10
904.73	210.74
905.03	210.74
905.34	212.62
905.64	212.71
905.95	212.93
906.25	213.00
906.56	213.24
906.86	213.38
907.17	213.31
907.47	213.52
907.77	213.33
908.08	213.19
908.38	213.38
908.69	213.50
908.99	213.95
909.30	214.02
909.60	213.93
909.90	214.02
910.21	213.57
910.51	213.21
910.81	213.26
911.12	213.55
911.42	213.57
911.73	211.29
912.03	211.43
912.33	211.76
912.64	211.64
912.94	211.26
913.24	211.02
913.55	210.86
913.85	210.67
914.15	211.02
914.46	211.24
914.76	211.00
915.06	210.95
915.37	210.36
915.67	210.26
915.97	210.26
916.27	209.95
916.58	210.21
916.88	210.07
917.18	209.93
917.49	211.36
917.79	211.10
918.09	211.52
918.39	212.10
918.70	211.86
919.00	212.00
919.30	213.33
919.60	213.33
919.91	213.19
920.21	213.07
920.51	212.57
920.81	212.45
921.12	212.71
921.42	212.74
921.72	213.00
922.02	213.17
922.32	213.67
922.63	213.50
922.93	214.36
923.23	214.76
923.53	214.48
923.83	213.05
924.13	213.36
924.44	213.33
924.74	213.74
925.04	214.29
925.34	214.26
925.64	213.05
925.94	213.07
926.24	214.40
926.55	214.36
926.85	214.69
927.15	214.48
927.45	214.50
927.75	214.40
928.05	214.36
928.35	214.02
928.65	214.38
928.95	214.62
929.26	214.00
929.56	214.31
929.86	214.67
930.16	214.64
930.46	214.48
930.76	214.76
931.06	213.71
931.36	213.21
931.66	213.67
931.96	214.05
932.26	213.90
932.56	212.81
932.86	213.05
933.16	213.10
933.46	213.12
933.76	212.76
934.06	213.31
934.36	214.07
934.66	214.19
934.96	213.79
935.26	213.90
935.56	214.02
935.86	213.07
936.16	212.74
936.46	212.48
936.76	212.50
937.06	211.93
937.36	211.95
937.66	212.24
937.96	212.00
938.26	211.45
938.56	211.67
938.86	211.95
939.16	212.48
939.46	212.74
939.76	213.00
940.06	213.07
940.35	212.45
940.65	211.45
940.95	211.62
941.25	211.02
941.55	210.93
941.85	210.83
942.15	211.55
942.45	212.07
942.75	211.98
943.04	212.12
943.34	212.55
943.64	212.60
943.94	211.93
944.24	211.98
944.54	212.38
944.84	212.26
945.13	212.12
945.43	211.50
945.73	211.19
946.03	211.07
946.33	210.76
946.62	210.81
946.92	210.90
947.22	211.24
947.52	211.52
947.82	211.52
948.11	211.19
948.41	210.98
948.71	210.50
949.01	210.76
949.31	210.57
949.60	210.38
949.90	210.79
950.20	210.90
950.50	210.67
950.79	210.52
951.09	210.90
951.39	210.79
951.69	210.64
951.98	210.98
952.28	211.00
952.58	211.29
952.87	211.33
953.17	211.48
953.47	210.86
953.76	210.90
954.06	210.74
954.36	210.50
954.66	210.40
954.95	211.10
955.25	211.52
955.55	211.67
955.84	211.48
956.14	211.40
956.44	211.57
956.73	211.43
957.03	211.57
957.32	211.21
957.62	211.21
957.92	211.74
958.21	211.60
958.51	213.86
958.81	214.14
959.10	214.12
959.40	214.71
959.69	215.12
959.99	215.29
960.29	215.31
960.58	215.40
960.88	215.98
961.17	215.71
961.47	215.50
961.76	215.52
962.06	216.02
962.36	215.88
962.65	216.00
962.95	216.14
963.24	215.98
963.54	216.24
963.83	216.24
964.13	216.05
964.42	215.57
964.72	213.98
965.01	213.93
965.31	214.02
965.60	213.36
965.90	214.43
966.19	214.05
966.49	214.21
966.78	214.31
967.08	214.40
967.37	214.45
967.67	214.26
967.96	214.64
968.26	214.12
968.55	214.26
968.85	214.00
969.14	214.10
969.43	213.98
969.73	213.83
970.02	213.98
970.32	213.90
970.61	213.95
970.91	213.26
971.20	212.95
971.49	212.57
971.79	212.71
972.08	211.21
972.38	211.50
972.67	211.31
972.96	211.40
973.26	210.95
973.55	211.45
973.85	211.31
974.14	210.93
974.43	211.38
974.73	211.10
975.02	211.17
975.31	211.05
975.61	211.07
975.90	210.86
976.19	210.74
976.49	210.81
976.78	211.00
977.07	211.12
977.37	211.33
977.66	211.83
977.95	211.83
978.24	212.21
978.54	212.64
978.83	212.60
979.12	212.48
979.42	212.33
979.71	211.93
980.00	211.86
980.29	211.79
980.59	211.26
980.88	211.64
981.17	211.50
981.46	211.62
981.76	211.55
982.05	212.14
982.34	212.19
982.63	212.12
982.93	212.14
983.22	212.71
983.51	212.69
983.80	212.74
984.09	212.90
984.39	212.57
984.68	211.95
984.97	212.12
985.26	211.95
985.55	212.24
985.85	211.88
986.14	212.07
986.43	212.48
986.72	212.38
987.01	211.81
987.30	211.90
987.59	211.52
987.89	211.64
988.18	211.02
988.47	210.76
988.76	210.57
989.05	210.17
989.34	209.74
989.63	210.24
989.92	209.86
990.22	209.43
990.51	209.43
990.80	209.64
991.09	209.71
991.38	210.19
991.67	210.12
991.96	209.95
992.25	210.14
992.54	209.83
992.83	210.07
993.12	210.24
993.41	210.40
993.70	211.38
993.99	211.79
994.28	212.29
994.58	212.60
994.87	212.55
995.16	212.69
995.45	212.57
995.74	211.74
996.03	212.33
996.32	212.67
996.61	213.17
996.90	212.95
997.19	212.74
997.48	212.86
997.77	212.45
998.06	212.36
998.34	212.10
998.63	212.00
998.92	211.86
999.21	212.10
999.50	212.31
999.79	211.33
1000.08	211.05
1000.37	211.05
1000.66	210.69
1000.95	211.05
1001.24	211.14
1001.53	211.31
1001.82	211.31
1002.11	210.64
1002.40	211.07
1002.68	211.55
1002.97	212.95
1003.26	212.98
1003.55	212.38
1003.84	212.50
1004.13	213.52
1004.42	213.55
1004.71	213.48
1004.99	213.52
1005.28	213.98
1005.57	213.74
1005.86	213.79
1006.15	213.86
1006.44	213.40
1006.72	213.81
1007.01	213.76
1007.30	213.86
1007.59	213.79
1007.88	213.88
1008.17	213.88
1008.45	213.36
1008.74	212.24
1009.03	211.05
1009.32	210.81
1009.60	210.76
1009.89	210.57
1010.18	209.57
1010.47	209.50
1010.76	209.45
1011.04	209.38
1011.33	209.40
1011.62	209.74
1011.91	209.98
1012.19	209.86
1012.48	209.81
1012.77	209.76
1013.05	210.62
1013.34	210.62
1013.63	210.31
1013.92	210.57
1014.20	210.74
1014.49	210.81
1014.78	211.14
1015.06	210.67
1015.35	210.57
1015.64	211.05
1015.92	211.19
1016.21	211.45
1016.50	211.36
1016.78	211.79
1017.07	212.00
1017.36	211.31
1017.64	210.76
1017.93	210.98
1018.22	211.05
1018.50	211.07
1018.79	211.02
1019.08	209.79
1019.36	209.74
1019.65	209.67
1019.93	210.10
1020.22	210.17
1020.51	211.17
1020.79	211.02
1021.08	210.50
1021.36	206.00
1021.65	211.50
1021.94	205.00
1022.22	211.50
1022.51	206.50
1022.79	222.00
1023.08	211.50
1023.36	235.50
1023.65	206.50
>>>>>End Processed Spectral Data<<<<<
