SpectraSuite Data File
++++++++++++++++++++++++++++++++++++
Date: Tue Apr 02 18:46:25 EDT 2013
User: group
Dark Spectrum Present: No
Reference Spectrum Present: No
Number of Sampled Component Spectra: 1
Spectrometers: USB2E7196
Integration Time (usec): 580000 (USB2E7196)
Spectra Averaged: 2 (USB2E7196)
Boxcar Smoothing: 10 (USB2E7196)
Correct for Electrical Dark: No (USB2E7196)
Strobe/Lamp Enabled: No (USB2E7196)
Correct for Detector Non-linearity: No (USB2E7196)
Correct for Stray Light: No (USB2E7196)
Number of Pixels in Processed Spectrum: 2048
>>>>>Begin Processed Spectral Data<<<<<
339.09	0.00
339.48	191.50
339.86	196.00
340.24	195.00
340.63	197.00
341.01	229.50
341.39	199.50
341.78	202.00
342.16	211.00
342.54	207.00
342.93	196.50
343.31	206.36
343.69	206.90
344.07	207.33
344.46	208.29
344.84	208.95
345.22	207.95
345.60	208.33
345.99	208.83
346.37	208.74
346.75	208.71
347.13	208.83
347.52	209.19
347.90	209.95
348.28	209.88
348.66	210.60
349.05	210.10
349.43	210.38
349.81	210.69
350.19	211.00
350.57	211.48
350.96	211.88
351.34	212.19
351.72	212.64
352.10	212.95
352.48	212.74
352.87	212.86
353.25	212.98
353.63	213.05
354.01	213.00
354.39	213.36
354.77	213.60
355.15	214.43
355.54	214.26
355.92	213.90
356.30	214.14
356.68	215.17
357.06	215.48
357.44	215.14
357.82	215.10
358.20	216.21
358.58	216.21
358.97	216.19
359.35	216.64
359.73	216.86
360.11	216.64
360.49	216.79
360.87	216.69
361.25	216.86
361.63	217.86
362.01	217.95
362.39	217.83
362.77	218.00
363.15	217.71
363.53	217.64
363.91	217.48
364.29	217.50
364.67	215.55
365.05	215.29
365.43	215.67
365.81	215.76
366.19	215.64
366.57	216.21
366.95	216.17
367.33	215.52
367.71	215.52
368.09	216.10
368.47	215.98
368.85	215.93
369.23	216.33
369.61	215.40
369.99	216.05
370.37	216.21
370.75	217.10
371.13	216.67
371.51	216.40
371.89	216.76
372.27	216.55
372.65	216.74
373.03	216.88
373.41	216.62
373.78	216.43
374.16	215.33
374.54	214.60
374.92	214.29
375.30	214.50
375.68	214.21
376.06	214.38
376.44	214.26
376.82	214.29
377.19	214.05
377.57	214.00
377.95	213.31
378.33	213.07
378.71	211.95
379.09	212.24
379.47	212.55
379.84	212.29
380.22	212.00
380.60	211.67
380.98	211.52
381.36	211.60
381.73	211.52
382.11	211.90
382.49	212.29
382.87	212.31
383.25	212.00
383.62	214.26
384.00	213.55
384.38	213.62
384.76	214.33
385.13	215.17
385.51	215.14
385.89	214.90
386.27	215.00
386.64	215.14
387.02	214.86
387.40	214.55
387.78	214.57
388.15	215.07
388.53	215.14
388.91	215.17
389.29	215.02
389.66	215.57
390.04	215.19
390.42	215.60
390.79	215.67
391.17	215.86
391.55	213.60
391.92	213.76
392.30	213.95
392.68	213.26
393.05	213.29
393.43	213.38
393.81	213.64
394.18	213.29
394.56	213.38
394.94	213.98
395.31	213.98
395.69	214.60
396.06	214.79
396.44	215.02
396.82	214.95
397.19	216.17
397.57	215.52
397.95	216.02
398.32	215.10
398.70	215.38
399.07	215.83
399.45	215.79
399.82	215.95
400.20	215.74
400.58	215.79
400.95	214.76
401.33	215.26
401.70	216.83
402.08	217.19
402.45	217.21
402.83	217.62
403.20	217.88
403.58	217.88
403.95	218.17
404.33	218.71
404.71	219.10
405.08	220.05
405.46	220.40
405.83	220.74
406.21	221.43
406.58	221.64
406.96	221.90
407.33	222.55
407.70	223.10
408.08	225.26
408.45	226.24
408.83	227.24
409.20	227.60
409.58	226.95
409.95	228.14
410.33	229.26
410.70	229.64
411.08	231.00
411.45	232.19
411.82	232.81
412.20	234.14
412.57	236.33
412.95	236.10
413.32	237.83
413.69	239.26
414.07	241.00
414.44	243.00
414.82	244.76
415.19	247.17
415.56	249.33
415.94	250.64
416.31	253.29
416.68	255.88
417.06	259.05
417.43	262.55
417.81	265.76
418.18	269.17
418.55	272.76
418.93	276.50
419.30	280.50
419.67	285.10
420.04	289.48
420.42	293.55
420.79	300.62
421.16	306.26
421.54	313.07
421.91	319.12
422.28	325.00
422.66	331.52
423.03	339.60
423.40	346.81
423.77	353.74
424.15	360.57
424.52	368.67
424.89	377.60
425.26	385.19
425.64	392.95
426.01	401.21
426.38	410.10
426.75	419.48
427.13	428.64
427.50	438.19
427.87	447.88
428.24	458.07
428.61	466.64
428.99	478.10
429.36	488.76
429.73	500.12
430.10	511.86
430.47	523.79
430.85	533.76
431.22	545.90
431.59	561.02
431.96	574.14
432.33	587.86
432.70	601.52
433.08	617.62
433.45	632.38
433.82	647.95
434.19	665.14
434.56	682.05
434.93	697.24
435.30	713.50
435.68	731.24
436.05	748.31
436.42	764.93
436.79	780.43
437.16	797.71
437.53	814.76
437.90	832.24
438.27	849.67
438.64	868.26
439.01	885.74
439.38	899.26
439.75	913.74
440.13	930.21
440.50	945.38
440.87	958.24
441.24	971.71
441.61	985.93
441.98	996.76
442.35	1008.33
442.72	1021.48
443.09	1034.62
443.46	1042.43
443.83	1048.40
444.20	1053.40
444.57	1059.57
444.94	1062.14
445.31	1065.83
445.68	1071.86
446.05	1073.43
446.42	1071.57
446.79	1070.24
447.16	1068.55
447.53	1067.64
447.90	1061.26
448.27	1055.07
448.64	1046.31
449.01	1040.17
449.37	1029.29
449.74	1017.81
450.11	1006.86
450.48	991.95
450.85	975.64
451.22	962.67
451.59	950.62
451.96	939.26
452.33	923.33
452.70	909.36
453.07	892.74
453.43	873.24
453.80	856.86
454.17	841.62
454.54	826.48
454.91	809.74
455.28	793.57
455.65	778.98
456.02	767.36
456.38	754.69
456.75	739.36
457.12	725.60
457.49	713.02
457.86	698.81
458.23	689.67
458.59	678.43
458.96	666.48
459.33	655.57
459.70	644.76
460.07	636.79
460.43	627.19
460.80	618.74
461.17	610.81
461.54	602.45
461.91	594.29
462.27	585.43
462.64	578.98
463.01	572.24
463.38	565.76
463.74	555.02
464.11	548.67
464.48	542.60
464.85	536.90
465.21	532.48
465.58	527.40
465.95	520.26
466.32	515.36
466.68	510.00
467.05	505.02
467.42	499.93
467.78	494.69
468.15	489.50
468.52	485.29
468.88	480.17
469.25	475.50
469.62	472.40
469.98	468.67
470.35	465.17
470.72	461.05
471.08	456.29
471.45	454.05
471.82	451.24
472.18	448.00
472.55	445.43
472.92	441.79
473.28	438.98
473.65	436.29
474.02	433.57
474.38	432.10
474.75	429.67
475.11	427.24
475.48	425.50
475.85	423.81
476.21	422.31
476.58	421.14
476.94	420.12
477.31	418.48
477.67	417.29
478.04	415.83
478.41	414.98
478.77	416.83
479.14	415.24
479.50	414.79
479.87	414.69
480.23	414.26
480.60	414.24
480.96	413.79
481.33	414.81
481.69	414.86
482.06	414.95
482.42	415.60
482.79	416.05
483.15	416.31
483.52	417.43
483.88	418.02
484.25	418.76
484.61	419.50
484.98	420.14
485.34	422.43
485.71	424.10
486.07	425.57
486.44	425.07
486.80	426.71
487.17	427.71
487.53	430.00
487.90	431.90
488.26	435.05
488.62	438.07
488.99	439.93
489.35	442.90
489.72	445.38
490.08	447.67
490.44	450.88
490.81	454.43
491.17	457.52
491.54	461.12
491.90	464.86
492.26	468.67
492.63	472.48
492.99	475.17
493.36	479.36
493.72	484.26
494.08	488.93
494.45	493.17
494.81	498.19
495.17	502.40
495.54	507.76
495.90	511.57
496.26	516.79
496.63	522.10
496.99	527.38
497.35	532.98
497.72	538.88
498.08	544.14
498.44	549.95
498.80	556.29
499.17	561.90
499.53	567.95
499.89	575.02
500.26	581.64
500.62	588.69
500.98	595.93
501.34	601.83
501.71	608.79
502.07	616.31
502.43	623.74
502.79	631.81
503.16	638.62
503.52	646.24
503.88	652.86
504.24	660.00
504.60	667.31
504.97	675.29
505.33	683.26
505.69	691.69
506.05	699.45
506.41	706.79
506.78	714.71
507.14	722.17
507.50	729.74
507.86	738.00
508.22	745.55
508.59	752.62
508.95	760.98
509.31	769.60
509.67	777.83
510.03	785.21
510.39	791.83
510.75	800.33
511.12	808.33
511.48	816.81
511.84	824.36
512.20	831.69
512.56	838.88
512.92	846.48
513.28	854.05
513.64	861.40
514.00	869.36
514.37	876.48
514.73	884.26
515.09	891.74
515.45	898.48
515.81	905.52
516.17	913.14
516.53	920.12
516.89	925.64
517.25	932.24
517.61	939.98
517.97	946.95
518.33	952.83
518.69	958.98
519.05	965.17
519.41	971.67
519.77	979.19
520.13	985.52
520.49	991.93
520.85	997.98
521.21	1004.81
521.57	1010.14
521.93	1015.74
522.29	1021.17
522.65	1025.60
523.01	1031.40
523.37	1036.62
523.73	1041.60
524.09	1046.43
524.45	1051.60
524.81	1055.86
525.17	1060.31
525.53	1064.90
525.89	1069.67
526.25	1074.17
526.61	1078.10
526.97	1083.07
527.33	1087.86
527.68	1094.24
528.04	1097.48
528.40	1100.98
528.76	1104.07
529.12	1108.02
529.48	1113.14
529.84	1117.05
530.20	1122.31
530.56	1126.50
530.91	1130.86
531.27	1134.71
531.63	1139.02
531.99	1143.12
532.35	1147.02
532.71	1150.02
533.07	1154.86
533.42	1161.29
533.78	1165.79
534.14	1170.38
534.50	1173.55
534.86	1177.02
535.21	1177.83
535.57	1183.14
535.93	1186.40
536.29	1191.67
536.65	1196.07
537.00	1199.10
537.36	1203.10
537.72	1206.24
538.08	1209.93
538.44	1212.74
538.79	1216.79
539.15	1219.64
539.51	1223.48
539.87	1227.38
540.22	1230.93
540.58	1233.48
540.94	1234.50
541.29	1237.57
541.65	1239.36
542.01	1242.52
542.37	1244.86
542.72	1247.67
543.08	1249.17
543.44	1252.90
543.79	1253.14
544.15	1255.57
544.51	1259.07
544.87	1261.95
545.22	1264.52
545.58	1266.38
545.94	1269.21
546.29	1271.43
546.65	1273.98
547.01	1275.67
547.36	1277.60
547.72	1279.88
548.07	1282.98
548.43	1285.45
548.79	1286.86
549.14	1289.33
549.50	1292.48
549.86	1294.55
550.21	1298.00
550.57	1301.52
550.92	1304.26
551.28	1308.60
551.64	1311.45
551.99	1313.36
552.35	1315.31
552.70	1318.26
553.06	1321.93
553.41	1324.90
553.77	1329.81
554.13	1333.55
554.48	1337.71
554.84	1341.76
555.19	1345.48
555.55	1349.83
555.90	1352.98
556.26	1357.31
556.61	1360.81
556.97	1364.12
557.32	1368.60
557.68	1372.55
558.03	1375.40
558.39	1378.48
558.74	1381.86
559.10	1385.45
559.45	1389.64
559.81	1395.00
560.16	1398.81
560.52	1402.76
560.87	1407.60
561.23	1408.98
561.58	1414.36
561.94	1418.19
562.29	1421.69
562.64	1426.95
563.00	1429.83
563.35	1434.64
563.71	1439.00
564.06	1444.90
564.42	1449.21
564.77	1454.79
565.12	1460.55
565.48	1468.07
565.83	1473.95
566.19	1479.50
566.54	1485.10
566.89	1490.31
567.25	1494.81
567.60	1501.14
567.96	1508.74
568.31	1515.62
568.66	1522.90
569.02	1526.71
569.37	1532.29
569.72	1538.26
570.08	1543.36
570.43	1548.79
570.78	1554.07
571.14	1560.17
571.49	1566.05
571.84	1571.93
572.20	1576.02
572.55	1580.64
572.90	1582.71
573.26	1587.71
573.61	1591.93
573.96	1596.98
574.31	1601.81
574.67	1606.74
575.02	1610.21
575.37	1611.55
575.72	1614.21
576.08	1617.29
576.43	1621.45
576.78	1625.00
577.13	1629.21
577.49	1632.43
577.84	1637.10
578.19	1641.48
578.54	1646.14
578.90	1649.00
579.25	1652.48
579.60	1655.36
579.95	1658.14
580.30	1663.12
580.66	1667.36
581.01	1671.76
581.36	1674.64
581.71	1678.21
582.06	1682.05
582.42	1686.10
582.77	1689.79
583.12	1692.98
583.47	1696.86
583.82	1701.14
584.17	1704.69
584.53	1708.19
584.88	1710.93
585.23	1713.83
585.58	1716.33
585.93	1718.21
586.28	1722.07
586.63	1725.07
586.98	1728.71
587.34	1732.98
587.69	1735.36
588.04	1737.71
588.39	1739.62
588.74	1741.76
589.09	1744.45
589.44	1745.29
589.79	1747.79
590.14	1749.19
590.49	1750.79
590.84	1751.79
591.19	1753.07
591.54	1755.33
591.89	1756.12
592.25	1760.29
592.60	1761.26
592.95	1762.69
593.30	1764.55
593.65	1765.48
594.00	1766.40
594.35	1773.55
594.70	1773.71
595.05	1775.64
595.40	1776.36
595.75	1777.05
596.10	1778.74
596.45	1779.90
596.80	1781.98
597.15	1782.81
597.50	1784.43
597.85	1786.43
598.19	1787.60
598.54	1788.07
598.89	1788.10
599.24	1789.86
599.59	1789.38
599.94	1790.14
600.29	1791.05
600.64	1791.21
600.99	1791.55
601.34	1792.43
601.69	1786.19
602.04	1786.33
602.39	1785.21
602.74	1785.67
603.08	1786.00
603.43	1786.14
603.78	1784.36
604.13	1784.00
604.48	1782.74
604.83	1783.24
605.18	1782.88
605.53	1782.74
605.87	1781.93
606.22	1782.10
606.57	1780.76
606.92	1778.98
607.27	1777.88
607.62	1777.31
607.96	1776.31
608.31	1775.05
608.66	1773.90
609.01	1772.67
609.36	1771.52
609.70	1769.62
610.05	1766.81
610.40	1765.52
610.75	1762.95
611.10	1762.24
611.44	1759.14
611.79	1758.10
612.14	1755.48
612.49	1751.81
612.83	1748.90
613.18	1746.55
613.53	1742.88
613.88	1740.05
614.22	1737.12
614.57	1733.67
614.92	1729.79
615.27	1726.45
615.61	1723.17
615.96	1719.29
616.31	1715.88
616.65	1713.45
617.00	1711.67
617.35	1709.19
617.70	1705.55
618.04	1702.52
618.39	1699.64
618.74	1697.10
619.08	1692.50
619.43	1688.93
619.78	1686.29
620.12	1683.62
620.47	1680.14
620.82	1675.90
621.16	1671.83
621.51	1669.17
621.85	1665.50
622.20	1661.60
622.55	1657.33
622.89	1654.38
623.24	1651.81
623.59	1648.10
623.93	1644.07
624.28	1639.24
624.62	1636.67
624.97	1633.64
625.32	1629.60
625.66	1625.31
626.01	1621.12
626.35	1617.52
626.70	1614.57
627.04	1611.83
627.39	1607.12
627.73	1603.17
628.08	1600.02
628.43	1596.38
628.77	1592.48
629.12	1589.50
629.46	1586.10
629.81	1582.31
630.15	1576.93
630.50	1571.83
630.84	1567.55
631.19	1562.14
631.53	1558.24
631.88	1551.55
632.22	1545.83
632.57	1541.88
632.91	1536.40
633.26	1531.29
633.60	1526.83
633.95	1520.62
634.29	1514.26
634.64	1509.86
634.98	1505.60
635.32	1501.62
635.67	1497.64
636.01	1493.07
636.36	1487.52
636.70	1483.52
637.05	1478.38
637.39	1474.93
637.73	1470.52
638.08	1467.24
638.42	1463.33
638.77	1458.95
639.11	1454.74
639.45	1449.48
639.80	1444.64
640.14	1440.90
640.49	1436.98
640.83	1431.33
641.17	1427.02
641.52	1421.50
641.86	1416.62
642.20	1412.43
642.55	1406.71
642.89	1400.83
643.23	1395.33
643.58	1391.60
643.92	1384.74
644.26	1380.07
644.61	1374.60
644.95	1368.86
645.29	1362.45
645.64	1357.24
645.98	1351.14
646.32	1346.43
646.66	1341.07
647.01	1334.98
647.35	1329.38
647.69	1323.17
648.04	1318.05
648.38	1312.62
648.72	1308.62
649.06	1302.40
649.41	1295.79
649.75	1289.50
650.09	1283.07
650.43	1276.36
650.78	1269.12
651.12	1263.83
651.46	1257.83
651.80	1251.29
652.14	1246.17
652.49	1240.57
652.83	1233.74
653.17	1227.81
653.51	1221.29
653.85	1215.55
654.20	1209.52
654.54	1202.07
654.88	1195.79
655.22	1190.26
655.56	1183.43
655.90	1176.50
656.25	1170.67
656.59	1164.33
656.93	1158.64
657.27	1153.90
657.61	1147.69
657.95	1142.02
658.29	1136.29
658.64	1130.21
658.98	1124.00
659.32	1116.05
659.66	1109.38
660.00	1103.64
660.34	1097.05
660.68	1090.40
661.02	1084.29
661.36	1078.52
661.70	1073.07
662.05	1067.52
662.39	1061.24
662.73	1056.10
663.07	1050.93
663.41	1045.26
663.75	1039.24
664.09	1033.40
664.43	1027.12
664.77	1021.36
665.11	1015.43
665.45	1009.67
665.79	1004.29
666.13	998.02
666.47	993.67
666.81	988.12
667.15	982.10
667.49	977.24
667.83	972.98
668.17	967.31
668.51	961.48
668.85	956.19
669.19	951.52
669.53	945.26
669.87	939.14
670.21	933.29
670.55	927.26
670.89	922.67
671.23	917.69
671.57	912.10
671.91	906.90
672.25	901.79
672.58	897.07
672.92	891.07
673.26	886.40
673.60	880.79
673.94	876.00
674.28	871.52
674.62	866.88
674.96	861.52
675.30	857.05
675.64	852.52
675.97	847.48
676.31	841.67
676.65	837.05
676.99	832.95
677.33	827.31
677.67	823.10
678.01	817.93
678.34	813.05
678.68	808.64
679.02	803.24
679.36	797.86
679.70	791.98
680.04	787.45
680.37	782.10
680.71	777.02
681.05	772.40
681.39	766.98
681.73	761.93
682.06	756.81
682.40	751.79
682.74	746.74
683.08	742.67
683.42	737.88
683.75	733.31
684.09	727.95
684.43	723.81
684.77	718.31
685.10	713.10
685.44	708.07
685.78	703.52
686.12	699.33
686.45	694.81
686.79	690.26
687.13	685.86
687.46	681.79
687.80	677.95
688.14	673.12
688.48	669.10
688.81	664.07
689.15	659.74
689.49	655.05
689.82	650.57
690.16	645.02
690.50	640.50
690.83	635.76
691.17	630.67
691.51	625.90
691.84	621.76
692.18	618.05
692.52	613.86
692.85	609.55
693.19	606.21
693.52	602.07
693.86	597.55
694.20	593.17
694.53	588.79
694.87	584.07
695.21	579.64
695.54	575.10
695.88	570.90
696.21	565.88
696.55	562.00
696.88	558.21
697.22	554.36
697.56	550.88
697.89	547.14
698.23	544.07
698.56	539.83
698.90	536.60
699.23	532.02
699.57	528.21
699.90	524.26
700.24	520.00
700.58	516.17
700.91	513.12
701.25	511.24
701.58	508.67
701.92	506.05
702.25	502.62
702.59	499.40
702.92	496.38
703.26	493.67
703.59	490.62
703.93	488.86
704.26	486.31
704.60	483.05
704.93	479.57
705.26	476.45
705.60	474.33
705.93	470.71
706.27	468.05
706.60	465.62
706.94	463.62
707.27	460.98
707.61	458.19
707.94	455.14
708.27	450.67
708.61	447.07
708.94	444.00
709.28	441.33
709.61	438.52
709.94	435.83
710.28	433.17
710.61	430.33
710.95	425.76
711.28	424.52
711.61	421.88
711.95	420.24
712.28	417.50
712.61	414.79
712.95	413.43
713.28	412.31
713.61	409.62
713.95	406.64
714.28	403.76
714.61	401.60
714.95	399.38
715.28	396.98
715.61	394.43
715.95	392.21
716.28	390.12
716.61	388.07
716.95	385.67
717.28	383.57
717.61	381.38
717.94	379.60
718.28	375.95
718.61	373.71
718.94	371.29
719.27	369.14
719.61	366.95
719.94	364.40
720.27	361.31
720.60	359.21
720.94	357.26
721.27	355.81
721.60	354.43
721.93	352.55
722.27	351.71
722.60	350.29
722.93	348.31
723.26	346.67
723.59	344.90
723.93	343.29
724.26	341.76
724.59	339.88
724.92	338.45
725.25	337.71
725.59	336.60
725.92	335.48
726.25	334.43
726.58	333.14
726.91	331.81
727.24	330.76
727.57	329.69
727.91	327.90
728.24	326.43
728.57	324.67
728.90	323.81
729.23	321.83
729.56	321.48
729.89	320.31
730.22	319.10
730.55	317.52
730.89	316.29
731.22	314.98
731.55	313.98
731.88	312.83
732.21	311.12
732.54	309.79
732.87	308.50
733.20	307.57
733.53	306.86
733.86	305.88
734.19	304.45
734.52	303.21
734.85	303.52
735.18	302.60
735.51	302.38
735.84	301.43
736.17	300.95
736.50	299.12
736.83	300.69
737.16	299.79
737.49	299.38
737.82	298.62
738.15	297.90
738.48	296.95
738.81	295.98
739.14	294.83
739.47	293.62
739.80	292.67
740.13	291.64
740.46	290.07
740.79	289.12
741.12	288.12
741.45	287.17
741.78	285.36
742.11	285.10
742.44	283.67
742.77	282.81
743.10	281.81
743.43	280.86
743.75	277.81
744.08	279.67
744.41	278.67
744.74	277.62
745.07	276.50
745.40	276.21
745.73	276.26
746.06	275.69
746.39	275.40
746.71	274.52
747.04	273.50
747.37	273.10
747.70	272.36
748.03	271.98
748.36	271.67
748.68	271.02
749.01	269.69
749.34	268.95
749.67	268.48
750.00	267.90
750.33	268.81
750.65	268.40
750.98	265.14
751.31	264.36
751.64	263.93
751.97	264.57
752.29	263.86
752.62	262.29
752.95	261.69
753.28	260.90
753.60	260.29
753.93	260.52
754.26	260.26
754.59	259.31
754.91	258.43
755.24	257.55
755.57	256.93
755.90	256.21
756.22	255.69
756.55	254.52
756.88	253.76
757.20	251.69
757.53	250.31
757.86	249.67
758.19	249.74
758.51	249.57
758.84	247.90
759.17	247.21
759.49	246.98
759.82	247.43
760.15	247.05
760.47	246.40
760.80	245.36
761.13	245.10
761.45	244.76
761.78	244.48
762.11	244.07
762.43	243.52
762.76	243.19
763.08	242.98
763.41	242.90
763.74	242.40
764.06	242.29
764.39	242.07
764.71	241.79
765.04	240.79
765.37	239.88
765.69	239.60
766.02	239.33
766.34	238.79
766.67	237.76
767.00	238.00
767.32	239.17
767.65	240.07
767.97	239.43
768.30	239.05
768.62	238.60
768.95	238.26
769.27	237.90
769.60	238.21
769.92	237.60
770.25	236.83
770.57	236.36
770.90	236.05
771.22	235.64
771.55	235.45
771.87	235.55
772.20	235.52
772.52	236.98
772.85	238.83
773.17	238.79
773.50	238.29
773.82	237.52
774.15	236.31
774.47	234.88
774.80	234.55
775.12	234.60
775.45	234.48
775.77	234.40
776.09	234.40
776.42	233.83
776.74	234.40
777.07	234.26
777.39	234.12
777.72	233.74
778.04	233.95
778.36	233.38
778.69	233.10
779.01	232.93
779.33	230.95
779.66	228.81
779.98	228.33
780.31	228.10
780.63	228.93
780.95	228.88
781.28	228.64
781.60	228.17
781.92	227.81
782.25	227.52
782.57	227.29
782.89	226.95
783.22	226.55
783.54	225.90
783.86	226.00
784.19	225.71
784.51	226.29
784.83	225.81
785.16	225.67
785.48	225.50
785.80	225.45
786.12	225.83
786.45	225.60
786.77	225.57
787.09	225.29
787.42	224.14
787.74	224.07
788.06	223.98
788.38	223.83
788.71	223.45
789.03	223.43
789.35	223.55
789.67	223.12
789.99	223.26
790.32	223.12
790.64	223.17
790.96	224.67
791.28	223.64
791.61	223.69
791.93	223.98
792.25	223.79
792.57	225.17
792.89	224.45
793.21	224.52
793.54	224.36
793.86	224.31
794.18	224.24
794.50	223.67
794.82	223.74
795.14	224.02
795.47	224.36
795.79	224.14
796.11	223.50
796.43	223.57
796.75	223.67
797.07	223.43
797.39	223.29
797.71	221.88
798.04	222.07
798.36	221.88
798.68	221.71
799.00	221.93
799.32	220.55
799.64	220.88
799.96	220.76
800.28	221.10
800.60	221.02
800.92	221.45
801.24	221.38
801.56	221.26
801.89	221.02
802.21	221.07
802.53	220.88
802.85	221.38
803.17	222.21
803.49	221.57
803.81	221.50
804.13	221.36
804.45	221.07
804.77	221.10
805.09	221.02
805.41	220.83
805.73	220.43
806.05	220.05
806.37	219.81
806.69	219.36
807.01	219.05
807.33	219.31
807.65	218.55
807.97	219.38
808.28	219.14
808.60	219.10
808.92	218.90
809.24	220.00
809.56	219.60
809.88	218.64
810.20	218.76
810.52	218.88
810.84	218.62
811.16	218.55
811.48	218.55
811.80	219.24
812.12	219.02
812.43	219.40
812.75	219.38
813.07	219.19
813.39	219.33
813.71	219.10
814.03	218.76
814.35	218.69
814.67	217.93
814.98	217.79
815.30	217.74
815.62	217.29
815.94	216.14
816.26	216.21
816.58	216.02
816.89	216.10
817.21	215.90
817.53	216.26
817.85	216.29
818.17	216.02
818.48	215.19
818.80	215.50
819.12	215.02
819.44	214.86
819.76	214.62
820.07	214.81
820.39	214.64
820.71	214.71
821.03	214.81
821.34	214.62
821.66	215.05
821.98	215.17
822.30	215.07
822.61	216.10
822.93	215.76
823.25	215.98
823.57	215.64
823.88	216.10
824.20	215.93
824.52	216.10
824.83	216.02
825.15	215.74
825.47	215.57
825.79	215.71
826.10	215.43
826.42	215.43
826.74	215.40
827.05	215.40
827.37	215.50
827.69	215.33
828.00	215.43
828.32	215.00
828.64	214.88
828.95	215.90
829.27	215.45
829.58	215.45
829.90	215.52
830.22	215.90
830.53	215.12
830.85	214.67
831.17	214.17
831.48	214.19
831.80	214.31
832.11	214.02
832.43	213.69
832.75	213.88
833.06	215.19
833.38	214.64
833.69	214.71
834.01	214.86
834.32	214.67
834.64	214.71
834.96	214.86
835.27	214.74
835.59	213.98
835.90	213.52
836.22	213.40
836.53	213.02
836.85	212.55
837.16	214.76
837.48	214.93
837.79	215.74
838.11	215.76
838.42	216.00
838.74	216.62
839.05	216.57
839.37	216.50
839.68	215.21
840.00	215.38
840.31	215.50
840.63	215.07
840.94	215.10
841.26	214.79
841.57	214.71
841.88	215.02
842.20	214.88
842.51	214.64
842.83	214.88
843.14	216.81
843.46	216.95
843.77	215.71
844.08	215.36
844.40	214.67
844.71	214.57
845.03	214.14
845.34	213.83
845.65	213.93
845.97	213.98
846.28	214.02
846.60	214.07
846.91	213.86
847.22	213.90
847.54	214.31
847.85	214.57
848.16	214.45
848.48	213.83
848.79	214.81
849.10	215.02
849.42	215.02
849.73	213.07
850.04	213.24
850.36	212.55
850.67	213.12
850.98	213.19
851.30	213.40
851.61	213.45
851.92	213.36
852.23	213.79
852.55	213.79
852.86	214.05
853.17	214.21
853.49	214.71
853.80	215.12
854.11	215.19
854.42	215.24
854.74	215.05
855.05	215.36
855.36	214.26
855.67	214.57
855.99	214.55
856.30	216.93
856.61	216.83
856.92	216.76
857.23	216.57
857.55	216.29
857.86	216.17
858.17	216.52
858.48	216.26
858.79	215.98
859.11	215.98
859.42	215.71
859.73	215.43
860.04	215.43
860.35	214.67
860.66	214.00
860.98	214.10
861.29	214.21
861.60	214.00
861.91	214.43
862.22	213.79
862.53	213.52
862.84	210.95
863.16	211.40
863.47	211.10
863.78	211.17
864.09	211.36
864.40	211.50
864.71	211.26
865.02	211.55
865.33	211.40
865.64	211.17
865.95	211.19
866.27	212.64
866.58	212.31
866.89	212.76
867.20	212.90
867.51	212.40
867.82	212.64
868.13	213.14
868.44	212.69
868.75	213.00
869.06	213.19
869.37	213.55
869.68	212.98
869.99	213.33
870.30	213.48
870.61	213.71
870.92	213.33
871.23	213.52
871.54	213.67
871.85	214.17
872.16	214.67
872.47	214.43
872.78	213.14
873.09	213.45
873.40	213.33
873.71	213.52
874.02	213.64
874.33	213.24
874.64	212.74
874.95	213.21
875.26	213.07
875.56	212.95
875.87	212.79
876.18	212.79
876.49	214.76
876.80	214.38
877.11	214.14
877.42	214.26
877.73	214.12
878.04	214.02
878.35	213.76
878.66	213.43
878.96	213.48
879.27	213.43
879.58	213.07
879.89	212.83
880.20	213.38
880.51	213.50
880.82	213.38
881.12	213.60
881.43	213.12
881.74	212.93
882.05	212.74
882.36	212.90
882.67	213.14
882.97	211.17
883.28	211.00
883.59	210.74
883.90	210.88
884.21	211.31
884.51	211.10
884.82	210.98
885.13	211.17
885.44	211.10
885.74	211.05
886.05	211.05
886.36	211.38
886.67	210.62
886.98	211.69
887.28	212.19
887.59	212.33
887.90	212.33
888.20	212.26
888.51	212.50
888.82	212.19
889.13	212.31
889.43	213.90
889.74	214.14
890.05	214.17
890.35	214.00
890.66	213.67
890.97	213.50
891.28	213.24
891.58	213.31
891.89	213.43
892.20	213.24
892.50	213.02
892.81	212.83
893.12	212.90
893.42	211.62
893.73	211.62
894.04	211.50
894.34	211.64
894.65	211.76
894.95	211.83
895.26	212.31
895.57	213.12
895.87	211.24
896.18	211.29
896.48	211.57
896.79	211.50
897.10	211.79
897.40	211.93
897.71	212.40
898.01	212.10
898.32	212.19
898.63	212.24
898.93	212.52
899.24	212.52
899.54	212.52
899.85	212.33
900.15	212.07
900.46	211.88
900.76	212.21
901.07	212.00
901.38	212.10
901.68	212.07
901.99	210.98
902.29	211.24
902.60	211.21
902.90	210.95
903.21	210.95
903.51	210.76
903.82	211.40
904.12	211.33
904.43	211.50
904.73	211.40
905.03	211.67
905.34	213.64
905.64	213.67
905.95	213.52
906.25	213.67
906.56	213.76
906.86	213.79
907.17	213.57
907.47	213.86
907.77	213.64
908.08	212.95
908.38	213.17
908.69	213.33
908.99	213.69
909.30	213.95
909.60	214.12
909.90	214.38
910.21	213.52
910.51	213.19
910.81	213.05
911.12	213.31
911.42	213.17
911.73	210.98
912.03	210.86
912.33	211.48
912.64	211.64
912.94	211.45
913.24	211.19
913.55	211.10
913.85	211.00
914.15	211.55
914.46	212.05
914.76	211.88
915.06	211.64
915.37	211.36
915.67	211.19
915.97	211.36
916.27	210.69
916.58	210.98
916.88	210.98
917.18	211.02
917.49	212.19
917.79	212.10
918.09	212.29
918.39	212.74
918.70	212.40
919.00	212.36
919.30	213.24
919.60	213.40
919.91	212.95
920.21	213.17
920.51	212.38
920.81	212.19
921.12	212.55
921.42	212.57
921.72	212.76
922.02	212.95
922.32	212.93
922.63	213.33
922.93	214.33
923.23	214.38
923.53	214.24
923.83	212.95
924.13	213.29
924.44	213.29
924.74	213.55
925.04	214.14
925.34	214.24
925.64	213.40
925.94	213.40
926.24	214.71
926.55	214.33
926.85	214.67
927.15	214.71
927.45	214.60
927.75	214.50
928.05	214.48
928.35	214.19
928.65	214.57
928.95	214.67
929.26	213.76
929.56	214.21
929.86	214.36
930.16	214.38
930.46	214.14
930.76	214.26
931.06	213.52
931.36	212.90
931.66	213.17
931.96	213.48
932.26	213.60
932.56	212.81
932.86	213.05
933.16	213.02
933.46	212.86
933.76	212.50
934.06	213.10
934.36	213.71
934.66	213.67
934.96	213.40
935.26	213.48
935.56	213.83
935.86	213.17
936.16	213.14
936.46	213.05
936.76	212.88
937.06	212.57
937.36	212.64
937.66	212.69
937.96	212.50
938.26	212.24
938.56	212.14
938.86	212.19
939.16	212.79
939.46	213.07
939.76	213.19
940.06	213.02
940.35	212.33
940.65	211.40
940.95	211.81
941.25	211.26
941.55	210.93
941.85	210.71
942.15	211.24
942.45	211.48
942.75	211.31
943.04	211.60
943.34	211.95
943.64	211.98
943.94	211.69
944.24	211.69
944.54	211.64
944.84	211.57
945.13	211.07
945.43	210.55
945.73	210.45
946.03	210.21
946.33	210.12
946.62	210.07
946.92	210.05
947.22	210.17
947.52	210.45
947.82	210.64
948.11	210.43
948.41	210.10
948.71	209.76
949.01	209.98
949.31	209.90
949.60	209.74
949.90	209.90
950.20	209.88
950.50	209.71
950.79	209.52
951.09	209.83
951.39	210.05
951.69	209.76
951.98	210.07
952.28	210.24
952.58	210.36
952.87	210.38
953.17	210.71
953.47	210.31
953.76	210.12
954.06	209.83
954.36	209.57
954.66	209.52
954.95	210.19
955.25	210.02
955.55	210.14
955.84	210.00
956.14	210.00
956.44	210.19
956.73	210.07
957.03	210.38
957.32	210.21
957.62	210.26
957.92	210.74
958.21	210.48
958.51	212.98
958.81	213.29
959.10	213.69
959.40	214.10
959.69	214.36
959.99	214.90
960.29	215.00
960.58	214.86
960.88	215.69
961.17	215.40
961.47	215.57
961.76	215.31
962.06	215.79
962.36	215.57
962.65	215.52
962.95	215.62
963.24	215.50
963.54	215.55
963.83	215.52
964.13	215.69
964.42	215.26
964.72	213.33
965.01	213.38
965.31	213.21
965.60	212.64
965.90	213.95
966.19	213.36
966.49	213.62
966.78	213.71
967.08	213.62
967.37	213.50
967.67	213.19
967.96	213.50
968.26	213.19
968.55	213.67
968.85	213.40
969.14	213.43
969.43	213.36
969.73	213.21
970.02	213.12
970.32	212.69
970.61	212.74
970.91	212.29
971.20	212.26
971.49	212.02
971.79	212.12
972.08	210.29
972.38	210.45
972.67	210.24
972.96	210.81
973.26	210.17
973.55	210.98
973.85	211.14
974.14	211.05
974.43	211.33
974.73	210.83
975.02	210.88
975.31	210.76
975.61	210.83
975.90	210.69
976.19	210.67
976.49	210.86
976.78	211.21
977.07	211.48
977.37	211.33
977.66	211.43
977.95	211.19
978.24	211.64
978.54	212.12
978.83	212.00
979.12	211.88
979.42	211.74
979.71	211.14
980.00	210.79
980.29	210.88
980.59	210.43
980.88	211.21
981.17	211.40
981.46	211.48
981.76	211.40
982.05	212.24
982.34	212.45
982.63	212.45
982.93	212.12
983.22	212.55
983.51	212.69
983.80	213.17
984.09	213.55
984.39	213.52
984.68	213.29
984.97	213.33
985.26	213.05
985.55	213.50
985.85	213.17
986.14	213.93
986.43	214.02
986.72	213.98
987.01	213.26
987.30	213.14
987.59	213.24
987.89	213.12
988.18	212.45
988.47	212.24
988.76	212.05
989.05	211.90
989.34	211.60
989.63	212.07
989.92	211.52
990.22	211.21
990.51	211.10
990.80	210.86
991.09	211.02
991.38	211.26
991.67	210.74
991.96	210.62
992.25	210.69
992.54	210.24
992.83	210.24
993.12	209.90
993.41	210.10
993.70	210.95
993.99	211.45
994.28	211.67
994.58	212.10
994.87	211.76
995.16	211.81
995.45	211.52
995.74	210.79
996.03	211.26
996.32	211.62
996.61	212.29
996.90	212.14
997.19	211.79
997.48	211.79
997.77	211.88
998.06	211.86
998.34	211.40
998.63	211.60
998.92	211.69
999.21	212.21
999.50	212.12
999.79	211.33
1000.08	211.12
1000.37	211.14
1000.66	210.81
1000.95	211.55
1001.24	211.74
1001.53	211.95
1001.82	212.00
1002.11	211.55
1002.40	211.74
1002.68	211.83
1002.97	213.45
1003.26	213.60
1003.55	213.21
1003.84	213.33
1004.13	214.29
1004.42	214.19
1004.71	214.02
1004.99	213.83
1005.28	214.38
1005.57	214.40
1005.86	213.98
1006.15	213.95
1006.44	213.67
1006.72	213.86
1007.01	213.40
1007.30	213.48
1007.59	213.31
1007.88	213.19
1008.17	213.21
1008.45	212.74
1008.74	211.90
1009.03	210.74
1009.32	210.60
1009.60	210.52
1009.89	210.38
1010.18	209.43
1010.47	209.48
1010.76	209.52
1011.04	209.55
1011.33	209.36
1011.62	209.48
1011.91	209.71
1012.19	209.76
1012.48	209.76
1012.77	209.86
1013.05	210.76
1013.34	210.74
1013.63	210.50
1013.92	210.74
1014.20	210.60
1014.49	210.79
1014.78	210.90
1015.06	210.33
1015.35	210.52
1015.64	210.86
1015.92	211.33
1016.21	211.33
1016.50	211.29
1016.78	211.52
1017.07	211.62
1017.36	211.05
1017.64	210.79
1017.93	210.98
1018.22	211.00
1018.50	211.00
1018.79	210.81
1019.08	209.81
1019.36	209.79
1019.65	209.83
1019.93	210.31
1020.22	210.60
1020.51	211.40
1020.79	211.24
1021.08	211.50
1021.36	208.00
1021.65	211.00
1021.94	207.00
1022.22	211.00
1022.51	208.00
1022.79	221.50
1023.08	211.50
1023.36	232.50
1023.65	205.50
>>>>>End Processed Spectral Data<<<<<
