SpectraSuite Data File
++++++++++++++++++++++++++++++++++++
Date: Tue Apr 02 18:42:52 EDT 2013
User: group
Dark Spectrum Present: No
Reference Spectrum Present: No
Number of Sampled Component Spectra: 1
Spectrometers: USB2E7196
Integration Time (usec): 580000 (USB2E7196)
Spectra Averaged: 2 (USB2E7196)
Boxcar Smoothing: 10 (USB2E7196)
Correct for Electrical Dark: No (USB2E7196)
Strobe/Lamp Enabled: No (USB2E7196)
Correct for Detector Non-linearity: No (USB2E7196)
Correct for Stray Light: No (USB2E7196)
Number of Pixels in Processed Spectrum: 2048
>>>>>Begin Processed Spectral Data<<<<<
339.09	0.00
339.48	191.00
339.86	196.50
340.24	196.50
340.63	198.50
341.01	234.00
341.39	201.00
341.78	201.50
342.16	210.00
342.54	202.50
342.93	197.17
343.31	207.12
343.69	207.83
344.07	208.29
344.46	209.00
344.84	209.62
345.22	208.45
345.60	208.93
345.99	209.43
346.37	209.33
346.75	209.55
347.13	210.19
347.52	210.48
347.90	211.29
348.28	211.57
348.66	212.02
349.05	211.52
349.43	212.12
349.81	212.62
350.19	212.64
350.57	212.57
350.96	212.69
351.34	212.74
351.72	213.10
352.10	213.36
352.48	213.29
352.87	213.05
353.25	212.98
353.63	212.95
354.01	212.98
354.39	213.19
354.77	213.43
355.15	213.88
355.54	213.55
355.92	213.12
356.30	213.07
356.68	214.64
357.06	214.98
357.44	214.38
357.82	214.07
358.20	215.05
358.58	215.26
358.97	215.48
359.35	215.81
359.73	216.26
360.11	216.29
360.49	216.55
360.87	216.60
361.25	217.02
361.63	217.64
362.01	217.76
362.39	217.67
362.77	217.81
363.15	217.38
363.53	217.52
363.91	217.62
364.29	217.60
364.67	215.48
365.05	215.38
365.43	215.79
365.81	216.07
366.19	216.36
366.57	217.05
366.95	216.93
367.33	216.71
367.71	216.50
368.09	216.76
368.47	216.48
368.85	216.55
369.23	217.02
369.61	216.52
369.99	217.10
370.37	217.36
370.75	218.33
371.13	218.17
371.51	217.79
371.89	217.95
372.27	218.19
372.65	218.14
373.03	218.24
373.41	217.88
373.78	217.67
374.16	216.50
374.54	215.83
374.92	215.62
375.30	215.69
375.68	215.10
376.06	215.14
376.44	215.17
376.82	215.38
377.19	214.98
377.57	214.76
377.95	213.95
378.33	213.95
378.71	212.52
379.09	212.83
379.47	213.26
379.84	212.88
380.22	212.38
380.60	212.19
380.98	212.10
381.36	212.19
381.73	211.93
382.11	212.14
382.49	212.17
382.87	212.05
383.25	212.02
383.62	214.60
384.00	214.38
384.38	214.48
384.76	214.76
385.13	215.40
385.51	215.36
385.89	215.33
386.27	215.33
386.64	215.90
387.02	215.50
387.40	215.17
387.78	215.48
388.15	215.93
388.53	215.95
388.91	215.93
389.29	215.76
389.66	216.14
390.04	215.98
390.42	216.12
390.79	216.19
391.17	216.14
391.55	213.90
391.92	213.74
392.30	213.90
392.68	213.67
393.05	213.55
393.43	213.48
393.81	213.74
394.18	213.38
394.56	213.55
394.94	214.02
395.31	213.90
395.69	214.33
396.06	214.67
396.44	215.02
396.82	214.79
397.19	216.12
397.57	215.90
397.95	216.33
398.32	215.98
398.70	216.29
399.07	216.60
399.45	216.43
399.82	216.60
400.20	216.29
400.58	216.21
400.95	215.55
401.33	216.12
401.70	217.57
402.08	217.88
402.45	217.69
402.83	218.14
403.20	218.40
403.58	218.38
403.95	218.60
404.33	218.81
404.71	219.10
405.08	220.17
405.46	220.52
405.83	220.76
406.21	221.10
406.58	221.50
406.96	221.98
407.33	222.69
407.70	223.12
408.08	225.69
408.45	226.62
408.83	227.76
409.20	228.26
409.58	227.74
409.95	228.71
410.33	229.60
410.70	229.71
411.08	231.02
411.45	232.05
411.82	232.79
412.20	234.43
412.57	237.02
412.95	236.57
413.32	238.43
413.69	239.74
414.07	241.52
414.44	243.43
414.82	245.43
415.19	247.81
415.56	250.29
415.94	251.48
416.31	254.26
416.68	256.88
417.06	260.24
417.43	263.76
417.81	267.45
418.18	271.29
418.55	275.05
418.93	279.14
419.30	283.43
419.67	288.10
420.04	292.31
420.42	296.48
420.79	303.45
421.16	308.95
421.54	315.74
421.91	322.17
422.28	328.36
422.66	335.05
423.03	342.95
423.40	349.64
423.77	356.60
424.15	363.86
424.52	371.79
424.89	380.52
425.26	388.48
425.64	395.90
426.01	404.29
426.38	413.45
426.75	422.74
427.13	432.29
427.50	442.19
427.87	452.38
428.24	462.10
428.61	470.50
428.99	481.90
429.36	492.52
429.73	504.02
430.10	515.36
430.47	526.93
430.85	537.45
431.22	550.29
431.59	564.88
431.96	577.19
432.33	591.24
432.70	605.29
433.08	621.43
433.45	637.02
433.82	652.02
434.19	668.45
434.56	685.43
434.93	701.05
435.30	716.83
435.68	734.29
436.05	751.60
436.42	768.62
436.79	784.07
437.16	801.21
437.53	818.76
437.90	836.95
438.27	854.60
438.64	873.74
439.01	891.21
439.38	905.29
439.75	920.50
440.13	937.57
440.50	952.76
440.87	965.50
441.24	978.76
441.61	993.50
441.98	1004.57
442.35	1015.98
442.72	1029.10
443.09	1042.33
443.46	1050.36
443.83	1055.79
444.20	1061.31
444.57	1067.90
444.94	1071.14
445.31	1074.71
445.68	1080.38
446.05	1082.62
446.42	1080.64
446.79	1079.29
447.16	1077.29
447.53	1076.31
447.90	1069.55
448.27	1062.95
448.64	1053.83
449.01	1047.74
449.37	1037.00
449.74	1026.24
450.11	1015.00
450.48	999.76
450.85	984.24
451.22	971.31
451.59	959.57
451.96	946.98
452.33	931.17
452.70	917.26
453.07	900.12
453.43	879.71
453.80	862.74
454.17	846.95
454.54	830.95
454.91	814.50
455.28	798.21
455.65	783.12
456.02	771.69
456.38	759.40
456.75	743.69
457.12	730.14
457.49	717.43
457.86	703.48
458.23	693.86
458.59	681.95
458.96	669.86
459.33	658.74
459.70	648.88
460.07	640.57
460.43	630.90
460.80	622.12
461.17	615.29
461.54	607.00
461.91	598.67
462.27	590.83
462.64	584.14
463.01	576.76
463.38	570.50
463.74	559.74
464.11	552.79
464.48	546.90
464.85	540.33
465.21	536.10
465.58	531.10
465.95	524.38
466.32	519.48
466.68	514.52
467.05	509.81
467.42	504.33
467.78	498.64
468.15	493.19
468.52	489.29
468.88	483.33
469.25	478.12
469.62	474.67
469.98	470.76
470.35	467.21
470.72	464.00
471.08	459.29
471.45	456.67
471.82	453.86
472.18	450.43
472.55	448.48
472.92	444.48
473.28	441.50
473.65	438.50
474.02	435.60
474.38	433.55
474.75	431.93
475.11	429.81
475.48	428.38
475.85	426.81
476.21	424.76
476.58	424.05
476.94	423.31
477.31	422.00
477.67	420.71
478.04	419.52
478.41	418.36
478.77	419.93
479.14	418.40
479.50	417.71
479.87	417.43
480.23	416.64
480.60	416.40
480.96	416.19
481.33	417.24
481.69	417.26
482.06	417.33
482.42	417.40
482.79	417.76
483.15	417.98
483.52	419.17
483.88	419.98
484.25	420.07
484.61	420.69
484.98	421.60
485.34	423.05
485.71	424.43
486.07	425.50
486.44	425.07
486.80	426.60
487.17	428.36
487.53	430.79
487.90	432.93
488.26	436.07
488.62	438.55
488.99	440.07
489.35	442.81
489.72	445.02
490.08	447.52
490.44	450.40
490.81	453.81
491.17	456.48
491.54	459.90
491.90	463.90
492.26	467.55
492.63	471.38
492.99	474.79
493.36	478.81
493.72	483.36
494.08	487.98
494.45	493.33
494.81	498.12
495.17	502.24
495.54	507.38
495.90	511.69
496.26	517.14
496.63	522.55
496.99	527.50
497.35	533.57
497.72	539.33
498.08	545.43
498.44	551.21
498.80	557.48
499.17	563.71
499.53	569.67
499.89	576.62
500.26	583.19
500.62	590.38
500.98	597.90
501.34	604.88
501.71	612.05
502.07	618.88
502.43	626.29
502.79	633.50
503.16	640.69
503.52	648.07
503.88	654.74
504.24	662.31
504.60	669.98
504.97	677.48
505.33	685.02
505.69	693.38
506.05	701.64
506.41	709.86
506.78	717.62
507.14	725.48
507.50	732.86
507.86	740.64
508.22	748.14
508.59	755.36
508.95	763.07
509.31	771.67
509.67	779.29
510.03	786.71
510.39	794.55
510.75	802.17
511.12	809.93
511.48	818.38
511.84	826.19
512.20	834.64
512.56	842.62
512.92	850.50
513.28	857.45
513.64	863.88
514.00	871.62
514.37	879.50
514.73	887.40
515.09	895.62
515.45	903.10
515.81	910.07
516.17	917.17
516.53	924.36
516.89	929.95
517.25	936.48
517.61	943.40
517.97	949.64
518.33	956.05
518.69	962.98
519.05	969.02
519.41	975.50
519.77	982.71
520.13	988.69
520.49	993.83
520.85	999.79
521.21	1006.79
521.57	1012.62
521.93	1017.36
522.29	1022.48
522.65	1026.36
523.01	1031.86
523.37	1037.00
523.73	1042.50
524.09	1047.31
524.45	1051.98
524.81	1056.98
525.17	1062.21
525.53	1066.60
525.89	1071.86
526.25	1076.29
526.61	1080.12
526.97	1084.38
527.33	1087.38
527.68	1092.88
528.04	1097.86
528.40	1102.24
528.76	1105.55
529.12	1109.45
529.48	1114.31
529.84	1118.29
530.20	1123.31
530.56	1127.76
530.91	1132.36
531.27	1136.00
531.63	1140.17
531.99	1144.00
532.35	1147.88
532.71	1151.14
533.07	1155.98
533.42	1162.40
533.78	1166.64
534.14	1171.40
534.50	1174.52
534.86	1179.07
535.21	1182.69
535.57	1187.69
535.93	1190.83
536.29	1196.19
536.65	1200.24
537.00	1203.62
537.36	1207.81
537.72	1210.95
538.08	1213.90
538.44	1216.95
538.79	1221.07
539.15	1224.36
539.51	1228.69
539.87	1232.98
540.22	1237.07
540.58	1241.10
540.94	1242.17
541.29	1244.76
541.65	1247.52
542.01	1250.98
542.37	1253.74
542.72	1255.38
543.08	1257.36
543.44	1261.12
543.79	1262.43
544.15	1265.69
544.51	1269.26
544.87	1272.38
545.22	1276.43
545.58	1279.19
545.94	1282.10
546.29	1284.83
546.65	1287.64
547.01	1290.00
547.36	1292.50
547.72	1293.71
548.07	1296.12
548.43	1297.98
548.79	1300.74
549.14	1303.48
549.50	1306.64
549.86	1307.98
550.21	1311.71
550.57	1314.38
550.92	1316.29
551.28	1320.31
551.64	1322.02
551.99	1324.48
552.35	1327.43
552.70	1329.14
553.06	1332.93
553.41	1336.12
553.77	1340.24
554.13	1343.40
554.48	1347.57
554.84	1352.05
555.19	1356.69
555.55	1361.48
555.90	1365.43
556.26	1369.48
556.61	1373.19
556.97	1377.50
557.32	1383.17
557.68	1386.48
558.03	1390.45
558.39	1394.79
558.74	1398.86
559.10	1403.19
559.45	1408.43
559.81	1412.93
560.16	1417.21
560.52	1421.60
560.87	1426.62
561.23	1429.26
561.58	1435.93
561.94	1439.81
562.29	1442.86
562.64	1448.24
563.00	1451.67
563.35	1456.83
563.71	1461.67
564.06	1467.26
564.42	1471.71
564.77	1477.12
565.12	1483.07
565.48	1490.64
565.83	1496.90
566.19	1502.60
566.54	1509.05
566.89	1513.43
567.25	1519.36
567.60	1527.40
567.96	1534.00
568.31	1540.93
568.66	1548.31
569.02	1552.31
569.37	1558.02
569.72	1564.31
570.08	1569.19
570.43	1574.62
570.78	1580.07
571.14	1586.90
571.49	1592.07
571.84	1597.93
572.20	1602.76
572.55	1606.95
572.90	1609.71
573.26	1613.93
573.61	1617.45
573.96	1621.62
574.31	1625.88
574.67	1629.17
575.02	1632.33
575.37	1634.29
575.72	1636.95
576.08	1640.29
576.43	1643.95
576.78	1647.40
577.13	1651.17
577.49	1654.93
577.84	1659.86
578.19	1663.36
578.54	1666.14
578.90	1670.48
579.25	1673.55
579.60	1675.93
579.95	1679.02
580.30	1682.88
580.66	1685.93
581.01	1690.52
581.36	1693.36
581.71	1696.83
582.06	1701.00
582.42	1704.43
582.77	1707.64
583.12	1710.26
583.47	1714.36
583.82	1717.55
584.17	1721.17
584.53	1724.93
584.88	1727.90
585.23	1730.02
585.58	1732.52
585.93	1734.02
586.28	1735.74
586.63	1737.88
586.98	1740.90
587.34	1744.24
587.69	1746.02
588.04	1748.43
588.39	1750.55
588.74	1752.45
589.09	1755.00
589.44	1755.95
589.79	1758.02
590.14	1760.67
590.49	1762.83
590.84	1763.12
591.19	1765.40
591.54	1766.64
591.89	1766.79
592.25	1769.67
592.60	1770.62
592.95	1772.31
593.30	1773.71
593.65	1775.36
594.00	1776.36
594.35	1783.14
594.70	1783.36
595.05	1784.88
595.40	1785.62
595.75	1786.00
596.10	1787.12
596.45	1787.36
596.80	1787.90
597.15	1788.31
597.50	1788.21
597.85	1789.60
598.19	1789.36
598.54	1788.69
598.89	1789.02
599.24	1789.45
599.59	1788.21
599.94	1788.43
600.29	1788.12
600.64	1788.64
600.99	1788.17
601.34	1789.67
601.69	1783.29
602.04	1783.21
602.39	1782.12
602.74	1783.17
603.08	1782.19
603.43	1782.83
603.78	1782.74
604.13	1782.00
604.48	1780.43
604.83	1780.98
605.18	1780.00
605.53	1780.05
605.87	1778.48
606.22	1777.26
606.57	1775.95
606.92	1774.57
607.27	1773.38
607.62	1772.95
607.96	1772.10
608.31	1771.21
608.66	1768.83
609.01	1768.33
609.36	1767.43
609.70	1766.07
610.05	1762.10
610.40	1761.43
610.75	1758.26
611.10	1756.48
611.44	1754.62
611.79	1752.52
612.14	1749.24
612.49	1745.57
612.83	1742.60
613.18	1740.24
613.53	1736.98
613.88	1733.60
614.22	1730.60
614.57	1726.00
614.92	1720.83
615.27	1716.76
615.61	1712.12
615.96	1708.38
616.31	1703.60
616.65	1700.02
617.00	1696.81
617.35	1695.02
617.70	1691.19
618.04	1687.79
618.39	1683.07
618.74	1679.29
619.08	1674.45
619.43	1670.95
619.78	1667.69
620.12	1664.71
620.47	1660.93
620.82	1657.00
621.16	1652.86
621.51	1649.45
621.85	1645.52
622.20	1642.48
622.55	1638.12
622.89	1635.17
623.24	1631.43
623.59	1628.95
623.93	1624.50
624.28	1619.64
624.62	1616.43
624.97	1613.00
625.32	1608.50
625.66	1604.98
626.01	1600.48
626.35	1597.12
626.70	1592.98
627.04	1589.31
627.39	1584.02
627.73	1580.57
628.08	1577.10
628.43	1573.19
628.77	1568.43
629.12	1565.74
629.46	1561.52
629.81	1557.76
630.15	1552.31
630.50	1547.60
630.84	1541.64
631.19	1536.12
631.53	1531.86
631.88	1524.71
632.22	1518.24
632.57	1513.90
632.91	1508.36
633.26	1504.29
633.60	1498.71
633.95	1492.74
634.29	1486.71
634.64	1481.90
634.98	1476.55
635.32	1472.45
635.67	1468.98
636.01	1464.38
636.36	1458.55
636.70	1453.90
637.05	1448.02
637.39	1443.86
637.73	1438.86
638.08	1434.74
638.42	1430.79
638.77	1426.07
639.11	1421.31
639.45	1415.74
639.80	1410.38
640.14	1405.60
640.49	1399.88
640.83	1394.29
641.17	1389.98
641.52	1384.17
641.86	1378.36
642.20	1373.76
642.55	1366.36
642.89	1359.40
643.23	1353.26
643.58	1348.45
643.92	1341.57
644.26	1335.95
644.61	1330.14
644.95	1323.38
645.29	1316.76
645.64	1310.64
645.98	1304.17
646.32	1298.57
646.66	1291.86
647.01	1284.55
647.35	1278.74
647.69	1271.95
648.04	1266.60
648.38	1259.67
648.72	1253.50
649.06	1247.19
649.41	1240.43
649.75	1234.86
650.09	1228.10
650.43	1221.55
650.78	1214.10
651.12	1207.93
651.46	1201.81
651.80	1195.07
652.14	1189.07
652.49	1182.98
652.83	1176.07
653.17	1168.98
653.51	1162.38
653.85	1156.60
654.20	1151.24
654.54	1143.74
654.88	1137.69
655.22	1132.14
655.56	1125.45
655.90	1119.40
656.25	1113.07
656.59	1106.14
656.93	1099.07
657.27	1094.43
657.61	1087.60
657.95	1082.05
658.29	1076.21
658.64	1070.29
658.98	1063.95
659.32	1057.69
659.66	1050.67
660.00	1044.45
660.34	1038.52
660.68	1032.45
661.02	1026.33
661.36	1019.48
661.70	1013.48
662.05	1006.88
662.39	1000.26
662.73	995.26
663.07	990.02
663.41	984.00
663.75	977.48
664.09	971.62
664.43	964.74
664.77	958.79
665.11	951.76
665.45	945.79
665.79	939.31
666.13	932.98
666.47	926.71
666.81	920.40
667.15	914.52
667.49	909.33
667.83	904.05
668.17	898.74
668.51	893.00
668.85	887.43
669.19	882.83
669.53	875.93
669.87	869.48
670.21	863.17
670.55	857.33
670.89	853.19
671.23	847.74
671.57	841.76
671.91	836.52
672.25	831.14
672.58	826.79
672.92	821.31
673.26	816.31
673.60	811.07
673.94	806.57
674.28	801.69
674.62	796.26
674.96	790.88
675.30	785.64
675.64	780.26
675.97	775.52
676.31	769.83
676.65	765.10
676.99	761.38
677.33	756.38
677.67	752.12
678.01	746.26
678.34	741.81
678.68	737.67
679.02	732.79
679.36	728.02
679.70	721.69
680.04	716.48
680.37	711.19
680.71	706.52
681.05	702.52
681.39	698.07
681.73	693.43
682.06	688.50
682.40	683.57
682.74	680.24
683.08	675.90
683.42	671.48
683.75	667.19
684.09	661.21
684.43	656.60
684.77	651.76
685.10	648.00
685.44	643.48
685.78	638.45
686.12	634.00
686.45	629.74
686.79	625.67
687.13	622.14
687.46	617.95
687.80	614.76
688.14	609.98
688.48	605.36
688.81	601.10
689.15	597.67
689.49	593.38
689.82	588.93
690.16	584.05
690.50	579.52
690.83	575.67
691.17	571.55
691.51	567.50
691.84	563.79
692.18	559.02
692.52	554.88
692.85	551.71
693.19	548.71
693.52	545.00
693.86	541.02
694.20	536.67
694.53	533.07
694.87	528.31
695.21	524.81
695.54	521.00
695.88	516.83
696.21	511.90
696.55	508.50
696.88	504.60
697.22	501.05
697.56	498.21
697.89	494.52
698.23	491.38
698.56	487.88
698.90	484.62
699.23	481.02
699.57	477.81
699.90	474.12
700.24	469.81
700.58	466.57
700.91	463.79
701.25	462.43
701.58	460.52
701.92	458.64
702.25	455.45
702.59	452.50
702.92	450.07
703.26	447.64
703.59	444.74
703.93	443.71
704.26	441.57
704.60	439.05
704.93	436.00
705.26	433.52
705.60	431.48
705.93	428.07
706.27	426.43
706.60	424.21
706.94	422.43
707.27	420.05
707.61	417.64
707.94	414.93
708.27	410.95
708.61	407.71
708.94	404.62
709.28	402.07
709.61	399.69
709.94	397.26
710.28	394.90
710.61	392.60
710.95	388.43
711.28	387.71
711.61	385.31
711.95	384.05
712.28	381.67
712.61	378.88
712.95	378.17
713.28	376.52
713.61	374.21
713.95	371.55
714.28	370.07
714.61	368.26
714.95	366.69
715.28	364.69
715.61	362.74
715.95	361.14
716.28	359.31
716.61	357.74
716.95	355.69
717.28	353.93
717.61	352.02
717.94	350.36
718.28	346.55
718.61	344.71
718.94	342.31
719.27	340.52
719.61	339.17
719.94	336.79
720.27	334.02
720.60	332.19
720.94	330.43
721.27	328.93
721.60	327.69
721.93	325.95
722.27	325.26
722.60	324.07
722.93	322.36
723.26	321.10
723.59	319.64
723.93	318.57
724.26	317.40
724.59	316.17
724.92	315.31
725.25	315.10
725.59	313.93
725.92	313.19
726.25	312.12
726.58	311.17
726.91	310.00
727.24	309.71
727.57	308.83
727.91	307.55
728.24	306.33
728.57	304.93
728.90	304.24
729.23	302.50
729.56	302.07
729.89	300.88
730.22	299.74
730.55	298.50
730.89	297.60
731.22	296.52
731.55	295.43
731.88	294.38
732.21	292.98
732.54	291.62
732.87	290.88
733.20	290.14
733.53	289.29
733.86	288.67
734.19	287.19
734.52	286.71
734.85	287.52
735.18	286.88
735.51	286.79
735.84	285.83
736.17	285.67
736.50	283.88
736.83	285.62
737.16	284.88
737.49	284.31
737.82	283.43
738.15	282.76
738.48	282.40
738.81	281.31
739.14	280.12
739.47	279.38
739.80	278.26
740.13	277.81
740.46	276.50
740.79	275.38
741.12	274.71
741.45	273.36
741.78	271.48
742.11	271.21
742.44	269.79
742.77	269.26
743.10	268.29
743.43	267.64
743.75	264.67
744.08	266.69
744.41	265.79
744.74	265.02
745.07	263.95
745.40	263.43
745.73	263.67
746.06	263.40
746.39	263.05
746.71	262.62
747.04	261.50
747.37	261.10
747.70	261.02
748.03	260.60
748.36	260.62
748.68	260.21
749.01	258.83
749.34	258.40
749.67	257.93
750.00	257.88
750.33	258.98
750.65	258.81
750.98	255.76
751.31	255.31
751.64	254.86
751.97	255.86
752.29	255.07
752.62	253.98
752.95	253.29
753.28	252.52
753.60	251.79
753.93	252.31
754.26	252.12
754.59	250.93
754.91	250.05
755.24	249.26
755.57	248.62
755.90	248.07
756.22	247.38
756.55	246.69
756.88	245.67
757.20	243.90
757.53	242.90
757.86	242.45
758.19	242.31
758.51	241.93
758.84	240.29
759.17	240.05
759.49	239.67
759.82	240.62
760.15	240.71
760.47	240.36
760.80	239.07
761.13	238.98
761.45	238.74
761.78	238.69
762.11	238.33
762.43	237.57
762.76	237.24
763.08	237.29
763.41	237.02
763.74	237.00
764.06	236.74
764.39	236.57
764.71	236.10
765.04	235.57
765.37	235.38
765.69	235.02
766.02	234.62
766.34	234.21
766.67	233.05
767.00	233.07
767.32	233.88
767.65	234.88
767.97	234.31
768.30	234.19
768.62	233.90
768.95	233.57
769.27	233.67
769.60	234.07
769.92	233.55
770.25	232.98
770.57	232.21
770.90	231.83
771.22	231.45
771.55	231.50
771.87	231.33
772.20	230.95
772.52	232.45
772.85	234.86
773.17	234.74
773.50	234.29
773.82	233.64
774.15	232.52
774.47	231.02
774.80	230.62
775.12	230.57
775.45	230.29
775.77	230.19
776.09	230.19
776.42	229.95
776.74	230.33
777.07	230.19
777.39	230.17
777.72	229.60
778.04	229.74
778.36	229.29
778.69	229.21
779.01	229.24
779.33	227.36
779.66	224.69
779.98	224.14
780.31	223.95
780.63	224.57
780.95	225.00
781.28	225.12
781.60	225.07
781.92	224.90
782.25	224.86
782.57	224.55
782.89	224.26
783.22	223.90
783.54	223.24
783.86	223.24
784.19	223.05
784.51	223.71
784.83	223.14
785.16	222.88
785.48	222.81
785.80	222.55
786.12	222.57
786.45	222.40
786.77	222.62
787.09	222.40
787.42	221.74
787.74	221.48
788.06	221.19
788.38	220.98
788.71	220.60
789.03	220.76
789.35	221.05
789.67	220.55
789.99	220.50
790.32	220.69
790.64	221.12
790.96	222.83
791.28	222.05
791.61	222.00
791.93	222.17
792.25	222.12
792.57	223.60
792.89	223.24
793.21	223.07
793.54	222.88
793.86	222.86
794.18	222.90
794.50	222.50
794.82	222.60
795.14	222.74
795.47	223.26
795.79	223.00
796.11	222.50
796.43	222.48
796.75	222.26
797.07	221.86
797.39	221.33
797.71	219.74
798.04	219.86
798.36	219.88
798.68	219.79
799.00	219.76
799.32	218.38
799.64	218.86
799.96	218.90
800.28	219.14
800.60	218.95
800.92	219.14
801.24	219.02
801.56	219.02
801.89	218.81
802.21	218.69
802.53	218.29
802.85	218.74
803.17	219.64
803.49	219.17
803.81	219.17
804.13	219.19
804.45	218.81
804.77	219.02
805.09	218.93
805.41	218.48
805.73	218.10
806.05	217.67
806.37	217.36
806.69	217.21
807.01	217.05
807.33	217.21
807.65	216.40
807.97	217.26
808.28	217.10
808.60	217.00
808.92	216.71
809.24	218.05
809.56	217.64
809.88	217.02
810.20	217.33
810.52	217.67
810.84	217.29
811.16	217.07
811.48	216.79
811.80	217.55
812.12	218.02
812.43	218.62
812.75	219.05
813.07	218.79
813.39	218.93
813.71	218.67
814.03	218.43
814.35	218.50
814.67	217.64
814.98	217.24
815.30	217.21
815.62	216.60
815.94	215.14
816.26	215.17
816.58	214.74
816.89	215.07
817.21	214.55
817.53	214.90
817.85	215.10
818.17	215.05
818.48	214.12
818.80	214.36
819.12	213.69
819.44	213.19
819.76	213.14
820.07	212.83
820.39	212.88
820.71	213.24
821.03	213.10
821.34	212.98
821.66	213.43
821.98	213.64
822.30	213.81
822.61	214.76
822.93	214.71
823.25	214.83
823.57	214.33
823.88	214.81
824.20	214.55
824.52	214.81
824.83	214.71
825.15	214.48
825.47	214.26
825.79	214.71
826.10	214.64
826.42	214.31
826.74	214.74
827.05	214.69
827.37	214.52
827.69	214.45
828.00	214.48
828.32	214.40
828.64	214.36
828.95	215.55
829.27	215.21
829.58	215.14
829.90	215.29
830.22	215.43
830.53	214.93
830.85	214.74
831.17	214.19
831.48	214.33
831.80	214.76
832.11	214.52
832.43	214.21
832.75	214.24
833.06	215.64
833.38	215.10
833.69	214.76
834.01	214.86
834.32	214.71
834.64	214.48
834.96	214.52
835.27	214.12
835.59	213.29
835.90	212.98
836.22	212.93
836.53	212.48
836.85	212.38
837.16	214.19
837.48	214.24
837.79	214.93
838.11	214.98
838.42	214.95
838.74	215.19
839.05	214.95
839.37	214.88
839.68	213.43
840.00	213.62
840.31	213.86
840.63	213.83
840.94	213.81
841.26	213.71
841.57	213.60
841.88	214.19
842.20	214.00
842.51	213.79
842.83	213.67
843.14	215.48
843.46	215.62
843.77	214.40
844.08	214.38
844.40	213.83
844.71	213.60
845.03	213.07
845.34	212.86
845.65	212.88
845.97	212.93
846.28	213.24
846.60	213.12
846.91	212.95
847.22	212.74
847.54	213.07
847.85	213.24
848.16	213.07
848.48	212.38
848.79	213.29
849.10	213.55
849.42	213.83
849.73	212.29
850.04	211.93
850.36	211.45
850.67	211.71
850.98	211.86
851.30	212.17
851.61	212.29
851.92	212.07
852.23	212.60
852.55	212.60
852.86	212.52
853.17	212.67
853.49	213.07
853.80	213.40
854.11	213.48
854.42	213.93
854.74	213.74
855.05	213.93
855.36	212.88
855.67	212.76
855.99	212.67
856.30	215.00
856.61	215.19
856.92	215.52
857.23	215.52
857.55	215.24
857.86	215.00
858.17	215.40
858.48	215.38
858.79	215.00
859.11	215.33
859.42	215.43
859.73	215.29
860.04	215.17
860.35	214.50
860.66	214.14
860.98	213.79
861.29	214.43
861.60	214.36
861.91	214.76
862.22	214.52
862.53	214.45
862.84	211.88
863.16	212.50
863.47	211.81
863.78	211.67
864.09	212.00
864.40	212.10
864.71	212.17
865.02	212.50
865.33	212.36
865.64	212.00
865.95	212.14
866.27	213.55
866.58	213.38
866.89	213.52
867.20	213.52
867.51	213.26
867.82	212.71
868.13	213.19
868.44	212.76
868.75	213.26
869.06	213.12
869.37	213.29
869.68	212.40
869.99	212.86
870.30	212.95
870.61	212.98
870.92	212.90
871.23	212.62
871.54	212.67
871.85	213.00
872.16	213.29
872.47	213.02
872.78	211.83
873.09	212.12
873.40	212.24
873.71	212.48
874.02	212.81
874.33	212.74
874.64	212.50
874.95	212.90
875.26	212.40
875.56	212.43
875.87	212.43
876.18	212.40
876.49	214.33
876.80	214.10
877.11	213.83
877.42	213.64
877.73	213.67
878.04	213.36
878.35	213.36
878.66	213.21
878.96	213.14
879.27	212.93
879.58	212.74
879.89	212.60
880.20	213.17
880.51	213.00
880.82	213.10
881.12	213.24
881.43	212.74
881.74	212.64
882.05	212.74
882.36	212.81
882.67	212.88
882.97	210.88
883.28	210.93
883.59	210.86
883.90	211.17
884.21	211.45
884.51	211.40
884.82	211.10
885.13	211.31
885.44	211.26
885.74	211.26
886.05	211.14
886.36	211.29
886.67	210.50
886.98	211.29
887.28	211.64
887.59	211.60
887.90	211.76
888.20	211.62
888.51	212.00
888.82	211.76
889.13	212.33
889.43	213.57
889.74	213.38
890.05	213.38
890.35	213.17
890.66	213.02
890.97	212.93
891.28	212.69
891.58	212.76
891.89	212.95
892.20	212.81
892.50	212.69
892.81	212.69
893.12	212.71
893.42	211.79
893.73	211.60
894.04	211.74
894.34	211.76
894.65	212.05
894.95	211.79
895.26	211.95
895.57	212.62
895.87	211.02
896.18	211.60
896.48	211.67
896.79	211.76
897.10	211.95
897.40	212.05
897.71	212.55
898.01	212.19
898.32	212.52
898.63	212.57
898.93	212.98
899.24	212.86
899.54	212.64
899.85	212.83
900.15	212.64
900.46	212.48
900.76	213.00
901.07	212.76
901.38	212.67
901.68	212.83
901.99	211.81
902.29	211.93
902.60	211.81
902.90	211.67
903.21	211.57
903.51	211.38
903.82	211.79
904.12	211.83
904.43	212.00
904.73	211.79
905.03	211.88
905.34	213.67
905.64	213.64
905.95	213.74
906.25	213.64
906.56	213.62
906.86	213.55
907.17	213.19
907.47	213.50
907.77	213.40
908.08	212.93
908.38	212.83
908.69	213.24
908.99	213.52
909.30	213.67
909.60	213.67
909.90	213.71
910.21	213.14
910.51	212.95
910.81	213.00
911.12	212.93
911.42	212.90
911.73	210.71
912.03	210.74
912.33	211.14
912.64	211.17
912.94	211.14
913.24	210.79
913.55	210.50
913.85	210.48
914.15	210.90
914.46	211.19
914.76	211.24
915.06	210.88
915.37	210.55
915.67	210.43
915.97	210.62
916.27	210.24
916.58	210.52
916.88	210.19
917.18	209.90
917.49	211.33
917.79	211.40
918.09	211.79
918.39	212.45
918.70	212.07
919.00	212.12
919.30	213.12
919.60	213.24
919.91	213.24
920.21	213.26
920.51	212.90
920.81	212.93
921.12	213.48
921.42	213.48
921.72	213.57
922.02	213.90
922.32	213.83
922.63	214.07
922.93	215.05
923.23	215.12
923.53	215.02
923.83	213.52
924.13	213.45
924.44	213.48
924.74	213.69
925.04	214.33
925.34	214.21
925.64	213.33
925.94	213.21
926.24	214.48
926.55	214.24
926.85	214.38
927.15	214.45
927.45	214.21
927.75	214.33
928.05	214.26
928.35	214.12
928.65	214.81
928.95	214.93
929.26	213.93
929.56	214.40
929.86	214.83
930.16	214.98
930.46	215.02
930.76	215.10
931.06	214.33
931.36	213.71
931.66	214.07
931.96	214.31
932.26	214.48
932.56	213.50
932.86	213.40
933.16	213.31
933.46	213.00
933.76	212.76
934.06	213.36
934.36	214.24
934.66	214.12
934.96	213.48
935.26	213.60
935.56	214.02
935.86	213.38
936.16	212.88
936.46	212.86
936.76	212.88
937.06	212.43
937.36	212.45
937.66	212.60
937.96	212.57
938.26	212.40
938.56	212.24
938.86	212.31
939.16	213.12
939.46	213.26
939.76	213.43
940.06	213.40
940.35	212.79
940.65	211.48
940.95	211.57
941.25	211.12
941.55	210.81
941.85	210.74
942.15	211.52
942.45	212.31
942.75	212.02
943.04	211.98
943.34	212.57
943.64	212.29
943.94	211.93
944.24	211.86
944.54	211.81
944.84	211.79
945.13	211.36
945.43	210.95
945.73	210.83
946.03	210.69
946.33	210.33
946.62	210.24
946.92	210.24
947.22	210.29
947.52	210.69
947.82	211.21
948.11	210.88
948.41	210.24
948.71	209.71
949.01	209.79
949.31	209.52
949.60	209.19
949.90	209.50
950.20	209.55
950.50	209.24
950.79	209.05
951.09	209.24
951.39	209.31
951.69	208.93
951.98	209.38
952.28	209.29
952.58	209.38
952.87	209.31
953.17	209.83
953.47	209.69
953.76	209.38
954.06	208.86
954.36	208.74
954.66	208.88
954.95	209.24
955.25	209.29
955.55	209.45
955.84	209.24
956.14	209.50
956.44	209.69
956.73	209.60
957.03	209.83
957.32	209.74
957.62	209.60
957.92	210.14
958.21	209.95
958.51	212.40
958.81	212.60
959.10	212.88
959.40	213.19
959.69	213.43
959.99	213.62
960.29	213.50
960.58	213.14
960.88	213.69
961.17	213.50
961.47	213.95
961.76	213.98
962.06	214.33
962.36	213.98
962.65	213.95
962.95	214.24
963.24	214.19
963.54	214.43
963.83	214.69
964.13	214.33
964.42	213.81
964.72	212.38
965.01	212.55
965.31	212.29
965.60	211.83
965.90	212.98
966.19	212.69
966.49	212.88
966.78	213.21
967.08	213.19
967.37	213.21
967.67	212.83
967.96	213.21
968.26	213.17
968.55	213.64
968.85	213.69
969.14	213.43
969.43	213.19
969.73	213.05
970.02	212.98
970.32	213.12
970.61	213.02
970.91	212.29
971.20	211.95
971.49	211.79
971.79	211.93
972.08	210.38
972.38	210.71
972.67	210.71
972.96	211.10
973.26	210.55
973.55	211.29
973.85	211.17
974.14	210.98
974.43	211.12
974.73	210.79
975.02	210.62
975.31	210.83
975.61	210.98
975.90	210.74
976.19	210.55
976.49	210.71
976.78	210.95
977.07	210.86
977.37	211.19
977.66	211.57
977.95	211.38
978.24	211.52
978.54	211.90
978.83	211.62
979.12	211.29
979.42	211.29
979.71	210.57
980.00	210.57
980.29	210.67
980.59	210.17
980.88	210.79
981.17	210.76
981.46	210.93
981.76	210.86
982.05	211.62
982.34	211.88
982.63	211.81
982.93	211.93
983.22	212.48
983.51	212.26
983.80	212.45
984.09	212.62
984.39	212.57
984.68	212.24
984.97	212.48
985.26	212.50
985.55	212.79
985.85	212.52
986.14	212.93
986.43	212.95
986.72	212.79
987.01	211.81
987.30	212.05
987.59	211.62
987.89	211.67
988.18	211.07
988.47	210.79
988.76	210.52
989.05	210.43
989.34	210.07
989.63	210.55
989.92	210.29
990.22	209.98
990.51	209.83
990.80	210.00
991.09	210.05
991.38	210.19
991.67	209.98
991.96	210.21
992.25	210.12
992.54	209.62
992.83	209.76
993.12	209.83
993.41	210.05
993.70	211.00
993.99	211.31
994.28	211.60
994.58	211.90
994.87	211.90
995.16	211.83
995.45	211.95
995.74	211.40
996.03	211.76
996.32	212.19
996.61	212.79
996.90	212.64
997.19	212.79
997.48	212.81
997.77	212.69
998.06	212.48
998.34	212.36
998.63	212.57
998.92	212.62
999.21	212.95
999.50	212.90
999.79	212.12
1000.08	212.05
1000.37	211.95
1000.66	211.88
1000.95	212.43
1001.24	212.50
1001.53	212.62
1001.82	212.52
1002.11	211.98
1002.40	212.12
1002.68	212.57
1002.97	213.83
1003.26	213.45
1003.55	213.10
1003.84	213.31
1004.13	213.88
1004.42	213.76
1004.71	213.88
1004.99	213.95
1005.28	214.36
1005.57	214.17
1005.86	214.19
1006.15	214.21
1006.44	214.02
1006.72	214.19
1007.01	213.64
1007.30	213.40
1007.59	213.29
1007.88	213.31
1008.17	213.48
1008.45	212.88
1008.74	211.90
1009.03	211.00
1009.32	211.07
1009.60	210.88
1009.89	210.60
1010.18	209.90
1010.47	209.60
1010.76	209.55
1011.04	209.31
1011.33	209.48
1011.62	209.62
1011.91	209.60
1012.19	209.40
1012.48	209.45
1012.77	209.36
1013.05	210.55
1013.34	210.55
1013.63	210.26
1013.92	210.40
1014.20	210.33
1014.49	210.74
1014.78	210.83
1015.06	210.19
1015.35	210.00
1015.64	210.40
1015.92	210.76
1016.21	211.05
1016.50	211.24
1016.78	211.33
1017.07	211.67
1017.36	211.02
1017.64	210.62
1017.93	210.98
1018.22	211.00
1018.50	211.12
1018.79	211.33
1019.08	210.19
1019.36	210.38
1019.65	210.26
1019.93	210.86
1020.22	211.31
1020.51	212.29
1020.79	212.31
1021.08	210.00
1021.36	211.50
1021.65	216.50
1021.94	210.00
1022.22	209.00
1022.51	206.00
1022.79	221.50
1023.08	218.50
1023.36	237.00
1023.65	208.00
>>>>>End Processed Spectral Data<<<<<
