SpectraSuite Data File
++++++++++++++++++++++++++++++++++++
Date: Tue Apr 02 18:44:12 EDT 2013
User: group
Dark Spectrum Present: No
Reference Spectrum Present: No
Number of Sampled Component Spectra: 1
Spectrometers: USB2E7196
Integration Time (usec): 580000 (USB2E7196)
Spectra Averaged: 2 (USB2E7196)
Boxcar Smoothing: 10 (USB2E7196)
Correct for Electrical Dark: No (USB2E7196)
Strobe/Lamp Enabled: No (USB2E7196)
Correct for Detector Non-linearity: No (USB2E7196)
Correct for Stray Light: No (USB2E7196)
Number of Pixels in Processed Spectrum: 2048
>>>>>Begin Processed Spectral Data<<<<<
339.09	0.00
339.48	194.50
339.86	194.00
340.24	198.00
340.63	199.50
341.01	228.50
341.39	200.50
341.78	207.50
342.16	209.50
342.54	205.00
342.93	197.74
343.31	207.48
343.69	207.98
344.07	208.43
344.46	209.05
344.84	209.67
345.22	208.69
345.60	209.21
345.99	209.40
346.37	209.52
346.75	209.60
347.13	209.67
347.52	209.55
347.90	210.29
348.28	210.10
348.66	210.62
349.05	209.90
349.43	210.17
349.81	210.33
350.19	210.17
350.57	210.31
350.96	210.74
351.34	211.40
351.72	211.74
352.10	211.98
352.48	211.81
352.87	211.67
353.25	211.69
353.63	211.69
354.01	211.64
354.39	211.74
354.77	211.86
355.15	212.33
355.54	212.48
355.92	211.95
356.30	211.98
356.68	213.31
357.06	213.43
357.44	213.17
357.82	213.05
358.20	214.19
358.58	214.33
358.97	214.29
359.35	214.45
359.73	214.50
360.11	214.52
360.49	214.93
360.87	215.00
361.25	215.40
361.63	216.02
362.01	216.07
362.39	215.76
362.77	215.86
363.15	215.67
363.53	215.67
363.91	215.88
364.29	216.07
364.67	213.98
365.05	214.19
365.43	214.43
365.81	214.79
366.19	214.76
366.57	215.52
366.95	215.45
367.33	215.02
367.71	215.24
368.09	215.52
368.47	215.48
368.85	215.50
369.23	215.83
369.61	215.14
369.99	215.76
370.37	216.14
370.75	217.40
371.13	217.33
371.51	217.05
371.89	217.24
372.27	217.29
372.65	217.76
373.03	217.71
373.41	217.62
373.78	217.74
374.16	216.81
374.54	215.93
374.92	215.83
375.30	215.67
375.68	215.24
376.06	215.60
376.44	215.36
376.82	215.40
377.19	215.26
377.57	215.43
377.95	214.90
378.33	214.95
378.71	213.33
379.09	213.36
379.47	213.57
379.84	213.21
380.22	213.21
380.60	212.67
380.98	212.64
381.36	212.62
381.73	212.17
382.11	212.57
382.49	212.95
382.87	212.79
383.25	212.83
383.62	215.17
384.00	214.62
384.38	214.69
384.76	215.40
385.13	215.95
385.51	215.95
385.89	215.81
386.27	215.81
386.64	216.29
387.02	216.21
387.40	216.07
387.78	216.21
388.15	216.26
388.53	216.38
388.91	216.48
389.29	216.29
389.66	216.55
390.04	216.26
390.42	216.62
390.79	216.86
391.17	216.74
391.55	214.67
391.92	214.62
392.30	214.90
392.68	214.26
393.05	214.14
393.43	213.98
393.81	214.00
394.18	213.52
394.56	213.79
394.94	214.21
395.31	214.24
395.69	214.74
396.06	214.93
396.44	215.02
396.82	215.05
397.19	216.33
397.57	216.21
397.95	216.62
398.32	215.67
398.70	215.64
399.07	216.21
399.45	215.93
399.82	216.05
400.20	215.64
400.58	215.40
400.95	214.69
401.33	215.12
401.70	216.50
402.08	216.88
402.45	216.69
402.83	217.26
403.20	217.52
403.58	217.62
403.95	218.21
404.33	218.55
404.71	218.60
405.08	219.71
405.46	220.17
405.83	220.40
406.21	221.12
406.58	221.79
406.96	222.00
407.33	222.76
407.70	223.52
408.08	225.86
408.45	226.83
408.83	227.79
409.20	228.14
409.58	227.74
409.95	228.90
410.33	229.93
410.70	229.90
411.08	231.17
411.45	231.98
411.82	232.52
412.20	233.90
412.57	236.19
412.95	235.64
413.32	237.10
413.69	238.45
414.07	240.07
414.44	241.86
414.82	243.83
415.19	246.29
415.56	248.40
415.94	249.55
416.31	252.55
416.68	255.38
417.06	258.71
417.43	262.29
417.81	265.62
418.18	269.40
418.55	273.10
418.93	277.07
419.30	281.12
419.67	285.74
420.04	290.31
420.42	294.83
420.79	302.17
421.16	308.17
421.54	315.10
421.91	321.33
422.28	327.43
422.66	334.05
423.03	341.86
423.40	348.38
423.77	355.71
424.15	362.71
424.52	370.19
424.89	378.79
425.26	386.50
425.64	394.00
426.01	401.95
426.38	411.12
426.75	420.67
427.13	430.24
427.50	439.67
427.87	449.48
428.24	459.31
428.61	467.45
428.99	478.33
429.36	488.60
429.73	499.79
430.10	511.21
430.47	522.43
430.85	532.98
431.22	546.10
431.59	560.81
431.96	573.21
432.33	587.64
432.70	601.55
433.08	617.76
433.45	633.10
433.82	648.14
434.19	665.24
434.56	681.40
434.93	697.00
435.30	713.05
435.68	730.95
436.05	747.71
436.42	764.50
436.79	779.60
437.16	796.62
437.53	814.69
437.90	831.83
438.27	850.00
438.64	868.14
439.01	885.05
439.38	898.67
439.75	913.86
440.13	929.57
440.50	944.86
440.87	957.60
441.24	970.86
441.61	986.45
441.98	996.88
442.35	1009.45
442.72	1022.55
443.09	1036.02
443.46	1043.55
443.83	1049.55
444.20	1054.79
444.57	1061.74
444.94	1065.71
445.31	1069.43
445.68	1075.69
446.05	1077.33
446.42	1075.86
446.79	1074.10
447.16	1072.26
447.53	1071.10
447.90	1065.76
448.27	1059.19
448.64	1050.55
449.01	1044.17
449.37	1032.21
449.74	1021.48
450.11	1009.67
450.48	994.95
450.85	979.05
451.22	966.36
451.59	954.10
451.96	942.17
452.33	926.50
452.70	912.19
453.07	895.07
453.43	875.14
453.80	858.43
454.17	843.21
454.54	828.24
454.91	812.17
455.28	796.60
455.65	781.64
456.02	770.62
456.38	757.93
456.75	742.57
457.12	729.60
457.49	716.69
457.86	702.48
458.23	692.69
458.59	681.33
458.96	668.98
459.33	657.98
459.70	647.64
460.07	639.64
460.43	629.76
460.80	620.33
461.17	613.45
461.54	604.95
461.91	596.55
462.27	588.31
462.64	581.29
463.01	573.31
463.38	566.95
463.74	556.02
464.11	549.26
464.48	543.67
464.85	537.62
465.21	533.40
465.58	528.88
465.95	521.95
466.32	516.57
466.68	511.62
467.05	506.71
467.42	502.12
467.78	496.12
468.15	491.17
468.52	487.86
468.88	481.83
469.25	477.45
469.62	474.07
469.98	470.21
470.35	466.64
470.72	463.48
471.08	458.86
471.45	456.21
471.82	453.74
472.18	450.31
472.55	447.86
472.92	444.02
473.28	440.74
473.65	437.93
474.02	435.10
474.38	433.43
474.75	431.95
475.11	429.24
475.48	428.10
475.85	426.40
476.21	424.36
476.58	423.57
476.94	422.52
477.31	421.40
477.67	420.26
478.04	419.00
478.41	417.98
478.77	419.17
479.14	417.69
479.50	416.64
479.87	416.21
480.23	415.40
480.60	414.86
480.96	414.74
481.33	415.43
481.69	415.64
482.06	415.55
482.42	415.69
482.79	416.33
483.15	416.40
483.52	417.26
483.88	417.76
484.25	418.24
484.61	418.90
484.98	419.33
485.34	421.17
485.71	423.05
486.07	424.17
486.44	423.55
486.80	425.62
487.17	427.05
487.53	429.40
487.90	431.95
488.26	435.29
488.62	437.98
488.99	439.93
489.35	442.38
489.72	445.17
490.08	447.76
490.44	450.21
490.81	453.55
491.17	456.50
491.54	460.33
491.90	464.33
492.26	468.12
492.63	471.83
492.99	475.14
493.36	478.98
493.72	483.76
494.08	488.29
494.45	492.29
494.81	497.40
495.17	501.74
495.54	506.95
495.90	511.19
496.26	516.29
496.63	522.05
496.99	527.76
497.35	533.38
497.72	539.40
498.08	545.36
498.44	551.29
498.80	557.62
499.17	563.45
499.53	569.24
499.89	575.95
500.26	582.90
500.62	589.45
500.98	597.19
501.34	603.95
501.71	611.69
502.07	619.38
502.43	626.02
502.79	633.02
503.16	639.86
503.52	647.40
503.88	654.33
504.24	661.71
504.60	668.79
504.97	676.67
505.33	684.02
505.69	692.36
506.05	700.14
506.41	707.79
506.78	715.57
507.14	723.24
507.50	731.14
507.86	739.05
508.22	747.21
508.59	753.81
508.95	761.45
509.31	769.74
509.67	777.36
510.03	785.81
510.39	794.05
510.75	801.45
511.12	809.17
511.48	816.57
511.84	824.24
512.20	832.33
512.56	839.48
512.92	847.29
513.28	854.50
513.64	861.67
514.00	868.60
514.37	875.90
514.73	883.02
515.09	890.24
515.45	897.31
515.81	903.57
516.17	910.45
516.53	917.38
516.89	922.93
517.25	929.62
517.61	936.62
517.97	942.90
518.33	949.38
518.69	955.79
519.05	962.83
519.41	968.43
519.77	975.57
520.13	981.45
520.49	986.50
520.85	992.38
521.21	998.76
521.57	1004.83
521.93	1009.57
522.29	1015.31
522.65	1020.33
523.01	1025.36
523.37	1030.79
523.73	1035.81
524.09	1041.45
524.45	1046.14
524.81	1050.71
525.17	1055.52
525.53	1059.90
525.89	1064.21
526.25	1069.02
526.61	1072.57
526.97	1076.79
527.33	1080.71
527.68	1087.05
528.04	1092.00
528.40	1096.07
528.76	1099.76
529.12	1104.24
529.48	1109.90
529.84	1114.17
530.20	1118.74
530.56	1123.64
530.91	1128.19
531.27	1132.60
531.63	1136.10
531.99	1139.60
532.35	1144.00
532.71	1146.95
533.07	1152.02
533.42	1158.95
533.78	1162.95
534.14	1168.21
534.50	1172.50
534.86	1176.21
535.21	1178.57
535.57	1182.98
535.93	1186.19
536.29	1191.33
536.65	1195.21
537.00	1198.36
537.36	1202.24
537.72	1205.31
538.08	1208.52
538.44	1211.29
538.79	1214.88
539.15	1217.43
539.51	1221.81
539.87	1224.67
540.22	1229.12
540.58	1231.67
540.94	1233.36
541.29	1236.26
541.65	1238.02
542.01	1241.86
542.37	1244.76
542.72	1246.31
543.08	1247.98
543.44	1251.43
543.79	1252.17
544.15	1254.98
544.51	1257.60
544.87	1260.40
545.22	1263.24
545.58	1266.19
545.94	1269.76
546.29	1271.88
546.65	1275.33
547.01	1277.00
547.36	1280.05
547.72	1281.43
548.07	1284.38
548.43	1286.00
548.79	1287.88
549.14	1290.38
549.50	1292.38
549.86	1294.57
550.21	1297.86
550.57	1301.17
550.92	1303.21
551.28	1307.05
551.64	1309.31
551.99	1312.17
552.35	1314.81
552.70	1318.21
553.06	1321.48
553.41	1324.24
553.77	1328.98
554.13	1332.14
554.48	1337.31
554.84	1340.98
555.19	1345.10
555.55	1349.76
555.90	1353.48
556.26	1357.83
556.61	1362.24
556.97	1365.52
557.32	1369.07
557.68	1373.24
558.03	1377.31
558.39	1381.52
558.74	1385.17
559.10	1389.60
559.45	1393.83
559.81	1398.50
560.16	1402.71
560.52	1406.07
560.87	1411.29
561.23	1414.33
561.58	1419.88
561.94	1423.26
562.29	1427.62
562.64	1432.29
563.00	1436.10
563.35	1441.05
563.71	1446.07
564.06	1451.31
564.42	1456.83
564.77	1463.14
565.12	1469.07
565.48	1475.71
565.83	1482.07
566.19	1486.67
566.54	1491.90
566.89	1497.52
567.25	1504.07
567.60	1510.29
567.96	1518.02
568.31	1524.45
568.66	1531.71
569.02	1535.93
569.37	1541.64
569.72	1547.10
570.08	1552.10
570.43	1557.02
570.78	1563.33
571.14	1568.57
571.49	1573.45
571.84	1578.86
572.20	1582.90
572.55	1588.17
572.90	1591.83
573.26	1596.67
573.61	1602.17
573.96	1607.57
574.31	1611.81
574.67	1614.62
575.02	1618.29
575.37	1620.62
575.72	1623.45
576.08	1627.17
576.43	1631.57
576.78	1635.17
577.13	1639.33
577.49	1642.81
577.84	1647.26
578.19	1649.88
578.54	1654.05
578.90	1658.69
579.25	1662.26
579.60	1665.71
579.95	1668.50
580.30	1671.40
580.66	1674.43
581.01	1678.12
581.36	1680.83
581.71	1683.93
582.06	1688.64
582.42	1692.10
582.77	1695.07
583.12	1698.14
583.47	1701.60
583.82	1704.86
584.17	1708.07
584.53	1711.45
584.88	1714.60
585.23	1717.45
585.58	1720.29
585.93	1722.10
586.28	1724.76
586.63	1727.90
586.98	1731.50
587.34	1734.55
587.69	1737.24
588.04	1740.00
588.39	1741.50
588.74	1742.14
589.09	1744.83
589.44	1745.12
589.79	1747.02
590.14	1749.50
590.49	1750.52
590.84	1750.55
591.19	1752.83
591.54	1754.57
591.89	1755.12
592.25	1758.71
592.60	1759.40
592.95	1760.79
593.30	1763.21
593.65	1763.50
594.00	1763.33
594.35	1769.48
594.70	1769.90
595.05	1770.86
595.40	1771.69
595.75	1772.38
596.10	1774.24
596.45	1774.95
596.80	1775.67
597.15	1776.71
597.50	1776.83
597.85	1778.33
598.19	1778.50
598.54	1778.29
598.89	1778.64
599.24	1780.95
599.59	1779.55
599.94	1779.57
600.29	1780.57
600.64	1780.52
600.99	1781.40
601.34	1783.17
601.69	1777.00
602.04	1777.07
602.39	1777.17
602.74	1776.62
603.08	1776.74
603.43	1778.21
603.78	1777.88
604.13	1777.60
604.48	1775.36
604.83	1775.19
605.18	1775.17
605.53	1775.36
605.87	1774.38
606.22	1773.19
606.57	1771.36
606.92	1769.95
607.27	1769.90
607.62	1768.76
607.96	1766.86
608.31	1764.50
608.66	1762.07
609.01	1761.12
609.36	1760.07
609.70	1758.38
610.05	1756.07
610.40	1755.10
610.75	1751.76
611.10	1750.38
611.44	1748.24
611.79	1747.14
612.14	1744.83
612.49	1741.14
612.83	1738.36
613.18	1736.50
613.53	1733.26
613.88	1729.24
614.22	1726.00
614.57	1722.24
614.92	1718.38
615.27	1715.33
615.61	1712.29
615.96	1708.62
616.31	1705.21
616.65	1702.17
617.00	1699.21
617.35	1696.98
617.70	1693.60
618.04	1690.02
618.39	1685.98
618.74	1683.71
619.08	1680.05
619.43	1676.33
619.78	1672.43
620.12	1669.64
620.47	1664.64
620.82	1661.21
621.16	1656.79
621.51	1655.05
621.85	1650.26
622.20	1646.14
622.55	1642.40
622.89	1639.26
623.24	1636.55
623.59	1632.45
623.93	1628.31
624.28	1624.21
624.62	1621.90
624.97	1619.57
625.32	1615.17
625.66	1611.24
626.01	1606.98
626.35	1603.36
626.70	1599.67
627.04	1597.48
627.39	1593.36
627.73	1590.93
628.08	1588.31
628.43	1585.79
628.77	1581.07
629.12	1578.29
629.46	1575.00
629.81	1571.48
630.15	1566.52
630.50	1561.21
630.84	1556.48
631.19	1550.90
631.53	1545.69
631.88	1538.24
632.22	1531.12
632.57	1528.07
632.91	1522.86
633.26	1518.50
633.60	1513.71
633.95	1508.02
634.29	1502.29
634.64	1497.79
634.98	1492.50
635.32	1487.88
635.67	1483.60
636.01	1479.00
636.36	1473.52
636.70	1469.31
637.05	1464.33
637.39	1459.93
637.73	1456.40
638.08	1453.10
638.42	1449.05
638.77	1445.55
639.11	1441.40
639.45	1437.05
639.80	1431.02
640.14	1426.36
640.49	1420.69
640.83	1415.24
641.17	1410.31
641.52	1404.81
641.86	1399.24
642.20	1394.83
642.55	1388.43
642.89	1382.07
643.23	1376.43
643.58	1372.38
643.92	1365.83
644.26	1360.36
644.61	1354.90
644.95	1349.00
645.29	1341.93
645.64	1336.60
645.98	1330.60
646.32	1325.07
646.66	1318.76
647.01	1312.98
647.35	1307.71
647.69	1302.00
648.04	1296.43
648.38	1291.02
648.72	1284.88
649.06	1278.67
649.41	1272.19
649.75	1266.33
650.09	1260.00
650.43	1252.86
650.78	1246.02
651.12	1239.98
651.46	1233.05
651.80	1226.95
652.14	1220.14
652.49	1214.81
652.83	1208.36
653.17	1201.67
653.51	1194.93
653.85	1189.26
654.20	1182.40
654.54	1175.05
654.88	1167.88
655.22	1162.00
655.56	1154.76
655.90	1148.71
656.25	1142.31
656.59	1135.38
656.93	1128.62
657.27	1123.62
657.61	1117.81
657.95	1112.14
658.29	1106.19
658.64	1100.90
658.98	1093.43
659.32	1086.64
659.66	1079.62
660.00	1073.40
660.34	1067.31
660.68	1060.93
661.02	1054.50
661.36	1048.69
661.70	1042.88
662.05	1037.29
662.39	1030.38
662.73	1025.64
663.07	1020.79
663.41	1014.52
663.75	1008.55
664.09	1002.83
664.43	996.31
664.77	990.45
665.11	983.45
665.45	977.45
665.79	971.43
666.13	966.64
666.47	961.83
666.81	956.45
667.15	949.50
667.49	944.33
667.83	939.95
668.17	934.76
668.51	929.21
668.85	924.07
669.19	918.90
669.53	913.14
669.87	906.64
670.21	899.90
670.55	894.29
670.89	889.50
671.23	884.21
671.57	878.26
671.91	872.76
672.25	867.48
672.58	862.69
672.92	856.36
673.26	850.57
673.60	844.76
673.94	839.79
674.28	835.26
674.62	830.17
674.96	824.17
675.30	818.60
675.64	813.50
675.97	808.12
676.31	802.33
676.65	796.93
676.99	793.43
677.33	788.83
677.67	784.17
678.01	778.31
678.34	773.40
678.68	769.26
679.02	763.90
679.36	758.67
679.70	752.98
680.04	747.71
680.37	742.98
680.71	737.60
681.05	733.05
681.39	728.26
681.73	723.05
682.06	718.67
682.40	713.95
682.74	709.64
683.08	705.50
683.42	700.74
683.75	696.86
684.09	691.50
684.43	686.45
684.77	681.52
685.10	677.05
685.44	672.24
685.78	666.93
686.12	662.88
686.45	658.29
686.79	653.62
687.13	649.86
687.46	645.48
687.80	641.74
688.14	636.81
688.48	632.57
688.81	628.10
689.15	623.55
689.49	618.98
689.82	614.76
690.16	609.64
690.50	605.45
690.83	601.05
691.17	596.38
691.51	592.21
691.84	588.36
692.18	584.57
692.52	580.79
692.85	577.50
693.19	574.29
693.52	570.48
693.86	565.93
694.20	562.07
694.53	558.10
694.87	553.81
695.21	549.83
695.54	546.05
695.88	541.55
696.21	537.29
696.55	533.60
696.88	529.71
697.22	526.24
697.56	523.14
697.89	519.48
698.23	516.10
698.56	512.17
698.90	508.48
699.23	504.05
699.57	500.38
699.90	496.50
700.24	492.29
700.58	488.83
700.91	486.24
701.25	484.43
701.58	481.64
701.92	479.07
702.25	476.00
702.59	472.69
702.92	469.93
703.26	467.21
703.59	464.07
703.93	462.69
704.26	459.76
704.60	456.52
704.93	452.95
705.26	449.79
705.60	447.57
705.93	444.74
706.27	442.71
706.60	440.29
706.94	438.29
707.27	435.52
707.61	433.10
707.94	430.40
708.27	426.57
708.61	423.43
708.94	420.57
709.28	418.14
709.61	415.71
709.94	413.40
710.28	410.95
710.61	408.38
710.95	404.10
711.28	403.14
711.61	401.17
711.95	399.74
712.28	397.43
712.61	395.05
712.95	393.79
713.28	392.10
713.61	389.81
713.95	387.12
714.28	385.24
714.61	383.12
714.95	380.83
715.28	378.14
715.61	376.40
715.95	374.76
716.28	372.52
716.61	370.74
716.95	368.71
717.28	366.83
717.61	365.36
717.94	363.55
718.28	360.19
718.61	357.98
718.94	355.86
719.27	353.52
719.61	351.79
719.94	349.31
720.27	346.88
720.60	344.86
720.94	343.24
721.27	341.40
721.60	340.19
721.93	338.74
722.27	338.05
722.60	336.57
722.93	334.40
723.26	333.21
723.59	331.52
723.93	329.90
724.26	328.21
724.59	326.45
724.92	325.05
725.25	324.19
725.59	322.86
725.92	322.02
726.25	321.33
726.58	320.40
726.91	319.48
727.24	318.43
727.57	317.07
727.91	315.50
728.24	314.50
728.57	313.12
728.90	312.26
729.23	310.64
729.56	310.17
729.89	309.29
730.22	308.00
730.55	307.12
730.89	306.21
731.22	304.93
731.55	303.83
731.88	303.24
732.21	301.88
732.54	300.81
732.87	299.60
733.20	298.52
733.53	297.26
733.86	296.31
734.19	295.00
734.52	294.69
734.85	295.05
735.18	293.93
735.51	293.50
735.84	292.69
736.17	292.29
736.50	290.74
736.83	292.00
737.16	291.10
737.49	290.07
737.82	289.33
738.15	288.90
738.48	288.40
738.81	287.45
739.14	286.50
739.47	285.69
739.80	284.64
740.13	284.02
740.46	282.98
740.79	281.71
741.12	280.90
741.45	279.55
741.78	277.67
742.11	277.50
742.44	276.29
742.77	275.71
743.10	274.48
743.43	273.60
743.75	270.74
744.08	272.86
744.41	271.81
744.74	270.76
745.07	269.76
745.40	269.24
745.73	269.45
746.06	269.12
746.39	268.55
746.71	267.88
747.04	267.12
747.37	266.40
747.70	266.07
748.03	265.52
748.36	265.57
748.68	265.14
749.01	263.76
749.34	263.36
749.67	262.79
750.00	262.76
750.33	263.67
750.65	263.40
750.98	260.02
751.31	259.95
751.64	259.55
751.97	260.31
752.29	259.71
752.62	258.00
752.95	257.36
753.28	256.69
753.60	256.14
753.93	256.02
754.26	255.69
754.59	254.86
754.91	254.31
755.24	253.55
755.57	252.90
755.90	252.38
756.22	251.71
756.55	250.52
756.88	249.43
757.20	247.52
757.53	246.33
757.86	245.76
758.19	245.36
758.51	244.98
758.84	243.19
759.17	242.48
759.49	242.17
759.82	242.60
760.15	242.21
760.47	241.76
760.80	240.71
761.13	240.71
761.45	240.19
761.78	239.90
762.11	239.40
762.43	238.88
762.76	238.86
763.08	238.60
763.41	238.62
763.74	238.36
764.06	238.14
764.39	238.00
764.71	237.74
765.04	237.31
765.37	236.76
765.69	236.45
766.02	236.07
766.34	235.76
766.67	234.64
767.00	234.81
767.32	235.76
767.65	236.88
767.97	236.52
768.30	236.43
768.62	236.21
768.95	235.76
769.27	235.76
769.60	235.50
769.92	234.98
770.25	234.40
770.57	233.74
770.90	233.45
771.22	233.05
771.55	233.26
771.87	232.98
772.20	232.79
772.52	234.19
772.85	236.50
773.17	236.14
773.50	236.00
773.82	235.33
774.15	234.07
774.47	232.60
774.80	231.98
775.12	231.83
775.45	231.62
775.77	231.67
776.09	231.52
776.42	231.43
776.74	232.07
777.07	231.81
777.39	232.00
777.72	231.64
778.04	231.83
778.36	231.33
778.69	231.19
779.01	231.24
779.33	229.55
779.66	226.95
779.98	226.76
780.31	226.48
780.63	227.43
780.95	227.40
781.28	227.38
781.60	227.12
781.92	226.74
782.25	226.67
782.57	226.64
782.89	226.17
783.22	225.86
783.54	225.10
783.86	225.33
784.19	225.12
784.51	225.60
784.83	225.17
785.16	224.83
785.48	224.67
785.80	224.38
786.12	224.45
786.45	224.43
786.77	224.45
787.09	224.17
787.42	223.07
787.74	223.24
788.06	222.90
788.38	222.93
788.71	222.71
789.03	222.50
789.35	222.40
789.67	222.17
789.99	222.24
790.32	221.64
790.64	221.60
790.96	223.24
791.28	222.29
791.61	222.29
791.93	222.67
792.25	222.45
792.57	223.79
792.89	223.19
793.21	223.36
793.54	223.05
793.86	222.88
794.18	223.12
794.50	222.62
794.82	222.62
795.14	222.83
795.47	223.31
795.79	223.31
796.11	222.81
796.43	222.88
796.75	222.95
797.07	223.36
797.39	223.21
797.71	221.55
798.04	221.71
798.36	221.64
798.68	221.55
799.00	221.60
799.32	220.76
799.64	221.33
799.96	221.21
800.28	221.60
800.60	221.40
800.92	221.29
801.24	221.29
801.56	221.43
801.89	221.21
802.21	221.29
802.53	220.93
802.85	221.50
803.17	222.29
803.49	221.57
803.81	221.31
804.13	221.10
804.45	220.93
804.77	221.21
805.09	221.21
805.41	220.69
805.73	220.26
806.05	219.50
806.37	219.19
806.69	218.95
807.01	218.88
807.33	219.14
807.65	218.40
807.97	219.12
808.28	219.00
808.60	218.67
808.92	218.36
809.24	219.74
809.56	219.21
809.88	218.57
810.20	218.76
810.52	219.05
810.84	218.79
811.16	218.62
811.48	218.14
811.80	218.74
812.12	218.90
812.43	219.24
812.75	219.64
813.07	219.43
813.39	219.52
813.71	219.00
814.03	218.81
814.35	219.12
814.67	218.19
814.98	218.10
815.30	218.24
815.62	217.90
815.94	216.26
816.26	216.55
816.58	215.95
816.89	216.26
817.21	215.83
817.53	215.98
817.85	215.95
818.17	216.07
818.48	215.57
818.80	215.52
819.12	215.55
819.44	214.95
819.76	214.98
820.07	215.02
820.39	214.81
820.71	214.95
821.03	214.69
821.34	214.43
821.66	214.60
821.98	214.71
822.30	214.38
822.61	215.69
822.93	215.24
823.25	215.24
823.57	214.98
823.88	215.29
824.20	215.14
824.52	215.48
824.83	215.24
825.15	214.69
825.47	215.02
825.79	215.14
826.10	215.29
826.42	215.14
826.74	215.24
827.05	215.38
827.37	215.31
827.69	215.38
828.00	215.52
828.32	215.40
828.64	215.10
828.95	216.31
829.27	215.83
829.58	216.05
829.90	216.50
830.22	216.52
830.53	216.00
830.85	215.79
831.17	215.38
831.48	215.55
831.80	215.83
832.11	215.55
832.43	214.98
832.75	214.69
833.06	215.76
833.38	215.12
833.69	215.00
834.01	215.12
834.32	214.95
834.64	214.90
834.96	215.07
835.27	215.14
835.59	214.50
835.90	214.02
836.22	213.88
836.53	213.33
836.85	213.02
837.16	215.38
837.48	215.69
837.79	216.17
838.11	216.29
838.42	216.26
838.74	216.43
839.05	216.50
839.37	216.76
839.68	215.57
840.00	215.74
840.31	216.14
840.63	215.81
840.94	215.76
841.26	215.52
841.57	215.26
841.88	215.33
842.20	215.12
842.51	214.69
842.83	214.74
843.14	216.45
843.46	216.57
843.77	215.29
844.08	214.98
844.40	214.52
844.71	214.21
845.03	214.00
845.34	213.74
845.65	213.55
845.97	213.38
846.28	213.36
846.60	213.33
846.91	213.10
847.22	212.88
847.54	213.17
847.85	213.31
848.16	213.00
848.48	212.76
848.79	213.50
849.10	213.98
849.42	213.86
849.73	212.17
850.04	212.12
850.36	211.38
850.67	211.74
850.98	211.93
851.30	212.26
851.61	212.02
851.92	212.21
852.23	212.90
852.55	212.93
852.86	213.19
853.17	213.19
853.49	213.45
853.80	214.17
854.11	214.33
854.42	214.55
854.74	214.48
855.05	214.50
855.36	213.33
855.67	213.36
855.99	213.67
856.30	216.19
856.61	215.88
856.92	215.90
857.23	216.05
857.55	215.43
857.86	215.24
858.17	215.64
858.48	215.07
858.79	214.64
859.11	215.12
859.42	214.83
859.73	214.52
860.04	214.62
860.35	214.00
860.66	213.57
860.98	213.64
861.29	214.14
861.60	213.95
861.91	214.29
862.22	213.98
862.53	213.48
862.84	211.07
863.16	211.81
863.47	211.33
863.78	210.98
864.09	211.21
864.40	211.43
864.71	211.50
865.02	211.98
865.33	211.74
865.64	211.21
865.95	211.40
866.27	212.98
866.58	212.60
866.89	212.93
867.20	212.88
867.51	212.64
867.82	212.26
868.13	213.05
868.44	212.90
868.75	213.40
869.06	213.52
869.37	213.71
869.68	212.93
869.99	213.57
870.30	213.74
870.61	214.02
870.92	213.60
871.23	213.29
871.54	213.50
871.85	214.12
872.16	214.33
872.47	214.12
872.78	213.05
873.09	213.43
873.40	213.21
873.71	213.29
874.02	213.36
874.33	213.05
874.64	212.50
874.95	212.79
875.26	212.14
875.56	212.14
875.87	211.88
876.18	211.98
876.49	213.69
876.80	213.57
877.11	213.26
877.42	213.57
877.73	213.79
878.04	213.40
878.35	213.33
878.66	213.50
878.96	213.45
879.27	213.19
879.58	213.12
879.89	212.90
880.20	213.60
880.51	213.55
880.82	213.86
881.12	214.07
881.43	213.52
881.74	213.67
882.05	213.57
882.36	213.88
882.67	214.17
882.97	212.14
883.28	211.93
883.59	211.90
883.90	211.83
884.21	212.12
884.51	212.14
884.82	211.67
885.13	211.14
885.44	211.12
885.74	211.10
886.05	210.95
886.36	211.29
886.67	210.36
886.98	211.26
887.28	211.43
887.59	211.36
887.90	211.69
888.20	211.48
888.51	212.07
888.82	211.79
889.13	211.95
889.43	213.60
889.74	213.43
890.05	213.40
890.35	213.33
890.66	212.93
890.97	212.62
891.28	212.76
891.58	213.14
891.89	213.36
892.20	213.17
892.50	213.02
892.81	212.86
893.12	212.98
893.42	212.07
893.73	212.05
894.04	211.83
894.34	211.98
894.65	212.00
894.95	211.50
895.26	211.69
895.57	212.43
895.87	210.50
896.18	211.02
896.48	211.40
896.79	211.45
897.10	212.02
897.40	212.12
897.71	212.31
898.01	212.12
898.32	212.33
898.63	212.29
898.93	212.43
899.24	212.50
899.54	212.33
899.85	212.21
900.15	212.33
900.46	212.67
900.76	212.76
901.07	212.74
901.38	212.81
901.68	212.79
901.99	211.83
902.29	212.12
902.60	211.86
902.90	211.40
903.21	211.36
903.51	211.02
903.82	211.60
904.12	211.38
904.43	211.45
904.73	211.26
905.03	211.55
905.34	213.52
905.64	213.60
905.95	213.64
906.25	213.60
906.56	213.50
906.86	213.48
907.17	213.36
907.47	213.38
907.77	213.40
908.08	213.05
908.38	213.07
908.69	213.10
908.99	213.60
909.30	213.74
909.60	213.81
909.90	213.93
910.21	213.38
910.51	213.14
910.81	212.98
911.12	213.02
911.42	212.86
911.73	210.71
912.03	210.62
912.33	211.10
912.64	211.24
912.94	211.02
913.24	210.69
913.55	210.60
913.85	210.48
914.15	210.74
914.46	211.21
914.76	210.98
915.06	210.88
915.37	210.48
915.67	210.40
915.97	210.38
916.27	210.05
916.58	210.14
916.88	210.21
917.18	210.40
917.49	211.98
917.79	212.02
918.09	212.24
918.39	212.62
918.70	212.45
919.00	212.60
919.30	213.33
919.60	213.26
919.91	213.05
920.21	213.21
920.51	212.81
920.81	212.43
921.12	212.95
921.42	212.83
921.72	213.10
922.02	213.29
922.32	213.40
922.63	213.36
922.93	214.43
923.23	214.64
923.53	214.36
923.83	212.98
924.13	213.19
924.44	213.10
924.74	213.40
925.04	213.98
925.34	213.60
925.64	212.88
925.94	213.02
926.24	214.24
926.55	214.21
926.85	214.55
927.15	214.69
927.45	214.62
927.75	214.74
928.05	214.64
928.35	214.43
928.65	214.79
928.95	215.02
929.26	213.98
929.56	214.36
929.86	214.43
930.16	214.21
930.46	213.86
930.76	214.24
931.06	213.55
931.36	213.07
931.66	213.79
931.96	214.21
932.26	214.36
932.56	213.43
932.86	213.64
933.16	213.55
933.46	213.52
933.76	213.36
934.06	213.88
934.36	214.69
934.66	214.64
934.96	214.38
935.26	214.50
935.56	215.02
935.86	214.38
936.16	214.36
936.46	214.38
936.76	214.50
937.06	213.88
937.36	214.10
937.66	214.12
937.96	213.74
938.26	213.21
938.56	212.98
938.86	213.10
939.16	213.36
939.46	213.50
939.76	213.45
940.06	213.55
940.35	213.10
940.65	211.79
940.95	211.86
941.25	211.43
941.55	210.90
941.85	210.71
942.15	211.19
942.45	211.93
942.75	211.62
943.04	211.71
943.34	212.40
943.64	211.95
943.94	211.83
944.24	212.02
944.54	212.31
944.84	212.10
945.13	211.83
945.43	211.60
945.73	211.48
946.03	211.40
946.33	211.19
946.62	211.14
946.92	211.36
947.22	211.52
947.52	211.76
947.82	212.12
948.11	211.76
948.41	211.36
948.71	210.60
949.01	210.81
949.31	210.62
949.60	210.21
949.90	210.48
950.20	210.36
950.50	210.26
950.79	210.07
951.09	210.52
951.39	210.50
951.69	210.26
951.98	210.64
952.28	210.52
952.58	210.14
952.87	210.10
953.17	210.36
953.47	210.10
953.76	210.17
954.06	209.93
954.36	209.74
954.66	209.69
954.95	210.29
955.25	210.45
955.55	210.83
955.84	210.69
956.14	211.07
956.44	211.10
956.73	210.69
957.03	210.81
957.32	210.62
957.62	210.55
957.92	210.93
958.21	210.62
958.51	213.33
958.81	213.90
959.10	213.90
959.40	214.19
959.69	214.36
959.99	214.43
960.29	214.40
960.58	214.40
960.88	215.29
961.17	214.88
961.47	215.05
961.76	214.74
962.06	215.05
962.36	214.71
962.65	214.79
962.95	214.90
963.24	214.67
963.54	214.90
963.83	214.98
964.13	214.98
964.42	214.36
964.72	212.33
965.01	212.36
965.31	212.29
965.60	211.88
965.90	213.31
966.19	212.93
966.49	213.12
966.78	213.02
967.08	212.90
967.37	213.17
967.67	212.67
967.96	212.98
968.26	212.88
968.55	213.31
968.85	213.33
969.14	213.48
969.43	213.45
969.73	213.05
970.02	212.69
970.32	212.29
970.61	212.36
970.91	211.95
971.20	211.69
971.49	211.67
971.79	211.86
972.08	210.21
972.38	210.52
972.67	210.36
972.96	210.86
973.26	210.26
973.55	210.88
973.85	211.00
974.14	210.81
974.43	210.93
974.73	210.45
975.02	210.05
975.31	210.02
975.61	210.10
975.90	210.02
976.19	210.17
976.49	210.50
976.78	210.79
977.07	210.69
977.37	210.79
977.66	211.07
977.95	210.86
978.24	211.10
978.54	211.36
978.83	211.21
979.12	210.95
979.42	211.33
979.71	210.74
980.00	210.62
980.29	210.74
980.59	210.40
980.88	211.02
981.17	211.29
981.46	211.31
981.76	211.31
982.05	211.95
982.34	212.14
982.63	212.10
982.93	212.21
983.22	213.05
983.51	213.05
983.80	213.36
984.09	213.69
984.39	213.57
984.68	213.26
984.97	213.83
985.26	213.69
985.55	213.43
985.85	213.10
986.14	213.57
986.43	213.90
986.72	213.69
987.01	212.98
987.30	212.93
987.59	212.74
987.89	212.79
988.18	212.12
988.47	212.02
988.76	211.90
989.05	211.74
989.34	211.26
989.63	211.74
989.92	211.10
990.22	210.71
990.51	210.69
990.80	210.69
991.09	210.31
991.38	210.48
991.67	210.40
991.96	210.24
992.25	210.21
992.54	209.83
992.83	210.02
993.12	209.79
993.41	210.00
993.70	210.67
993.99	210.71
994.28	211.17
994.58	211.29
994.87	210.95
995.16	210.76
995.45	210.50
995.74	209.95
996.03	210.50
996.32	210.81
996.61	211.43
996.90	211.14
997.19	211.05
997.48	211.45
997.77	211.17
998.06	211.57
998.34	211.26
998.63	211.12
998.92	211.36
999.21	211.95
999.50	212.14
999.79	211.69
1000.08	211.86
1000.37	211.81
1000.66	211.69
1000.95	212.24
1001.24	212.50
1001.53	212.57
1001.82	212.45
1002.11	211.90
1002.40	212.21
1002.68	212.50
1002.97	214.00
1003.26	214.05
1003.55	213.52
1003.84	213.69
1004.13	214.21
1004.42	214.19
1004.71	214.33
1004.99	214.10
1005.28	214.38
1005.57	214.24
1005.86	214.00
1006.15	213.95
1006.44	213.69
1006.72	213.90
1007.01	213.64
1007.30	213.67
1007.59	213.60
1007.88	213.43
1008.17	213.69
1008.45	213.02
1008.74	212.07
1009.03	211.19
1009.32	211.17
1009.60	210.98
1009.89	210.86
1010.18	209.90
1010.47	209.88
1010.76	209.67
1011.04	209.71
1011.33	210.00
1011.62	210.02
1011.91	210.12
1012.19	210.26
1012.48	210.33
1012.77	210.29
1013.05	211.14
1013.34	210.88
1013.63	210.86
1013.92	211.10
1014.20	210.93
1014.49	211.10
1014.78	211.33
1015.06	210.83
1015.35	210.76
1015.64	211.21
1015.92	211.71
1016.21	211.79
1016.50	211.64
1016.78	212.07
1017.07	212.24
1017.36	211.62
1017.64	211.14
1017.93	211.57
1018.22	211.21
1018.50	211.33
1018.79	211.26
1019.08	210.29
1019.36	210.62
1019.65	210.33
1019.93	210.98
1020.22	211.26
1020.51	212.38
1020.79	212.36
1021.08	207.00
1021.36	210.50
1021.65	210.50
1021.94	208.00
1022.22	212.50
1022.51	204.50
1022.79	222.50
1023.08	214.50
1023.36	236.50
1023.65	210.00
>>>>>End Processed Spectral Data<<<<<
