SpectraSuite Data File
++++++++++++++++++++++++++++++++++++
Date: Tue Apr 02 18:43:59 EDT 2013
User: group
Dark Spectrum Present: No
Reference Spectrum Present: No
Number of Sampled Component Spectra: 1
Spectrometers: USB2E7196
Integration Time (usec): 580000 (USB2E7196)
Spectra Averaged: 2 (USB2E7196)
Boxcar Smoothing: 10 (USB2E7196)
Correct for Electrical Dark: No (USB2E7196)
Strobe/Lamp Enabled: No (USB2E7196)
Correct for Detector Non-linearity: No (USB2E7196)
Correct for Stray Light: No (USB2E7196)
Number of Pixels in Processed Spectrum: 2048
>>>>>Begin Processed Spectral Data<<<<<
339.09	0.00
339.48	194.50
339.86	196.00
340.24	196.50
340.63	203.50
341.01	231.00
341.39	204.50
341.78	209.00
342.16	210.50
342.54	206.50
342.93	198.55
343.31	208.38
343.69	208.98
344.07	209.43
344.46	210.43
344.84	210.76
345.22	209.64
345.60	210.12
345.99	210.26
346.37	210.38
346.75	210.36
347.13	210.40
347.52	210.71
347.90	211.45
348.28	211.60
348.66	212.05
349.05	211.57
349.43	211.50
349.81	211.62
350.19	211.60
350.57	211.83
350.96	212.02
351.34	212.36
351.72	212.60
352.10	212.86
352.48	212.48
352.87	212.48
353.25	212.31
353.63	212.00
354.01	211.76
354.39	211.83
354.77	212.14
355.15	212.60
355.54	212.21
355.92	211.83
356.30	212.02
356.68	213.02
357.06	213.10
357.44	212.86
357.82	212.93
358.20	213.93
358.58	213.95
358.97	214.10
359.35	214.50
359.73	214.57
360.11	214.31
360.49	214.26
360.87	214.05
361.25	214.52
361.63	215.17
362.01	215.33
362.39	215.24
362.77	215.38
363.15	215.36
363.53	215.29
363.91	215.07
364.29	214.79
364.67	212.93
365.05	212.98
365.43	213.14
365.81	213.12
366.19	213.17
366.57	213.95
366.95	213.76
367.33	213.29
367.71	213.38
368.09	213.98
368.47	214.17
368.85	214.31
369.23	214.83
369.61	214.21
369.99	214.90
370.37	214.93
370.75	215.83
371.13	215.50
371.51	215.38
371.89	215.71
372.27	215.86
372.65	216.12
373.03	216.19
373.41	216.10
373.78	216.19
374.16	215.29
374.54	214.67
374.92	214.38
375.30	214.26
375.68	213.93
376.06	213.98
376.44	213.79
376.82	214.00
377.19	213.76
377.57	213.57
377.95	212.90
378.33	212.81
378.71	211.33
379.09	211.76
379.47	212.14
379.84	211.95
380.22	211.62
380.60	211.17
380.98	211.02
381.36	211.12
381.73	210.88
382.11	211.24
382.49	211.14
382.87	210.88
383.25	210.98
383.62	213.29
384.00	212.79
384.38	212.88
384.76	212.98
385.13	213.95
385.51	214.31
385.89	214.07
386.27	214.31
386.64	214.95
387.02	214.62
387.40	214.67
387.78	214.67
388.15	214.95
388.53	214.90
388.91	214.90
389.29	214.69
389.66	214.83
390.04	214.45
390.42	214.95
390.79	215.50
391.17	215.36
391.55	213.19
391.92	213.36
392.30	213.26
392.68	212.88
393.05	212.43
393.43	212.29
393.81	212.45
394.18	211.86
394.56	211.88
394.94	212.40
395.31	212.00
395.69	212.93
396.06	213.19
396.44	213.40
396.82	213.40
397.19	214.62
397.57	214.57
397.95	215.07
398.32	214.40
398.70	214.45
399.07	215.07
399.45	215.21
399.82	215.02
400.20	215.07
400.58	215.31
400.95	214.62
401.33	215.00
401.70	216.57
402.08	216.98
402.45	216.93
402.83	217.26
403.20	217.71
403.58	217.38
403.95	217.86
404.33	218.55
404.71	218.79
405.08	220.05
405.46	220.33
405.83	220.57
406.21	221.14
406.58	221.62
406.96	221.76
407.33	222.29
407.70	223.17
408.08	225.48
408.45	226.26
408.83	227.14
409.20	227.67
409.58	226.98
409.95	228.05
410.33	228.86
410.70	229.26
411.08	230.29
411.45	231.33
411.82	231.83
412.20	233.24
412.57	235.67
412.95	235.19
413.32	237.00
413.69	238.26
414.07	240.00
414.44	241.83
414.82	243.93
415.19	246.26
415.56	248.31
415.94	249.57
416.31	252.40
416.68	255.40
417.06	258.79
417.43	262.60
417.81	265.88
418.18	269.74
418.55	273.17
418.93	276.93
419.30	281.17
419.67	285.71
420.04	290.10
420.42	294.36
420.79	301.48
421.16	307.02
421.54	314.52
421.91	320.45
422.28	326.60
422.66	332.95
423.03	340.67
423.40	347.71
423.77	354.90
424.15	362.02
424.52	369.81
424.89	378.52
425.26	386.10
425.64	393.90
426.01	401.55
426.38	410.81
426.75	420.55
427.13	429.86
427.50	439.21
427.87	449.50
428.24	459.45
428.61	467.38
428.99	478.45
429.36	488.45
429.73	499.69
430.10	511.24
430.47	522.95
430.85	533.52
431.22	545.79
431.59	560.79
431.96	573.74
432.33	587.26
432.70	600.52
433.08	616.52
433.45	631.48
433.82	647.33
434.19	664.21
434.56	680.33
434.93	695.50
435.30	712.10
435.68	729.21
436.05	746.45
436.42	763.71
436.79	779.62
437.16	797.07
437.53	815.24
437.90	832.57
438.27	850.36
438.64	868.55
439.01	886.29
439.38	900.07
439.75	914.64
440.13	931.12
440.50	947.05
440.87	960.38
441.24	974.52
441.61	988.69
441.98	999.24
442.35	1011.98
442.72	1025.55
443.09	1038.52
443.46	1046.19
443.83	1051.24
444.20	1056.62
444.57	1062.67
444.94	1065.45
445.31	1067.98
445.68	1074.50
446.05	1075.67
446.42	1073.81
446.79	1072.45
447.16	1069.45
447.53	1068.50
447.90	1062.38
448.27	1055.88
448.64	1046.40
449.01	1039.55
449.37	1028.83
449.74	1017.79
450.11	1006.43
450.48	991.38
450.85	975.62
451.22	962.83
451.59	951.19
451.96	939.19
452.33	924.10
452.70	910.02
453.07	893.62
453.43	873.62
453.80	857.60
454.17	842.40
454.54	826.67
454.91	810.93
455.28	794.83
455.65	780.02
456.02	768.60
456.38	756.36
456.75	741.07
457.12	727.60
457.49	715.21
457.86	700.76
458.23	691.17
458.59	679.36
458.96	667.55
459.33	656.38
459.70	645.93
460.07	637.55
460.43	627.93
460.80	619.62
461.17	611.93
461.54	603.71
461.91	595.86
462.27	587.86
462.64	581.24
463.01	573.93
463.38	567.48
463.74	556.76
464.11	549.81
464.48	544.50
464.85	538.24
465.21	533.64
465.58	528.43
465.95	521.45
466.32	516.64
466.68	511.55
467.05	506.95
467.42	501.76
467.78	496.14
468.15	491.12
468.52	487.45
468.88	481.93
469.25	476.88
469.62	473.81
469.98	470.02
470.35	466.40
470.72	462.43
471.08	457.86
471.45	455.02
471.82	452.67
472.18	448.81
472.55	446.81
472.92	443.21
473.28	440.26
473.65	437.38
474.02	435.00
474.38	433.31
474.75	431.43
475.11	429.24
475.48	427.62
475.85	426.33
476.21	423.81
476.58	422.74
476.94	421.86
477.31	420.29
477.67	419.12
478.04	417.67
478.41	417.29
478.77	419.05
479.14	417.76
479.50	416.83
479.87	416.33
480.23	415.45
480.60	415.10
480.96	415.26
481.33	416.31
481.69	416.02
482.06	415.43
482.42	415.76
482.79	416.10
483.15	416.19
483.52	416.90
483.88	417.71
484.25	418.55
484.61	419.38
484.98	419.95
485.34	421.50
485.71	423.24
486.07	424.52
486.44	423.64
486.80	425.31
487.17	426.90
487.53	429.55
487.90	431.86
488.26	435.10
488.62	438.26
488.99	439.81
489.35	442.71
489.72	445.76
490.08	448.00
490.44	450.76
490.81	454.07
491.17	456.90
491.54	460.55
491.90	463.88
492.26	467.48
492.63	470.93
492.99	473.67
493.36	477.88
493.72	482.24
494.08	487.12
494.45	491.67
494.81	496.71
495.17	500.71
495.54	506.31
495.90	510.45
496.26	514.83
496.63	520.50
496.99	525.38
497.35	531.33
497.72	537.38
498.08	543.19
498.44	549.36
498.80	555.64
499.17	562.10
499.53	568.40
499.89	575.14
500.26	582.05
500.62	589.52
500.98	596.93
501.34	603.90
501.71	611.12
502.07	618.12
502.43	625.12
502.79	632.43
503.16	639.07
503.52	646.31
503.88	653.60
504.24	661.02
504.60	668.74
504.97	676.52
505.33	683.74
505.69	692.33
506.05	699.79
506.41	707.43
506.78	714.33
507.14	721.90
507.50	729.67
507.86	737.24
508.22	744.90
508.59	751.31
508.95	759.21
509.31	767.79
509.67	775.50
510.03	783.02
510.39	790.79
510.75	798.26
511.12	806.10
511.48	813.98
511.84	820.95
512.20	829.07
512.56	836.00
512.92	844.31
513.28	851.64
513.64	858.90
514.00	866.31
514.37	874.00
514.73	881.52
515.09	889.36
515.45	897.17
515.81	904.12
516.17	911.05
516.53	917.57
516.89	922.81
517.25	929.88
517.61	936.95
517.97	943.86
518.33	950.26
518.69	956.48
519.05	963.07
519.41	970.33
519.77	977.33
520.13	982.86
520.49	988.29
520.85	993.62
521.21	1000.48
521.57	1006.36
521.93	1011.40
522.29	1016.76
522.65	1020.74
523.01	1025.88
523.37	1031.14
523.73	1036.55
524.09	1041.83
524.45	1046.62
524.81	1051.45
525.17	1056.17
525.53	1060.36
525.89	1065.45
526.25	1070.43
526.61	1074.69
526.97	1078.43
527.33	1081.48
527.68	1088.29
528.04	1092.81
528.40	1097.55
528.76	1101.31
529.12	1105.14
529.48	1110.86
529.84	1114.86
530.20	1119.86
530.56	1124.07
530.91	1128.71
531.27	1133.43
531.63	1137.31
531.99	1141.83
532.35	1145.83
532.71	1149.71
533.07	1153.71
533.42	1159.50
533.78	1163.67
534.14	1167.60
534.50	1171.69
534.86	1176.57
535.21	1179.12
535.57	1183.62
535.93	1187.12
536.29	1191.79
536.65	1196.64
537.00	1199.50
537.36	1203.43
537.72	1206.90
538.08	1210.48
538.44	1213.12
538.79	1216.69
539.15	1220.10
539.51	1224.05
539.87	1227.83
540.22	1231.55
540.58	1235.10
540.94	1237.14
541.29	1240.33
541.65	1242.83
542.01	1246.05
542.37	1248.52
542.72	1250.05
543.08	1251.76
543.44	1254.52
543.79	1255.31
544.15	1257.21
544.51	1259.71
544.87	1262.67
545.22	1265.76
545.58	1267.95
545.94	1270.62
546.29	1273.14
546.65	1275.43
547.01	1277.48
547.36	1279.83
547.72	1281.90
548.07	1284.69
548.43	1286.50
548.79	1288.48
549.14	1291.86
549.50	1294.90
549.86	1296.14
550.21	1299.71
550.57	1303.24
550.92	1305.40
551.28	1309.79
551.64	1312.57
551.99	1316.43
552.35	1318.88
552.70	1321.33
553.06	1325.17
553.41	1328.67
553.77	1333.10
554.13	1336.83
554.48	1341.79
554.84	1345.60
555.19	1349.24
555.55	1354.55
555.90	1358.40
556.26	1362.05
556.61	1364.88
556.97	1367.67
557.32	1372.45
557.68	1376.67
558.03	1380.10
558.39	1384.45
558.74	1386.74
559.10	1390.98
559.45	1394.71
559.81	1399.02
560.16	1403.55
560.52	1407.45
560.87	1411.60
561.23	1414.50
561.58	1420.19
561.94	1422.98
562.29	1426.98
562.64	1432.00
563.00	1435.14
563.35	1440.07
563.71	1445.17
564.06	1451.05
564.42	1456.60
564.77	1461.62
565.12	1466.74
565.48	1473.93
565.83	1479.86
566.19	1486.57
566.54	1492.40
566.89	1497.71
567.25	1505.00
567.60	1512.05
567.96	1519.95
568.31	1526.98
568.66	1534.05
569.02	1538.12
569.37	1544.05
569.72	1550.57
570.08	1555.57
570.43	1560.52
570.78	1566.38
571.14	1573.10
571.49	1577.93
571.84	1583.69
572.20	1589.81
572.55	1595.07
572.90	1599.10
573.26	1603.36
573.61	1607.74
573.96	1612.40
574.31	1616.93
574.67	1619.71
575.02	1622.57
575.37	1624.48
575.72	1627.95
576.08	1631.36
576.43	1636.02
576.78	1638.52
577.13	1641.71
577.49	1645.83
577.84	1650.86
578.19	1654.02
578.54	1656.31
578.90	1660.29
579.25	1663.57
579.60	1665.86
579.95	1668.26
580.30	1672.14
580.66	1676.64
581.01	1679.93
581.36	1682.79
581.71	1686.12
582.06	1690.76
582.42	1694.74
582.77	1698.00
583.12	1701.29
583.47	1704.45
583.82	1707.50
584.17	1711.81
584.53	1715.60
584.88	1718.45
585.23	1721.86
585.58	1725.26
585.93	1728.52
586.28	1730.98
586.63	1734.33
586.98	1737.52
587.34	1741.83
587.69	1742.69
588.04	1744.74
588.39	1747.36
588.74	1749.05
589.09	1750.79
589.44	1751.07
589.79	1753.00
590.14	1755.55
590.49	1756.33
590.84	1757.50
591.19	1759.43
591.54	1761.05
591.89	1761.93
592.25	1765.17
592.60	1765.12
592.95	1765.81
593.30	1767.29
593.65	1768.81
594.00	1768.17
594.35	1774.29
594.70	1774.02
595.05	1776.45
595.40	1777.17
595.75	1777.17
596.10	1779.31
596.45	1781.00
596.80	1781.98
597.15	1782.36
597.50	1782.29
597.85	1784.29
598.19	1784.14
598.54	1783.31
598.89	1783.52
599.24	1784.36
599.59	1783.40
599.94	1783.98
600.29	1784.29
600.64	1783.45
600.99	1783.62
601.34	1785.40
601.69	1780.29
602.04	1778.67
602.39	1777.14
602.74	1777.12
603.08	1777.12
603.43	1776.50
603.78	1775.62
604.13	1775.93
604.48	1774.64
604.83	1774.43
605.18	1773.07
605.53	1773.07
605.87	1772.45
606.22	1771.43
606.57	1769.62
606.92	1768.02
607.27	1766.52
607.62	1765.83
607.96	1766.14
608.31	1765.24
608.66	1763.36
609.01	1762.02
609.36	1762.33
609.70	1760.98
610.05	1758.98
610.40	1757.83
610.75	1756.21
611.10	1754.90
611.44	1752.02
611.79	1749.98
612.14	1747.29
612.49	1744.48
612.83	1742.05
613.18	1739.29
613.53	1736.74
613.88	1732.71
614.22	1729.76
614.57	1726.02
614.92	1722.29
615.27	1718.02
615.61	1713.07
615.96	1709.57
616.31	1706.19
616.65	1703.74
617.00	1701.26
617.35	1697.90
617.70	1694.05
618.04	1689.83
618.39	1685.19
618.74	1681.67
619.08	1677.67
619.43	1674.45
619.78	1671.05
620.12	1667.19
620.47	1664.05
620.82	1659.26
621.16	1655.52
621.51	1652.69
621.85	1648.95
622.20	1644.45
622.55	1639.67
622.89	1636.86
623.24	1633.60
623.59	1629.19
623.93	1624.45
624.28	1619.79
624.62	1617.64
624.97	1614.60
625.32	1609.86
625.66	1606.74
626.01	1602.95
626.35	1600.10
626.70	1596.07
627.04	1592.33
627.39	1588.88
627.73	1585.79
628.08	1582.93
628.43	1579.05
628.77	1574.02
629.12	1571.31
629.46	1568.62
629.81	1565.40
630.15	1561.07
630.50	1556.10
630.84	1552.00
631.19	1546.00
631.53	1541.38
631.88	1534.12
632.22	1528.26
632.57	1525.33
632.91	1519.83
633.26	1515.48
633.60	1510.33
633.95	1504.86
634.29	1499.07
634.64	1495.21
634.98	1489.40
635.32	1485.88
635.67	1482.74
636.01	1478.52
636.36	1473.05
636.70	1468.07
637.05	1464.05
637.39	1459.86
637.73	1455.36
638.08	1451.86
638.42	1449.07
638.77	1444.69
639.11	1440.50
639.45	1435.52
639.80	1429.90
640.14	1425.43
640.49	1419.31
640.83	1413.40
641.17	1408.64
641.52	1403.90
641.86	1397.31
642.20	1393.43
642.55	1387.07
642.89	1381.12
643.23	1375.48
643.58	1370.86
643.92	1364.81
644.26	1358.86
644.61	1353.17
644.95	1347.55
645.29	1340.57
645.64	1334.62
645.98	1328.36
646.32	1322.64
646.66	1316.55
647.01	1310.50
647.35	1304.86
647.69	1299.57
648.04	1294.21
648.38	1288.17
648.72	1282.33
649.06	1276.60
649.41	1269.74
649.75	1263.10
650.09	1256.98
650.43	1250.43
650.78	1243.33
651.12	1237.00
651.46	1229.86
651.80	1222.88
652.14	1216.24
652.49	1210.67
652.83	1204.24
653.17	1197.19
653.51	1191.00
653.85	1185.64
654.20	1179.71
654.54	1172.14
654.88	1165.26
655.22	1159.38
655.56	1153.29
655.90	1147.64
656.25	1140.26
656.59	1134.48
656.93	1128.10
657.27	1122.79
657.61	1116.02
657.95	1110.55
658.29	1104.17
658.64	1098.69
658.98	1092.05
659.32	1085.24
659.66	1078.19
660.00	1072.17
660.34	1066.38
660.68	1059.71
661.02	1052.48
661.36	1045.79
661.70	1039.95
662.05	1034.38
662.39	1028.69
662.73	1022.69
663.07	1017.17
663.41	1011.67
663.75	1005.05
664.09	998.83
664.43	991.79
664.77	986.45
665.11	979.50
665.45	973.76
665.79	967.69
666.13	961.86
666.47	956.10
666.81	950.50
667.15	943.90
667.49	938.90
667.83	933.93
668.17	928.50
668.51	923.17
668.85	918.24
669.19	913.57
669.53	906.40
669.87	899.79
670.21	893.21
670.55	887.05
670.89	881.55
671.23	876.62
671.57	871.26
671.91	865.95
672.25	861.02
672.58	855.83
672.92	850.79
673.26	845.26
673.60	840.17
673.94	834.98
674.28	830.31
674.62	825.21
674.96	819.43
675.30	814.88
675.64	809.38
675.97	803.67
676.31	797.64
676.65	792.83
676.99	789.26
677.33	783.98
677.67	780.07
678.01	774.62
678.34	769.64
678.68	764.76
679.02	759.02
679.36	753.26
679.70	747.74
680.04	742.21
680.37	737.50
680.71	732.48
681.05	727.74
681.39	723.02
681.73	717.95
682.06	713.40
682.40	708.98
682.74	704.33
683.08	700.45
683.42	695.55
683.75	691.57
684.09	686.45
684.43	681.52
684.77	676.48
685.10	672.24
685.44	667.57
685.78	663.05
686.12	659.29
686.45	655.10
686.79	650.81
687.13	647.05
687.46	642.74
687.80	639.24
688.14	634.79
688.48	630.45
688.81	626.12
689.15	622.24
689.49	617.10
689.82	612.79
690.16	607.67
690.50	603.67
690.83	598.79
691.17	593.79
691.51	589.76
691.84	585.88
692.18	581.17
692.52	577.29
692.85	573.50
693.19	570.05
693.52	565.64
693.86	561.79
694.20	557.45
694.53	554.00
694.87	549.21
695.21	544.93
695.54	541.02
695.88	536.48
696.21	531.52
696.55	528.24
696.88	524.38
697.22	520.98
697.56	517.86
697.89	514.36
698.23	511.05
698.56	507.40
698.90	503.93
699.23	500.98
699.57	497.36
699.90	493.57
700.24	489.62
700.58	486.24
700.91	483.43
701.25	481.69
701.58	479.00
701.92	476.81
702.25	473.98
702.59	470.55
702.92	467.83
703.26	465.52
703.59	462.43
703.93	461.31
704.26	458.45
704.60	455.24
704.93	452.10
705.26	449.60
705.60	447.29
705.93	443.76
706.27	441.21
706.60	439.14
706.94	437.12
707.27	434.12
707.61	432.17
707.94	429.12
708.27	425.48
708.61	422.07
708.94	419.10
709.28	416.60
709.61	413.86
709.94	411.74
710.28	409.36
710.61	407.10
710.95	402.76
711.28	401.86
711.61	399.33
711.95	398.02
712.28	395.17
712.61	392.74
712.95	391.88
713.28	390.45
713.61	387.74
713.95	385.14
714.28	383.14
714.61	380.83
714.95	378.60
715.28	375.69
715.61	373.76
715.95	371.79
716.28	369.67
716.61	368.19
716.95	365.57
717.28	363.69
717.61	361.31
717.94	359.62
718.28	356.40
718.61	354.40
718.94	352.07
719.27	350.52
719.61	348.81
719.94	346.26
720.27	343.43
720.60	341.71
720.94	339.93
721.27	338.40
721.60	336.93
721.93	335.33
722.27	334.64
722.60	333.26
722.93	331.71
723.26	330.55
723.59	328.90
723.93	328.07
724.26	326.67
724.59	325.52
724.92	324.45
725.25	323.38
725.59	322.17
725.92	321.19
726.25	320.02
726.58	318.93
726.91	317.86
727.24	317.00
727.57	315.67
727.91	314.31
728.24	313.50
728.57	312.19
728.90	311.48
729.23	309.57
729.56	309.26
729.89	308.00
730.22	306.50
730.55	305.33
730.89	304.07
731.22	302.88
731.55	301.83
731.88	300.74
732.21	299.43
732.54	298.50
732.87	297.26
733.20	296.43
733.53	295.55
733.86	294.81
734.19	293.21
734.52	292.95
734.85	293.40
735.18	291.86
735.51	291.69
735.84	291.07
736.17	290.95
736.50	289.12
736.83	290.79
737.16	290.21
737.49	289.55
737.82	288.86
738.15	288.26
738.48	287.19
738.81	286.29
739.14	285.52
739.47	284.52
739.80	283.67
740.13	283.26
740.46	282.26
740.79	281.10
741.12	280.57
741.45	279.24
741.78	277.38
742.11	277.50
742.44	276.02
742.77	275.38
743.10	274.33
743.43	273.71
743.75	270.62
744.08	272.38
744.41	271.31
744.74	270.60
745.07	269.36
745.40	269.29
745.73	269.60
746.06	269.10
746.39	269.00
746.71	268.31
747.04	267.07
747.37	266.17
747.70	266.02
748.03	265.64
748.36	265.50
748.68	265.17
749.01	263.71
749.34	263.48
749.67	262.79
750.00	262.38
750.33	263.36
750.65	263.10
750.98	260.24
751.31	260.07
751.64	259.31
751.97	260.19
752.29	259.74
752.62	258.05
752.95	257.14
753.28	256.29
753.60	255.88
753.93	256.14
754.26	255.81
754.59	254.69
754.91	253.83
755.24	252.95
755.57	252.19
755.90	251.95
756.22	251.43
756.55	250.38
756.88	249.60
757.20	247.62
757.53	246.52
757.86	245.95
758.19	245.38
758.51	245.26
758.84	243.74
759.17	243.05
759.49	242.62
759.82	243.26
760.15	243.24
760.47	242.74
760.80	241.62
761.13	241.71
761.45	241.12
761.78	240.98
762.11	240.38
762.43	239.90
762.76	239.33
763.08	239.10
763.41	239.33
763.74	239.02
764.06	238.79
764.39	238.79
764.71	238.33
765.04	237.83
765.37	237.19
765.69	236.69
766.02	236.21
766.34	235.88
766.67	234.71
767.00	234.38
767.32	235.10
767.65	236.14
767.97	235.55
768.30	235.64
768.62	235.26
768.95	235.05
769.27	234.67
769.60	234.98
769.92	234.24
770.25	233.62
770.57	232.86
770.90	232.60
771.22	232.19
771.55	232.02
771.87	232.12
772.20	231.93
772.52	233.48
772.85	235.83
773.17	235.95
773.50	235.38
773.82	234.93
774.15	233.71
774.47	232.14
774.80	231.69
775.12	231.40
775.45	231.43
775.77	231.67
776.09	231.81
776.42	231.31
776.74	231.83
777.07	231.62
777.39	231.88
777.72	231.69
778.04	231.71
778.36	231.19
778.69	230.74
779.01	230.81
779.33	229.10
779.66	226.43
779.98	226.02
780.31	226.17
780.63	226.86
780.95	227.45
781.28	227.40
781.60	227.29
781.92	226.83
782.25	226.67
782.57	226.14
782.89	225.60
783.22	225.50
783.54	224.76
783.86	224.64
784.19	224.52
784.51	224.81
784.83	224.33
785.16	224.64
785.48	224.81
785.80	224.69
786.12	224.76
786.45	224.79
786.77	224.79
787.09	224.55
787.42	223.67
787.74	223.33
788.06	223.12
788.38	222.83
788.71	222.98
789.03	222.71
789.35	222.98
789.67	223.10
789.99	223.17
790.32	223.05
790.64	223.24
790.96	224.67
791.28	224.10
791.61	224.00
791.93	223.90
792.25	223.52
792.57	224.69
792.89	224.07
793.21	224.19
793.54	223.71
793.86	223.74
794.18	223.90
794.50	223.69
794.82	223.76
795.14	224.14
795.47	224.29
795.79	224.24
796.11	223.79
796.43	223.48
796.75	223.14
797.07	223.07
797.39	222.67
797.71	221.24
798.04	221.17
798.36	221.26
798.68	221.07
799.00	221.19
799.32	220.00
799.64	220.43
799.96	220.19
800.28	220.71
800.60	220.60
800.92	220.69
801.24	220.33
801.56	220.33
801.89	220.10
802.21	220.29
802.53	220.10
802.85	220.45
803.17	221.14
803.49	220.67
803.81	220.62
804.13	220.52
804.45	220.00
804.77	220.07
805.09	219.95
805.41	219.83
805.73	219.60
806.05	219.17
806.37	218.76
806.69	218.69
807.01	218.55
807.33	218.38
807.65	217.60
807.97	218.21
808.28	218.12
808.60	217.98
808.92	217.57
809.24	218.69
809.56	218.26
809.88	217.62
810.20	218.05
810.52	218.33
810.84	218.26
811.16	218.12
811.48	217.88
811.80	218.50
812.12	218.31
812.43	218.48
812.75	218.55
813.07	218.26
813.39	218.14
813.71	217.81
814.03	217.83
814.35	218.02
814.67	217.40
814.98	217.00
815.30	216.83
815.62	216.33
815.94	215.12
816.26	215.17
816.58	214.81
816.89	214.71
817.21	214.21
817.53	214.05
817.85	214.26
818.17	214.26
818.48	213.69
818.80	214.29
819.12	214.00
819.44	213.86
819.76	213.76
820.07	213.71
820.39	213.74
820.71	213.83
821.03	213.83
821.34	213.64
821.66	214.12
821.98	214.33
822.30	214.50
822.61	215.55
822.93	215.17
823.25	215.07
823.57	214.76
823.88	215.21
824.20	215.45
824.52	215.86
824.83	215.90
825.15	215.43
825.47	215.19
825.79	215.57
826.10	215.31
826.42	215.29
826.74	215.71
827.05	215.69
827.37	215.62
827.69	215.26
828.00	215.24
828.32	215.05
828.64	214.79
828.95	215.81
829.27	215.14
829.58	215.26
829.90	215.67
830.22	216.05
830.53	215.67
830.85	215.19
831.17	214.64
831.48	214.57
831.80	214.69
832.11	214.43
832.43	213.90
832.75	213.95
833.06	215.36
833.38	214.45
833.69	214.45
834.01	214.57
834.32	214.57
834.64	214.55
834.96	214.43
835.27	214.55
835.59	213.71
835.90	213.52
836.22	213.83
836.53	213.24
836.85	213.24
837.16	214.95
837.48	215.21
837.79	216.14
838.11	215.95
838.42	215.64
838.74	215.90
839.05	215.79
839.37	215.76
839.68	214.38
840.00	214.43
840.31	214.60
840.63	214.43
840.94	214.26
841.26	214.07
841.57	214.19
841.88	214.14
842.20	214.00
842.51	213.62
842.83	213.55
843.14	215.62
843.46	215.36
843.77	214.48
844.08	214.31
844.40	213.45
844.71	213.45
845.03	213.38
845.34	213.33
845.65	213.31
845.97	213.31
846.28	213.60
846.60	214.00
846.91	213.62
847.22	213.40
847.54	214.00
847.85	214.21
848.16	214.21
848.48	213.98
848.79	214.88
849.10	215.14
849.42	215.02
849.73	213.19
850.04	213.21
850.36	212.62
850.67	213.10
850.98	213.19
851.30	213.19
851.61	213.55
851.92	213.43
852.23	214.26
852.55	214.40
852.86	214.50
853.17	214.64
853.49	215.10
853.80	215.60
854.11	215.52
854.42	215.69
854.74	215.29
855.05	215.21
855.36	214.10
855.67	214.05
855.99	214.24
856.30	216.88
856.61	216.98
856.92	216.81
857.23	216.45
857.55	216.45
857.86	216.60
858.17	216.79
858.48	216.50
858.79	216.00
859.11	216.26
859.42	215.93
859.73	215.50
860.04	215.38
860.35	214.81
860.66	214.29
860.98	214.21
861.29	214.40
861.60	214.50
861.91	215.05
862.22	214.90
862.53	214.36
862.84	211.67
863.16	211.81
863.47	211.48
863.78	211.48
864.09	211.31
864.40	211.43
864.71	211.48
865.02	211.57
865.33	211.31
865.64	210.86
865.95	210.88
866.27	212.05
866.58	211.86
866.89	212.07
867.20	212.05
867.51	211.55
867.82	211.62
868.13	212.33
868.44	211.83
868.75	212.31
869.06	212.48
869.37	212.62
869.68	212.00
869.99	212.40
870.30	212.48
870.61	212.69
870.92	212.19
871.23	212.05
871.54	212.31
871.85	212.64
872.16	213.02
872.47	212.98
872.78	211.98
873.09	212.19
873.40	212.29
873.71	212.48
874.02	212.69
874.33	212.50
874.64	211.81
874.95	212.17
875.26	211.55
875.56	211.55
875.87	211.48
876.18	211.57
876.49	213.57
876.80	213.45
877.11	213.02
877.42	213.29
877.73	213.19
878.04	212.95
878.35	213.10
878.66	213.02
878.96	212.69
879.27	212.55
879.58	212.48
879.89	211.90
880.20	212.48
880.51	212.55
880.82	212.40
881.12	212.45
881.43	212.12
881.74	212.07
882.05	212.07
882.36	212.33
882.67	212.55
882.97	210.19
883.28	210.21
883.59	210.14
883.90	210.29
884.21	210.52
884.51	210.48
884.82	210.02
885.13	210.02
885.44	210.31
885.74	210.26
886.05	210.12
886.36	210.48
886.67	209.60
886.98	210.60
887.28	210.95
887.59	211.05
887.90	211.21
888.20	211.24
888.51	211.60
888.82	211.21
889.13	211.33
889.43	213.10
889.74	212.90
890.05	213.26
890.35	213.00
890.66	212.76
890.97	212.33
891.28	212.31
891.58	212.17
891.89	212.10
892.20	212.12
892.50	212.00
892.81	211.98
893.12	212.07
893.42	211.10
893.73	211.02
894.04	211.02
894.34	211.12
894.65	211.00
894.95	210.64
895.26	210.93
895.57	211.67
895.87	210.12
896.18	210.48
896.48	210.33
896.79	210.38
897.10	210.71
897.40	210.98
897.71	211.36
898.01	211.52
898.32	212.07
898.63	211.86
898.93	212.07
899.24	212.14
899.54	212.24
899.85	212.12
900.15	212.29
900.46	212.36
900.76	212.45
901.07	212.45
901.38	212.57
901.68	212.69
901.99	211.83
902.29	211.86
902.60	211.79
902.90	211.69
903.21	211.62
903.51	211.24
903.82	211.69
904.12	211.62
904.43	211.79
904.73	211.57
905.03	211.88
905.34	213.50
905.64	213.36
905.95	213.38
906.25	213.38
906.56	213.14
906.86	213.12
907.17	213.12
907.47	213.26
907.77	213.00
908.08	212.71
908.38	212.74
908.69	212.81
908.99	213.05
909.30	213.21
909.60	213.31
909.90	213.76
910.21	213.12
910.51	212.83
910.81	212.55
911.12	212.62
911.42	212.64
911.73	210.74
912.03	211.05
912.33	211.36
912.64	211.48
912.94	211.14
913.24	210.81
913.55	210.43
913.85	210.40
914.15	210.90
914.46	211.07
914.76	210.90
915.06	210.83
915.37	210.55
915.67	210.29
915.97	210.24
916.27	209.57
916.58	209.83
916.88	209.93
917.18	209.74
917.49	210.95
917.79	210.74
918.09	211.10
918.39	211.55
918.70	211.45
919.00	211.38
919.30	212.43
919.60	212.19
919.91	212.00
920.21	211.90
920.51	211.55
920.81	211.50
921.12	211.93
921.42	212.00
921.72	212.00
922.02	212.43
922.32	212.62
922.63	212.81
922.93	213.74
923.23	213.69
923.53	213.69
923.83	212.43
924.13	212.64
924.44	212.57
924.74	212.60
925.04	213.07
925.34	212.86
925.64	212.00
925.94	212.24
926.24	213.40
926.55	213.31
926.85	213.43
927.15	213.31
927.45	212.88
927.75	212.71
928.05	212.71
928.35	212.31
928.65	212.93
928.95	213.26
929.26	212.52
929.56	212.76
929.86	212.98
930.16	212.76
930.46	212.93
930.76	213.17
931.06	212.36
931.36	211.64
931.66	212.21
931.96	212.67
932.26	212.90
932.56	212.14
932.86	212.52
933.16	212.60
933.46	212.43
933.76	212.48
934.06	213.02
934.36	213.81
934.66	214.05
934.96	213.90
935.26	213.79
935.56	214.21
935.86	213.90
936.16	213.90
936.46	213.93
936.76	213.67
937.06	213.17
937.36	213.33
937.66	213.74
937.96	213.52
938.26	213.12
938.56	212.98
938.86	213.24
939.16	213.52
939.46	213.90
939.76	214.07
940.06	214.12
940.35	213.48
940.65	212.55
940.95	212.62
941.25	211.76
941.55	211.64
941.85	211.60
942.15	212.24
942.45	212.57
942.75	212.40
943.04	212.55
943.34	212.90
943.64	212.71
943.94	212.52
944.24	212.45
944.54	212.38
944.84	212.17
945.13	211.52
945.43	211.21
945.73	210.86
946.03	210.57
946.33	210.45
946.62	210.55
946.92	210.48
947.22	210.60
947.52	210.88
947.82	211.14
948.11	210.71
948.41	209.98
948.71	209.52
949.01	209.52
949.31	209.14
949.60	209.17
949.90	209.50
950.20	209.33
950.50	209.31
950.79	209.40
951.09	209.69
951.39	209.95
951.69	209.71
951.98	210.24
952.28	210.67
952.58	210.55
952.87	210.60
953.17	210.76
953.47	210.52
953.76	210.40
954.06	209.98
954.36	209.79
954.66	210.00
954.95	210.55
955.25	210.83
955.55	211.17
955.84	210.67
956.14	210.86
956.44	210.90
956.73	210.69
957.03	210.81
957.32	210.95
957.62	210.71
957.92	211.02
958.21	210.74
958.51	213.21
958.81	213.43
959.10	213.52
959.40	214.12
959.69	214.00
959.99	214.29
960.29	214.38
960.58	214.45
960.88	215.02
961.17	214.81
961.47	215.10
961.76	214.81
962.06	215.55
962.36	215.14
962.65	215.07
962.95	215.31
963.24	215.14
963.54	215.07
963.83	215.48
964.13	215.45
964.42	214.93
964.72	212.98
965.01	213.02
965.31	212.95
965.60	212.40
965.90	213.76
966.19	213.43
966.49	213.40
966.78	213.31
967.08	213.07
967.37	212.86
967.67	212.52
967.96	213.00
968.26	212.60
968.55	213.05
968.85	213.12
969.14	213.12
969.43	213.17
969.73	213.00
970.02	212.76
970.32	212.71
970.61	212.74
970.91	212.12
971.20	211.98
971.49	211.69
971.79	211.67
972.08	210.36
972.38	210.45
972.67	210.33
972.96	210.79
973.26	210.38
973.55	211.12
973.85	211.10
974.14	210.88
974.43	211.24
974.73	210.81
975.02	210.48
975.31	210.38
975.61	210.57
975.90	210.19
976.19	210.10
976.49	210.24
976.78	210.14
977.07	210.21
977.37	210.38
977.66	210.79
977.95	210.67
978.24	210.90
978.54	211.19
978.83	211.19
979.12	210.71
979.42	210.76
979.71	210.10
980.00	209.93
980.29	209.81
980.59	209.14
980.88	209.71
981.17	209.88
981.46	209.88
981.76	209.64
982.05	210.52
982.34	210.64
982.63	210.60
982.93	210.98
983.22	211.69
983.51	211.55
983.80	211.69
984.09	212.00
984.39	211.95
984.68	212.00
984.97	211.90
985.26	211.90
985.55	212.12
985.85	211.69
986.14	212.17
986.43	212.40
986.72	212.43
987.01	211.76
987.30	211.79
987.59	211.69
987.89	211.64
988.18	211.05
988.47	210.69
988.76	210.60
989.05	210.26
989.34	209.64
989.63	210.07
989.92	209.81
990.22	209.62
990.51	209.36
990.80	209.14
991.09	209.57
991.38	209.90
991.67	209.67
991.96	209.71
992.25	209.67
992.54	209.55
992.83	209.64
993.12	209.48
993.41	209.95
993.70	210.88
993.99	211.40
994.28	211.71
994.58	212.26
994.87	212.12
995.16	212.12
995.45	211.79
995.74	211.38
996.03	211.60
996.32	211.79
996.61	212.45
996.90	212.33
997.19	212.33
997.48	212.19
997.77	212.07
998.06	212.43
998.34	212.12
998.63	211.93
998.92	211.95
999.21	212.62
999.50	212.55
999.79	211.71
1000.08	211.52
1000.37	211.64
1000.66	211.43
1000.95	211.76
1001.24	212.07
1001.53	212.31
1001.82	212.10
1002.11	211.64
1002.40	211.90
1002.68	212.10
1002.97	213.71
1003.26	213.43
1003.55	213.33
1003.84	213.52
1004.13	214.17
1004.42	214.17
1004.71	214.17
1004.99	214.17
1005.28	214.48
1005.57	214.24
1005.86	214.02
1006.15	214.00
1006.44	213.62
1006.72	213.64
1007.01	213.60
1007.30	213.26
1007.59	213.24
1007.88	213.50
1008.17	213.69
1008.45	213.14
1008.74	212.29
1009.03	211.19
1009.32	211.14
1009.60	210.83
1009.89	210.45
1010.18	209.64
1010.47	209.40
1010.76	209.57
1011.04	209.52
1011.33	209.57
1011.62	209.67
1011.91	210.00
1012.19	209.86
1012.48	210.05
1012.77	209.95
1013.05	210.88
1013.34	210.95
1013.63	210.88
1013.92	210.88
1014.20	210.74
1014.49	210.95
1014.78	211.21
1015.06	210.62
1015.35	210.38
1015.64	210.90
1015.92	211.33
1016.21	211.19
1016.50	211.19
1016.78	211.24
1017.07	211.26
1017.36	210.64
1017.64	210.19
1017.93	210.26
1018.22	210.19
1018.50	209.81
1018.79	210.17
1019.08	208.81
1019.36	208.86
1019.65	208.67
1019.93	208.95
1020.22	209.17
1020.51	210.05
1020.79	209.64
1021.08	208.00
1021.36	203.50
1021.65	215.00
1021.94	205.00
1022.22	208.50
1022.51	206.00
1022.79	216.50
1023.08	211.50
1023.36	232.00
1023.65	203.00
>>>>>End Processed Spectral Data<<<<<
