SpectraSuite Data File
++++++++++++++++++++++++++++++++++++
Date: Tue Apr 02 18:41:40 EDT 2013
User: group
Dark Spectrum Present: No
Reference Spectrum Present: No
Number of Sampled Component Spectra: 1
Spectrometers: USB2E7196
Integration Time (usec): 580000 (USB2E7196)
Spectra Averaged: 2 (USB2E7196)
Boxcar Smoothing: 10 (USB2E7196)
Correct for Electrical Dark: No (USB2E7196)
Strobe/Lamp Enabled: No (USB2E7196)
Correct for Detector Non-linearity: No (USB2E7196)
Correct for Stray Light: No (USB2E7196)
Number of Pixels in Processed Spectrum: 2048
>>>>>Begin Processed Spectral Data<<<<<
339.09	0.00
339.48	190.00
339.86	194.00
340.24	191.00
340.63	194.50
341.01	230.00
341.39	200.00
341.78	208.00
342.16	210.00
342.54	201.50
342.93	196.33
343.31	205.90
343.69	206.64
344.07	207.14
344.46	208.29
344.84	209.10
345.22	207.98
345.60	208.29
345.99	208.40
346.37	208.48
346.75	208.86
347.13	209.05
347.52	209.50
347.90	210.40
348.28	210.71
348.66	211.07
349.05	210.57
349.43	211.29
349.81	211.48
350.19	211.64
350.57	211.86
350.96	212.07
351.34	212.52
351.72	212.90
352.10	213.19
352.48	213.00
352.87	212.98
353.25	213.12
353.63	213.26
354.01	213.43
354.39	213.62
354.77	213.64
355.15	214.43
355.54	214.17
355.92	213.52
356.30	213.69
356.68	215.26
357.06	215.48
357.44	215.12
357.82	215.31
358.20	216.33
358.58	216.17
358.97	216.31
359.35	216.86
359.73	217.19
360.11	217.21
360.49	217.21
360.87	217.12
361.25	217.29
361.63	218.10
362.01	218.05
362.39	217.98
362.77	218.02
363.15	217.60
363.53	217.79
363.91	218.02
364.29	217.79
364.67	215.76
365.05	215.74
365.43	216.19
365.81	216.19
366.19	216.07
366.57	217.00
366.95	216.76
367.33	216.24
367.71	216.05
368.09	216.43
368.47	216.52
368.85	216.57
369.23	217.26
369.61	216.26
369.99	216.95
370.37	217.10
370.75	218.10
371.13	217.81
371.51	217.43
371.89	217.19
372.27	217.36
372.65	217.31
373.03	216.90
373.41	216.40
373.78	216.45
374.16	215.67
374.54	214.86
374.92	214.79
375.30	214.90
375.68	214.55
376.06	214.60
376.44	214.60
376.82	214.79
377.19	214.48
377.57	214.45
377.95	213.55
378.33	213.38
378.71	212.12
379.09	212.40
379.47	212.69
379.84	212.79
380.22	212.48
380.60	212.33
380.98	212.55
381.36	212.50
381.73	212.07
382.11	212.36
382.49	212.50
382.87	212.07
383.25	211.76
383.62	213.83
384.00	213.38
384.38	213.33
384.76	213.90
385.13	214.71
385.51	214.79
385.89	214.83
386.27	214.86
386.64	215.24
387.02	214.86
387.40	214.36
387.78	214.24
388.15	214.60
388.53	214.45
388.91	214.38
389.29	214.40
389.66	214.90
390.04	214.40
390.42	214.69
390.79	214.93
391.17	215.21
391.55	213.19
391.92	213.00
392.30	212.88
392.68	212.12
393.05	211.62
393.43	211.57
393.81	211.43
394.18	211.10
394.56	211.17
394.94	211.83
395.31	212.07
395.69	212.83
396.06	213.07
396.44	213.29
396.82	213.29
397.19	214.26
397.57	213.76
397.95	214.38
398.32	213.74
398.70	214.10
399.07	214.57
399.45	214.67
399.82	214.98
400.20	215.12
400.58	215.14
400.95	214.43
401.33	215.05
401.70	216.86
402.08	217.02
402.45	217.00
402.83	217.26
403.20	217.52
403.58	217.24
403.95	217.64
404.33	218.17
404.71	218.38
405.08	219.67
405.46	220.19
405.83	220.69
406.21	221.24
406.58	221.76
406.96	221.79
407.33	222.48
407.70	223.07
408.08	225.36
408.45	226.50
408.83	227.71
409.20	228.31
409.58	227.76
409.95	229.00
410.33	229.95
410.70	230.21
411.08	231.36
411.45	232.57
411.82	233.07
412.20	234.45
412.57	236.90
412.95	236.55
413.32	238.40
413.69	239.62
414.07	241.40
414.44	243.14
414.82	245.24
415.19	247.79
415.56	250.17
415.94	251.17
416.31	254.12
416.68	256.93
417.06	259.90
417.43	263.67
417.81	267.52
418.18	271.52
418.55	275.60
418.93	279.69
419.30	283.90
419.67	288.26
420.04	293.12
420.42	297.36
420.79	304.67
421.16	310.21
421.54	317.29
421.91	323.50
422.28	329.74
422.66	336.83
423.03	344.69
423.40	351.64
423.77	359.14
424.15	366.10
424.52	373.98
424.89	383.05
425.26	390.83
425.64	398.31
426.01	406.67
426.38	416.17
426.75	425.83
427.13	435.45
427.50	445.74
427.87	455.95
428.24	466.45
428.61	474.74
428.99	486.31
429.36	497.12
429.73	508.31
430.10	520.40
430.47	531.81
430.85	542.38
431.22	555.21
431.59	570.57
431.96	584.14
432.33	598.40
432.70	612.21
433.08	628.57
433.45	644.19
433.82	659.98
434.19	676.57
434.56	693.57
434.93	709.62
435.30	725.88
435.68	743.40
436.05	760.79
436.42	778.00
436.79	794.43
437.16	811.67
437.53	830.24
437.90	848.26
438.27	866.24
438.64	885.21
439.01	902.95
439.38	917.14
439.75	931.95
440.13	948.90
440.50	965.12
440.87	977.83
441.24	991.05
441.61	1005.71
441.98	1017.60
442.35	1030.17
442.72	1043.24
443.09	1056.55
443.46	1064.69
443.83	1069.98
444.20	1074.62
444.57	1080.31
444.94	1083.57
445.31	1087.52
445.68	1092.95
446.05	1095.07
446.42	1093.55
446.79	1092.55
447.16	1090.76
447.53	1090.05
447.90	1083.79
448.27	1077.05
448.64	1068.62
449.01	1063.24
449.37	1052.31
449.74	1040.88
450.11	1029.60
450.48	1014.50
450.85	998.67
451.22	985.50
451.59	973.55
451.96	962.21
452.33	946.57
452.70	932.05
453.07	914.36
453.43	894.62
453.80	878.14
454.17	862.38
454.54	845.76
454.91	829.00
455.28	812.38
455.65	796.95
456.02	785.33
456.38	772.50
456.75	756.26
457.12	742.52
457.49	729.24
457.86	714.36
458.23	704.21
458.59	692.50
458.96	680.60
459.33	669.74
459.70	659.12
460.07	650.57
460.43	640.90
460.80	631.83
461.17	624.10
461.54	614.88
461.91	606.14
462.27	598.12
462.64	590.74
463.01	583.14
463.38	576.90
463.74	565.71
464.11	558.74
464.48	552.45
464.85	546.19
465.21	541.48
465.58	536.05
465.95	529.12
466.32	523.88
466.68	518.10
467.05	512.88
467.42	507.64
467.78	501.93
468.15	496.64
468.52	492.98
468.88	487.38
469.25	482.55
469.62	479.19
469.98	475.24
470.35	471.31
470.72	467.02
471.08	462.07
471.45	459.36
471.82	456.43
472.18	453.40
472.55	450.55
472.92	447.02
473.28	444.40
473.65	441.67
474.02	438.88
474.38	437.40
474.75	435.55
475.11	433.02
475.48	431.19
475.85	429.55
476.21	427.81
476.58	426.52
476.94	425.79
477.31	424.26
477.67	422.52
478.04	421.71
478.41	421.36
478.77	422.48
479.14	421.05
479.50	420.26
479.87	419.62
480.23	419.00
480.60	418.50
480.96	418.00
481.33	418.76
481.69	418.50
482.06	418.29
482.42	418.40
482.79	419.14
483.15	419.69
483.52	420.60
483.88	420.83
484.25	421.26
484.61	422.07
484.98	422.83
485.34	424.74
485.71	426.05
486.07	427.05
486.44	426.93
486.80	428.95
487.17	430.62
487.53	432.79
487.90	435.31
488.26	438.10
488.62	440.88
488.99	442.98
489.35	446.14
489.72	448.93
490.08	451.52
490.44	454.12
490.81	457.60
491.17	460.67
491.54	464.24
491.90	468.29
492.26	471.69
492.63	475.69
492.99	479.52
493.36	483.48
493.72	488.17
494.08	492.31
494.45	497.36
494.81	502.55
495.17	507.31
495.54	512.38
495.90	517.38
496.26	522.48
496.63	527.52
496.99	532.88
497.35	538.88
497.72	544.76
498.08	551.02
498.44	556.90
498.80	564.02
499.17	570.69
499.53	576.93
499.89	584.00
500.26	590.88
500.62	597.57
500.98	605.33
501.34	611.62
501.71	619.48
502.07	626.19
502.43	633.00
502.79	640.19
503.16	647.33
503.52	654.45
503.88	661.64
504.24	669.43
504.60	677.19
504.97	684.90
505.33	692.29
505.69	700.74
506.05	709.00
506.41	716.21
506.78	723.67
507.14	731.57
507.50	739.60
507.86	747.40
508.22	755.67
508.59	762.62
508.95	771.45
509.31	780.33
509.67	788.52
510.03	796.86
510.39	804.90
510.75	812.95
511.12	821.21
511.48	829.50
511.84	837.74
512.20	844.67
512.56	852.19
512.92	860.79
513.28	868.17
513.64	875.31
514.00	882.88
514.37	890.48
514.73	897.93
515.09	905.48
515.45	912.50
515.81	919.05
516.17	926.52
516.53	932.79
516.89	938.62
517.25	945.50
517.61	952.64
517.97	959.38
518.33	965.43
518.69	971.79
519.05	978.33
519.41	984.88
519.77	992.79
520.13	998.98
520.49	1004.76
520.85	1011.02
521.21	1017.74
521.57	1024.36
521.93	1029.33
522.29	1035.10
522.65	1039.98
523.01	1046.05
523.37	1051.86
523.73	1056.69
524.09	1062.48
524.45	1067.36
524.81	1072.17
525.17	1076.74
525.53	1081.45
525.89	1086.93
526.25	1091.83
526.61	1096.26
526.97	1100.00
527.33	1103.98
527.68	1109.93
528.04	1114.48
528.40	1118.52
528.76	1122.86
529.12	1126.02
529.48	1131.79
529.84	1135.98
530.20	1140.38
530.56	1145.14
530.91	1149.83
531.27	1155.19
531.63	1159.60
531.99	1163.52
532.35	1168.29
532.71	1172.36
533.07	1177.19
533.42	1183.90
533.78	1187.98
534.14	1192.17
534.50	1196.98
534.86	1201.38
535.21	1204.05
535.57	1208.33
535.93	1212.81
536.29	1217.48
536.65	1222.45
537.00	1225.76
537.36	1229.71
537.72	1233.93
538.08	1237.43
538.44	1240.36
538.79	1244.12
539.15	1247.14
539.51	1250.81
539.87	1253.57
540.22	1257.93
540.58	1261.36
540.94	1262.76
541.29	1266.33
541.65	1268.88
542.01	1271.95
542.37	1274.86
542.72	1277.76
543.08	1279.81
543.44	1283.21
543.79	1285.02
544.15	1288.62
544.51	1292.62
544.87	1296.31
545.22	1299.36
545.58	1302.21
545.94	1306.19
546.29	1309.31
546.65	1313.33
547.01	1316.79
547.36	1319.88
547.72	1321.76
548.07	1325.24
548.43	1327.29
548.79	1330.14
549.14	1333.88
549.50	1337.60
549.86	1340.05
550.21	1343.31
550.57	1348.14
550.92	1350.45
551.28	1354.05
551.64	1356.29
551.99	1358.43
552.35	1361.55
552.70	1364.64
553.06	1368.26
553.41	1371.48
553.77	1375.45
554.13	1379.40
554.48	1384.69
554.84	1389.76
555.19	1394.52
555.55	1399.12
555.90	1403.69
556.26	1408.12
556.61	1412.00
556.97	1415.45
557.32	1419.95
557.68	1424.38
558.03	1428.00
558.39	1432.10
558.74	1436.31
559.10	1440.52
559.45	1445.02
559.81	1449.83
560.16	1454.26
560.52	1458.88
560.87	1464.48
561.23	1468.19
561.58	1473.79
561.94	1476.38
562.29	1480.31
562.64	1484.88
563.00	1489.24
563.35	1494.57
563.71	1498.95
564.06	1504.29
564.42	1509.57
564.77	1515.71
565.12	1521.60
565.48	1529.31
565.83	1536.07
566.19	1541.67
566.54	1547.33
566.89	1553.95
567.25	1559.71
567.60	1566.76
567.96	1574.31
568.31	1580.21
568.66	1586.02
569.02	1589.79
569.37	1596.31
569.72	1602.17
570.08	1607.29
570.43	1611.64
570.78	1617.24
571.14	1623.31
571.49	1628.40
571.84	1633.86
572.20	1638.14
572.55	1642.93
572.90	1645.19
573.26	1648.76
573.61	1653.43
573.96	1658.64
574.31	1661.95
574.67	1665.57
575.02	1667.95
575.37	1669.74
575.72	1672.29
576.08	1676.26
576.43	1680.12
576.78	1683.21
577.13	1686.36
577.49	1690.19
577.84	1694.62
578.19	1698.05
578.54	1702.19
578.90	1706.36
579.25	1709.07
579.60	1711.90
579.95	1714.26
580.30	1717.43
580.66	1721.93
581.01	1725.00
581.36	1727.05
581.71	1730.67
582.06	1734.26
582.42	1738.40
582.77	1740.93
583.12	1743.48
583.47	1745.98
583.82	1748.26
584.17	1751.90
584.53	1754.88
584.88	1756.93
585.23	1759.48
585.58	1760.60
585.93	1761.60
586.28	1762.83
586.63	1765.79
586.98	1767.98
587.34	1771.24
587.69	1773.81
588.04	1774.40
588.39	1776.12
588.74	1777.00
589.09	1778.93
589.44	1778.76
589.79	1780.02
590.14	1782.07
590.49	1783.38
590.84	1784.48
591.19	1786.19
591.54	1786.17
591.89	1786.60
592.25	1789.26
592.60	1789.38
592.95	1790.93
593.30	1792.29
593.65	1792.52
594.00	1790.95
594.35	1797.40
594.70	1796.21
595.05	1796.17
595.40	1796.17
595.75	1795.98
596.10	1796.45
596.45	1796.55
596.80	1797.86
597.15	1797.76
597.50	1797.19
597.85	1798.29
598.19	1798.33
598.54	1798.45
598.89	1798.71
599.24	1799.36
599.59	1797.67
599.94	1797.38
600.29	1796.26
600.64	1794.64
600.99	1794.67
601.34	1796.40
601.69	1790.88
602.04	1790.17
602.39	1789.19
602.74	1789.12
603.08	1788.05
603.43	1788.48
603.78	1786.83
604.13	1785.71
604.48	1783.62
604.83	1782.90
605.18	1781.60
605.53	1780.24
605.87	1778.26
606.22	1776.00
606.57	1773.29
606.92	1772.45
607.27	1770.83
607.62	1770.33
607.96	1769.83
608.31	1767.88
608.66	1765.05
609.01	1761.95
609.36	1760.50
609.70	1757.86
610.05	1754.60
610.40	1752.33
610.75	1749.26
611.10	1746.19
611.44	1742.55
611.79	1739.69
612.14	1736.95
612.49	1732.26
612.83	1728.81
613.18	1725.02
613.53	1721.81
613.88	1717.64
614.22	1712.90
614.57	1708.38
614.92	1703.10
615.27	1698.36
615.61	1694.12
615.96	1689.45
616.31	1686.36
616.65	1682.40
617.00	1679.00
617.35	1675.26
617.70	1671.57
618.04	1666.98
618.39	1662.50
618.74	1658.31
619.08	1654.07
619.43	1648.90
619.78	1644.60
620.12	1640.62
620.47	1636.93
620.82	1631.62
621.16	1627.38
621.51	1623.55
621.85	1618.07
622.20	1613.83
622.55	1608.31
622.89	1604.07
623.24	1600.24
623.59	1594.90
623.93	1590.07
624.28	1585.00
624.62	1582.33
624.97	1578.38
625.32	1573.81
625.66	1569.71
626.01	1564.74
626.35	1561.14
626.70	1556.64
627.04	1553.57
627.39	1548.07
627.73	1544.45
628.08	1541.38
628.43	1537.33
628.77	1532.29
629.12	1529.12
629.46	1524.69
629.81	1520.33
630.15	1514.95
630.50	1510.14
630.84	1504.29
631.19	1499.26
631.53	1493.43
631.88	1485.81
632.22	1479.29
632.57	1474.50
632.91	1468.55
633.26	1463.90
633.60	1456.93
633.95	1451.33
634.29	1444.19
634.64	1438.83
634.98	1431.48
635.32	1426.62
635.67	1421.26
636.01	1416.07
636.36	1410.29
636.70	1405.64
637.05	1400.52
637.39	1395.74
637.73	1390.14
638.08	1385.64
638.42	1380.02
638.77	1375.81
639.11	1370.48
639.45	1364.76
639.80	1358.31
640.14	1352.79
640.49	1347.02
640.83	1341.43
641.17	1335.76
641.52	1330.45
641.86	1325.52
642.20	1321.40
642.55	1314.10
642.89	1308.29
643.23	1301.19
643.58	1295.43
643.92	1288.10
644.26	1281.88
644.61	1275.86
644.95	1268.86
645.29	1261.93
645.64	1256.17
645.98	1249.83
646.32	1243.36
646.66	1236.33
647.01	1230.64
647.35	1225.31
647.69	1218.81
648.04	1213.79
648.38	1207.17
648.72	1200.86
649.06	1193.88
649.41	1186.02
649.75	1179.12
650.09	1171.71
650.43	1165.64
650.78	1158.21
651.12	1151.50
651.46	1145.64
651.80	1139.05
652.14	1132.95
652.49	1127.40
652.83	1120.24
653.17	1112.86
653.51	1106.00
653.85	1100.60
654.20	1093.17
654.54	1085.71
654.88	1078.52
655.22	1071.55
655.56	1065.05
655.90	1058.36
656.25	1051.36
656.59	1046.19
656.93	1040.74
657.27	1035.86
657.61	1029.43
657.95	1023.79
658.29	1017.67
658.64	1011.45
658.98	1004.48
659.32	998.45
659.66	991.57
660.00	985.50
660.34	979.24
660.68	972.74
661.02	965.93
661.36	960.43
661.70	955.29
662.05	949.81
662.39	944.50
662.73	939.36
663.07	934.88
663.41	929.55
663.75	923.02
664.09	916.64
664.43	909.90
664.77	904.10
665.11	898.00
665.45	892.48
665.79	886.71
666.13	880.95
666.47	875.38
666.81	869.88
667.15	863.83
667.49	858.64
667.83	854.76
668.17	849.19
668.51	843.57
668.85	837.33
669.19	833.07
669.53	826.17
669.87	819.55
670.21	813.24
670.55	807.38
670.89	802.48
671.23	797.52
671.57	792.19
671.91	786.98
672.25	781.83
672.58	777.31
672.92	771.10
673.26	766.14
673.60	760.90
673.94	755.55
674.28	751.17
674.62	746.64
674.96	740.95
675.30	736.55
675.64	731.74
675.97	726.79
676.31	721.48
676.65	717.02
676.99	713.83
677.33	708.93
677.67	704.38
678.01	699.43
678.34	694.88
678.68	691.21
679.02	686.74
679.36	682.10
679.70	676.71
680.04	672.93
680.37	668.05
680.71	663.29
681.05	659.45
681.39	654.93
681.73	650.10
682.06	645.93
682.40	642.02
682.74	638.00
683.08	635.00
683.42	630.07
683.75	626.12
684.09	621.17
684.43	616.55
684.77	612.26
685.10	607.98
685.44	603.55
685.78	599.02
686.12	594.79
686.45	590.33
686.79	585.81
687.13	581.69
687.46	578.19
687.80	575.17
688.14	571.14
688.48	567.24
688.81	563.52
689.15	560.36
689.49	556.10
689.82	552.50
690.16	547.38
690.50	543.52
690.83	539.31
691.17	534.93
691.51	531.33
691.84	528.24
692.18	524.17
692.52	520.76
692.85	517.07
693.19	514.55
693.52	511.36
693.86	508.12
694.20	504.26
694.53	500.69
694.87	496.43
695.21	492.26
695.54	488.90
695.88	484.64
696.21	479.67
696.55	476.33
696.88	472.86
697.22	469.40
697.56	466.38
697.89	463.29
698.23	460.64
698.56	457.38
698.90	454.21
699.23	450.88
699.57	447.60
699.90	444.19
700.24	440.45
700.58	437.57
700.91	435.33
701.25	434.45
701.58	432.17
701.92	430.00
702.25	427.38
702.59	424.57
702.92	422.64
703.26	420.88
703.59	417.90
703.93	417.00
704.26	414.93
704.60	412.83
704.93	410.45
705.26	407.76
705.60	405.90
705.93	403.17
706.27	401.43
706.60	399.40
706.94	398.33
707.27	395.83
707.61	393.76
707.94	391.21
708.27	386.95
708.61	384.48
708.94	381.95
709.28	380.29
709.61	378.10
709.94	376.12
710.28	374.05
710.61	372.26
710.95	368.48
711.28	367.81
711.61	365.60
711.95	363.98
712.28	361.98
712.61	359.79
712.95	359.14
713.28	358.29
713.61	355.71
713.95	353.02
714.28	351.40
714.61	349.64
714.95	347.93
715.28	346.14
715.61	344.05
715.95	342.62
716.28	340.79
716.61	339.33
716.95	337.24
717.28	335.60
717.61	334.07
717.94	332.43
718.28	329.52
718.61	328.05
718.94	325.98
719.27	324.57
719.61	323.24
719.94	320.83
720.27	318.14
720.60	316.93
720.94	315.36
721.27	314.21
721.60	313.29
721.93	312.02
722.27	311.79
722.60	310.93
722.93	309.14
723.26	308.10
723.59	306.74
723.93	306.00
724.26	304.90
724.59	303.45
724.92	302.19
725.25	301.55
725.59	300.14
725.92	299.57
726.25	298.88
726.58	298.14
726.91	297.31
727.24	296.95
727.57	296.45
727.91	295.64
728.24	294.57
728.57	293.02
728.90	291.95
729.23	290.12
729.56	290.17
729.89	289.38
730.22	288.21
730.55	287.33
730.89	286.33
731.22	285.40
731.55	284.55
731.88	283.74
732.21	282.40
732.54	281.81
732.87	281.17
733.20	280.17
733.53	279.43
733.86	278.64
734.19	277.26
734.52	276.62
734.85	277.12
735.18	276.52
735.51	276.52
735.84	276.26
736.17	276.38
736.50	274.64
736.83	276.81
737.16	276.55
737.49	275.98
737.82	275.33
738.15	274.90
738.48	274.55
738.81	274.12
739.14	273.48
739.47	272.38
739.80	271.45
740.13	271.07
740.46	269.83
740.79	268.98
741.12	268.57
741.45	267.62
741.78	265.88
742.11	265.50
742.44	264.60
742.77	264.17
743.10	263.24
743.43	262.50
743.75	259.29
744.08	261.24
744.41	260.69
744.74	259.93
745.07	259.07
745.40	258.93
745.73	258.95
746.06	258.71
746.39	258.55
746.71	257.74
747.04	256.81
747.37	256.55
747.70	256.24
748.03	255.90
748.36	255.76
748.68	255.38
749.01	254.29
749.34	253.57
749.67	253.24
750.00	252.88
750.33	254.07
750.65	253.93
750.98	250.83
751.31	250.36
751.64	250.05
751.97	250.86
752.29	249.95
752.62	248.71
752.95	248.14
753.28	247.74
753.60	247.62
753.93	247.93
754.26	247.57
754.59	246.90
754.91	246.10
755.24	245.48
755.57	244.79
755.90	244.43
756.22	243.83
756.55	242.86
756.88	242.24
757.20	240.45
757.53	239.50
757.86	239.14
758.19	238.93
758.51	238.52
758.84	236.93
759.17	236.86
759.49	236.83
759.82	237.33
760.15	237.05
760.47	236.64
760.80	235.64
761.13	235.62
761.45	235.12
761.78	234.81
762.11	234.76
762.43	234.43
762.76	234.00
763.08	233.93
763.41	233.86
763.74	233.83
764.06	233.33
764.39	233.24
764.71	232.74
765.04	231.95
765.37	231.57
765.69	231.48
766.02	230.95
766.34	230.31
766.67	229.21
767.00	229.50
767.32	230.31
767.65	231.48
767.97	231.05
768.30	231.12
768.62	230.83
768.95	230.26
769.27	230.12
769.60	230.55
769.92	230.14
770.25	229.67
770.57	229.12
770.90	229.29
771.22	228.71
771.55	228.60
771.87	228.74
772.20	228.36
772.52	229.88
772.85	232.12
773.17	232.21
773.50	232.12
773.82	231.43
774.15	230.29
774.47	228.55
774.80	228.14
775.12	227.76
775.45	227.76
775.77	227.71
776.09	227.83
776.42	227.50
776.74	228.19
777.07	227.83
777.39	227.79
777.72	227.69
778.04	228.24
778.36	228.07
778.69	227.95
779.01	228.40
779.33	226.64
779.66	224.29
779.98	224.07
780.31	223.98
780.63	225.00
780.95	225.36
781.28	225.62
781.60	225.29
781.92	225.17
782.25	225.00
782.57	224.74
782.89	224.48
783.22	224.10
783.54	223.57
783.86	223.64
784.19	223.38
784.51	223.74
784.83	223.21
785.16	223.14
785.48	222.81
785.80	222.52
786.12	222.26
786.45	222.14
786.77	222.24
787.09	221.95
787.42	220.88
787.74	220.83
788.06	220.57
788.38	220.45
788.71	220.17
789.03	220.14
789.35	220.48
789.67	220.10
789.99	220.38
790.32	220.14
790.64	220.38
790.96	221.69
791.28	220.64
791.61	220.36
791.93	220.31
792.25	220.24
792.57	221.64
792.89	221.31
793.21	221.40
793.54	220.98
793.86	220.98
794.18	221.10
794.50	220.48
794.82	220.48
795.14	220.69
795.47	221.14
795.79	221.26
796.11	220.64
796.43	220.57
796.75	220.52
797.07	220.33
797.39	220.12
797.71	218.93
798.04	219.12
798.36	219.45
798.68	219.31
799.00	219.60
799.32	218.19
799.64	218.76
799.96	218.48
800.28	219.00
800.60	218.79
800.92	218.93
801.24	218.88
801.56	218.93
801.89	219.07
802.21	219.07
802.53	218.62
802.85	219.29
803.17	220.14
803.49	219.60
803.81	219.52
804.13	219.43
804.45	218.98
804.77	219.05
805.09	218.86
805.41	218.81
805.73	218.50
806.05	218.38
806.37	217.79
806.69	217.50
807.01	217.36
807.33	217.60
807.65	216.81
807.97	217.79
808.28	217.52
808.60	217.12
808.92	216.74
809.24	218.21
809.56	217.55
809.88	216.95
810.20	217.17
810.52	217.43
810.84	217.14
811.16	217.05
811.48	216.86
811.80	217.76
812.12	217.67
812.43	217.90
812.75	217.90
813.07	217.71
813.39	218.24
813.71	217.86
814.03	217.50
814.35	217.67
814.67	216.62
814.98	216.57
815.30	216.71
815.62	216.55
815.94	214.98
816.26	215.33
816.58	214.74
816.89	214.83
817.21	214.48
817.53	214.67
817.85	214.86
818.17	214.93
818.48	213.86
818.80	214.43
819.12	214.10
819.44	213.69
819.76	213.67
820.07	213.52
820.39	213.52
820.71	213.62
821.03	213.21
821.34	213.00
821.66	213.31
821.98	213.55
822.30	213.26
822.61	214.62
822.93	214.12
823.25	214.12
823.57	213.88
823.88	214.38
824.20	214.24
824.52	214.38
824.83	214.31
825.15	214.05
825.47	213.93
825.79	214.29
826.10	214.19
826.42	214.21
826.74	214.33
827.05	214.02
827.37	214.19
827.69	214.33
828.00	214.74
828.32	214.36
828.64	213.86
828.95	215.24
829.27	214.45
829.58	214.76
829.90	215.14
830.22	215.24
830.53	214.50
830.85	214.24
831.17	213.83
831.48	213.62
831.80	213.93
832.11	213.36
832.43	212.86
832.75	213.02
833.06	214.19
833.38	213.45
833.69	213.64
834.01	213.74
834.32	213.69
834.64	213.36
834.96	213.93
835.27	214.00
835.59	213.21
835.90	212.93
836.22	212.83
836.53	212.52
836.85	212.55
837.16	214.67
837.48	214.71
837.79	215.43
838.11	215.71
838.42	215.64
838.74	215.95
839.05	215.98
839.37	215.88
839.68	214.40
840.00	214.43
840.31	214.79
840.63	214.48
840.94	214.60
841.26	214.60
841.57	214.38
841.88	214.62
842.20	214.33
842.51	213.95
842.83	213.86
843.14	215.48
843.46	215.38
843.77	214.24
844.08	214.26
844.40	213.48
844.71	213.31
845.03	213.19
845.34	213.10
845.65	213.12
845.97	213.07
846.28	213.50
846.60	213.83
846.91	213.38
847.22	213.48
847.54	213.76
847.85	213.81
848.16	213.76
848.48	213.36
848.79	214.40
849.10	214.86
849.42	214.88
849.73	213.17
850.04	213.05
850.36	212.31
850.67	212.40
850.98	212.60
851.30	212.64
851.61	212.57
851.92	212.40
852.23	212.79
852.55	213.19
852.86	213.24
853.17	213.24
853.49	213.71
853.80	214.17
854.11	214.40
854.42	214.71
854.74	214.24
855.05	214.45
855.36	213.29
855.67	213.24
855.99	213.31
856.30	215.71
856.61	215.79
856.92	215.98
857.23	216.12
857.55	215.95
857.86	215.98
858.17	216.43
858.48	216.26
858.79	216.00
859.11	215.88
859.42	215.67
859.73	215.26
860.04	214.90
860.35	214.21
860.66	213.57
860.98	213.33
861.29	213.67
861.60	213.52
861.91	213.86
862.22	213.48
862.53	213.19
862.84	210.98
863.16	211.31
863.47	210.81
863.78	210.74
864.09	211.07
864.40	211.21
864.71	211.00
865.02	211.64
865.33	211.48
865.64	211.31
865.95	211.29
866.27	212.90
866.58	212.93
866.89	213.14
867.20	213.19
867.51	213.12
867.82	213.14
868.13	213.90
868.44	213.57
868.75	214.02
869.06	214.29
869.37	214.26
869.68	213.81
869.99	214.45
870.30	214.57
870.61	214.67
870.92	214.14
871.23	214.14
871.54	214.19
871.85	214.62
872.16	214.79
872.47	214.86
872.78	213.64
873.09	213.71
873.40	213.67
873.71	213.79
874.02	214.00
874.33	213.79
874.64	213.24
874.95	213.81
875.26	213.36
875.56	213.24
875.87	213.29
876.18	213.17
876.49	215.00
876.80	214.88
877.11	214.36
877.42	214.69
877.73	214.64
878.04	214.19
878.35	214.26
878.66	214.24
878.96	214.12
879.27	214.00
879.58	213.95
879.89	213.88
880.20	214.19
880.51	214.05
880.82	213.98
881.12	214.07
881.43	213.43
881.74	213.38
882.05	213.26
882.36	213.31
882.67	213.62
882.97	211.33
883.28	211.07
883.59	211.14
883.90	211.19
884.21	211.45
884.51	211.52
884.82	211.05
885.13	211.07
885.44	211.10
885.74	211.00
886.05	211.00
886.36	211.19
886.67	210.67
886.98	211.45
887.28	211.83
887.59	211.71
887.90	212.00
888.20	211.83
888.51	212.48
888.82	212.29
889.13	212.38
889.43	214.12
889.74	214.00
890.05	214.19
890.35	214.17
890.66	213.98
890.97	213.76
891.28	213.79
891.58	213.81
891.89	213.93
892.20	213.79
892.50	213.50
892.81	213.38
893.12	213.36
893.42	212.50
893.73	212.52
894.04	212.48
894.34	212.40
894.65	212.26
894.95	211.86
895.26	211.93
895.57	212.64
895.87	210.88
896.18	211.29
896.48	211.14
896.79	211.07
897.10	211.31
897.40	211.40
897.71	211.69
898.01	211.57
898.32	211.76
898.63	212.00
898.93	212.12
899.24	211.98
899.54	211.83
899.85	211.67
900.15	211.45
900.46	211.48
900.76	211.79
901.07	212.02
901.38	212.02
901.68	212.31
901.99	211.36
902.29	211.43
902.60	211.36
902.90	211.24
903.21	211.19
903.51	210.83
903.82	211.62
904.12	211.40
904.43	211.55
904.73	211.31
905.03	211.19
905.34	213.07
905.64	213.10
905.95	213.07
906.25	213.19
906.56	213.17
906.86	213.33
907.17	213.21
907.47	213.31
907.77	212.98
908.08	212.55
908.38	212.64
908.69	212.98
908.99	213.33
909.30	213.64
909.60	213.76
909.90	214.02
910.21	213.14
910.51	212.79
910.81	212.81
911.12	212.98
911.42	213.07
911.73	211.19
912.03	211.31
912.33	211.88
912.64	211.98
912.94	212.00
913.24	211.40
913.55	211.24
913.85	211.10
914.15	211.62
914.46	211.83
914.76	211.98
915.06	211.74
915.37	211.33
915.67	211.17
915.97	211.31
916.27	210.79
916.58	210.93
916.88	210.98
917.18	210.88
917.49	212.24
917.79	211.95
918.09	212.17
918.39	212.62
918.70	212.57
919.00	212.36
919.30	213.19
919.60	213.29
919.91	212.79
920.21	213.00
920.51	212.45
920.81	212.36
921.12	212.38
921.42	212.17
921.72	212.21
922.02	212.29
922.32	212.38
922.63	212.57
922.93	213.33
923.23	213.60
923.53	213.43
923.83	212.00
924.13	212.38
924.44	212.17
924.74	212.17
925.04	212.60
925.34	212.60
925.64	211.71
925.94	211.88
926.24	213.57
926.55	213.36
926.85	213.67
927.15	213.67
927.45	213.79
927.75	214.00
928.05	214.12
928.35	214.05
928.65	214.50
928.95	214.57
929.26	213.98
929.56	214.26
929.86	214.43
930.16	214.31
930.46	214.17
930.76	214.50
931.06	213.93
931.36	213.24
931.66	213.60
931.96	213.93
932.26	213.86
932.56	212.79
932.86	212.90
933.16	212.86
933.46	212.74
933.76	212.26
934.06	212.81
934.36	213.64
934.66	213.57
934.96	213.19
935.26	213.60
935.56	213.62
935.86	213.14
936.16	213.00
936.46	212.90
936.76	212.86
937.06	212.45
937.36	212.40
937.66	212.55
937.96	212.48
938.26	212.05
938.56	212.00
938.86	212.02
939.16	212.36
939.46	212.60
939.76	212.71
940.06	212.79
940.35	211.98
940.65	210.81
940.95	211.10
941.25	210.50
941.55	210.05
941.85	210.10
942.15	210.64
942.45	211.12
942.75	211.17
943.04	211.38
943.34	212.10
943.64	211.98
943.94	211.52
944.24	211.50
944.54	211.69
944.84	211.74
945.13	211.33
945.43	211.29
945.73	211.12
946.03	210.79
946.33	210.62
946.62	210.43
946.92	210.50
947.22	210.31
947.52	210.52
947.82	210.74
948.11	210.64
948.41	210.14
948.71	209.76
949.01	209.98
949.31	209.50
949.60	209.29
949.90	209.81
950.20	209.81
950.50	209.74
950.79	209.45
951.09	209.74
951.39	209.86
951.69	209.48
951.98	210.02
952.28	210.29
952.58	210.24
952.87	210.52
953.17	210.93
953.47	210.86
953.76	210.71
954.06	210.45
954.36	210.14
954.66	210.02
954.95	210.40
955.25	210.55
955.55	211.07
955.84	210.69
956.14	210.74
956.44	211.19
956.73	210.93
957.03	211.19
957.32	211.12
957.62	210.90
957.92	211.29
958.21	210.86
958.51	213.26
958.81	213.79
959.10	214.26
959.40	214.40
959.69	214.43
959.99	215.00
960.29	214.98
960.58	214.98
960.88	215.79
961.17	215.45
961.47	215.36
961.76	215.10
962.06	215.48
962.36	215.29
962.65	215.26
962.95	215.33
963.24	215.02
963.54	215.07
963.83	215.64
964.13	215.40
964.42	215.14
964.72	213.26
965.01	213.02
965.31	212.48
965.60	212.07
965.90	213.57
966.19	212.93
966.49	213.31
966.78	213.33
967.08	213.02
967.37	213.19
967.67	212.95
967.96	213.48
968.26	213.36
968.55	213.55
968.85	213.29
969.14	213.43
969.43	213.36
969.73	213.38
970.02	213.12
970.32	213.19
970.61	213.00
970.91	212.81
971.20	212.45
971.49	212.21
971.79	212.60
972.08	210.95
972.38	211.10
972.67	210.64
972.96	210.90
973.26	210.57
973.55	211.07
973.85	210.93
974.14	210.52
974.43	210.57
974.73	210.26
975.02	210.17
975.31	209.98
975.61	210.21
975.90	209.62
976.19	209.45
976.49	209.79
976.78	210.10
977.07	209.83
977.37	210.19
977.66	210.81
977.95	210.45
978.24	210.69
978.54	211.26
978.83	211.26
979.12	210.95
979.42	210.88
979.71	210.43
980.00	210.50
980.29	210.52
980.59	210.17
980.88	210.64
981.17	210.81
981.46	210.90
981.76	210.50
982.05	211.45
982.34	211.43
982.63	211.33
982.93	211.36
983.22	212.00
983.51	211.98
983.80	211.90
984.09	212.17
984.39	211.98
984.68	211.69
984.97	211.67
985.26	211.55
985.55	212.00
985.85	211.43
986.14	211.86
986.43	212.14
986.72	212.12
987.01	211.40
987.30	211.07
987.59	210.81
987.89	211.17
988.18	210.45
988.47	210.48
988.76	210.19
989.05	209.86
989.34	209.48
989.63	210.07
989.92	209.90
990.22	209.57
990.51	209.57
990.80	209.31
991.09	209.57
991.38	209.86
991.67	209.57
991.96	209.74
992.25	209.55
992.54	209.31
992.83	209.45
993.12	209.38
993.41	210.19
993.70	211.21
993.99	211.55
994.28	211.69
994.58	212.02
994.87	211.74
995.16	211.71
995.45	211.50
995.74	210.79
996.03	211.07
996.32	211.40
996.61	212.05
996.90	212.19
997.19	212.10
997.48	212.19
997.77	212.14
998.06	212.24
998.34	212.24
998.63	212.14
998.92	211.98
999.21	212.50
999.50	212.45
999.79	211.93
1000.08	211.83
1000.37	212.07
1000.66	211.64
1000.95	212.38
1001.24	212.57
1001.53	212.79
1001.82	212.60
1002.11	212.10
1002.40	212.24
1002.68	212.43
1002.97	213.69
1003.26	213.48
1003.55	213.17
1003.84	213.14
1004.13	213.88
1004.42	213.69
1004.71	213.50
1004.99	213.33
1005.28	213.76
1005.57	213.31
1005.86	213.00
1006.15	212.93
1006.44	212.40
1006.72	212.76
1007.01	212.45
1007.30	212.52
1007.59	212.36
1007.88	212.48
1008.17	212.76
1008.45	212.19
1008.74	211.21
1009.03	210.40
1009.32	210.38
1009.60	210.17
1009.89	210.19
1010.18	209.14
1010.47	209.05
1010.76	209.12
1011.04	209.14
1011.33	209.10
1011.62	209.33
1011.91	209.52
1012.19	209.50
1012.48	209.74
1012.77	209.60
1013.05	210.21
1013.34	210.12
1013.63	210.21
1013.92	210.21
1014.20	209.76
1014.49	210.10
1014.78	210.45
1015.06	209.64
1015.35	209.62
1015.64	209.98
1015.92	210.14
1016.21	210.33
1016.50	210.26
1016.78	210.55
1017.07	210.79
1017.36	210.29
1017.64	209.81
1017.93	209.98
1018.22	209.88
1018.50	209.76
1018.79	209.71
1019.08	208.93
1019.36	209.02
1019.65	208.74
1019.93	209.43
1020.22	209.93
1020.51	210.88
1020.79	210.69
1021.08	208.50
1021.36	205.50
1021.65	209.50
1021.94	209.50
1022.22	211.00
1022.51	207.50
1022.79	222.00
1023.08	213.00
1023.36	234.50
1023.65	207.00
>>>>>End Processed Spectral Data<<<<<
