SpectraSuite Data File
++++++++++++++++++++++++++++++++++++
Date: Tue Apr 02 18:45:38 EDT 2013
User: group
Dark Spectrum Present: No
Reference Spectrum Present: No
Number of Sampled Component Spectra: 1
Spectrometers: USB2E7196
Integration Time (usec): 580000 (USB2E7196)
Spectra Averaged: 2 (USB2E7196)
Boxcar Smoothing: 10 (USB2E7196)
Correct for Electrical Dark: No (USB2E7196)
Strobe/Lamp Enabled: No (USB2E7196)
Correct for Detector Non-linearity: No (USB2E7196)
Correct for Stray Light: No (USB2E7196)
Number of Pixels in Processed Spectrum: 2048
>>>>>Begin Processed Spectral Data<<<<<
339.09	0.00
339.48	191.00
339.86	192.00
340.24	198.50
340.63	193.00
341.01	229.00
341.39	197.00
341.78	207.00
342.16	209.00
342.54	201.00
342.93	195.81
343.31	205.40
343.69	206.05
344.07	206.50
344.46	207.05
344.84	207.88
345.22	206.69
345.60	207.29
345.99	207.31
346.37	207.10
346.75	207.50
347.13	207.62
347.52	207.69
347.90	208.38
348.28	208.52
348.66	209.00
349.05	208.00
349.43	208.36
349.81	208.64
350.19	209.02
350.57	208.83
350.96	209.21
351.34	209.74
351.72	209.88
352.10	210.33
352.48	210.26
352.87	210.38
353.25	210.83
353.63	210.81
354.01	211.02
354.39	211.50
354.77	211.79
355.15	212.40
355.54	212.50
355.92	212.02
356.30	212.00
356.68	213.31
357.06	213.79
357.44	213.48
357.82	213.60
358.20	214.60
358.58	214.81
358.97	214.88
359.35	215.36
359.73	215.69
360.11	215.60
360.49	215.83
360.87	215.57
361.25	215.57
361.63	216.38
362.01	216.57
362.39	216.21
362.77	216.36
363.15	216.14
363.53	216.10
363.91	216.26
364.29	216.21
364.67	214.50
365.05	214.62
365.43	215.24
365.81	215.29
366.19	215.12
366.57	216.10
366.95	216.02
367.33	215.38
367.71	215.33
368.09	215.88
368.47	215.79
368.85	215.81
369.23	216.29
369.61	215.48
369.99	216.07
370.37	216.71
370.75	217.40
371.13	217.00
371.51	216.76
371.89	216.90
372.27	217.36
372.65	217.52
373.03	217.43
373.41	216.95
373.78	217.00
374.16	216.10
374.54	215.33
374.92	215.21
375.30	215.48
375.68	215.24
376.06	215.14
376.44	215.10
376.82	215.45
377.19	215.36
377.57	215.55
377.95	214.76
378.33	214.38
378.71	213.07
379.09	213.36
379.47	213.76
379.84	213.67
380.22	213.17
380.60	213.00
380.98	213.07
381.36	212.95
381.73	212.52
382.11	212.90
382.49	213.10
382.87	212.90
383.25	212.74
383.62	215.24
384.00	215.00
384.38	215.07
384.76	215.45
385.13	216.19
385.51	216.10
385.89	215.90
386.27	215.90
386.64	216.43
387.02	216.33
387.40	216.00
387.78	216.05
388.15	216.31
388.53	216.05
388.91	215.88
389.29	215.98
389.66	216.50
390.04	216.33
390.42	216.52
390.79	216.64
391.17	216.55
391.55	214.29
391.92	214.29
392.30	214.33
392.68	213.81
393.05	213.40
393.43	213.57
393.81	213.71
394.18	213.69
394.56	213.62
394.94	214.19
395.31	214.10
395.69	214.69
396.06	215.00
396.44	215.33
396.82	215.29
397.19	216.21
397.57	215.98
397.95	216.26
398.32	215.74
398.70	215.88
399.07	216.55
399.45	216.45
399.82	216.24
400.20	216.26
400.58	216.24
400.95	215.38
401.33	215.74
401.70	217.19
402.08	217.31
402.45	217.38
402.83	217.81
403.20	218.17
403.58	218.14
403.95	218.38
404.33	218.64
404.71	219.10
405.08	220.52
405.46	220.86
405.83	221.19
406.21	221.62
406.58	222.10
406.96	222.29
407.33	223.02
407.70	223.67
408.08	225.69
408.45	226.52
408.83	227.81
409.20	228.05
409.58	227.76
409.95	228.93
410.33	229.90
410.70	230.00
411.08	231.17
411.45	232.10
411.82	233.02
412.20	234.67
412.57	236.86
412.95	236.45
413.32	238.31
413.69	239.48
414.07	241.21
414.44	242.93
414.82	244.98
415.19	247.29
415.56	249.76
415.94	250.86
416.31	253.83
416.68	256.67
417.06	260.00
417.43	263.40
417.81	266.60
418.18	270.12
418.55	273.81
418.93	277.40
419.30	281.52
419.67	286.02
420.04	290.50
420.42	294.62
420.79	301.98
421.16	307.31
421.54	314.74
421.91	320.55
422.28	326.40
422.66	332.83
423.03	340.67
423.40	347.40
423.77	354.88
424.15	361.79
424.52	369.31
424.89	378.05
425.26	385.74
425.64	393.38
426.01	401.60
426.38	410.55
426.75	420.24
427.13	429.40
427.50	438.64
427.87	448.38
428.24	458.24
428.61	465.93
428.99	476.81
429.36	486.88
429.73	498.31
430.10	510.07
430.47	521.90
430.85	532.26
431.22	544.86
431.59	559.81
431.96	572.79
432.33	586.81
432.70	600.10
433.08	615.86
433.45	630.98
433.82	646.19
434.19	663.33
434.56	680.00
434.93	695.36
435.30	711.45
435.68	728.57
436.05	746.38
436.42	763.43
436.79	779.00
437.16	795.64
437.53	813.69
437.90	831.60
438.27	848.64
438.64	866.86
439.01	883.74
439.38	896.86
439.75	911.12
440.13	927.17
440.50	943.00
440.87	956.14
441.24	969.12
441.61	983.24
441.98	993.88
442.35	1005.81
442.72	1018.95
443.09	1032.33
443.46	1040.10
443.83	1044.98
444.20	1050.00
444.57	1056.50
444.94	1060.02
445.31	1063.07
445.68	1068.83
446.05	1070.90
446.42	1069.40
446.79	1068.12
447.16	1066.64
447.53	1065.48
447.90	1059.90
448.27	1052.98
448.64	1044.21
449.01	1038.52
449.37	1027.50
449.74	1016.74
450.11	1005.60
450.48	990.55
450.85	974.40
451.22	961.43
451.59	949.64
451.96	938.21
452.33	923.12
452.70	908.86
453.07	891.98
453.43	871.98
453.80	854.95
454.17	839.14
454.54	823.57
454.91	807.40
455.28	791.43
455.65	776.43
456.02	765.29
456.38	752.21
456.75	736.88
457.12	723.88
457.49	710.79
457.86	696.86
458.23	687.45
458.59	676.14
458.96	664.88
459.33	654.05
459.70	643.57
460.07	634.83
460.43	625.50
460.80	616.90
461.17	609.52
461.54	602.10
461.91	594.26
462.27	586.60
462.64	579.38
463.01	572.67
463.38	566.48
463.74	555.93
464.11	549.76
464.48	544.33
464.85	538.24
465.21	534.05
465.58	528.93
465.95	522.52
466.32	517.74
466.68	512.81
467.05	508.12
467.42	502.93
467.78	497.45
468.15	492.76
468.52	489.48
468.88	483.90
469.25	479.00
469.62	475.81
469.98	471.93
470.35	468.55
470.72	464.50
471.08	459.55
471.45	456.98
471.82	454.45
472.18	450.88
472.55	448.67
472.92	444.88
473.28	441.76
473.65	438.71
474.02	435.93
474.38	433.69
474.75	431.50
475.11	429.00
475.48	427.55
475.85	425.86
476.21	423.79
476.58	422.95
476.94	421.55
477.31	420.31
477.67	418.86
478.04	417.81
478.41	417.33
478.77	418.93
479.14	417.40
479.50	416.60
479.87	416.05
480.23	415.83
480.60	415.74
480.96	415.86
481.33	416.88
481.69	417.00
482.06	417.21
482.42	417.74
482.79	418.50
483.15	418.88
483.52	420.02
483.88	420.26
484.25	420.74
484.61	421.50
484.98	422.05
485.34	423.95
485.71	425.43
486.07	426.62
486.44	425.86
486.80	427.62
487.17	429.07
487.53	431.26
487.90	433.21
488.26	436.14
488.62	438.64
488.99	440.14
489.35	442.74
489.72	445.12
490.08	447.81
490.44	450.29
490.81	453.74
491.17	456.26
491.54	460.40
491.90	464.31
492.26	468.10
492.63	471.81
492.99	475.10
493.36	478.62
493.72	483.05
494.08	488.05
494.45	492.74
494.81	497.60
495.17	501.88
495.54	506.79
495.90	510.93
496.26	515.88
496.63	521.45
496.99	526.40
497.35	532.17
497.72	537.71
498.08	543.83
498.44	549.50
498.80	556.24
499.17	561.71
499.53	567.71
499.89	574.14
500.26	580.79
500.62	587.50
500.98	595.33
501.34	602.67
501.71	609.69
502.07	616.74
502.43	623.74
502.79	631.02
503.16	638.31
503.52	645.40
503.88	652.24
504.24	659.74
504.60	667.67
504.97	675.67
505.33	683.14
505.69	692.00
506.05	700.29
506.41	708.12
506.78	715.57
507.14	723.19
507.50	731.24
507.86	739.00
508.22	746.95
508.59	753.79
508.95	761.24
509.31	770.29
509.67	777.88
510.03	785.60
510.39	793.36
510.75	801.38
511.12	809.36
511.48	817.52
511.84	824.55
512.20	831.95
512.56	839.55
512.92	846.86
513.28	853.55
513.64	860.38
514.00	867.19
514.37	874.88
514.73	882.69
515.09	890.12
515.45	897.10
515.81	903.95
516.17	911.21
516.53	917.76
516.89	922.60
517.25	929.31
517.61	936.36
517.97	942.55
518.33	948.69
518.69	955.48
519.05	962.00
519.41	968.38
519.77	975.48
520.13	981.21
520.49	987.12
520.85	992.33
521.21	999.05
521.57	1005.19
521.93	1010.62
522.29	1016.17
522.65	1020.71
523.01	1026.64
523.37	1031.93
523.73	1036.79
524.09	1041.90
524.45	1047.07
524.81	1052.19
525.17	1056.93
525.53	1061.48
525.89	1066.07
526.25	1070.88
526.61	1075.17
526.97	1079.64
527.33	1083.33
527.68	1088.55
528.04	1093.19
528.40	1097.50
528.76	1101.19
529.12	1105.29
529.48	1110.48
529.84	1114.48
530.20	1119.62
530.56	1123.55
530.91	1127.95
531.27	1131.79
531.63	1136.07
531.99	1139.88
532.35	1142.93
532.71	1146.64
533.07	1151.52
533.42	1157.40
533.78	1160.83
534.14	1164.43
534.50	1169.38
534.86	1173.86
535.21	1176.55
535.57	1181.02
535.93	1184.79
536.29	1189.57
536.65	1192.83
537.00	1195.50
537.36	1198.67
537.72	1201.60
538.08	1205.31
538.44	1207.69
538.79	1211.60
539.15	1214.81
539.51	1218.74
539.87	1223.31
540.22	1226.74
540.58	1229.79
540.94	1231.33
541.29	1234.48
541.65	1237.17
542.01	1240.19
542.37	1241.74
542.72	1244.31
543.08	1245.71
543.44	1248.81
543.79	1249.02
544.15	1251.88
544.51	1255.50
544.87	1258.57
545.22	1261.14
545.58	1263.21
545.94	1266.83
546.29	1269.67
546.65	1272.43
547.01	1273.76
547.36	1275.36
547.72	1277.00
548.07	1279.74
548.43	1281.98
548.79	1283.98
549.14	1287.00
549.50	1289.14
549.86	1291.86
550.21	1295.05
550.57	1298.86
550.92	1301.19
551.28	1305.26
551.64	1308.21
551.99	1310.67
552.35	1313.17
552.70	1315.60
553.06	1319.26
553.41	1321.43
553.77	1325.57
554.13	1328.88
554.48	1333.36
554.84	1337.93
555.19	1342.62
555.55	1348.02
555.90	1351.83
556.26	1356.02
556.61	1359.38
556.97	1362.21
557.32	1366.43
557.68	1370.14
558.03	1372.86
558.39	1376.74
558.74	1380.48
559.10	1384.14
559.45	1387.33
559.81	1391.31
560.16	1396.02
560.52	1399.67
560.87	1405.07
561.23	1408.10
561.58	1412.98
561.94	1417.29
562.29	1421.24
562.64	1425.52
563.00	1428.21
563.35	1432.45
563.71	1437.12
564.06	1442.67
564.42	1447.83
564.77	1453.60
565.12	1458.79
565.48	1466.52
565.83	1473.40
566.19	1478.79
566.54	1484.38
566.89	1490.19
567.25	1496.79
567.60	1503.86
567.96	1511.52
568.31	1517.88
568.66	1524.52
569.02	1528.95
569.37	1534.52
569.72	1540.50
570.08	1545.38
570.43	1550.24
570.78	1555.79
571.14	1560.88
571.49	1565.88
571.84	1571.00
572.20	1575.00
572.55	1580.21
572.90	1583.50
573.26	1586.45
573.61	1590.55
573.96	1594.81
574.31	1599.74
574.67	1603.07
575.02	1605.69
575.37	1607.48
575.72	1609.88
576.08	1613.45
576.43	1617.88
576.78	1621.24
577.13	1624.50
577.49	1628.60
577.84	1632.69
578.19	1636.95
578.54	1641.17
578.90	1644.79
579.25	1648.74
579.60	1652.02
579.95	1655.02
580.30	1658.83
580.66	1663.29
581.01	1667.02
581.36	1670.33
581.71	1673.36
582.06	1677.67
582.42	1681.93
582.77	1685.45
583.12	1688.36
583.47	1691.45
583.82	1695.07
584.17	1698.52
584.53	1702.88
584.88	1706.36
585.23	1709.98
585.58	1712.64
585.93	1714.71
586.28	1717.43
586.63	1720.21
586.98	1724.21
587.34	1727.38
587.69	1728.36
588.04	1731.33
588.39	1734.60
588.74	1736.90
589.09	1738.93
589.44	1739.90
589.79	1741.17
590.14	1742.98
590.49	1745.17
590.84	1746.33
591.19	1747.26
591.54	1749.33
591.89	1750.07
592.25	1752.98
592.60	1754.12
592.95	1755.60
593.30	1757.76
593.65	1758.38
594.00	1758.57
594.35	1765.62
594.70	1765.98
595.05	1768.95
595.40	1769.38
595.75	1769.48
596.10	1771.45
596.45	1773.38
596.80	1775.24
597.15	1777.31
597.50	1777.21
597.85	1780.21
598.19	1781.00
598.54	1782.24
598.89	1782.71
599.24	1784.43
599.59	1783.64
599.94	1783.95
600.29	1783.93
600.64	1784.31
600.99	1785.02
601.34	1787.07
601.69	1780.86
602.04	1780.95
602.39	1779.64
602.74	1780.43
603.08	1780.93
603.43	1781.31
603.78	1780.83
604.13	1780.21
604.48	1778.57
604.83	1780.67
605.18	1778.26
605.53	1778.02
605.87	1776.24
606.22	1775.60
606.57	1773.40
606.92	1771.93
607.27	1769.90
607.62	1769.36
607.96	1768.88
608.31	1769.45
608.66	1767.93
609.01	1766.33
609.36	1765.67
609.70	1764.67
610.05	1761.86
610.40	1760.17
610.75	1756.90
611.10	1754.93
611.44	1752.33
611.79	1751.10
612.14	1748.02
612.49	1744.52
612.83	1742.93
613.18	1740.71
613.53	1737.62
613.88	1735.38
614.22	1731.67
614.57	1728.76
614.92	1725.38
615.27	1721.02
615.61	1716.19
615.96	1712.71
616.31	1709.33
616.65	1706.38
617.00	1703.79
617.35	1700.67
617.70	1698.00
618.04	1695.24
618.39	1691.24
618.74	1688.19
619.08	1683.90
619.43	1680.36
619.78	1678.76
620.12	1674.14
620.47	1670.86
620.82	1667.12
621.16	1662.67
621.51	1660.83
621.85	1658.10
622.20	1654.55
622.55	1650.79
622.89	1647.69
623.24	1644.19
623.59	1640.57
623.93	1636.52
624.28	1632.14
624.62	1630.83
624.97	1627.29
625.32	1622.07
625.66	1619.05
626.01	1615.55
626.35	1612.12
626.70	1608.24
627.04	1603.95
627.39	1599.93
627.73	1596.83
628.08	1593.67
628.43	1589.57
628.77	1585.12
629.12	1580.69
629.46	1576.76
629.81	1573.29
630.15	1567.83
630.50	1563.45
630.84	1559.19
631.19	1554.71
631.53	1550.79
631.88	1543.60
632.22	1537.00
632.57	1534.19
632.91	1529.02
633.26	1524.76
633.60	1519.57
633.95	1514.62
634.29	1509.88
634.64	1505.74
634.98	1500.38
635.32	1495.62
635.67	1491.71
636.01	1487.29
636.36	1482.05
636.70	1478.40
637.05	1473.74
637.39	1470.62
637.73	1465.83
638.08	1462.79
638.42	1457.93
638.77	1453.12
639.11	1448.38
639.45	1444.10
639.80	1438.40
640.14	1433.38
640.49	1427.17
640.83	1421.52
641.17	1416.93
641.52	1412.10
641.86	1406.74
642.20	1402.57
642.55	1396.62
642.89	1391.62
643.23	1386.36
643.58	1382.52
643.92	1375.95
644.26	1369.83
644.61	1363.98
644.95	1358.62
645.29	1351.19
645.64	1346.19
645.98	1340.50
646.32	1336.43
646.66	1330.62
647.01	1324.83
647.35	1320.10
647.69	1315.74
648.04	1311.83
648.38	1306.33
648.72	1300.93
649.06	1295.48
649.41	1289.33
649.75	1283.67
650.09	1277.38
650.43	1271.36
650.78	1264.62
651.12	1258.29
651.46	1252.55
651.80	1246.02
652.14	1239.60
652.49	1234.05
652.83	1227.38
653.17	1220.71
653.51	1213.45
653.85	1207.79
654.20	1201.60
654.54	1194.69
654.88	1187.76
655.22	1181.43
655.56	1174.52
655.90	1167.81
656.25	1161.38
656.59	1154.95
656.93	1148.57
657.27	1143.26
657.61	1136.26
657.95	1130.95
658.29	1125.26
658.64	1119.62
658.98	1113.17
659.32	1106.90
659.66	1101.00
660.00	1094.95
660.34	1089.50
660.68	1083.17
661.02	1077.14
661.36	1071.50
661.70	1065.83
662.05	1059.60
662.39	1053.55
662.73	1048.19
663.07	1043.29
663.41	1037.26
663.75	1031.93
664.09	1026.52
664.43	1020.05
664.77	1014.69
665.11	1008.33
665.45	1002.43
665.79	996.95
666.13	991.31
666.47	985.45
666.81	979.67
667.15	974.05
667.49	968.52
667.83	963.76
668.17	958.02
668.51	952.17
668.85	946.71
669.19	942.24
669.53	936.21
669.87	930.21
670.21	923.40
670.55	918.31
670.89	912.69
671.23	907.52
671.57	901.98
671.91	896.86
672.25	891.69
672.58	887.33
672.92	881.38
673.26	876.40
673.60	871.67
673.94	866.07
674.28	861.33
674.62	856.50
674.96	851.02
675.30	846.19
675.64	841.05
675.97	835.62
676.31	829.79
676.65	825.12
676.99	821.50
677.33	816.79
677.67	811.86
678.01	806.45
678.34	801.24
678.68	796.52
679.02	791.12
679.36	786.00
679.70	780.29
680.04	775.14
680.37	770.40
680.71	765.05
681.05	760.93
681.39	755.88
681.73	750.05
682.06	745.14
682.40	740.40
682.74	736.50
683.08	732.62
683.42	727.81
683.75	722.93
684.09	716.74
684.43	712.07
684.77	706.93
685.10	702.31
685.44	697.88
685.78	693.10
686.12	688.88
686.45	684.14
686.79	679.69
687.13	675.86
687.46	671.60
687.80	668.24
688.14	663.76
688.48	659.57
688.81	655.67
689.15	651.90
689.49	647.05
689.82	642.10
690.16	636.24
690.50	632.10
690.83	627.76
691.17	623.21
691.51	618.67
691.84	614.52
692.18	609.98
692.52	605.79
692.85	602.10
693.19	598.71
693.52	594.64
693.86	589.81
694.20	585.43
694.53	581.31
694.87	576.62
695.21	571.76
695.54	567.40
695.88	562.98
696.21	557.95
696.55	554.26
696.88	550.12
697.22	546.90
697.56	543.31
697.89	539.33
698.23	536.29
698.56	532.60
698.90	529.33
699.23	525.69
699.57	522.19
699.90	518.12
700.24	513.76
700.58	510.24
700.91	507.60
701.25	505.74
701.58	502.74
701.92	500.00
702.25	497.14
702.59	493.79
702.92	490.67
703.26	487.74
703.59	484.62
703.93	483.50
704.26	480.36
704.60	477.33
704.93	474.02
705.26	470.48
705.60	467.76
705.93	464.31
706.27	461.79
706.60	458.90
706.94	456.86
707.27	453.48
707.61	450.88
707.94	447.93
708.27	443.69
708.61	440.38
708.94	437.26
709.28	434.88
709.61	432.05
709.94	429.71
710.28	426.98
710.61	424.36
710.95	419.93
711.28	419.24
711.61	416.55
711.95	414.48
712.28	411.93
712.61	409.26
712.95	408.26
713.28	406.86
713.61	404.21
713.95	400.90
714.28	399.17
714.61	396.52
714.95	394.14
715.28	391.93
715.61	389.48
715.95	387.12
716.28	384.60
716.61	383.07
716.95	380.55
717.28	378.45
717.61	376.29
717.94	374.10
718.28	370.07
718.61	367.90
718.94	365.64
719.27	364.10
719.61	362.40
719.94	359.50
720.27	356.60
720.60	354.55
720.94	352.60
721.27	350.81
721.60	349.62
721.93	347.79
722.27	346.69
722.60	345.48
722.93	343.71
723.26	342.45
723.59	340.45
723.93	339.17
724.26	337.90
724.59	336.43
724.92	335.29
725.25	334.57
725.59	333.26
725.92	332.21
726.25	330.52
726.58	329.36
726.91	327.98
727.24	326.69
727.57	325.48
727.91	324.07
728.24	322.88
728.57	321.29
728.90	320.10
729.23	318.26
729.56	317.83
729.89	316.48
730.22	314.98
730.55	313.86
730.89	312.86
731.22	311.45
731.55	310.55
731.88	309.29
732.21	307.81
732.54	306.40
732.87	305.00
733.20	304.33
733.53	303.45
733.86	302.52
734.19	301.45
734.52	300.95
734.85	301.38
735.18	300.14
735.51	299.81
735.84	299.14
736.17	298.55
736.50	296.69
736.83	298.45
737.16	297.69
737.49	296.71
737.82	295.57
738.15	295.00
738.48	294.07
738.81	293.29
739.14	291.95
739.47	291.14
739.80	290.40
740.13	289.64
740.46	288.29
740.79	287.10
741.12	286.40
741.45	285.14
741.78	283.31
742.11	283.14
742.44	281.83
742.77	281.29
743.10	280.21
743.43	279.21
743.75	276.21
744.08	277.95
744.41	277.19
744.74	276.29
745.07	275.31
745.40	274.62
745.73	274.69
746.06	274.31
746.39	273.69
746.71	272.83
747.04	271.76
747.37	271.17
747.70	270.76
748.03	269.95
748.36	269.43
748.68	268.55
749.01	267.14
749.34	266.48
749.67	265.81
750.00	265.93
750.33	266.86
750.65	266.52
750.98	263.57
751.31	262.79
751.64	262.29
751.97	262.81
752.29	262.21
752.62	260.95
752.95	260.43
753.28	259.95
753.60	259.55
753.93	259.52
754.26	258.86
754.59	257.95
754.91	257.24
755.24	256.76
755.57	256.45
755.90	255.88
756.22	255.21
756.55	254.50
756.88	253.05
757.20	251.05
757.53	249.67
757.86	248.98
758.19	248.81
758.51	248.60
758.84	246.93
759.17	246.29
759.49	245.90
759.82	246.40
760.15	246.00
760.47	245.50
760.80	244.74
761.13	244.62
761.45	244.12
761.78	243.98
762.11	243.50
762.43	243.00
762.76	242.67
763.08	242.74
763.41	242.31
763.74	242.21
764.06	242.02
764.39	242.21
764.71	241.90
765.04	241.57
765.37	241.02
765.69	240.55
766.02	240.14
766.34	239.60
766.67	238.50
767.00	238.64
767.32	239.55
767.65	240.40
767.97	240.05
768.30	239.98
768.62	239.57
768.95	239.14
769.27	238.74
769.60	238.93
769.92	238.05
770.25	237.52
770.57	236.71
770.90	236.45
771.22	235.81
771.55	235.50
771.87	234.88
772.20	234.57
772.52	236.17
772.85	238.38
773.17	238.07
773.50	237.86
773.82	237.36
774.15	235.86
774.47	234.19
774.80	233.79
775.12	233.48
775.45	233.14
775.77	233.10
776.09	233.36
776.42	232.88
776.74	233.45
777.07	233.00
777.39	233.17
777.72	232.81
778.04	233.07
778.36	232.64
778.69	232.93
779.01	232.76
779.33	230.57
779.66	228.12
779.98	227.88
780.31	227.50
780.63	227.88
780.95	228.26
781.28	228.26
781.60	227.83
781.92	227.76
782.25	227.62
782.57	227.40
782.89	226.81
783.22	226.62
783.54	225.90
783.86	226.17
784.19	225.86
784.51	226.43
784.83	225.69
785.16	225.86
785.48	225.52
785.80	225.50
786.12	225.88
786.45	225.62
786.77	225.69
787.09	225.52
787.42	224.79
787.74	224.57
788.06	224.45
788.38	224.36
788.71	223.88
789.03	223.98
789.35	224.10
789.67	223.74
789.99	223.81
790.32	223.62
790.64	223.74
790.96	225.40
791.28	224.52
791.61	224.50
791.93	224.29
792.25	224.12
792.57	225.33
792.89	224.83
793.21	225.17
793.54	224.93
793.86	224.57
794.18	224.62
794.50	224.29
794.82	224.10
795.14	224.45
795.47	224.67
795.79	224.57
796.11	224.00
796.43	223.88
796.75	223.74
797.07	223.55
797.39	223.14
797.71	221.55
798.04	221.71
798.36	221.81
798.68	222.07
799.00	222.17
799.32	221.12
799.64	221.43
799.96	221.05
800.28	221.21
800.60	220.98
800.92	221.19
801.24	220.74
801.56	220.88
801.89	220.79
802.21	221.17
802.53	220.67
802.85	221.14
803.17	221.93
803.49	221.26
803.81	221.29
804.13	221.21
804.45	220.93
804.77	220.81
805.09	220.62
805.41	220.02
805.73	219.57
806.05	218.88
806.37	218.45
806.69	218.31
807.01	218.19
807.33	218.48
807.65	217.45
807.97	218.55
808.28	218.36
808.60	217.93
808.92	217.50
809.24	218.64
809.56	218.17
809.88	217.52
810.20	217.64
810.52	217.83
810.84	217.38
811.16	217.10
811.48	217.07
811.80	217.76
812.12	217.83
812.43	218.10
812.75	218.40
813.07	218.38
813.39	218.48
813.71	218.14
814.03	217.79
814.35	218.10
814.67	217.02
814.98	216.79
815.30	216.83
815.62	216.48
815.94	215.19
816.26	215.31
816.58	214.86
816.89	215.19
817.21	214.76
817.53	215.14
817.85	215.43
818.17	215.07
818.48	214.43
818.80	214.81
819.12	214.50
819.44	214.07
819.76	213.74
820.07	213.69
820.39	213.45
820.71	213.62
821.03	213.64
821.34	213.81
821.66	214.17
821.98	214.43
822.30	214.31
822.61	215.60
822.93	215.43
823.25	215.45
823.57	215.14
823.88	215.60
824.20	215.52
824.52	215.81
824.83	216.00
825.15	215.83
825.47	215.76
825.79	215.93
826.10	215.74
826.42	215.86
826.74	215.98
827.05	215.90
827.37	215.88
827.69	215.60
828.00	215.48
828.32	215.33
828.64	214.98
828.95	215.95
829.27	215.21
829.58	215.17
829.90	215.60
830.22	215.76
830.53	215.26
830.85	215.12
831.17	214.60
831.48	214.40
831.80	214.52
832.11	214.02
832.43	213.81
832.75	213.83
833.06	215.00
833.38	214.43
833.69	214.52
834.01	214.69
834.32	214.86
834.64	214.88
834.96	214.90
835.27	214.98
835.59	214.57
835.90	214.19
836.22	214.12
836.53	213.60
836.85	213.38
837.16	215.29
837.48	215.36
837.79	215.86
838.11	216.12
838.42	215.86
838.74	216.24
839.05	215.95
839.37	216.02
839.68	214.69
840.00	214.69
840.31	214.95
840.63	214.76
840.94	214.43
841.26	214.05
841.57	214.02
841.88	214.21
842.20	213.86
842.51	213.71
842.83	213.83
843.14	215.79
843.46	215.81
843.77	214.71
844.08	214.40
844.40	213.76
844.71	213.40
845.03	213.40
845.34	213.14
845.65	213.19
845.97	213.12
846.28	213.17
846.60	213.40
846.91	213.31
847.22	213.24
847.54	213.83
847.85	214.00
848.16	213.81
848.48	213.24
848.79	214.05
849.10	214.45
849.42	214.57
849.73	212.79
850.04	212.69
850.36	212.02
850.67	212.57
850.98	212.83
851.30	213.26
851.61	213.17
851.92	213.24
852.23	213.83
852.55	213.98
852.86	214.24
853.17	214.33
853.49	214.55
853.80	214.93
854.11	215.10
854.42	215.43
854.74	215.19
855.05	215.40
855.36	214.12
855.67	214.00
855.99	213.74
856.30	216.19
856.61	216.14
856.92	216.21
857.23	216.26
857.55	216.05
857.86	215.69
858.17	215.90
858.48	215.88
858.79	215.60
859.11	215.67
859.42	215.60
859.73	215.31
860.04	215.29
860.35	214.62
860.66	213.76
860.98	213.71
861.29	213.90
861.60	213.74
861.91	214.40
862.22	213.95
862.53	213.83
862.84	211.50
863.16	212.14
863.47	211.86
863.78	211.45
864.09	211.62
864.40	211.95
864.71	212.07
865.02	211.95
865.33	211.64
865.64	211.52
865.95	211.48
866.27	212.81
866.58	212.55
866.89	212.93
867.20	212.93
867.51	212.40
867.82	212.31
868.13	213.07
868.44	212.71
868.75	213.21
869.06	213.50
869.37	213.55
869.68	212.83
869.99	213.10
870.30	213.10
870.61	213.14
870.92	212.79
871.23	212.60
871.54	213.00
871.85	213.43
872.16	213.60
872.47	213.43
872.78	212.21
873.09	212.29
873.40	212.17
873.71	212.43
874.02	212.69
874.33	212.64
874.64	212.12
874.95	212.45
875.26	212.07
875.56	211.81
875.87	211.79
876.18	211.64
876.49	213.57
876.80	213.52
877.11	213.26
877.42	213.33
877.73	213.19
878.04	212.93
878.35	212.83
878.66	213.00
878.96	213.17
879.27	213.17
879.58	213.26
879.89	213.36
880.20	214.05
880.51	214.00
880.82	214.07
881.12	214.14
881.43	213.71
881.74	213.52
882.05	213.64
882.36	213.81
882.67	214.07
882.97	212.12
883.28	211.98
883.59	211.95
883.90	212.12
884.21	212.60
884.51	212.36
884.82	212.17
885.13	212.00
885.44	211.86
885.74	211.81
886.05	211.71
886.36	211.60
886.67	210.62
886.98	211.67
887.28	211.67
887.59	211.71
887.90	212.00
888.20	211.98
888.51	212.12
888.82	211.67
889.13	211.86
889.43	213.38
889.74	213.48
890.05	213.64
890.35	213.48
890.66	213.07
890.97	213.02
891.28	213.02
891.58	213.14
891.89	213.29
892.20	213.05
892.50	212.88
892.81	212.98
893.12	213.00
893.42	212.07
893.73	212.19
894.04	212.33
894.34	212.26
894.65	212.36
894.95	212.40
895.26	212.45
895.57	213.31
895.87	211.40
896.18	211.57
896.48	211.45
896.79	211.52
897.10	211.74
897.40	211.69
897.71	211.93
898.01	211.64
898.32	211.74
898.63	211.64
898.93	211.88
899.24	211.93
899.54	212.00
899.85	211.79
900.15	211.67
900.46	211.57
900.76	211.67
901.07	211.48
901.38	211.21
901.68	211.57
901.99	210.45
902.29	210.69
902.60	210.48
902.90	210.40
903.21	210.00
903.51	210.05
903.82	210.36
904.12	210.19
904.43	210.52
904.73	210.36
905.03	210.74
905.34	212.43
905.64	212.21
905.95	212.26
906.25	212.38
906.56	212.38
906.86	212.36
907.17	212.36
907.47	212.69
907.77	212.50
908.08	212.05
908.38	212.43
908.69	212.57
908.99	213.00
909.30	213.29
909.60	213.48
909.90	213.52
910.21	213.19
910.51	212.88
910.81	212.71
911.12	212.93
911.42	212.83
911.73	210.71
912.03	210.81
912.33	210.95
912.64	210.93
912.94	210.64
913.24	210.29
913.55	210.21
913.85	209.81
914.15	210.29
914.46	210.48
914.76	210.29
915.06	210.10
915.37	209.74
915.67	209.57
915.97	209.62
916.27	209.10
916.58	209.26
916.88	209.38
917.18	209.38
917.49	210.88
917.79	210.81
918.09	211.33
918.39	211.88
918.70	211.88
919.00	211.95
919.30	213.05
919.60	213.19
919.91	212.83
920.21	213.10
920.51	212.76
920.81	212.71
921.12	212.86
921.42	212.93
921.72	213.07
922.02	213.07
922.32	213.21
922.63	213.24
922.93	214.43
923.23	214.48
923.53	214.12
923.83	212.67
924.13	212.86
924.44	212.76
924.74	213.02
925.04	213.57
925.34	213.33
925.64	212.62
925.94	212.48
926.24	213.67
926.55	213.60
926.85	213.83
927.15	213.95
927.45	214.14
927.75	213.98
928.05	213.79
928.35	213.52
928.65	214.07
928.95	214.21
929.26	213.17
929.56	213.62
929.86	213.83
930.16	213.67
930.46	213.52
930.76	213.55
931.06	212.55
931.36	212.07
931.66	212.43
931.96	212.50
932.26	212.71
932.56	211.86
932.86	211.90
933.16	211.74
933.46	211.57
933.76	211.10
934.06	211.67
934.36	212.71
934.66	212.95
934.96	212.48
935.26	212.62
935.56	212.93
935.86	212.19
936.16	212.02
936.46	211.74
936.76	211.55
937.06	211.43
937.36	211.62
937.66	211.60
937.96	211.38
938.26	210.93
938.56	210.74
938.86	210.95
939.16	211.40
939.46	211.52
939.76	211.62
940.06	211.62
940.35	211.12
940.65	209.81
940.95	209.86
941.25	209.43
941.55	209.33
941.85	209.36
942.15	209.93
942.45	210.55
942.75	210.52
943.04	210.79
943.34	211.14
943.64	210.90
943.94	210.71
944.24	210.74
944.54	211.29
944.84	211.19
945.13	210.86
945.43	210.55
945.73	210.79
946.03	210.60
946.33	210.40
946.62	210.38
946.92	210.60
947.22	210.64
947.52	210.86
947.82	211.14
948.11	210.71
948.41	210.43
948.71	209.81
949.01	210.14
949.31	209.93
949.60	209.57
949.90	210.10
950.20	209.86
950.50	210.00
950.79	209.48
951.09	209.71
951.39	209.52
951.69	209.31
951.98	209.43
952.28	209.55
952.58	209.62
952.87	209.69
953.17	209.88
953.47	209.67
953.76	209.67
954.06	209.33
954.36	209.10
954.66	208.93
954.95	209.57
955.25	209.71
955.55	209.95
955.84	209.69
956.14	209.74
956.44	210.02
956.73	209.67
957.03	209.98
957.32	210.05
957.62	210.02
957.92	210.40
958.21	210.10
958.51	212.50
958.81	212.83
959.10	212.95
959.40	213.48
959.69	213.88
959.99	214.26
960.29	214.50
960.58	214.50
960.88	215.43
961.17	214.98
961.47	214.98
961.76	214.90
962.06	215.48
962.36	215.26
962.65	215.10
962.95	215.36
963.24	214.93
963.54	215.02
963.83	215.38
964.13	215.19
964.42	214.88
964.72	213.14
965.01	213.12
965.31	212.88
965.60	212.29
965.90	213.29
966.19	212.88
966.49	212.86
966.78	212.69
967.08	212.40
967.37	212.62
967.67	212.43
967.96	212.67
968.26	212.69
968.55	213.07
968.85	213.33
969.14	213.29
969.43	213.60
969.73	213.36
970.02	213.43
970.32	213.43
970.61	213.21
970.91	212.71
971.20	212.36
971.49	212.31
971.79	212.55
972.08	211.17
972.38	211.33
972.67	211.21
972.96	211.50
973.26	211.00
973.55	211.55
973.85	211.19
974.14	210.93
974.43	210.88
974.73	210.31
975.02	210.07
975.31	210.00
975.61	210.05
975.90	209.86
976.19	209.55
976.49	209.74
976.78	210.29
977.07	210.14
977.37	210.26
977.66	210.33
977.95	210.14
978.24	210.38
978.54	210.81
978.83	210.57
979.12	210.43
979.42	210.48
979.71	209.95
980.00	210.00
980.29	210.02
980.59	209.50
980.88	210.05
981.17	210.19
981.46	210.17
981.76	210.02
982.05	210.83
982.34	210.98
982.63	210.81
982.93	210.62
983.22	211.24
983.51	211.48
983.80	211.93
984.09	212.19
984.39	212.12
984.68	211.71
984.97	211.98
985.26	211.98
985.55	212.14
985.85	211.76
986.14	212.38
986.43	212.48
986.72	212.52
987.01	211.95
987.30	211.74
987.59	211.62
987.89	211.71
988.18	210.88
988.47	210.81
988.76	210.67
989.05	210.29
989.34	209.90
989.63	210.26
989.92	209.93
990.22	209.79
990.51	209.71
990.80	209.64
991.09	209.71
991.38	209.79
991.67	209.64
991.96	209.64
992.25	209.40
992.54	209.17
992.83	209.24
993.12	209.38
993.41	209.93
993.70	210.71
993.99	211.12
994.28	211.57
994.58	211.74
994.87	211.57
995.16	211.74
995.45	211.62
995.74	210.79
996.03	211.00
996.32	211.24
996.61	211.64
996.90	211.43
997.19	211.38
997.48	211.76
997.77	211.55
998.06	211.64
998.34	211.45
998.63	211.50
998.92	211.50
999.21	211.67
999.50	211.64
999.79	211.10
1000.08	211.05
1000.37	211.02
1000.66	210.74
1000.95	211.14
1001.24	211.02
1001.53	211.21
1001.82	211.19
1002.11	210.76
1002.40	210.81
1002.68	211.07
1002.97	212.60
1003.26	212.38
1003.55	212.07
1003.84	212.38
1004.13	213.14
1004.42	213.31
1004.71	213.33
1004.99	213.21
1005.28	213.71
1005.57	213.48
1005.86	213.50
1006.15	213.45
1006.44	212.98
1006.72	213.21
1007.01	213.07
1007.30	213.29
1007.59	213.14
1007.88	213.33
1008.17	213.50
1008.45	213.14
1008.74	212.43
1009.03	211.43
1009.32	211.52
1009.60	211.38
1009.89	211.19
1010.18	210.36
1010.47	210.17
1010.76	210.33
1011.04	210.14
1011.33	210.24
1011.62	210.40
1011.91	210.33
1012.19	210.19
1012.48	210.31
1012.77	210.29
1013.05	211.07
1013.34	211.17
1013.63	211.24
1013.92	211.24
1014.20	211.05
1014.49	211.29
1014.78	211.43
1015.06	211.07
1015.35	211.10
1015.64	211.50
1015.92	211.74
1016.21	211.95
1016.50	211.98
1016.78	211.86
1017.07	212.31
1017.36	211.71
1017.64	211.31
1017.93	211.62
1018.22	211.55
1018.50	211.74
1018.79	211.60
1019.08	210.76
1019.36	210.81
1019.65	210.38
1019.93	211.07
1020.22	211.48
1020.51	212.48
1020.79	212.10
1021.08	210.50
1021.36	210.00
1021.65	209.00
1021.94	210.00
1022.22	211.00
1022.51	205.00
1022.79	221.50
1023.08	214.00
1023.36	237.50
1023.65	203.00
>>>>>End Processed Spectral Data<<<<<
