SpectraSuite Data File
++++++++++++++++++++++++++++++++++++
Date: Tue Apr 02 18:41:49 EDT 2013
User: group
Dark Spectrum Present: No
Reference Spectrum Present: No
Number of Sampled Component Spectra: 1
Spectrometers: USB2E7196
Integration Time (usec): 580000 (USB2E7196)
Spectra Averaged: 2 (USB2E7196)
Boxcar Smoothing: 10 (USB2E7196)
Correct for Electrical Dark: No (USB2E7196)
Strobe/Lamp Enabled: No (USB2E7196)
Correct for Detector Non-linearity: No (USB2E7196)
Correct for Stray Light: No (USB2E7196)
Number of Pixels in Processed Spectrum: 2048
>>>>>Begin Processed Spectral Data<<<<<
339.09	0.00
339.48	193.00
339.86	194.50
340.24	196.00
340.63	200.00
341.01	231.50
341.39	203.00
341.78	203.50
342.16	208.50
342.54	205.50
342.93	198.17
343.31	208.00
343.69	208.62
344.07	209.12
344.46	210.02
344.84	210.33
345.22	209.10
345.60	209.43
345.99	209.64
346.37	209.67
346.75	209.86
347.13	210.00
347.52	210.14
347.90	210.67
348.28	210.60
348.66	211.02
349.05	210.57
349.43	210.86
349.81	210.88
350.19	211.38
350.57	211.50
350.96	211.52
351.34	211.93
351.72	212.17
352.10	212.31
352.48	212.05
352.87	211.95
353.25	212.14
353.63	212.19
354.01	212.50
354.39	212.67
354.77	212.67
355.15	212.83
355.54	212.45
355.92	211.81
356.30	211.76
356.68	212.90
357.06	212.93
357.44	212.79
357.82	212.95
358.20	213.62
358.58	213.50
358.97	213.55
359.35	213.79
359.73	214.10
360.11	214.17
360.49	214.26
360.87	214.69
361.25	215.05
361.63	215.67
362.01	215.50
362.39	215.40
362.77	215.45
363.15	215.55
363.53	215.81
363.91	216.02
364.29	216.05
364.67	214.12
365.05	214.12
365.43	214.33
365.81	214.62
366.19	214.79
366.57	215.50
366.95	215.36
367.33	214.74
367.71	214.62
368.09	215.19
368.47	215.12
368.85	214.81
369.23	215.10
369.61	214.38
369.99	215.12
370.37	215.40
370.75	216.45
371.13	216.10
371.51	215.71
371.89	215.90
372.27	216.17
372.65	216.60
373.03	216.50
373.41	216.29
373.78	216.00
374.16	214.79
374.54	214.05
374.92	214.21
375.30	214.40
375.68	214.17
376.06	214.02
376.44	213.93
376.82	214.26
377.19	214.07
377.57	213.95
377.95	213.12
378.33	213.07
378.71	211.93
379.09	212.36
379.47	212.71
379.84	212.40
380.22	212.12
380.60	211.67
380.98	211.64
381.36	211.67
381.73	211.52
382.11	212.02
382.49	212.21
382.87	211.69
383.25	211.90
383.62	214.10
384.00	213.45
384.38	213.69
384.76	214.10
385.13	214.79
385.51	215.05
385.89	214.95
386.27	214.90
386.64	215.12
387.02	214.86
387.40	214.71
387.78	214.90
388.15	215.12
388.53	215.12
388.91	215.36
389.29	215.29
389.66	215.62
390.04	215.48
390.42	215.95
390.79	215.98
391.17	215.74
391.55	213.64
391.92	214.10
392.30	213.95
392.68	213.48
393.05	213.33
393.43	213.17
393.81	213.38
394.18	213.05
394.56	213.26
394.94	213.64
395.31	213.36
395.69	213.98
396.06	214.33
396.44	214.38
396.82	214.17
397.19	215.21
397.57	215.21
397.95	215.52
398.32	214.98
398.70	215.64
399.07	216.12
399.45	216.00
399.82	215.83
400.20	215.81
400.58	215.71
400.95	214.83
401.33	215.24
401.70	216.83
402.08	217.17
402.45	217.12
402.83	217.67
403.20	217.95
403.58	217.81
403.95	218.14
404.33	218.88
404.71	219.05
405.08	220.24
405.46	220.48
405.83	220.71
406.21	220.98
406.58	221.21
406.96	221.60
407.33	222.24
407.70	222.93
408.08	225.19
408.45	226.26
408.83	227.38
409.20	227.88
409.58	227.36
409.95	228.67
410.33	229.45
410.70	229.62
411.08	231.14
411.45	232.33
411.82	232.98
412.20	234.26
412.57	236.88
412.95	236.48
413.32	238.29
413.69	239.79
414.07	241.55
414.44	243.21
414.82	244.90
415.19	247.62
415.56	250.05
415.94	251.19
416.31	253.93
416.68	257.02
417.06	260.79
417.43	264.24
417.81	267.43
418.18	271.50
418.55	275.29
418.93	279.29
419.30	283.55
419.67	288.67
420.04	293.07
420.42	297.31
420.79	304.19
421.16	309.67
421.54	316.93
421.91	323.07
422.28	329.52
422.66	336.67
423.03	344.24
423.40	351.33
423.77	358.90
424.15	366.43
424.52	373.90
424.89	382.29
425.26	390.10
425.64	398.26
426.01	406.69
426.38	415.64
426.75	425.45
427.13	434.79
427.50	444.21
427.87	454.76
428.24	465.26
428.61	474.17
428.99	485.83
429.36	496.83
429.73	508.29
430.10	520.12
430.47	532.05
430.85	542.90
431.22	555.57
431.59	570.81
431.96	583.79
432.33	597.98
432.70	612.14
433.08	628.74
433.45	643.57
433.82	659.31
434.19	677.05
434.56	693.93
434.93	710.31
435.30	726.50
435.68	744.29
436.05	761.76
436.42	779.40
436.79	795.74
437.16	812.71
437.53	831.71
437.90	849.95
438.27	868.05
438.64	886.93
439.01	904.76
439.38	918.67
439.75	934.33
440.13	951.88
440.50	968.14
440.87	980.93
441.24	994.81
441.61	1009.57
441.98	1020.62
442.35	1032.93
442.72	1046.33
443.09	1059.93
443.46	1068.17
443.83	1073.76
444.20	1078.26
444.57	1084.67
444.94	1088.14
445.31	1091.00
445.68	1096.64
446.05	1097.98
446.42	1096.69
446.79	1095.02
447.16	1092.95
447.53	1091.60
447.90	1084.90
448.27	1078.00
448.64	1069.14
449.01	1062.88
449.37	1051.50
449.74	1040.02
450.11	1028.40
450.48	1012.86
450.85	996.45
451.22	982.76
451.59	970.29
451.96	958.48
452.33	942.24
452.70	927.21
453.07	909.83
453.43	889.69
453.80	873.00
454.17	856.48
454.54	840.86
454.91	824.43
455.28	807.40
455.65	792.14
456.02	780.12
456.38	767.52
456.75	751.71
457.12	738.05
457.49	725.31
457.86	710.83
458.23	700.52
458.59	688.88
458.96	676.86
459.33	665.48
459.70	654.74
460.07	645.71
460.43	636.07
460.80	627.26
461.17	619.67
461.54	610.95
461.91	603.02
462.27	594.52
462.64	587.24
463.01	579.95
463.38	573.88
463.74	563.10
464.11	556.02
464.48	550.57
464.85	544.00
465.21	539.05
465.58	533.95
465.95	527.17
466.32	521.95
466.68	516.86
467.05	512.33
467.42	507.31
467.78	501.76
468.15	496.90
468.52	493.26
468.88	487.76
469.25	482.93
469.62	479.50
469.98	475.50
470.35	472.02
470.72	468.14
471.08	462.79
471.45	459.64
471.82	457.02
472.18	453.21
472.55	450.95
472.92	447.33
473.28	443.98
473.65	440.74
474.02	437.71
474.38	435.38
474.75	433.07
475.11	431.00
475.48	429.60
475.85	427.86
476.21	425.98
476.58	424.74
476.94	423.93
477.31	422.21
477.67	420.79
478.04	419.50
478.41	418.55
478.77	419.86
479.14	418.67
479.50	417.95
479.87	417.57
480.23	417.05
480.60	416.81
480.96	416.67
481.33	417.93
481.69	418.24
482.06	418.10
482.42	418.86
482.79	419.12
483.15	419.31
483.52	420.55
483.88	420.86
484.25	421.55
484.61	422.07
484.98	422.81
485.34	424.43
485.71	425.86
486.07	427.50
486.44	427.52
486.80	429.36
487.17	430.76
487.53	432.71
487.90	434.69
488.26	437.86
488.62	440.83
488.99	442.36
489.35	445.21
489.72	448.14
490.08	450.26
490.44	452.57
490.81	456.17
491.17	458.74
491.54	462.60
491.90	466.19
492.26	469.74
492.63	473.88
492.99	477.29
493.36	481.29
493.72	485.60
494.08	489.76
494.45	494.60
494.81	499.76
495.17	504.43
495.54	510.10
495.90	513.90
496.26	518.69
496.63	524.36
496.99	529.60
497.35	535.52
497.72	541.43
498.08	547.52
498.44	553.50
498.80	560.02
499.17	565.76
499.53	572.05
499.89	579.19
500.26	585.71
500.62	592.69
500.98	600.55
501.34	607.50
501.71	615.19
502.07	622.26
502.43	629.24
502.79	636.12
503.16	642.88
503.52	650.95
503.88	658.31
504.24	666.60
504.60	674.60
504.97	682.24
505.33	689.76
505.69	698.79
506.05	706.40
506.41	714.29
506.78	722.38
507.14	730.55
507.50	738.29
507.86	746.71
508.22	755.00
508.59	761.62
508.95	769.60
509.31	777.81
509.67	785.55
510.03	793.33
510.39	801.48
510.75	809.55
511.12	816.95
511.48	825.02
511.84	832.17
512.20	839.95
512.56	847.76
512.92	855.69
513.28	862.64
513.64	870.48
514.00	877.79
514.37	885.14
514.73	892.21
515.09	899.98
515.45	906.57
515.81	913.81
516.17	920.71
516.53	927.50
516.89	933.48
517.25	940.26
517.61	947.33
517.97	954.14
518.33	960.55
518.69	968.12
519.05	975.40
519.41	981.74
519.77	989.00
520.13	995.48
520.49	1001.69
520.85	1007.74
521.21	1014.62
521.57	1020.83
521.93	1026.21
522.29	1031.90
522.65	1037.10
523.01	1042.36
523.37	1047.43
523.73	1053.62
524.09	1059.10
524.45	1064.24
524.81	1069.71
525.17	1075.05
525.53	1080.26
525.89	1085.76
526.25	1090.74
526.61	1093.76
526.97	1097.95
527.33	1101.40
527.68	1107.21
528.04	1111.95
528.40	1116.19
528.76	1119.64
529.12	1124.21
529.48	1130.14
529.84	1134.93
530.20	1139.50
530.56	1144.33
530.91	1148.71
531.27	1153.29
531.63	1158.60
531.99	1162.64
532.35	1166.24
532.71	1169.79
533.07	1174.45
533.42	1180.83
533.78	1183.95
534.14	1189.36
534.50	1194.40
534.86	1200.02
535.21	1202.52
535.57	1207.05
535.93	1210.88
536.29	1215.98
536.65	1220.43
537.00	1223.33
537.36	1227.60
537.72	1231.12
538.08	1235.64
538.44	1238.62
538.79	1242.29
539.15	1244.88
539.51	1249.05
539.87	1253.05
540.22	1257.05
540.58	1260.71
540.94	1262.43
541.29	1266.57
541.65	1268.88
542.01	1272.40
542.37	1275.21
542.72	1277.57
543.08	1279.17
543.44	1282.79
543.79	1284.45
544.15	1287.43
544.51	1291.31
544.87	1294.36
545.22	1297.52
545.58	1300.69
545.94	1304.05
546.29	1306.79
546.65	1310.43
547.01	1312.86
547.36	1316.55
547.72	1319.14
548.07	1321.45
548.43	1324.17
548.79	1326.21
549.14	1329.50
549.50	1332.14
549.86	1333.81
550.21	1338.10
550.57	1343.29
550.92	1345.90
551.28	1350.33
551.64	1352.71
551.99	1355.67
552.35	1358.50
552.70	1361.43
553.06	1364.76
553.41	1368.76
553.77	1373.67
554.13	1377.36
554.48	1382.38
554.84	1386.17
555.19	1390.52
555.55	1395.95
555.90	1399.38
556.26	1403.67
556.61	1408.17
556.97	1412.36
557.32	1417.00
557.68	1420.55
558.03	1423.33
558.39	1427.64
558.74	1430.69
559.10	1434.86
559.45	1439.00
559.81	1443.79
560.16	1448.52
560.52	1453.64
560.87	1458.48
561.23	1461.64
561.58	1467.62
561.94	1471.90
562.29	1476.71
562.64	1481.86
563.00	1486.10
563.35	1491.62
563.71	1497.40
564.06	1502.29
564.42	1507.48
564.77	1512.90
565.12	1518.98
565.48	1526.81
565.83	1533.67
566.19	1540.14
566.54	1545.74
566.89	1551.00
567.25	1556.48
567.60	1564.10
567.96	1570.48
568.31	1577.69
568.66	1584.52
569.02	1588.38
569.37	1593.90
569.72	1598.83
570.08	1603.74
570.43	1608.29
570.78	1613.21
571.14	1618.07
571.49	1624.02
571.84	1628.88
572.20	1633.12
572.55	1637.81
572.90	1640.93
573.26	1644.81
573.61	1648.21
573.96	1653.62
574.31	1658.45
574.67	1663.00
575.02	1665.24
575.37	1667.31
575.72	1668.88
576.08	1672.67
576.43	1676.50
576.78	1679.43
577.13	1684.19
577.49	1687.81
577.84	1691.67
578.19	1695.57
578.54	1699.98
578.90	1702.48
579.25	1706.31
579.60	1709.31
579.95	1712.14
580.30	1715.38
580.66	1719.00
581.01	1722.90
581.36	1725.43
581.71	1727.90
582.06	1731.45
582.42	1735.14
582.77	1737.93
583.12	1741.19
583.47	1742.83
583.82	1745.07
584.17	1748.02
584.53	1749.71
584.88	1753.00
585.23	1755.60
585.58	1757.93
585.93	1758.64
586.28	1761.00
586.63	1763.45
586.98	1766.24
587.34	1769.48
587.69	1770.98
588.04	1772.33
588.39	1773.36
588.74	1773.57
589.09	1775.31
589.44	1774.76
589.79	1775.31
590.14	1777.10
590.49	1777.45
590.84	1778.90
591.19	1780.48
591.54	1782.17
591.89	1782.62
592.25	1784.81
592.60	1785.40
592.95	1785.33
593.30	1786.98
593.65	1787.36
594.00	1785.88
594.35	1791.90
594.70	1790.45
595.05	1790.71
595.40	1790.24
595.75	1790.98
596.10	1792.71
596.45	1793.95
596.80	1794.76
597.15	1795.50
597.50	1794.98
597.85	1796.81
598.19	1796.57
598.54	1796.14
598.89	1795.45
599.24	1796.69
599.59	1794.14
599.94	1793.24
600.29	1793.55
600.64	1792.83
600.99	1792.07
601.34	1792.67
601.69	1786.52
602.04	1786.38
602.39	1785.17
602.74	1785.19
603.08	1784.14
603.43	1784.12
603.78	1782.74
604.13	1781.62
604.48	1779.60
604.83	1778.88
605.18	1777.64
605.53	1776.90
605.87	1774.69
606.22	1772.69
606.57	1769.79
606.92	1768.36
607.27	1767.33
607.62	1766.02
607.96	1764.71
608.31	1763.93
608.66	1762.64
609.01	1760.29
609.36	1759.19
609.70	1757.74
610.05	1754.17
610.40	1752.24
610.75	1748.55
611.10	1744.71
611.44	1741.83
611.79	1739.90
612.14	1736.19
612.49	1731.52
612.83	1727.95
613.18	1725.48
613.53	1722.81
613.88	1718.88
614.22	1715.10
614.57	1710.98
614.92	1705.76
615.27	1701.45
615.61	1696.24
615.96	1691.93
616.31	1687.93
616.65	1683.43
617.00	1679.36
617.35	1676.40
617.70	1671.67
618.04	1667.31
618.39	1663.40
618.74	1659.67
619.08	1654.33
619.43	1650.83
619.78	1646.71
620.12	1641.74
620.47	1636.95
620.82	1630.95
621.16	1626.38
621.51	1622.40
621.85	1617.29
622.20	1612.31
622.55	1607.43
622.89	1603.76
623.24	1599.74
623.59	1594.57
623.93	1589.69
624.28	1585.60
624.62	1583.57
624.97	1580.21
625.32	1575.64
625.66	1571.50
626.01	1566.24
626.35	1562.93
626.70	1557.74
627.04	1554.64
627.39	1550.50
627.73	1547.40
628.08	1544.79
628.43	1540.71
628.77	1535.64
629.12	1531.10
629.46	1527.57
629.81	1522.64
630.15	1517.31
630.50	1512.05
630.84	1508.26
631.19	1503.19
631.53	1497.24
631.88	1488.71
632.22	1482.60
632.57	1478.45
632.91	1473.00
633.26	1468.10
633.60	1461.45
633.95	1456.81
634.29	1450.00
634.64	1444.95
634.98	1439.62
635.32	1434.57
635.67	1429.86
636.01	1425.14
636.36	1420.26
636.70	1416.43
637.05	1412.07
637.39	1407.07
637.73	1402.00
638.08	1396.98
638.42	1391.90
638.77	1387.21
639.11	1383.02
639.45	1377.74
639.80	1371.52
640.14	1366.10
640.49	1360.83
640.83	1355.93
641.17	1350.00
641.52	1344.57
641.86	1338.81
642.20	1333.14
642.55	1326.14
642.89	1319.98
643.23	1313.43
643.58	1307.95
643.92	1300.07
644.26	1292.64
644.61	1286.67
644.95	1280.19
645.29	1273.45
645.64	1267.79
645.98	1261.45
646.32	1255.05
646.66	1247.62
647.01	1241.14
647.35	1234.81
647.69	1228.36
648.04	1222.02
648.38	1216.48
648.72	1210.38
649.06	1203.17
649.41	1195.26
649.75	1188.45
650.09	1182.10
650.43	1175.38
650.78	1168.31
651.12	1162.02
651.46	1155.40
651.80	1149.14
652.14	1142.10
652.49	1135.74
652.83	1128.21
653.17	1121.21
653.51	1114.14
653.85	1108.64
654.20	1101.79
654.54	1095.10
654.88	1087.88
655.22	1081.52
655.56	1074.10
655.90	1067.55
656.25	1061.21
656.59	1056.10
656.93	1049.86
657.27	1043.62
657.61	1037.71
657.95	1031.62
658.29	1025.26
658.64	1020.40
658.98	1013.43
659.32	1006.55
659.66	1000.40
660.00	994.48
660.34	988.05
660.68	982.14
661.02	975.19
661.36	969.45
661.70	963.33
662.05	958.14
662.39	952.55
662.73	946.36
663.07	941.17
663.41	935.69
663.75	928.40
664.09	922.55
664.43	916.02
664.77	909.45
665.11	904.00
665.45	898.36
665.79	892.24
666.13	886.38
666.47	880.93
666.81	875.40
667.15	869.74
667.49	864.52
667.83	859.71
668.17	854.38
668.51	848.69
668.85	844.05
669.19	839.17
669.53	832.60
669.87	827.31
670.21	821.10
670.55	815.62
670.89	811.17
671.23	805.64
671.57	800.71
671.91	795.81
672.25	789.71
672.58	785.10
672.92	779.10
673.26	774.36
673.60	769.55
673.94	764.43
674.28	759.48
674.62	755.05
674.96	749.90
675.30	745.43
675.64	740.57
675.97	735.12
676.31	729.71
676.65	725.21
676.99	721.40
677.33	717.17
677.67	712.55
678.01	707.43
678.34	703.07
678.68	699.07
679.02	694.50
679.36	690.31
679.70	684.93
680.04	681.00
680.37	675.76
680.71	671.00
681.05	666.45
681.39	662.10
681.73	657.55
682.06	652.79
682.40	648.21
682.74	644.05
683.08	640.36
683.42	635.31
683.75	631.31
684.09	626.26
684.43	621.43
684.77	616.83
685.10	612.38
685.44	608.36
685.78	603.60
686.12	599.48
686.45	594.83
686.79	590.33
687.13	586.50
687.46	582.83
687.80	580.36
688.14	576.02
688.48	572.07
688.81	567.33
689.15	563.33
689.49	559.45
689.82	555.24
690.16	550.45
690.50	546.69
690.83	542.45
691.17	538.26
691.51	534.79
691.84	531.67
692.18	528.21
692.52	524.40
692.85	521.17
693.19	518.45
693.52	515.33
693.86	511.81
694.20	508.29
694.53	505.12
694.87	500.29
695.21	496.55
695.54	492.62
695.88	489.07
696.21	484.52
696.55	481.10
696.88	477.69
697.22	473.93
697.56	471.00
697.89	467.60
698.23	465.17
698.56	461.48
698.90	457.98
699.23	454.69
699.57	452.17
699.90	448.60
700.24	444.81
700.58	442.05
700.91	439.93
701.25	438.21
701.58	436.05
701.92	433.88
702.25	431.29
702.59	428.67
702.92	426.17
703.26	424.60
703.59	422.29
703.93	421.90
704.26	419.93
704.60	417.38
704.93	415.02
705.26	412.07
705.60	410.14
705.93	407.33
706.27	405.36
706.60	403.07
706.94	401.69
707.27	399.40
707.61	397.10
707.94	394.33
708.27	390.71
708.61	387.64
708.94	385.29
709.28	383.31
709.61	381.17
709.94	379.26
710.28	376.95
710.61	374.57
710.95	370.48
711.28	369.81
711.61	367.76
711.95	366.19
712.28	364.02
712.61	361.88
712.95	361.48
713.28	360.29
713.61	357.95
713.95	355.50
714.28	353.55
714.61	351.60
714.95	349.98
715.28	347.90
715.61	346.31
715.95	344.52
716.28	342.69
716.61	341.45
716.95	339.62
717.28	337.98
717.61	336.50
717.94	335.02
718.28	332.00
718.61	330.33
718.94	328.50
719.27	326.88
719.61	325.43
719.94	323.19
720.27	320.40
720.60	318.93
720.94	317.36
721.27	316.10
721.60	315.26
721.93	313.55
722.27	313.07
722.60	311.88
722.93	310.43
723.26	309.52
723.59	308.17
723.93	307.07
724.26	306.05
724.59	304.81
724.92	303.93
725.25	303.26
725.59	302.36
725.92	301.45
726.25	300.57
726.58	299.74
726.91	298.76
727.24	298.74
727.57	297.64
727.91	296.50
728.24	295.95
728.57	294.69
728.90	294.55
729.23	292.88
729.56	293.07
729.89	292.33
730.22	291.19
730.55	290.14
730.89	289.40
731.22	288.71
731.55	287.81
731.88	287.02
732.21	285.79
732.54	285.14
732.87	284.48
733.20	283.57
733.53	282.81
733.86	282.10
734.19	280.55
734.52	280.26
734.85	280.71
735.18	279.60
735.51	279.38
735.84	278.40
736.17	278.36
736.50	276.52
736.83	278.14
737.16	277.40
737.49	276.76
737.82	276.00
738.15	275.24
738.48	274.60
738.81	273.60
739.14	272.88
739.47	271.95
739.80	271.05
740.13	270.71
740.46	269.69
740.79	268.52
741.12	268.21
741.45	267.19
741.78	265.76
742.11	265.67
742.44	264.29
742.77	263.79
743.10	262.86
743.43	262.24
743.75	259.36
744.08	261.33
744.41	260.62
744.74	259.81
745.07	258.88
745.40	258.48
745.73	258.88
746.06	258.43
746.39	257.95
746.71	257.24
747.04	256.38
747.37	255.95
747.70	255.88
748.03	255.48
748.36	254.95
748.68	254.14
749.01	253.00
749.34	252.64
749.67	252.19
750.00	251.88
750.33	252.76
750.65	252.55
750.98	249.67
751.31	249.29
751.64	249.12
751.97	249.98
752.29	249.38
752.62	247.74
752.95	247.10
753.28	246.64
753.60	246.38
753.93	246.62
754.26	246.38
754.59	245.57
754.91	244.64
755.24	244.52
755.57	244.24
755.90	243.76
756.22	243.24
756.55	242.60
756.88	241.88
757.20	240.24
757.53	239.31
757.86	238.98
758.19	238.88
758.51	238.38
758.84	236.83
759.17	236.50
759.49	236.60
759.82	237.26
760.15	237.21
760.47	237.00
760.80	236.24
761.13	236.19
761.45	235.76
761.78	235.76
762.11	235.26
762.43	234.90
762.76	234.60
763.08	234.64
763.41	234.74
763.74	234.52
764.06	234.14
764.39	234.14
764.71	233.90
765.04	233.33
765.37	232.71
765.69	232.67
766.02	232.43
766.34	231.88
766.67	230.88
767.00	230.93
767.32	231.50
767.65	232.50
767.97	232.17
768.30	232.17
768.62	231.79
768.95	231.81
769.27	231.45
769.60	231.74
769.92	231.29
770.25	230.45
770.57	229.95
770.90	229.74
771.22	229.29
771.55	228.95
771.87	229.00
772.20	228.95
772.52	230.24
772.85	232.45
773.17	232.50
773.50	232.40
773.82	231.71
774.15	230.55
774.47	228.95
774.80	228.43
775.12	228.12
775.45	227.86
775.77	227.64
776.09	227.79
776.42	227.52
776.74	227.71
777.07	227.57
777.39	227.57
777.72	227.19
778.04	227.26
778.36	227.10
778.69	226.95
779.01	227.17
779.33	225.36
779.66	223.02
779.98	222.52
780.31	222.43
780.63	223.17
780.95	223.69
781.28	223.67
781.60	223.60
781.92	223.62
782.25	223.81
782.57	223.60
782.89	223.26
783.22	223.07
783.54	222.62
783.86	222.86
784.19	222.74
784.51	223.33
784.83	223.02
785.16	223.02
785.48	222.88
785.80	222.67
786.12	222.88
786.45	222.90
786.77	223.19
787.09	223.12
787.42	222.33
787.74	222.17
788.06	222.36
788.38	222.36
788.71	221.88
789.03	221.76
789.35	222.14
789.67	221.76
789.99	221.67
790.32	221.67
790.64	221.74
790.96	223.36
791.28	222.52
791.61	222.48
791.93	222.40
792.25	222.26
792.57	223.71
792.89	223.02
793.21	223.07
793.54	222.86
793.86	222.79
794.18	222.83
794.50	222.31
794.82	222.12
795.14	222.10
795.47	222.69
795.79	222.67
796.11	221.79
796.43	221.76
796.75	221.55
797.07	221.33
797.39	221.38
797.71	219.83
798.04	220.02
798.36	220.05
798.68	220.02
799.00	220.33
799.32	219.21
799.64	219.71
799.96	219.31
800.28	219.50
800.60	219.14
800.92	219.14
801.24	219.17
801.56	219.19
801.89	218.86
802.21	218.90
802.53	218.43
802.85	219.10
803.17	220.38
803.49	220.07
803.81	220.21
804.13	219.69
804.45	219.29
804.77	219.36
805.09	219.36
805.41	218.81
805.73	218.31
806.05	217.60
806.37	217.38
806.69	217.55
807.01	217.29
807.33	217.57
807.65	217.12
807.97	217.98
808.28	217.60
808.60	217.67
808.92	217.07
809.24	218.62
809.56	218.33
809.88	217.45
810.20	217.69
810.52	217.86
810.84	217.69
811.16	217.62
811.48	217.76
811.80	218.45
812.12	218.48
812.43	218.81
812.75	219.43
813.07	219.33
813.39	219.40
813.71	219.12
814.03	218.69
814.35	218.60
814.67	217.62
814.98	217.36
815.30	217.26
815.62	217.26
815.94	215.64
816.26	215.69
816.58	215.31
816.89	215.60
817.21	214.90
817.53	215.00
817.85	215.07
818.17	214.93
818.48	214.07
818.80	214.69
819.12	214.19
819.44	213.45
819.76	213.29
820.07	213.12
820.39	213.19
820.71	213.31
821.03	213.33
821.34	213.29
821.66	213.86
821.98	214.19
822.30	213.98
822.61	215.29
822.93	214.86
823.25	214.57
823.57	214.26
823.88	214.69
824.20	214.43
824.52	214.71
824.83	214.24
825.15	213.95
825.47	213.76
825.79	214.05
826.10	214.05
826.42	213.93
826.74	214.19
827.05	214.21
827.37	214.43
827.69	214.19
828.00	214.36
828.32	214.19
828.64	213.95
828.95	215.26
829.27	214.60
829.58	214.71
829.90	215.12
830.22	215.36
830.53	214.98
830.85	214.93
831.17	214.29
831.48	214.57
831.80	214.69
832.11	214.60
832.43	214.31
832.75	214.29
833.06	215.50
833.38	214.98
833.69	214.88
834.01	215.10
834.32	215.29
834.64	214.98
834.96	215.19
835.27	215.19
835.59	214.17
835.90	213.79
836.22	213.83
836.53	213.43
836.85	213.07
837.16	215.21
837.48	215.43
837.79	216.12
838.11	216.12
838.42	216.24
838.74	216.38
839.05	216.07
839.37	216.17
839.68	214.95
840.00	214.64
840.31	214.95
840.63	214.38
840.94	214.10
841.26	213.98
841.57	213.90
841.88	214.00
842.20	214.05
842.51	213.88
842.83	213.74
843.14	215.62
843.46	215.76
843.77	214.50
844.08	214.36
844.40	213.88
844.71	213.57
845.03	213.43
845.34	213.43
845.65	213.55
845.97	213.55
846.28	213.69
846.60	213.88
846.91	213.60
847.22	213.69
847.54	214.19
847.85	214.24
848.16	214.33
848.48	213.90
848.79	214.69
849.10	214.93
849.42	215.07
849.73	213.36
850.04	213.02
850.36	212.29
850.67	212.71
850.98	212.95
851.30	213.24
851.61	213.02
851.92	213.02
852.23	213.57
852.55	213.55
852.86	213.48
853.17	213.60
853.49	214.05
853.80	214.48
854.11	214.60
854.42	214.95
854.74	214.40
855.05	214.43
855.36	213.24
855.67	213.26
855.99	213.14
856.30	215.67
856.61	215.86
856.92	216.10
857.23	216.00
857.55	215.62
857.86	215.69
858.17	216.14
858.48	215.74
858.79	215.38
859.11	215.50
859.42	215.33
859.73	215.10
860.04	214.88
860.35	214.12
860.66	213.52
860.98	213.26
861.29	213.62
861.60	213.64
861.91	214.17
862.22	213.90
862.53	213.67
862.84	211.02
863.16	211.60
863.47	211.12
863.78	210.93
864.09	211.33
864.40	211.52
864.71	211.40
865.02	211.55
865.33	211.26
865.64	211.05
865.95	211.31
866.27	212.71
866.58	212.55
866.89	213.14
867.20	213.05
867.51	212.83
867.82	212.74
868.13	213.26
868.44	212.76
868.75	213.31
869.06	213.55
869.37	213.79
869.68	212.95
869.99	213.12
870.30	213.21
870.61	213.14
870.92	212.64
871.23	212.52
871.54	212.86
871.85	213.45
872.16	213.69
872.47	213.48
872.78	212.48
873.09	212.81
873.40	212.38
873.71	212.76
874.02	212.81
874.33	212.64
874.64	212.31
874.95	212.88
875.26	212.31
875.56	212.17
875.87	212.05
876.18	212.21
876.49	214.45
876.80	214.40
877.11	213.95
877.42	214.07
877.73	214.12
878.04	213.81
878.35	213.79
878.66	213.81
878.96	213.62
879.27	213.60
879.58	213.50
879.89	213.55
880.20	213.95
880.51	214.12
880.82	214.07
881.12	214.05
881.43	213.40
881.74	213.33
882.05	213.29
882.36	213.40
882.67	213.52
882.97	211.31
883.28	211.19
883.59	211.55
883.90	211.90
884.21	212.36
884.51	212.24
884.82	211.74
885.13	211.52
885.44	211.60
885.74	211.43
886.05	211.45
886.36	211.40
886.67	210.88
886.98	211.55
887.28	211.60
887.59	211.67
887.90	211.95
888.20	212.02
888.51	212.48
888.82	212.12
889.13	212.19
889.43	213.90
889.74	213.93
890.05	213.67
890.35	213.29
890.66	213.02
890.97	212.98
891.28	213.10
891.58	213.36
891.89	213.38
892.20	213.26
892.50	212.88
892.81	212.83
893.12	212.83
893.42	212.10
893.73	212.21
894.04	212.14
894.34	212.14
894.65	211.83
894.95	211.50
895.26	211.64
895.57	212.50
895.87	210.69
896.18	210.74
896.48	211.02
896.79	210.83
897.10	210.83
897.40	210.88
897.71	211.00
898.01	210.79
898.32	211.12
898.63	210.98
898.93	210.95
899.24	211.21
899.54	211.05
899.85	211.05
900.15	211.05
900.46	211.26
900.76	211.55
901.07	211.55
901.38	211.76
901.68	212.07
901.99	211.10
902.29	211.14
902.60	211.10
902.90	210.74
903.21	210.76
903.51	210.67
903.82	211.00
904.12	211.10
904.43	211.38
904.73	211.14
905.03	211.24
905.34	213.29
905.64	212.88
905.95	213.00
906.25	213.14
906.56	212.95
906.86	212.62
907.17	212.31
907.47	212.45
907.77	212.05
908.08	211.67
908.38	211.86
908.69	212.31
908.99	212.69
909.30	212.98
909.60	213.29
909.90	213.60
910.21	213.24
910.51	213.00
910.81	212.95
911.12	213.17
911.42	213.26
911.73	211.10
912.03	211.19
912.33	211.43
912.64	211.19
912.94	211.33
913.24	211.19
913.55	210.86
913.85	210.74
914.15	211.31
914.46	211.50
914.76	211.14
915.06	210.98
915.37	210.62
915.67	210.38
915.97	210.26
916.27	209.62
916.58	209.74
916.88	209.55
917.18	209.36
917.49	210.64
917.79	210.57
918.09	211.14
918.39	211.86
918.70	211.57
919.00	211.62
919.30	212.33
919.60	212.26
919.91	212.48
920.21	212.62
920.51	211.98
920.81	212.02
921.12	212.29
921.42	212.19
921.72	212.38
922.02	212.33
922.32	212.83
922.63	213.07
922.93	214.26
923.23	214.60
923.53	214.33
923.83	213.10
924.13	213.36
924.44	213.48
924.74	213.81
925.04	214.50
925.34	214.57
925.64	213.93
925.94	214.02
926.24	215.00
926.55	214.83
926.85	215.12
927.15	215.02
927.45	215.12
927.75	215.05
928.05	215.19
928.35	215.26
928.65	215.40
928.95	215.57
929.26	214.38
929.56	214.50
929.86	214.76
930.16	214.57
930.46	214.40
930.76	214.05
931.06	212.93
931.36	212.52
931.66	212.71
931.96	213.00
932.26	213.21
932.56	212.38
932.86	212.79
933.16	213.05
933.46	212.76
933.76	212.45
934.06	212.93
934.36	213.24
934.66	213.31
934.96	213.10
935.26	213.14
935.56	213.43
935.86	212.93
936.16	212.74
936.46	212.48
936.76	212.33
937.06	212.24
937.36	212.64
937.66	212.55
937.96	212.57
938.26	211.98
938.56	211.74
938.86	212.02
939.16	212.40
939.46	212.55
939.76	212.86
940.06	212.81
940.35	212.24
940.65	211.43
940.95	211.64
941.25	210.95
941.55	210.81
941.85	210.83
942.15	211.57
942.45	212.19
942.75	212.31
943.04	212.36
943.34	212.71
943.64	212.40
943.94	212.05
944.24	212.07
944.54	212.29
944.84	212.19
945.13	211.74
945.43	211.26
945.73	211.07
946.03	211.12
946.33	210.86
946.62	210.71
946.92	210.69
947.22	210.62
947.52	210.86
947.82	211.10
948.11	210.90
948.41	210.12
948.71	209.43
949.01	209.64
949.31	209.60
949.60	209.50
949.90	209.76
950.20	209.86
950.50	209.83
950.79	209.71
951.09	210.10
951.39	210.07
951.69	209.81
951.98	210.10
952.28	209.88
952.58	210.10
952.87	210.17
953.17	210.57
953.47	210.40
953.76	210.57
954.06	210.17
954.36	209.79
954.66	210.07
954.95	210.71
955.25	210.88
955.55	211.21
955.84	210.74
956.14	210.88
956.44	210.95
956.73	210.48
957.03	210.60
957.32	210.38
957.62	210.17
957.92	210.60
958.21	210.36
958.51	212.71
958.81	213.02
959.10	213.31
959.40	213.60
959.69	213.90
959.99	213.95
960.29	213.79
960.58	213.81
960.88	214.45
961.17	214.19
961.47	214.38
961.76	214.05
962.06	214.71
962.36	214.60
962.65	214.69
962.95	214.74
963.24	214.67
963.54	214.90
963.83	215.29
964.13	215.07
964.42	214.81
964.72	213.26
965.01	213.36
965.31	213.14
965.60	212.71
965.90	213.83
966.19	213.43
966.49	213.95
966.78	214.10
967.08	213.93
967.37	213.83
967.67	213.24
967.96	213.62
968.26	213.29
968.55	213.48
968.85	213.38
969.14	213.64
969.43	213.55
969.73	213.38
970.02	213.29
970.32	213.40
970.61	213.19
970.91	212.48
971.20	212.07
971.49	211.95
971.79	212.10
972.08	210.55
972.38	210.79
972.67	210.50
972.96	210.76
973.26	210.24
973.55	211.12
973.85	211.07
974.14	210.57
974.43	210.62
974.73	210.17
975.02	210.00
975.31	209.76
975.61	209.64
975.90	209.57
976.19	209.40
976.49	209.50
976.78	209.81
977.07	209.76
977.37	210.14
977.66	210.31
977.95	210.07
978.24	210.38
978.54	210.71
978.83	210.64
979.12	210.38
979.42	210.50
979.71	209.90
980.00	210.00
980.29	210.29
980.59	210.17
980.88	210.93
981.17	210.83
981.46	210.93
981.76	210.64
982.05	211.31
982.34	211.60
982.63	211.60
982.93	211.52
983.22	212.21
983.51	212.00
983.80	212.29
984.09	212.60
984.39	212.33
984.68	211.90
984.97	211.79
985.26	211.55
985.55	211.69
985.85	211.12
986.14	211.26
986.43	211.60
986.72	211.36
987.01	210.48
987.30	210.69
987.59	210.48
987.89	211.02
988.18	210.05
988.47	209.67
988.76	209.33
989.05	209.21
989.34	208.57
989.63	209.21
989.92	208.69
990.22	208.38
990.51	208.29
990.80	208.43
991.09	208.83
991.38	209.26
991.67	209.07
991.96	209.14
992.25	209.38
992.54	209.02
992.83	209.19
993.12	209.24
993.41	209.60
993.70	210.60
993.99	210.83
994.28	211.29
994.58	211.60
994.87	211.67
995.16	211.43
995.45	211.21
995.74	210.48
996.03	211.02
996.32	211.29
996.61	211.76
996.90	211.55
997.19	211.38
997.48	211.38
997.77	211.38
998.06	211.45
998.34	211.21
998.63	211.12
998.92	211.07
999.21	211.55
999.50	211.40
999.79	210.57
1000.08	210.50
1000.37	210.55
1000.66	210.38
1000.95	210.57
1001.24	210.86
1001.53	211.52
1001.82	211.36
1002.11	210.71
1002.40	210.88
1002.68	211.36
1002.97	212.98
1003.26	212.57
1003.55	212.26
1003.84	212.12
1004.13	213.00
1004.42	212.79
1004.71	212.71
1004.99	212.48
1005.28	213.07
1005.57	212.90
1005.86	212.81
1006.15	212.62
1006.44	212.26
1006.72	212.40
1007.01	212.21
1007.30	212.29
1007.59	212.00
1007.88	212.17
1008.17	212.40
1008.45	212.02
1008.74	211.10
1009.03	210.19
1009.32	210.45
1009.60	210.43
1009.89	210.36
1010.18	209.26
1010.47	209.19
1010.76	209.19
1011.04	209.36
1011.33	209.10
1011.62	209.21
1011.91	209.43
1012.19	209.45
1012.48	209.50
1012.77	209.67
1013.05	210.86
1013.34	210.71
1013.63	210.43
1013.92	210.57
1014.20	210.57
1014.49	210.69
1014.78	211.05
1015.06	210.31
1015.35	210.10
1015.64	210.33
1015.92	210.64
1016.21	210.95
1016.50	211.05
1016.78	211.40
1017.07	211.55
1017.36	211.05
1017.64	210.71
1017.93	210.98
1018.22	210.83
1018.50	210.88
1018.79	210.67
1019.08	209.45
1019.36	209.76
1019.65	209.79
1019.93	210.10
1020.22	210.36
1020.51	211.43
1020.79	211.05
1021.08	208.00
1021.36	206.50
1021.65	209.50
1021.94	208.50
1022.22	214.00
1022.51	207.50
1022.79	217.50
1023.08	214.00
1023.36	236.00
1023.65	204.50
>>>>>End Processed Spectral Data<<<<<
