SpectraSuite Data File
++++++++++++++++++++++++++++++++++++
Date: Tue Apr 02 18:40:00 EDT 2013
User: group
Dark Spectrum Present: No
Reference Spectrum Present: No
Number of Sampled Component Spectra: 1
Spectrometers: USB2E7196
Integration Time (usec): 580000 (USB2E7196)
Spectra Averaged: 2 (USB2E7196)
Boxcar Smoothing: 10 (USB2E7196)
Correct for Electrical Dark: No (USB2E7196)
Strobe/Lamp Enabled: No (USB2E7196)
Correct for Detector Non-linearity: No (USB2E7196)
Correct for Stray Light: No (USB2E7196)
Number of Pixels in Processed Spectrum: 2048
>>>>>Begin Processed Spectral Data<<<<<
339.09	0.00
339.48	191.50
339.86	192.50
340.24	192.00
340.63	197.50
341.01	233.50
341.39	199.50
341.78	203.00
342.16	207.00
342.54	202.00
342.93	196.50
343.31	206.14
343.69	206.74
344.07	207.52
344.46	208.43
344.84	209.12
345.22	207.93
345.60	208.50
345.99	208.98
346.37	209.12
346.75	209.26
347.13	209.12
347.52	209.29
347.90	209.93
348.28	210.07
348.66	210.60
349.05	210.10
349.43	210.31
349.81	210.45
350.19	210.60
350.57	210.79
350.96	211.00
351.34	211.31
351.72	211.38
352.10	211.64
352.48	211.52
352.87	211.31
353.25	211.24
353.63	211.10
354.01	211.05
354.39	211.31
354.77	211.55
355.15	212.24
355.54	212.29
355.92	211.79
356.30	211.86
356.68	213.33
357.06	213.62
357.44	213.33
357.82	213.38
358.20	214.33
358.58	214.45
358.97	214.57
359.35	215.17
359.73	216.00
360.11	215.83
360.49	215.95
360.87	216.26
361.25	216.81
361.63	217.55
362.01	217.83
362.39	217.52
362.77	217.93
363.15	217.90
363.53	217.93
363.91	218.07
364.29	218.17
364.67	216.14
365.05	216.07
365.43	216.57
365.81	216.71
366.19	216.81
366.57	217.45
366.95	217.33
367.33	216.88
367.71	216.55
368.09	216.95
368.47	217.00
368.85	216.98
369.23	217.45
369.61	216.71
369.99	217.36
370.37	217.98
370.75	218.55
371.13	218.05
371.51	217.83
371.89	218.14
372.27	218.12
372.65	218.55
373.03	219.00
373.41	218.90
373.78	218.86
374.16	218.19
374.54	217.50
374.92	217.36
375.30	217.40
375.68	217.14
376.06	217.05
376.44	216.86
376.82	217.05
377.19	216.62
377.57	216.69
377.95	215.93
378.33	215.40
378.71	214.43
379.09	214.79
379.47	214.98
379.84	214.64
380.22	214.33
380.60	213.64
380.98	213.43
381.36	213.17
381.73	213.10
382.11	213.19
382.49	213.31
382.87	212.88
383.25	212.98
383.62	215.50
384.00	215.07
384.38	215.31
384.76	215.69
385.13	216.48
385.51	216.45
385.89	216.24
386.27	216.29
386.64	216.43
387.02	216.24
387.40	216.17
387.78	216.21
388.15	216.26
388.53	216.21
388.91	216.26
389.29	216.07
389.66	216.21
390.04	215.90
390.42	216.24
390.79	216.62
391.17	216.31
391.55	214.02
391.92	214.07
392.30	214.02
392.68	213.43
393.05	213.07
393.43	213.05
393.81	213.21
394.18	213.19
394.56	213.36
394.94	213.86
395.31	213.60
395.69	214.31
396.06	214.81
396.44	215.10
396.82	214.69
397.19	215.95
397.57	215.71
397.95	216.24
398.32	215.79
398.70	216.07
399.07	216.64
399.45	216.67
399.82	216.69
400.20	216.83
400.58	216.86
400.95	216.31
401.33	216.76
401.70	218.07
402.08	218.07
402.45	218.26
402.83	218.40
403.20	218.93
403.58	218.95
403.95	219.21
404.33	219.86
404.71	220.45
405.08	221.40
405.46	221.74
405.83	222.14
406.21	222.36
406.58	222.79
406.96	222.98
407.33	223.36
407.70	224.40
408.08	226.45
408.45	227.45
408.83	228.60
409.20	229.31
409.58	229.02
409.95	230.31
410.33	231.05
410.70	231.57
411.08	232.79
411.45	233.67
411.82	234.74
412.20	236.19
412.57	238.36
412.95	237.95
413.32	239.83
413.69	241.19
414.07	243.26
414.44	245.24
414.82	247.60
415.19	250.14
415.56	252.52
415.94	254.10
416.31	257.07
416.68	260.02
417.06	263.40
417.43	266.98
417.81	270.93
418.18	274.93
418.55	279.14
418.93	283.26
419.30	287.88
419.67	292.71
420.04	297.45
420.42	302.40
420.79	310.50
421.16	316.67
421.54	324.12
421.91	330.48
422.28	337.24
422.66	344.19
423.03	352.76
423.40	360.14
423.77	367.71
424.15	375.74
424.52	383.86
424.89	393.24
425.26	402.02
425.64	409.98
426.01	418.95
426.38	428.62
426.75	438.76
427.13	448.55
427.50	458.67
427.87	469.69
428.24	480.45
428.61	489.43
428.99	501.62
429.36	512.52
429.73	525.19
430.10	537.64
430.47	550.12
430.85	561.60
431.22	575.05
431.59	590.88
431.96	604.52
432.33	619.67
432.70	634.29
433.08	651.05
433.45	667.69
433.82	684.50
434.19	702.50
434.56	720.62
434.93	738.07
435.30	755.14
435.68	774.14
436.05	792.36
436.42	810.60
436.79	827.71
437.16	846.86
437.53	865.79
437.90	884.86
438.27	904.38
438.64	924.19
439.01	943.05
439.38	957.95
439.75	974.17
440.13	992.83
440.50	1010.19
440.87	1024.45
441.24	1038.86
441.61	1054.40
441.98	1067.43
442.35	1081.17
442.72	1095.07
443.09	1110.29
443.46	1117.98
443.83	1123.90
444.20	1128.83
444.57	1134.76
444.94	1138.17
445.31	1142.52
445.68	1148.02
446.05	1149.83
446.42	1148.17
446.79	1146.40
447.16	1144.43
447.53	1142.81
447.90	1135.43
448.27	1127.86
448.64	1118.38
449.01	1112.12
449.37	1100.33
449.74	1087.26
450.11	1074.81
450.48	1058.24
450.85	1040.24
451.22	1027.00
451.59	1014.10
451.96	1001.93
452.33	985.50
452.70	970.38
453.07	951.31
453.43	930.64
453.80	912.29
454.17	895.36
454.54	878.88
454.91	861.36
455.28	843.71
455.65	827.98
456.02	815.45
456.38	801.21
456.75	783.57
457.12	768.71
457.49	754.81
457.86	738.86
458.23	728.71
458.59	716.21
458.96	703.38
459.33	692.10
459.70	680.43
460.07	671.24
460.43	660.29
460.80	651.17
461.17	643.43
461.54	634.48
461.91	625.48
462.27	616.26
462.64	608.62
463.01	600.71
463.38	592.98
463.74	581.50
464.11	574.19
464.48	568.02
464.85	561.55
465.21	557.02
465.58	551.60
465.95	544.10
466.32	538.86
466.68	533.05
467.05	527.48
467.42	522.48
467.78	516.76
468.15	511.50
468.52	507.36
468.88	500.81
469.25	495.71
469.62	492.38
469.98	488.05
470.35	484.36
470.72	480.62
471.08	476.31
471.45	473.55
471.82	471.43
472.18	467.90
472.55	465.69
472.92	461.33
473.28	457.95
473.65	455.10
474.02	452.26
474.38	450.02
474.75	447.81
475.11	444.90
475.48	443.36
475.85	441.31
476.21	438.81
476.58	437.57
476.94	436.76
477.31	435.21
477.67	434.83
478.04	433.57
478.41	432.64
478.77	433.90
479.14	432.71
479.50	431.62
479.87	431.31
480.23	430.19
480.60	430.14
480.96	430.17
481.33	431.00
481.69	430.95
482.06	431.05
482.42	431.17
482.79	431.74
483.15	431.64
483.52	432.64
483.88	433.81
484.25	434.52
484.61	434.95
484.98	435.31
485.34	436.36
485.71	438.19
486.07	439.38
486.44	438.79
486.80	440.29
487.17	441.83
487.53	444.17
487.90	447.12
488.26	449.90
488.62	452.98
488.99	454.95
489.35	457.93
489.72	460.81
490.08	463.55
490.44	466.36
490.81	470.36
491.17	473.83
491.54	476.95
491.90	481.10
492.26	485.21
492.63	489.62
492.99	493.40
493.36	497.55
493.72	502.48
494.08	507.14
494.45	512.64
494.81	518.60
495.17	523.02
495.54	528.33
495.90	533.48
496.26	538.64
496.63	544.74
496.99	550.50
497.35	556.90
497.72	564.43
498.08	570.98
498.44	577.36
498.80	584.55
499.17	591.98
499.53	599.21
499.89	606.90
500.26	615.00
500.62	622.55
500.98	630.45
501.34	638.05
501.71	646.31
502.07	653.81
502.43	660.69
502.79	669.07
503.16	676.83
503.52	685.36
503.88	693.19
504.24	701.05
504.60	709.67
504.97	718.14
505.33	725.76
505.69	735.07
506.05	743.55
506.41	751.79
506.78	759.98
507.14	767.62
507.50	775.90
507.86	784.07
508.22	792.64
508.59	800.40
508.95	809.29
509.31	818.83
509.67	827.29
510.03	836.24
510.39	844.76
510.75	853.21
511.12	861.19
511.48	870.64
511.84	878.98
512.20	887.05
512.56	895.43
512.92	904.62
513.28	912.98
513.64	921.50
514.00	929.74
514.37	938.60
514.73	947.14
515.09	956.24
515.45	964.00
515.81	972.40
516.17	980.43
516.53	987.86
516.89	994.90
517.25	1003.45
517.61	1011.31
517.97	1019.07
518.33	1026.24
518.69	1034.33
519.05	1041.69
519.41	1049.57
519.77	1058.38
520.13	1065.36
520.49	1071.07
520.85	1077.50
521.21	1084.81
521.57	1092.17
521.93	1098.24
522.29	1105.52
522.65	1111.38
523.01	1117.74
523.37	1123.95
523.73	1130.98
524.09	1137.93
524.45	1144.69
524.81	1149.79
525.17	1156.60
525.53	1162.76
525.89	1168.93
526.25	1174.57
526.61	1179.48
526.97	1184.98
527.33	1189.52
527.68	1196.86
528.04	1203.31
528.40	1209.38
528.76	1214.83
529.12	1220.29
529.48	1226.24
529.84	1231.69
530.20	1237.02
530.56	1243.26
530.91	1248.74
531.27	1253.98
531.63	1258.60
531.99	1262.38
532.35	1268.55
532.71	1272.88
533.07	1278.62
533.42	1285.81
533.78	1291.05
534.14	1297.07
534.50	1301.55
534.86	1307.52
535.21	1311.36
535.57	1317.02
535.93	1321.74
536.29	1327.14
536.65	1332.40
537.00	1336.95
537.36	1340.67
537.72	1344.60
538.08	1349.24
538.44	1353.33
538.79	1358.14
539.15	1362.95
539.51	1369.10
539.87	1372.93
540.22	1377.67
540.58	1381.67
540.94	1383.71
541.29	1387.79
541.65	1390.17
542.01	1394.86
542.37	1397.83
542.72	1401.19
543.08	1404.29
543.44	1408.62
543.79	1411.57
544.15	1415.38
544.51	1419.93
544.87	1424.95
545.22	1429.48
545.58	1433.00
545.94	1437.00
546.29	1440.48
546.65	1444.45
547.01	1447.26
547.36	1450.98
547.72	1454.71
548.07	1458.36
548.43	1461.81
548.79	1465.26
549.14	1469.90
549.50	1473.45
549.86	1476.60
550.21	1481.10
550.57	1485.17
550.92	1487.31
551.28	1491.31
551.64	1494.24
551.99	1497.83
552.35	1501.90
552.70	1504.93
553.06	1508.93
553.41	1512.52
553.77	1517.55
554.13	1521.45
554.48	1526.33
554.84	1531.00
555.19	1534.64
555.55	1540.81
555.90	1546.02
556.26	1550.33
556.61	1554.71
556.97	1558.90
557.32	1563.62
557.68	1567.50
558.03	1571.81
558.39	1577.24
558.74	1581.50
559.10	1586.29
559.45	1590.17
559.81	1594.36
560.16	1599.12
560.52	1602.98
560.87	1608.52
561.23	1611.57
561.58	1617.90
561.94	1621.74
562.29	1626.64
562.64	1632.67
563.00	1635.12
563.35	1639.17
563.71	1644.21
564.06	1648.98
564.42	1653.98
564.77	1659.81
565.12	1664.69
565.48	1671.52
565.83	1676.98
566.19	1682.17
566.54	1687.10
566.89	1692.62
567.25	1698.19
567.60	1705.86
567.96	1713.31
568.31	1718.45
568.66	1724.76
569.02	1727.50
569.37	1731.33
569.72	1735.05
570.08	1738.40
570.43	1742.95
570.78	1747.29
571.14	1752.05
571.49	1756.33
571.84	1760.71
572.20	1764.02
572.55	1768.29
572.90	1769.74
573.26	1772.55
573.61	1775.05
573.96	1778.00
574.31	1781.33
574.67	1783.67
575.02	1784.21
575.37	1784.93
575.72	1785.55
576.08	1788.05
576.43	1790.29
576.78	1792.76
577.13	1794.55
577.49	1796.64
577.84	1798.26
578.19	1801.14
578.54	1802.86
578.90	1805.52
579.25	1807.05
579.60	1808.38
579.95	1809.48
580.30	1811.50
580.66	1813.24
581.01	1814.79
581.36	1815.76
581.71	1815.31
582.06	1816.62
582.42	1818.52
582.77	1819.00
583.12	1821.40
583.47	1821.19
583.82	1822.55
584.17	1823.17
584.53	1825.19
584.88	1825.67
585.23	1827.52
585.58	1826.86
585.93	1825.95
586.28	1825.21
586.63	1826.07
586.98	1826.71
587.34	1827.24
587.69	1826.90
588.04	1825.95
588.39	1825.71
588.74	1824.83
589.09	1825.88
589.44	1823.62
589.79	1822.55
590.14	1821.95
590.49	1819.45
590.84	1818.93
591.19	1817.79
591.54	1817.02
591.89	1814.52
592.25	1816.19
592.60	1813.19
592.95	1812.64
593.30	1811.62
593.65	1810.19
594.00	1807.19
594.35	1811.07
594.70	1808.74
595.05	1806.40
595.40	1804.67
595.75	1802.67
596.10	1802.36
596.45	1800.50
596.80	1799.93
597.15	1798.31
597.50	1796.90
597.85	1797.10
598.19	1794.64
598.54	1793.02
598.89	1790.88
599.24	1789.52
599.59	1784.64
599.94	1783.10
600.29	1781.36
600.64	1779.57
600.99	1778.14
601.34	1776.57
601.69	1768.10
602.04	1765.10
602.39	1762.12
602.74	1760.83
603.08	1758.38
603.43	1756.02
603.78	1753.57
604.13	1750.60
604.48	1746.93
604.83	1744.95
605.18	1741.55
605.53	1738.19
605.87	1734.43
606.22	1730.60
606.57	1726.83
606.92	1722.60
607.27	1719.64
607.62	1715.98
607.96	1713.00
608.31	1708.57
608.66	1705.19
609.01	1701.67
609.36	1698.90
609.70	1696.00
610.05	1691.67
610.40	1687.83
610.75	1682.67
611.10	1678.52
611.44	1674.00
611.79	1669.48
612.14	1663.64
612.49	1657.71
612.83	1653.55
613.18	1648.86
613.53	1645.14
613.88	1640.48
614.22	1635.55
614.57	1629.74
614.92	1623.36
615.27	1618.07
615.61	1612.50
615.96	1606.71
616.31	1601.36
616.65	1596.45
617.00	1591.24
617.35	1585.71
617.70	1579.98
618.04	1575.02
618.39	1569.12
618.74	1563.81
619.08	1557.98
619.43	1552.36
619.78	1547.57
620.12	1542.19
620.47	1536.81
620.82	1530.71
621.16	1523.71
621.51	1519.24
621.85	1513.76
622.20	1508.60
622.55	1501.71
622.89	1495.81
623.24	1489.90
623.59	1483.81
623.93	1477.55
624.28	1472.00
624.62	1468.62
624.97	1465.40
625.32	1460.31
625.66	1454.50
626.01	1448.67
626.35	1443.79
626.70	1438.17
627.04	1433.14
627.39	1427.17
627.73	1422.31
628.08	1416.81
628.43	1411.83
628.77	1406.12
629.12	1400.43
629.46	1395.19
629.81	1390.26
630.15	1384.45
630.50	1379.36
630.84	1373.52
631.19	1367.02
631.53	1360.38
631.88	1351.67
632.22	1343.52
632.57	1337.19
632.91	1330.55
633.26	1324.69
633.60	1317.79
633.95	1311.71
634.29	1305.10
634.64	1299.71
634.98	1292.17
635.32	1287.12
635.67	1282.45
636.01	1276.57
636.36	1270.00
636.70	1264.57
637.05	1258.76
637.39	1254.31
637.73	1248.38
638.08	1243.79
638.42	1238.29
638.77	1233.36
639.11	1227.12
639.45	1221.19
639.80	1214.36
640.14	1208.64
640.49	1202.50
640.83	1196.79
641.17	1190.95
641.52	1184.48
641.86	1177.62
642.20	1172.55
642.55	1165.24
642.89	1158.26
643.23	1151.81
643.58	1146.86
643.92	1139.38
644.26	1132.00
644.61	1124.93
644.95	1117.95
645.29	1109.74
645.64	1103.74
645.98	1096.52
646.32	1090.31
646.66	1083.38
647.01	1076.81
647.35	1070.55
647.69	1063.79
648.04	1057.86
648.38	1051.62
648.72	1045.69
649.06	1039.67
649.41	1033.10
649.75	1026.55
650.09	1020.19
650.43	1013.69
650.78	1005.98
651.12	999.14
651.46	993.21
651.80	986.83
652.14	980.76
652.49	975.62
652.83	968.36
653.17	961.93
653.51	955.79
653.85	950.40
654.20	943.88
654.54	937.10
654.88	930.98
655.22	925.36
655.56	918.71
655.90	912.02
656.25	905.33
656.59	898.31
656.93	892.17
657.27	886.79
657.61	880.00
657.95	875.00
658.29	869.21
658.64	864.24
658.98	857.69
659.32	851.45
659.66	845.48
660.00	840.52
660.34	835.17
660.68	829.57
661.02	823.45
661.36	818.45
661.70	813.26
662.05	807.76
662.39	801.90
662.73	797.10
663.07	792.64
663.41	787.38
663.75	782.29
664.09	776.79
664.43	770.52
664.77	765.40
665.11	759.31
665.45	754.31
665.79	748.45
666.13	743.43
666.47	738.50
666.81	732.90
667.15	726.98
667.49	721.76
667.83	717.31
668.17	712.74
668.51	707.17
668.85	702.38
669.19	698.07
669.53	691.98
669.87	686.21
670.21	680.98
670.55	675.90
670.89	672.12
671.23	667.79
671.57	663.31
671.91	659.31
672.25	655.21
672.58	651.67
672.92	646.50
673.26	642.10
673.60	637.43
673.94	633.60
674.28	629.71
674.62	625.98
674.96	621.26
675.30	616.98
675.64	613.12
675.97	608.69
676.31	604.31
676.65	600.33
676.99	597.67
677.33	593.21
677.67	589.55
678.01	584.81
678.34	581.07
678.68	577.57
679.02	573.57
679.36	569.40
679.70	564.76
680.04	561.14
680.37	556.71
680.71	552.90
681.05	549.05
681.39	545.10
681.73	540.79
682.06	536.93
682.40	532.62
682.74	529.40
683.08	526.43
683.42	522.60
683.75	519.67
684.09	514.74
684.43	511.36
684.77	507.81
685.10	504.31
685.44	500.67
685.78	497.26
686.12	493.62
686.45	489.60
686.79	486.02
687.13	483.29
687.46	480.31
687.80	477.43
688.14	474.07
688.48	470.95
688.81	467.52
689.15	465.21
689.49	462.19
689.82	458.60
690.16	454.71
690.50	451.60
690.83	448.29
691.17	445.17
691.51	442.26
691.84	439.74
692.18	436.81
692.52	433.71
692.85	430.83
693.19	429.05
693.52	426.76
693.86	423.95
694.20	421.12
694.53	419.07
694.87	416.26
695.21	413.40
695.54	410.93
695.88	408.43
696.21	404.67
696.55	402.29
696.88	400.19
697.22	397.98
697.56	395.86
697.89	393.67
698.23	391.88
698.56	389.38
698.90	386.98
699.23	384.74
699.57	382.81
699.90	380.45
700.24	377.24
700.58	375.12
700.91	373.55
701.25	372.98
701.58	371.14
701.92	369.62
702.25	367.67
702.59	365.36
702.92	363.40
703.26	362.10
703.59	360.24
703.93	359.64
704.26	358.14
704.60	356.19
704.93	354.52
705.26	352.43
705.60	351.00
705.93	348.71
706.27	347.71
706.60	346.26
706.94	345.14
707.27	343.64
707.61	342.52
707.94	340.50
708.27	337.29
708.61	335.36
708.94	333.62
709.28	332.43
709.61	330.88
709.94	329.43
710.28	327.88
710.61	326.33
710.95	323.43
711.28	322.95
711.61	321.45
711.95	320.07
712.28	318.69
712.61	317.19
712.95	317.21
713.28	316.29
713.61	314.76
713.95	312.93
714.28	311.64
714.61	310.12
714.95	309.00
715.28	307.71
715.61	306.26
715.95	305.10
716.28	303.64
716.61	302.83
716.95	301.62
717.28	300.31
717.61	299.26
717.94	298.07
718.28	295.60
718.61	294.62
718.94	293.10
719.27	292.10
719.61	291.38
719.94	289.67
720.27	287.55
720.60	286.29
720.94	285.40
721.27	284.98
721.60	284.19
721.93	283.07
722.27	283.05
722.60	282.55
722.93	281.29
723.26	280.36
723.59	279.45
723.93	278.86
724.26	278.24
724.59	277.48
724.92	276.86
725.25	276.88
725.59	276.12
725.92	276.05
726.25	275.64
726.58	274.95
726.91	274.07
727.24	274.19
727.57	273.88
727.91	272.74
728.24	271.86
728.57	271.10
728.90	270.81
729.23	269.24
729.56	269.60
729.89	269.24
730.22	268.76
730.55	267.86
730.89	267.17
731.22	266.48
731.55	265.64
731.88	265.07
732.21	263.88
732.54	263.12
732.87	262.17
733.20	261.40
733.53	260.64
733.86	260.31
734.19	259.07
734.52	258.60
734.85	259.62
735.18	258.86
735.51	259.29
735.84	259.12
736.17	259.19
736.50	257.76
736.83	259.50
737.16	258.95
737.49	258.71
737.82	258.07
738.15	258.00
738.48	257.62
738.81	257.02
739.14	256.48
739.47	255.90
739.80	255.71
740.13	255.50
740.46	254.86
740.79	254.17
741.12	253.95
741.45	253.26
741.78	251.74
742.11	251.93
742.44	250.60
742.77	250.07
743.10	249.48
743.43	248.76
743.75	246.29
744.08	248.45
744.41	247.62
744.74	247.07
745.07	246.19
745.40	246.12
745.73	246.38
746.06	246.19
746.39	246.05
746.71	245.45
747.04	244.81
747.37	244.36
747.70	244.62
748.03	244.10
748.36	244.14
748.68	243.90
749.01	242.71
749.34	242.57
749.67	242.17
750.00	242.26
750.33	243.67
750.65	243.74
750.98	241.07
751.31	241.19
751.64	241.31
751.97	242.29
752.29	241.90
752.62	241.00
752.95	240.71
753.28	240.21
753.60	239.71
753.93	240.07
754.26	240.05
754.59	238.83
754.91	238.29
755.24	237.76
755.57	237.38
755.90	237.24
756.22	236.93
756.55	236.55
756.88	236.02
757.20	234.21
757.53	233.29
757.86	232.90
758.19	232.71
758.51	232.43
758.84	230.93
759.17	230.55
759.49	230.40
759.82	231.14
760.15	231.26
760.47	231.21
760.80	230.31
761.13	230.31
761.45	230.10
761.78	230.17
762.11	230.10
762.43	229.81
762.76	229.57
763.08	229.31
763.41	229.19
763.74	228.81
764.06	228.50
764.39	228.31
764.71	228.10
765.04	227.69
765.37	227.17
765.69	227.02
766.02	226.64
766.34	226.43
766.67	225.57
767.00	225.83
767.32	226.43
767.65	227.38
767.97	227.19
768.30	227.36
768.62	227.21
768.95	226.57
769.27	226.38
769.60	226.71
769.92	226.52
770.25	226.21
770.57	225.90
770.90	226.02
771.22	225.69
771.55	225.79
771.87	225.95
772.20	225.81
772.52	227.38
772.85	229.86
773.17	229.60
773.50	229.14
773.82	228.62
774.15	228.02
774.47	226.71
774.80	226.40
775.12	226.17
775.45	225.88
775.77	226.02
776.09	225.95
776.42	225.57
776.74	226.07
777.07	225.88
777.39	225.90
777.72	225.50
778.04	225.81
778.36	225.24
778.69	225.19
779.01	225.43
779.33	223.60
779.66	221.29
779.98	221.12
780.31	221.26
780.63	221.86
780.95	221.98
781.28	222.05
781.60	222.00
781.92	221.79
782.25	221.90
782.57	221.79
782.89	221.67
783.22	221.40
783.54	220.64
783.86	220.90
784.19	220.48
784.51	221.21
784.83	220.88
785.16	220.93
785.48	220.76
785.80	220.52
786.12	220.83
786.45	220.45
786.77	220.74
787.09	220.38
787.42	219.69
787.74	219.79
788.06	219.74
788.38	219.29
788.71	219.05
789.03	218.95
789.35	219.48
789.67	219.17
789.99	219.55
790.32	219.52
790.64	219.50
790.96	221.31
791.28	220.26
791.61	219.93
791.93	220.14
792.25	219.76
792.57	221.38
792.89	220.81
793.21	221.05
793.54	220.71
793.86	220.64
794.18	220.62
794.50	220.07
794.82	220.24
795.14	220.64
795.47	221.14
795.79	221.36
796.11	220.69
796.43	220.71
796.75	220.38
797.07	220.52
797.39	220.38
797.71	218.86
798.04	218.95
798.36	219.19
798.68	219.10
799.00	219.36
799.32	218.07
799.64	218.57
799.96	218.57
800.28	218.98
800.60	218.83
800.92	218.95
801.24	218.81
801.56	218.81
801.89	218.52
802.21	218.48
802.53	217.93
802.85	218.48
803.17	219.38
803.49	219.12
803.81	219.00
804.13	218.83
804.45	218.40
804.77	218.60
805.09	218.67
805.41	218.45
805.73	218.14
806.05	217.67
806.37	217.43
806.69	217.33
807.01	217.26
807.33	217.45
807.65	216.88
807.97	217.76
808.28	217.50
808.60	217.64
808.92	217.36
809.24	218.71
809.56	218.14
809.88	217.45
810.20	217.40
810.52	217.69
810.84	217.21
811.16	217.07
811.48	216.83
811.80	217.64
812.12	217.33
812.43	217.67
812.75	217.88
813.07	217.81
813.39	217.93
813.71	217.48
814.03	217.26
814.35	217.14
814.67	216.26
814.98	216.02
815.30	215.74
815.62	215.52
815.94	213.83
816.26	213.95
816.58	213.57
816.89	213.83
817.21	213.24
817.53	213.57
817.85	213.69
818.17	213.93
818.48	212.98
818.80	213.43
819.12	213.14
819.44	212.60
819.76	212.14
820.07	211.88
820.39	211.95
820.71	211.90
821.03	212.19
821.34	212.14
821.66	212.52
821.98	212.93
822.30	212.76
822.61	214.40
822.93	214.21
823.25	214.31
823.57	214.14
823.88	214.48
824.20	214.45
824.52	215.07
824.83	214.83
825.15	214.62
825.47	215.02
825.79	215.29
826.10	215.38
826.42	215.45
826.74	215.64
827.05	215.55
827.37	215.64
827.69	215.36
828.00	215.52
828.32	215.36
828.64	214.93
828.95	216.21
829.27	215.43
829.58	215.48
829.90	215.71
830.22	215.93
830.53	215.33
830.85	215.14
831.17	214.57
831.48	214.69
831.80	214.83
832.11	214.24
832.43	214.05
832.75	214.10
833.06	215.50
833.38	215.10
833.69	214.90
834.01	215.10
834.32	215.33
834.64	214.93
834.96	215.02
835.27	215.12
835.59	214.26
835.90	213.93
836.22	213.90
836.53	213.55
836.85	213.45
837.16	215.74
837.48	215.90
837.79	216.48
838.11	216.69
838.42	216.55
838.74	216.93
839.05	216.52
839.37	216.43
839.68	215.05
840.00	215.00
840.31	215.45
840.63	215.29
840.94	214.95
841.26	214.90
841.57	214.67
841.88	214.90
842.20	214.83
842.51	214.55
842.83	214.60
843.14	216.21
843.46	215.88
843.77	215.05
844.08	214.74
844.40	214.07
844.71	213.67
845.03	213.57
845.34	213.40
845.65	213.64
845.97	213.76
846.28	213.86
846.60	213.95
846.91	213.55
847.22	213.26
847.54	213.74
847.85	213.88
848.16	213.69
848.48	213.05
848.79	213.81
849.10	214.17
849.42	214.43
849.73	212.57
850.04	212.67
850.36	211.62
850.67	211.98
850.98	212.10
851.30	212.17
851.61	212.24
851.92	212.14
852.23	212.88
852.55	212.90
852.86	212.88
853.17	212.88
853.49	213.38
853.80	214.02
854.11	214.19
854.42	214.57
854.74	214.69
855.05	215.10
855.36	213.86
855.67	213.93
855.99	213.86
856.30	216.38
856.61	216.24
856.92	216.31
857.23	216.38
857.55	216.26
857.86	216.26
858.17	216.40
858.48	216.07
858.79	215.43
859.11	215.55
859.42	215.57
859.73	215.38
860.04	215.00
860.35	214.31
860.66	213.71
860.98	213.52
861.29	213.64
861.60	213.24
861.91	213.76
862.22	213.21
862.53	212.88
862.84	210.69
863.16	211.62
863.47	211.31
863.78	211.17
864.09	211.26
864.40	211.50
864.71	211.45
865.02	211.71
865.33	211.40
865.64	211.12
865.95	210.98
866.27	212.31
866.58	212.17
866.89	212.43
867.20	212.36
867.51	212.00
867.82	211.83
868.13	212.55
868.44	212.14
868.75	212.79
869.06	212.62
869.37	212.64
869.68	211.83
869.99	212.17
870.30	212.21
870.61	212.26
870.92	211.95
871.23	212.00
871.54	212.24
871.85	212.76
872.16	213.05
872.47	212.95
872.78	211.62
873.09	211.86
873.40	211.64
873.71	211.79
874.02	211.74
874.33	211.57
874.64	211.17
874.95	211.67
875.26	211.21
875.56	211.36
875.87	211.38
876.18	211.24
876.49	213.17
876.80	213.00
877.11	212.81
877.42	212.83
877.73	212.88
878.04	212.71
878.35	212.69
878.66	212.69
878.96	212.98
879.27	213.12
879.58	212.93
879.89	212.88
880.20	213.33
880.51	213.38
880.82	213.38
881.12	213.40
881.43	212.93
881.74	212.67
882.05	212.55
882.36	212.67
882.67	212.88
882.97	210.67
883.28	210.71
883.59	210.45
883.90	210.50
884.21	210.60
884.51	210.50
884.82	210.38
885.13	210.45
885.44	210.40
885.74	210.57
886.05	210.74
886.36	210.79
886.67	210.31
886.98	211.52
887.28	211.90
887.59	211.95
887.90	212.02
888.20	211.95
888.51	212.50
888.82	212.10
889.13	212.36
889.43	214.21
889.74	214.12
890.05	214.40
890.35	214.55
890.66	214.33
890.97	214.19
891.28	213.86
891.58	213.62
891.89	213.45
892.20	213.02
892.50	212.88
892.81	212.67
893.12	212.60
893.42	211.64
893.73	211.57
894.04	211.64
894.34	211.93
894.65	212.05
894.95	211.76
895.26	212.17
895.57	212.81
895.87	210.71
896.18	210.98
896.48	211.05
896.79	210.71
897.10	211.12
897.40	211.17
897.71	211.31
898.01	211.26
898.32	211.43
898.63	211.45
898.93	211.57
899.24	211.83
899.54	211.79
899.85	211.60
900.15	211.52
900.46	211.52
900.76	211.76
901.07	211.74
901.38	211.69
901.68	211.62
901.99	210.67
902.29	211.02
902.60	210.93
902.90	210.79
903.21	210.83
903.51	210.55
903.82	211.05
904.12	211.12
904.43	211.38
904.73	211.33
905.03	211.62
905.34	213.43
905.64	213.26
905.95	213.21
906.25	213.40
906.56	213.36
906.86	213.50
907.17	213.10
907.47	213.40
907.77	213.29
908.08	212.98
908.38	213.17
908.69	213.43
908.99	213.67
909.30	213.74
909.60	213.79
909.90	214.07
910.21	213.40
910.51	213.19
910.81	213.24
911.12	213.33
911.42	213.29
911.73	211.26
912.03	211.45
912.33	211.81
912.64	211.74
912.94	211.64
913.24	211.21
913.55	211.02
913.85	210.76
914.15	211.00
914.46	211.36
914.76	211.07
915.06	210.71
915.37	210.52
915.67	210.36
915.97	210.40
916.27	209.81
916.58	210.05
916.88	210.02
917.18	209.81
917.49	211.19
917.79	211.07
918.09	211.57
918.39	212.02
918.70	212.02
919.00	211.98
919.30	212.83
919.60	212.81
919.91	212.81
920.21	213.02
920.51	212.62
920.81	212.45
921.12	212.90
921.42	213.12
921.72	213.07
922.02	213.36
922.32	213.81
922.63	213.98
922.93	214.95
923.23	215.17
923.53	215.05
923.83	213.64
924.13	213.86
924.44	213.67
924.74	214.00
925.04	214.48
925.34	214.24
925.64	213.48
925.94	213.45
926.24	214.57
926.55	214.36
926.85	214.69
927.15	214.69
927.45	214.60
927.75	214.24
928.05	214.31
928.35	213.93
928.65	214.07
928.95	214.24
929.26	213.45
929.56	213.69
929.86	214.00
930.16	214.02
930.46	213.88
930.76	214.00
931.06	213.17
931.36	212.50
931.66	213.05
931.96	213.21
932.26	213.33
932.56	212.48
932.86	212.81
933.16	212.81
933.46	212.81
933.76	212.67
934.06	213.33
934.36	213.81
934.66	214.02
934.96	213.69
935.26	213.76
935.56	214.07
935.86	213.62
936.16	213.38
936.46	213.17
936.76	213.00
937.06	212.55
937.36	212.60
937.66	212.86
937.96	212.60
938.26	212.24
938.56	212.17
938.86	212.43
939.16	212.67
939.46	213.02
939.76	212.79
940.06	212.62
940.35	212.12
940.65	211.14
940.95	211.33
941.25	210.69
941.55	210.45
941.85	210.17
942.15	210.88
942.45	211.17
942.75	211.17
943.04	211.45
943.34	212.05
943.64	211.88
943.94	211.29
944.24	211.48
944.54	211.60
944.84	211.50
945.13	211.12
945.43	210.74
945.73	210.19
946.03	210.17
946.33	210.00
946.62	209.95
946.92	210.17
947.22	210.14
947.52	210.43
947.82	210.67
948.11	210.55
948.41	209.88
948.71	209.52
949.01	209.60
949.31	209.26
949.60	208.88
949.90	209.17
950.20	209.33
950.50	209.24
950.79	209.12
951.09	209.26
951.39	209.26
951.69	209.07
951.98	209.48
952.28	209.57
952.58	209.64
952.87	209.74
953.17	209.83
953.47	209.60
953.76	209.62
954.06	209.33
954.36	209.10
954.66	209.00
954.95	209.69
955.25	209.88
955.55	209.90
955.84	209.74
956.14	209.90
956.44	210.19
956.73	209.95
957.03	210.33
957.32	210.40
957.62	210.14
957.92	210.69
958.21	210.74
958.51	213.33
958.81	213.48
959.10	213.64
959.40	214.31
959.69	214.50
959.99	214.64
960.29	214.69
960.58	214.55
960.88	215.83
961.17	215.48
961.47	215.57
961.76	215.62
962.06	215.95
962.36	215.76
962.65	215.81
962.95	215.81
963.24	215.52
963.54	215.55
963.83	215.74
964.13	215.60
964.42	215.00
964.72	213.17
965.01	213.45
965.31	213.26
965.60	212.79
965.90	213.76
966.19	213.55
966.49	213.45
966.78	213.60
967.08	213.10
967.37	213.12
967.67	213.00
967.96	213.31
968.26	213.31
968.55	213.43
968.85	213.21
969.14	213.33
969.43	213.31
969.73	213.05
970.02	213.00
970.32	212.38
970.61	212.40
970.91	211.62
971.20	211.31
971.49	211.14
971.79	210.98
972.08	210.00
972.38	210.29
972.67	210.57
972.96	210.88
973.26	210.48
973.55	211.05
973.85	210.79
974.14	210.74
974.43	210.74
974.73	210.62
975.02	210.69
975.31	210.62
975.61	210.60
975.90	210.64
976.19	210.62
976.49	211.19
976.78	211.14
977.07	211.38
977.37	211.38
977.66	211.69
977.95	211.76
978.24	211.67
978.54	211.98
978.83	211.48
979.12	211.26
979.42	211.12
979.71	210.64
980.00	210.76
980.29	210.62
980.59	210.26
980.88	210.40
981.17	210.40
981.46	210.60
981.76	210.48
982.05	211.12
982.34	211.24
982.63	211.00
982.93	211.19
983.22	211.69
983.51	211.69
983.80	211.74
984.09	212.00
984.39	211.86
984.68	211.43
984.97	211.76
985.26	211.52
985.55	211.57
985.85	211.10
986.14	211.24
986.43	211.48
986.72	211.38
987.01	211.00
987.30	210.88
987.59	210.40
987.89	210.52
988.18	209.74
988.47	209.45
988.76	209.60
989.05	209.52
989.34	208.93
989.63	209.45
989.92	209.52
990.22	209.05
990.51	209.14
990.80	209.10
991.09	209.07
991.38	209.38
991.67	209.38
991.96	209.36
992.25	209.48
992.54	209.24
992.83	209.36
993.12	209.43
993.41	209.48
993.70	210.45
993.99	210.76
994.28	211.17
994.58	211.31
994.87	210.93
995.16	210.76
995.45	210.67
995.74	210.02
996.03	210.17
996.32	210.74
996.61	211.33
996.90	211.26
997.19	211.26
997.48	211.24
997.77	211.12
998.06	211.21
998.34	211.00
998.63	210.95
998.92	211.07
999.21	211.21
999.50	211.38
999.79	210.98
1000.08	210.90
1000.37	211.10
1000.66	211.07
1000.95	211.57
1001.24	211.90
1001.53	212.31
1001.82	212.24
1002.11	211.83
1002.40	211.81
1002.68	211.88
1002.97	213.45
1003.26	213.33
1003.55	212.93
1003.84	212.90
1004.13	213.48
1004.42	213.43
1004.71	213.36
1004.99	213.26
1005.28	214.02
1005.57	213.93
1005.86	213.31
1006.15	213.21
1006.44	212.71
1006.72	212.95
1007.01	212.86
1007.30	212.69
1007.59	212.55
1007.88	212.57
1008.17	212.64
1008.45	212.14
1008.74	211.52
1009.03	210.36
1009.32	210.40
1009.60	210.55
1009.89	210.43
1010.18	209.69
1010.47	209.69
1010.76	209.81
1011.04	209.79
1011.33	209.64
1011.62	209.90
1011.91	210.21
1012.19	210.36
1012.48	210.36
1012.77	210.19
1013.05	210.93
1013.34	211.19
1013.63	211.00
1013.92	211.12
1014.20	210.93
1014.49	211.19
1014.78	211.26
1015.06	210.76
1015.35	210.62
1015.64	210.88
1015.92	211.17
1016.21	211.21
1016.50	211.24
1016.78	211.50
1017.07	211.64
1017.36	211.10
1017.64	210.69
1017.93	210.98
1018.22	210.71
1018.50	210.69
1018.79	210.76
1019.08	209.83
1019.36	209.90
1019.65	209.74
1019.93	210.24
1020.22	210.76
1020.51	211.76
1020.79	211.50
1021.08	207.50
1021.36	205.00
1021.65	210.00
1021.94	209.00
1022.22	214.50
1022.51	206.00
1022.79	219.00
1023.08	218.00
1023.36	234.50
1023.65	205.00
>>>>>End Processed Spectral Data<<<<<
