SpectraSuite Data File
++++++++++++++++++++++++++++++++++++
Date: Tue Apr 02 18:46:15 EDT 2013
User: group
Dark Spectrum Present: No
Reference Spectrum Present: No
Number of Sampled Component Spectra: 1
Spectrometers: USB2E7196
Integration Time (usec): 580000 (USB2E7196)
Spectra Averaged: 2 (USB2E7196)
Boxcar Smoothing: 10 (USB2E7196)
Correct for Electrical Dark: No (USB2E7196)
Strobe/Lamp Enabled: No (USB2E7196)
Correct for Detector Non-linearity: No (USB2E7196)
Correct for Stray Light: No (USB2E7196)
Number of Pixels in Processed Spectrum: 2048
>>>>>Begin Processed Spectral Data<<<<<
339.09	0.00
339.48	194.50
339.86	198.50
340.24	196.50
340.63	201.50
341.01	235.50
341.39	199.50
341.78	212.00
342.16	214.00
342.54	206.50
342.93	199.24
343.31	209.17
343.69	209.64
344.07	210.21
344.46	211.07
344.84	211.74
345.22	210.57
345.60	211.00
345.99	211.19
346.37	210.83
346.75	211.00
347.13	211.19
347.52	211.26
347.90	212.17
348.28	212.29
348.66	212.38
349.05	211.67
349.43	211.83
349.81	211.67
350.19	211.64
350.57	211.48
350.96	211.45
351.34	211.55
351.72	211.76
352.10	211.57
352.48	211.36
352.87	211.02
353.25	210.90
353.63	210.88
354.01	210.60
354.39	210.90
354.77	210.69
355.15	211.17
355.54	210.95
355.92	210.48
356.30	210.43
356.68	211.69
357.06	212.10
357.44	211.81
357.82	212.00
358.20	213.29
358.58	213.24
358.97	213.29
359.35	213.60
359.73	213.88
360.11	213.76
360.49	213.64
360.87	213.55
361.25	213.83
361.63	214.48
362.01	214.64
362.39	214.31
362.77	214.60
363.15	214.31
363.53	214.33
363.91	214.31
364.29	214.19
364.67	212.45
365.05	212.43
365.43	212.57
365.81	212.69
366.19	212.71
366.57	213.26
366.95	213.02
367.33	212.55
367.71	212.52
368.09	212.93
368.47	212.98
368.85	212.95
369.23	213.24
369.61	212.52
369.99	213.05
370.37	213.33
370.75	214.43
371.13	214.12
371.51	214.02
371.89	214.14
372.27	214.55
372.65	214.74
373.03	214.88
373.41	214.90
373.78	214.79
374.16	213.60
374.54	213.26
374.92	213.52
375.30	213.74
375.68	213.33
376.06	213.71
376.44	213.76
376.82	213.83
377.19	213.62
377.57	213.60
377.95	212.74
378.33	212.83
378.71	211.52
379.09	211.90
379.47	212.10
379.84	211.74
380.22	211.57
380.60	211.00
380.98	211.07
381.36	210.95
381.73	210.74
382.11	211.26
382.49	211.29
382.87	210.71
383.25	210.52
383.62	213.00
384.00	212.50
384.38	212.57
384.76	213.29
385.13	214.26
385.51	214.38
385.89	214.40
386.27	214.52
386.64	214.76
387.02	214.62
387.40	214.33
387.78	214.88
388.15	214.98
388.53	215.10
388.91	214.81
389.29	214.64
389.66	215.26
390.04	214.69
390.42	214.88
390.79	215.45
391.17	215.57
391.55	213.36
391.92	213.33
392.30	213.43
392.68	212.86
393.05	212.48
393.43	212.36
393.81	212.45
394.18	212.14
394.56	212.36
394.94	213.02
395.31	213.02
395.69	213.50
396.06	213.74
396.44	214.00
396.82	213.93
397.19	214.98
397.57	214.55
397.95	215.07
398.32	214.57
398.70	214.64
399.07	215.31
399.45	215.29
399.82	215.45
400.20	215.40
400.58	215.38
400.95	214.57
401.33	215.19
401.70	216.67
402.08	216.86
402.45	216.86
402.83	216.88
403.20	217.12
403.58	216.93
403.95	217.50
404.33	217.86
404.71	218.36
405.08	219.67
405.46	219.98
405.83	220.52
406.21	220.90
406.58	221.50
406.96	221.69
407.33	222.45
407.70	223.33
408.08	225.57
408.45	226.52
408.83	227.67
409.20	228.21
409.58	227.76
409.95	229.12
410.33	230.14
410.70	230.57
411.08	231.83
411.45	232.86
411.82	233.43
412.20	235.05
412.57	237.55
412.95	237.19
413.32	239.21
413.69	240.48
414.07	242.31
414.44	244.14
414.82	246.17
415.19	248.19
415.56	249.98
415.94	251.10
416.31	254.05
416.68	256.88
417.06	260.02
417.43	263.38
417.81	266.29
418.18	269.90
418.55	273.52
418.93	277.50
419.30	281.48
419.67	286.29
420.04	290.60
420.42	294.52
420.79	301.60
421.16	307.02
421.54	313.69
421.91	319.74
422.28	326.02
422.66	332.33
423.03	340.26
423.40	347.31
423.77	354.14
424.15	361.24
424.52	368.79
424.89	377.45
425.26	385.10
425.64	392.93
426.01	401.36
426.38	410.33
426.75	419.71
427.13	428.76
427.50	437.95
427.87	448.07
428.24	457.69
428.61	466.29
428.99	477.69
429.36	488.45
429.73	499.67
430.10	510.93
430.47	522.83
430.85	533.24
431.22	546.43
431.59	561.26
431.96	573.43
432.33	587.45
432.70	601.36
433.08	617.57
433.45	632.93
433.82	648.21
434.19	665.07
434.56	681.36
434.93	697.33
435.30	713.81
435.68	730.69
436.05	748.33
436.42	764.50
436.79	779.55
437.16	797.29
437.53	815.40
437.90	832.71
438.27	850.02
438.64	867.71
439.01	884.10
439.38	897.79
439.75	913.29
440.13	930.10
440.50	944.98
440.87	957.67
441.24	970.95
441.61	984.38
441.98	995.17
442.35	1007.21
442.72	1020.48
443.09	1033.10
443.46	1041.00
443.83	1045.81
444.20	1051.31
444.57	1057.14
444.94	1059.57
445.31	1062.62
445.68	1068.38
446.05	1069.76
446.42	1069.14
446.79	1067.69
447.16	1065.62
447.53	1063.90
447.90	1057.52
448.27	1051.33
448.64	1042.50
449.01	1035.93
449.37	1025.38
449.74	1014.57
450.11	1003.21
450.48	988.00
450.85	971.95
451.22	959.60
451.59	948.45
451.96	936.62
452.33	921.48
452.70	907.31
453.07	890.43
453.43	871.02
453.80	855.07
454.17	839.31
454.54	824.24
454.91	808.43
455.28	792.55
455.65	777.93
456.02	766.69
456.38	754.40
456.75	739.38
457.12	726.31
457.49	713.69
457.86	699.79
458.23	689.62
458.59	678.40
458.96	666.38
459.33	655.31
459.70	644.95
460.07	636.55
460.43	626.86
460.80	618.60
461.17	611.38
461.54	602.64
461.91	594.45
462.27	586.14
462.64	579.02
463.01	571.76
463.38	565.12
463.74	554.36
464.11	547.74
464.48	541.81
464.85	535.74
465.21	531.19
465.58	526.43
465.95	519.79
466.32	514.81
466.68	509.79
467.05	504.67
467.42	499.57
467.78	494.36
468.15	489.55
468.52	485.88
468.88	480.00
469.25	475.40
469.62	472.33
469.98	468.33
470.35	465.29
470.72	461.90
471.08	457.31
471.45	454.07
471.82	451.33
472.18	447.98
472.55	445.21
472.92	441.52
473.28	438.57
473.65	436.21
474.02	433.57
474.38	431.57
474.75	430.02
475.11	427.57
475.48	425.98
475.85	424.36
476.21	422.07
476.58	421.05
476.94	420.19
477.31	418.64
477.67	417.36
478.04	416.19
478.41	415.10
478.77	416.38
479.14	415.69
479.50	415.26
479.87	415.24
480.23	415.21
480.60	414.67
480.96	414.67
481.33	415.52
481.69	415.50
482.06	415.62
482.42	415.88
482.79	416.52
483.15	417.21
483.52	418.36
483.88	418.48
484.25	419.21
484.61	419.95
484.98	420.05
485.34	422.38
485.71	423.67
486.07	425.33
486.44	424.88
486.80	426.57
487.17	427.64
487.53	429.55
487.90	431.93
488.26	435.07
488.62	437.95
488.99	440.19
489.35	442.88
489.72	445.38
490.08	447.90
490.44	450.64
490.81	453.60
491.17	456.19
491.54	460.07
491.90	463.76
492.26	467.83
492.63	472.57
492.99	475.14
493.36	479.14
493.72	483.57
494.08	488.14
494.45	492.98
494.81	498.10
495.17	503.00
495.54	508.14
495.90	512.62
496.26	517.40
496.63	522.36
496.99	527.62
497.35	533.40
497.72	539.17
498.08	545.02
498.44	551.10
498.80	557.69
499.17	563.88
499.53	570.17
499.89	576.38
500.26	583.07
500.62	590.17
500.98	597.50
501.34	604.07
501.71	611.36
502.07	617.76
502.43	624.43
502.79	630.93
503.16	637.90
503.52	645.31
503.88	652.21
504.24	660.05
504.60	667.79
504.97	675.29
505.33	683.48
505.69	692.38
506.05	699.62
506.41	707.21
506.78	715.45
507.14	722.79
507.50	730.93
507.86	738.86
508.22	746.67
508.59	753.88
508.95	762.19
509.31	770.57
509.67	778.81
510.03	786.62
510.39	794.52
510.75	801.76
511.12	809.45
511.48	816.81
511.84	823.86
512.20	831.31
512.56	838.71
512.92	846.29
513.28	853.02
513.64	860.79
514.00	867.79
514.37	874.48
514.73	881.98
515.09	889.55
515.45	896.24
515.81	903.19
516.17	909.83
516.53	915.83
516.89	921.36
517.25	928.36
517.61	935.93
517.97	942.74
518.33	949.64
518.69	956.38
519.05	963.36
519.41	969.36
519.77	976.81
520.13	982.98
520.49	987.45
520.85	993.02
521.21	999.74
521.57	1006.52
521.93	1011.60
522.29	1017.10
522.65	1022.26
523.01	1027.52
523.37	1032.48
523.73	1038.10
524.09	1043.98
524.45	1049.33
524.81	1053.48
525.17	1058.02
525.53	1061.86
525.89	1065.86
526.25	1070.05
526.61	1074.14
526.97	1078.76
527.33	1082.52
527.68	1088.07
528.04	1093.07
528.40	1097.14
528.76	1100.31
529.12	1103.74
529.48	1109.43
529.84	1113.38
530.20	1117.29
530.56	1121.36
530.91	1126.57
531.27	1130.31
531.63	1133.95
531.99	1137.90
532.35	1142.24
532.71	1145.90
533.07	1150.71
533.42	1157.45
533.78	1161.12
534.14	1165.81
534.50	1170.12
534.86	1174.55
535.21	1177.19
535.57	1182.00
535.93	1186.36
536.29	1191.17
536.65	1195.24
537.00	1197.95
537.36	1202.31
537.72	1205.74
538.08	1209.69
538.44	1212.50
538.79	1216.69
539.15	1219.79
539.51	1223.48
539.87	1226.90
540.22	1229.93
540.58	1233.12
540.94	1233.76
541.29	1237.00
541.65	1238.79
542.01	1242.17
542.37	1243.88
542.72	1245.93
543.08	1247.52
543.44	1250.02
543.79	1251.10
544.15	1254.14
544.51	1257.02
544.87	1259.98
545.22	1262.26
545.58	1264.83
545.94	1267.05
546.29	1268.93
546.65	1271.83
547.01	1273.86
547.36	1276.50
547.72	1278.79
548.07	1282.00
548.43	1284.00
548.79	1286.67
549.14	1289.79
549.50	1292.76
549.86	1294.67
550.21	1297.67
550.57	1300.79
550.92	1302.71
551.28	1306.33
551.64	1309.05
551.99	1311.98
552.35	1313.57
552.70	1316.88
553.06	1319.81
553.41	1323.14
553.77	1328.19
554.13	1331.81
554.48	1335.95
554.84	1340.33
555.19	1344.43
555.55	1348.17
555.90	1352.93
556.26	1356.50
556.61	1359.86
556.97	1362.00
557.32	1366.50
557.68	1370.31
558.03	1374.21
558.39	1379.36
558.74	1383.38
559.10	1386.36
559.45	1390.48
559.81	1394.83
560.16	1398.45
560.52	1402.74
560.87	1406.81
561.23	1409.69
561.58	1415.36
561.94	1419.10
562.29	1422.19
562.64	1426.31
563.00	1430.12
563.35	1433.95
563.71	1438.76
564.06	1443.95
564.42	1449.74
564.77	1455.83
565.12	1461.93
565.48	1469.02
565.83	1474.12
566.19	1480.07
566.54	1486.00
566.89	1491.00
567.25	1496.95
567.60	1503.76
567.96	1511.19
568.31	1518.83
568.66	1525.48
569.02	1529.12
569.37	1534.67
569.72	1540.29
570.08	1546.14
570.43	1551.26
570.78	1557.26
571.14	1562.64
571.49	1568.02
571.84	1572.81
572.20	1577.10
572.55	1582.21
572.90	1585.07
573.26	1589.55
573.61	1593.29
573.96	1597.52
574.31	1602.48
574.67	1607.17
575.02	1609.74
575.37	1611.55
575.72	1614.36
576.08	1617.76
576.43	1621.62
576.78	1625.48
577.13	1629.14
577.49	1632.45
577.84	1636.48
578.19	1639.40
578.54	1644.17
578.90	1648.45
579.25	1652.12
579.60	1655.02
579.95	1657.71
580.30	1661.17
580.66	1664.95
581.01	1668.55
581.36	1672.07
581.71	1675.26
582.06	1678.88
582.42	1684.05
582.77	1687.45
583.12	1690.24
583.47	1693.62
583.82	1697.38
584.17	1700.05
584.53	1704.52
584.88	1708.05
585.23	1712.19
585.58	1715.62
585.93	1717.48
586.28	1719.43
586.63	1723.21
586.98	1727.50
587.34	1731.64
587.69	1734.79
588.04	1737.17
588.39	1740.07
588.74	1741.76
589.09	1745.05
589.44	1745.45
589.79	1747.52
590.14	1749.45
590.49	1751.38
590.84	1751.86
591.19	1754.00
591.54	1755.88
591.89	1756.40
592.25	1760.00
592.60	1760.21
592.95	1762.83
593.30	1764.69
593.65	1766.19
594.00	1765.76
594.35	1771.67
594.70	1771.45
595.05	1772.31
595.40	1773.57
595.75	1774.64
596.10	1776.31
596.45	1776.83
596.80	1778.88
597.15	1779.29
597.50	1780.71
597.85	1782.33
598.19	1783.86
598.54	1783.83
598.89	1785.00
599.24	1786.79
599.59	1786.33
599.94	1787.12
600.29	1786.93
600.64	1787.14
600.99	1787.57
601.34	1789.07
601.69	1783.64
602.04	1783.38
602.39	1783.02
602.74	1783.45
603.08	1783.21
603.43	1783.86
603.78	1782.71
604.13	1782.69
604.48	1782.19
604.83	1782.50
605.18	1782.62
605.53	1781.45
605.87	1781.02
606.22	1780.95
606.57	1779.90
606.92	1778.12
607.27	1777.43
607.62	1776.95
607.96	1776.83
608.31	1775.90
608.66	1774.74
609.01	1773.48
609.36	1773.88
609.70	1773.43
610.05	1771.60
610.40	1770.71
610.75	1768.10
611.10	1767.57
611.44	1765.14
611.79	1762.93
612.14	1760.02
612.49	1756.19
612.83	1754.12
613.18	1751.50
613.53	1747.17
613.88	1742.93
614.22	1740.36
614.57	1736.31
614.92	1732.00
615.27	1728.19
615.61	1723.86
615.96	1720.50
616.31	1717.57
616.65	1714.29
617.00	1710.90
617.35	1707.57
617.70	1703.40
618.04	1700.79
618.39	1696.71
618.74	1693.98
619.08	1690.21
619.43	1686.79
619.78	1684.67
620.12	1681.93
620.47	1678.31
620.82	1674.43
621.16	1671.17
621.51	1667.50
621.85	1663.88
622.20	1660.00
622.55	1656.10
622.89	1653.86
623.24	1650.55
623.59	1646.33
623.93	1642.02
624.28	1637.76
624.62	1635.67
624.97	1632.74
625.32	1628.52
625.66	1624.40
626.01	1620.83
626.35	1617.79
626.70	1614.02
627.04	1610.52
627.39	1605.64
627.73	1602.67
628.08	1601.74
628.43	1598.02
628.77	1593.90
629.12	1590.86
629.46	1587.62
629.81	1583.88
630.15	1579.36
630.50	1574.29
630.84	1570.62
631.19	1564.81
631.53	1560.19
631.88	1552.36
632.22	1545.29
632.57	1541.10
632.91	1536.05
633.26	1531.76
633.60	1526.17
633.95	1521.00
634.29	1514.43
634.64	1510.36
634.98	1505.00
635.32	1499.76
635.67	1495.69
636.01	1491.60
636.36	1486.52
636.70	1482.74
637.05	1476.90
637.39	1472.79
637.73	1469.00
638.08	1463.98
638.42	1459.95
638.77	1456.02
639.11	1452.64
639.45	1449.26
639.80	1443.62
640.14	1439.10
640.49	1433.26
640.83	1428.33
641.17	1423.31
641.52	1418.52
641.86	1413.21
642.20	1409.43
642.55	1403.64
642.89	1398.33
643.23	1392.57
643.58	1388.33
643.92	1381.98
644.26	1377.29
644.61	1371.83
644.95	1365.52
645.29	1359.67
645.64	1354.95
645.98	1349.40
646.32	1343.81
646.66	1338.48
647.01	1332.86
647.35	1327.86
647.69	1321.98
648.04	1316.52
648.38	1311.21
648.72	1306.43
649.06	1301.38
649.41	1293.95
649.75	1287.12
650.09	1281.17
650.43	1274.83
650.78	1268.33
651.12	1262.64
651.46	1256.45
651.80	1250.00
652.14	1244.69
652.49	1239.29
652.83	1233.38
653.17	1226.38
653.51	1219.88
653.85	1214.14
654.20	1208.67
654.54	1201.74
654.88	1195.45
655.22	1190.10
655.56	1184.00
655.90	1176.88
656.25	1169.48
656.59	1163.98
656.93	1158.40
657.27	1152.79
657.61	1146.71
657.95	1140.67
658.29	1133.60
658.64	1128.07
658.98	1121.50
659.32	1114.76
659.66	1108.38
660.00	1101.69
660.34	1096.02
660.68	1090.40
661.02	1083.55
661.36	1077.19
661.70	1071.52
662.05	1066.00
662.39	1059.50
662.73	1054.00
663.07	1049.07
663.41	1043.95
663.75	1037.69
664.09	1032.14
664.43	1025.45
664.77	1020.05
665.11	1013.71
665.45	1008.14
665.79	1002.33
666.13	996.69
666.47	991.24
666.81	985.60
667.15	980.45
667.49	974.90
667.83	970.07
668.17	964.38
668.51	958.55
668.85	953.21
669.19	948.14
669.53	942.10
669.87	935.57
670.21	929.69
670.55	923.71
670.89	920.10
671.23	914.38
671.57	908.95
671.91	903.17
672.25	898.17
672.58	894.07
672.92	888.38
673.26	883.07
673.60	877.57
673.94	871.43
674.28	866.60
674.62	861.93
674.96	856.02
675.30	851.86
675.64	847.10
675.97	842.05
676.31	836.60
676.65	831.69
676.99	828.60
677.33	823.55
677.67	819.17
678.01	812.52
678.34	807.62
678.68	803.52
679.02	798.74
679.36	793.83
679.70	788.31
680.04	783.57
680.37	778.86
680.71	773.81
681.05	770.07
681.39	764.48
681.73	759.19
682.06	754.19
682.40	749.17
682.74	745.50
683.08	741.26
683.42	736.12
683.75	732.19
684.09	726.07
684.43	721.05
684.77	716.00
685.10	710.93
685.44	706.31
685.78	701.02
686.12	696.29
686.45	690.98
686.79	685.93
687.13	681.12
687.46	676.55
687.80	673.21
688.14	668.88
688.48	664.45
688.81	659.74
689.15	656.14
689.49	651.21
689.82	645.64
690.16	640.24
690.50	636.24
690.83	631.14
691.17	626.45
691.51	622.45
691.84	618.71
692.18	614.36
692.52	610.17
692.85	606.57
693.19	603.05
693.52	599.26
693.86	595.19
694.20	590.88
694.53	586.74
694.87	582.26
695.21	577.83
695.54	573.71
695.88	569.21
696.21	564.24
696.55	560.40
696.88	556.57
697.22	552.64
697.56	548.50
697.89	545.17
698.23	541.83
698.56	537.40
698.90	533.38
699.23	530.10
699.57	526.67
699.90	522.88
700.24	518.74
700.58	515.12
700.91	512.21
701.25	510.93
701.58	508.52
701.92	505.33
702.25	501.90
702.59	497.98
702.92	495.10
703.26	492.07
703.59	489.10
703.93	487.55
704.26	485.26
704.60	482.33
704.93	479.10
705.26	475.50
705.60	473.19
705.93	469.67
706.27	467.55
706.60	464.57
706.94	462.40
707.27	459.12
707.61	456.50
707.94	453.40
708.27	448.93
708.61	445.29
708.94	442.12
709.28	439.45
709.61	437.14
709.94	434.90
710.28	432.33
710.61	429.57
710.95	424.98
711.28	423.64
711.61	421.12
711.95	419.05
712.28	416.26
712.61	413.29
712.95	411.74
713.28	409.64
713.61	406.93
713.95	403.69
714.28	401.83
714.61	399.45
714.95	397.02
715.28	394.60
715.61	392.17
715.95	390.48
716.28	388.14
716.61	386.43
716.95	384.14
717.28	382.07
717.61	379.76
717.94	377.98
718.28	374.31
718.61	372.05
718.94	369.29
719.27	368.00
719.61	366.07
719.94	363.81
720.27	360.79
720.60	358.86
720.94	356.62
721.27	354.95
721.60	353.31
721.93	351.88
722.27	350.69
722.60	349.19
722.93	346.90
723.26	345.40
723.59	343.24
723.93	341.55
724.26	339.98
724.59	338.45
724.92	337.29
725.25	336.40
725.59	335.17
725.92	334.02
726.25	332.67
726.58	331.55
726.91	330.26
727.24	329.21
727.57	327.86
727.91	326.62
728.24	325.64
728.57	324.17
728.90	323.05
729.23	321.33
729.56	320.81
729.89	319.67
730.22	318.36
730.55	317.50
730.89	316.33
731.22	315.00
731.55	314.07
731.88	312.74
732.21	311.19
732.54	309.90
732.87	308.83
733.20	307.86
733.53	307.00
733.86	306.19
734.19	304.95
734.52	304.48
734.85	304.81
735.18	303.45
735.51	303.36
735.84	302.50
736.17	302.10
736.50	300.38
736.83	301.90
737.16	301.00
737.49	299.98
737.82	298.93
738.15	298.45
738.48	297.40
738.81	296.69
739.14	295.31
739.47	294.26
739.80	293.38
740.13	292.57
740.46	291.24
740.79	290.07
741.12	289.02
741.45	288.05
741.78	286.19
742.11	285.98
742.44	284.76
742.77	284.02
743.10	282.67
743.43	281.79
743.75	278.62
744.08	280.45
744.41	279.60
744.74	278.71
745.07	277.38
745.40	276.88
745.73	276.69
746.06	276.26
746.39	275.90
746.71	275.02
747.04	274.07
747.37	273.60
747.70	273.24
748.03	272.76
748.36	272.19
748.68	271.62
749.01	270.38
749.34	269.45
749.67	268.60
750.00	268.57
750.33	269.57
750.65	269.19
750.98	266.21
751.31	265.48
751.64	265.12
751.97	266.12
752.29	265.57
752.62	264.14
752.95	263.50
753.28	262.48
753.60	261.88
753.93	261.76
754.26	261.10
754.59	259.83
754.91	258.95
755.24	258.17
755.57	257.43
755.90	256.69
756.22	255.90
756.55	255.21
756.88	254.17
757.20	252.19
757.53	250.86
757.86	250.12
758.19	249.88
758.51	249.10
758.84	247.29
759.17	246.74
759.49	246.43
759.82	247.00
760.15	247.12
760.47	246.50
760.80	245.29
761.13	245.19
761.45	244.93
761.78	244.64
762.11	243.95
762.43	243.74
762.76	243.38
763.08	243.38
763.41	243.19
763.74	242.90
764.06	242.45
764.39	242.45
764.71	242.17
765.04	241.43
765.37	240.93
765.69	240.62
766.02	239.90
766.34	239.36
766.67	238.21
767.00	237.62
767.32	238.57
767.65	239.74
767.97	239.31
768.30	238.79
768.62	238.64
768.95	238.45
769.27	237.86
769.60	237.86
769.92	237.14
770.25	236.29
770.57	235.57
770.90	235.33
771.22	234.86
771.55	234.57
771.87	234.62
772.20	234.38
772.52	235.52
772.85	237.88
773.17	237.64
773.50	237.17
773.82	236.88
774.15	235.71
774.47	234.19
774.80	233.76
775.12	233.69
775.45	233.36
775.77	233.05
776.09	233.12
776.42	232.74
776.74	233.00
777.07	232.90
777.39	232.93
777.72	232.67
778.04	232.62
778.36	232.21
778.69	232.31
779.01	232.52
779.33	230.79
779.66	228.07
779.98	227.67
780.31	227.48
780.63	228.12
780.95	228.24
781.28	228.02
781.60	227.48
781.92	227.40
782.25	227.17
782.57	227.05
782.89	226.50
783.22	226.29
783.54	225.93
783.86	225.93
784.19	225.69
784.51	225.98
784.83	225.48
785.16	225.38
785.48	225.00
785.80	224.74
786.12	224.86
786.45	224.81
786.77	225.00
787.09	224.93
787.42	224.12
787.74	224.14
788.06	224.05
788.38	224.00
788.71	223.45
789.03	223.48
789.35	223.69
789.67	223.50
789.99	223.60
790.32	223.26
790.64	223.52
790.96	225.19
791.28	224.45
791.61	224.60
791.93	224.64
792.25	224.50
792.57	226.14
792.89	225.62
793.21	225.74
793.54	225.55
793.86	225.14
794.18	225.14
794.50	224.69
794.82	224.81
795.14	225.19
795.47	225.76
795.79	225.81
796.11	225.02
796.43	224.86
796.75	224.69
797.07	224.88
797.39	224.52
797.71	222.86
798.04	223.00
798.36	222.98
798.68	222.81
799.00	222.62
799.32	221.14
799.64	221.62
799.96	221.55
800.28	221.83
800.60	221.71
800.92	221.86
801.24	221.45
801.56	221.43
801.89	221.10
802.21	221.36
802.53	220.69
802.85	221.21
803.17	222.38
803.49	221.79
803.81	221.36
804.13	220.90
804.45	220.69
804.77	220.67
805.09	220.64
805.41	220.24
805.73	220.12
806.05	219.43
806.37	219.17
806.69	219.05
807.01	218.67
807.33	219.05
807.65	218.40
807.97	219.40
808.28	219.00
808.60	219.00
808.92	218.50
809.24	220.05
809.56	219.95
809.88	218.95
810.20	219.17
810.52	219.64
810.84	219.69
811.16	219.60
811.48	219.29
811.80	219.88
812.12	220.00
812.43	220.14
812.75	220.60
813.07	220.48
813.39	220.40
813.71	220.02
814.03	219.71
814.35	219.67
814.67	218.88
814.98	218.81
815.30	218.60
815.62	218.02
815.94	216.55
816.26	216.26
816.58	215.95
816.89	215.90
817.21	215.36
817.53	215.60
817.85	215.55
818.17	215.74
818.48	214.90
818.80	215.40
819.12	215.31
819.44	214.76
819.76	214.40
820.07	214.26
820.39	214.29
820.71	214.40
821.03	214.31
821.34	214.10
821.66	214.55
821.98	214.95
822.30	214.98
822.61	216.36
822.93	216.26
823.25	216.14
823.57	216.02
823.88	216.10
824.20	215.98
824.52	216.14
824.83	215.95
825.15	215.71
825.47	215.60
825.79	215.64
826.10	215.74
826.42	215.81
826.74	215.88
827.05	216.07
827.37	215.98
827.69	216.17
828.00	216.29
828.32	216.05
828.64	215.38
828.95	216.50
829.27	215.62
829.58	215.43
829.90	215.88
830.22	215.98
830.53	215.90
830.85	215.64
831.17	215.31
831.48	215.38
831.80	215.52
832.11	215.17
832.43	214.90
832.75	214.90
833.06	216.05
833.38	215.60
833.69	215.40
834.01	215.67
834.32	215.31
834.64	215.07
834.96	215.02
835.27	215.17
835.59	214.52
835.90	214.19
836.22	214.36
836.53	213.98
836.85	213.86
837.16	215.76
837.48	215.74
837.79	216.31
838.11	216.40
838.42	216.48
838.74	216.64
839.05	216.48
839.37	216.38
839.68	214.83
840.00	214.98
840.31	215.29
840.63	214.90
840.94	215.05
841.26	214.79
841.57	214.76
841.88	214.93
842.20	214.67
842.51	214.52
842.83	214.57
843.14	216.40
843.46	216.31
843.77	215.31
844.08	215.21
844.40	214.52
844.71	214.14
845.03	213.86
845.34	213.76
845.65	213.86
845.97	213.69
846.28	214.14
846.60	214.33
846.91	213.83
847.22	213.79
847.54	214.02
847.85	214.26
848.16	214.07
848.48	213.90
848.79	214.81
849.10	215.17
849.42	215.24
849.73	213.29
850.04	213.26
850.36	212.45
850.67	212.81
850.98	212.93
851.30	213.40
851.61	213.24
851.92	213.33
852.23	214.02
852.55	214.19
852.86	214.05
853.17	214.00
853.49	214.50
853.80	215.02
854.11	215.05
854.42	215.24
854.74	214.90
855.05	214.98
855.36	213.67
855.67	213.64
855.99	213.50
856.30	215.95
856.61	215.90
856.92	215.93
857.23	215.93
857.55	215.76
857.86	215.62
858.17	216.07
858.48	215.67
858.79	215.12
859.11	215.45
859.42	215.52
859.73	215.21
860.04	215.14
860.35	214.69
860.66	214.14
860.98	214.07
861.29	214.64
861.60	214.48
861.91	215.07
862.22	214.57
862.53	214.17
862.84	211.79
863.16	212.38
863.47	212.17
863.78	211.88
864.09	211.93
864.40	212.00
864.71	211.83
865.02	212.26
865.33	211.95
865.64	211.52
865.95	211.40
866.27	212.55
866.58	212.36
866.89	212.36
867.20	212.36
867.51	211.98
867.82	211.64
868.13	212.33
868.44	212.05
868.75	212.48
869.06	212.81
869.37	212.95
869.68	212.33
869.99	212.50
870.30	212.62
870.61	212.74
870.92	212.38
871.23	212.52
871.54	212.67
871.85	213.21
872.16	213.50
872.47	213.36
872.78	212.38
873.09	212.81
873.40	212.67
873.71	212.76
874.02	213.07
874.33	212.95
874.64	212.43
874.95	212.76
875.26	212.45
875.56	212.64
875.87	212.31
876.18	212.31
876.49	214.36
876.80	214.36
877.11	214.02
877.42	214.05
877.73	214.10
878.04	213.74
878.35	213.40
878.66	213.36
878.96	213.55
879.27	213.55
879.58	213.29
879.89	213.26
880.20	214.02
880.51	213.76
880.82	213.81
881.12	213.83
881.43	213.14
881.74	212.93
882.05	212.79
882.36	213.10
882.67	213.26
882.97	211.14
883.28	211.02
883.59	211.05
883.90	211.17
884.21	211.43
884.51	211.24
884.82	211.21
885.13	211.07
885.44	210.83
885.74	210.79
886.05	210.55
886.36	210.45
886.67	209.43
886.98	210.62
887.28	210.88
887.59	210.86
887.90	211.17
888.20	211.07
888.51	211.12
888.82	210.71
889.13	210.90
889.43	212.52
889.74	212.45
890.05	212.57
890.35	212.45
890.66	212.14
890.97	211.93
891.28	211.81
891.58	211.95
891.89	212.02
892.20	211.95
892.50	211.83
892.81	211.86
893.12	212.36
893.42	211.38
893.73	211.52
894.04	211.55
894.34	211.74
894.65	211.90
894.95	211.93
895.26	212.21
895.57	213.00
895.87	211.10
896.18	211.36
896.48	211.48
896.79	211.50
897.10	211.62
897.40	211.86
897.71	212.19
898.01	212.07
898.32	212.38
898.63	212.12
898.93	212.12
899.24	212.10
899.54	211.55
899.85	211.48
900.15	211.29
900.46	211.24
900.76	211.21
901.07	211.14
901.38	211.02
901.68	211.17
901.99	209.90
902.29	210.12
902.60	210.10
902.90	209.86
903.21	209.90
903.51	209.81
903.82	210.21
904.12	210.17
904.43	210.40
904.73	210.07
905.03	210.43
905.34	212.69
905.64	212.64
905.95	212.95
906.25	212.76
906.56	212.55
906.86	212.55
907.17	212.57
907.47	212.71
907.77	212.38
908.08	211.93
908.38	212.26
908.69	212.26
908.99	212.50
909.30	212.76
909.60	212.81
909.90	212.79
910.21	212.21
910.51	211.83
910.81	211.60
911.12	211.88
911.42	211.79
911.73	209.67
912.03	209.64
912.33	209.83
912.64	210.07
912.94	210.00
913.24	209.74
913.55	209.48
913.85	209.33
914.15	209.90
914.46	210.21
914.76	209.88
915.06	209.93
915.37	209.45
915.67	209.38
915.97	209.26
916.27	209.07
916.58	209.21
916.88	209.10
917.18	209.14
917.49	210.60
917.79	210.57
918.09	210.83
918.39	211.86
918.70	211.90
919.00	211.76
919.30	212.90
919.60	212.95
919.91	212.71
920.21	212.90
920.51	212.26
920.81	212.26
921.12	213.00
921.42	212.88
921.72	213.26
922.02	213.33
922.32	213.69
922.63	213.64
922.93	214.81
923.23	215.05
923.53	214.86
923.83	213.31
924.13	213.33
924.44	213.12
924.74	213.19
925.04	213.52
925.34	213.64
925.64	212.83
925.94	212.74
926.24	214.17
926.55	214.14
926.85	214.64
927.15	214.38
927.45	214.10
927.75	214.17
928.05	214.12
928.35	213.88
928.65	214.07
928.95	214.48
929.26	213.43
929.56	214.00
929.86	214.38
930.16	214.48
930.46	214.57
930.76	214.67
931.06	213.64
931.36	213.31
931.66	213.55
931.96	213.60
932.26	213.79
932.56	212.98
932.86	212.88
933.16	212.86
933.46	212.98
933.76	212.69
934.06	213.29
934.36	213.90
934.66	214.12
934.96	213.93
935.26	213.90
935.56	214.38
935.86	213.60
936.16	213.14
936.46	212.95
936.76	212.76
937.06	212.71
937.36	212.83
937.66	212.79
937.96	212.62
938.26	212.19
938.56	212.12
938.86	212.12
939.16	212.60
939.46	212.83
939.76	212.93
940.06	213.17
940.35	212.52
940.65	211.50
940.95	211.36
941.25	210.86
941.55	210.43
941.85	210.36
942.15	210.90
942.45	211.48
942.75	211.31
943.04	211.57
943.34	211.88
943.64	211.60
943.94	211.26
944.24	211.57
944.54	211.71
944.84	211.62
945.13	211.26
945.43	210.76
945.73	210.52
946.03	210.36
946.33	210.00
946.62	209.79
946.92	209.79
947.22	210.29
947.52	210.45
947.82	210.60
948.11	210.40
948.41	209.98
948.71	209.50
949.01	209.57
949.31	209.48
949.60	209.38
949.90	209.81
950.20	209.93
950.50	209.81
950.79	209.76
951.09	209.98
951.39	209.90
951.69	209.79
951.98	210.24
952.28	210.31
952.58	210.21
952.87	210.29
953.17	210.52
953.47	209.98
953.76	210.10
954.06	209.95
954.36	209.48
954.66	209.50
954.95	210.12
955.25	210.43
955.55	210.36
955.84	209.93
956.14	210.19
956.44	210.29
956.73	209.83
957.03	209.90
957.32	210.12
957.62	210.24
957.92	210.81
958.21	210.76
958.51	213.24
958.81	213.76
959.10	214.10
959.40	214.57
959.69	214.86
959.99	215.12
960.29	215.10
960.58	215.26
960.88	216.05
961.17	215.69
961.47	215.95
961.76	215.93
962.06	216.33
962.36	215.90
962.65	215.95
962.95	215.93
963.24	215.67
963.54	215.64
963.83	215.50
964.13	215.31
964.42	214.52
964.72	212.83
965.01	212.69
965.31	212.48
965.60	212.02
965.90	213.29
966.19	212.74
966.49	212.93
966.78	212.86
967.08	212.57
967.37	212.71
967.67	212.17
967.96	212.45
968.26	212.40
968.55	212.79
968.85	212.81
969.14	213.12
969.43	213.19
969.73	212.86
970.02	212.86
970.32	212.48
970.61	212.55
970.91	211.79
971.20	211.29
971.49	211.17
971.79	211.26
972.08	209.57
972.38	209.71
972.67	209.57
972.96	209.88
973.26	209.60
973.55	210.10
973.85	210.07
974.14	209.86
974.43	209.98
974.73	209.76
975.02	209.38
975.31	209.19
975.61	209.36
975.90	209.45
976.19	209.26
976.49	209.69
976.78	209.81
977.07	209.86
977.37	210.21
977.66	210.45
977.95	210.36
978.24	210.67
978.54	211.19
978.83	211.12
979.12	210.79
979.42	210.57
979.71	210.05
980.00	210.02
980.29	210.07
980.59	209.57
980.88	210.24
981.17	210.17
981.46	210.24
981.76	209.95
982.05	210.31
982.34	210.50
982.63	210.43
982.93	210.64
983.22	211.10
983.51	211.14
983.80	211.50
984.09	211.71
984.39	211.81
984.68	211.55
984.97	211.71
985.26	211.95
985.55	212.33
985.85	211.90
986.14	212.26
986.43	212.43
986.72	212.55
987.01	211.50
987.30	211.62
987.59	211.48
987.89	211.71
988.18	211.31
988.47	211.36
988.76	211.24
989.05	211.02
989.34	210.64
989.63	211.33
989.92	210.79
990.22	210.45
990.51	210.29
990.80	210.10
991.09	210.40
991.38	210.24
991.67	209.93
991.96	209.79
992.25	209.67
992.54	209.40
992.83	209.38
993.12	209.74
993.41	210.17
993.70	210.93
993.99	211.31
994.28	211.64
994.58	211.86
994.87	211.48
995.16	211.52
995.45	211.52
995.74	210.69
996.03	211.07
996.32	211.29
996.61	211.79
996.90	211.71
997.19	211.50
997.48	211.76
997.77	211.60
998.06	211.76
998.34	211.71
998.63	211.62
998.92	211.71
999.21	211.71
999.50	211.55
999.79	210.67
1000.08	210.60
1000.37	210.69
1000.66	210.43
1000.95	210.86
1001.24	210.83
1001.53	211.21
1001.82	211.17
1002.11	210.55
1002.40	210.93
1002.68	211.26
1002.97	212.90
1003.26	212.60
1003.55	212.24
1003.84	212.29
1004.13	213.19
1004.42	213.12
1004.71	213.24
1004.99	212.98
1005.28	213.48
1005.57	213.40
1005.86	213.60
1006.15	213.48
1006.44	212.98
1006.72	213.21
1007.01	213.33
1007.30	213.52
1007.59	213.14
1007.88	213.24
1008.17	213.43
1008.45	212.76
1008.74	211.86
1009.03	210.71
1009.32	210.74
1009.60	210.69
1009.89	210.52
1010.18	209.48
1010.47	209.19
1010.76	209.10
1011.04	209.24
1011.33	209.21
1011.62	209.38
1011.91	209.48
1012.19	209.40
1012.48	209.43
1012.77	209.14
1013.05	210.00
1013.34	209.71
1013.63	209.64
1013.92	209.86
1014.20	209.88
1014.49	210.14
1014.78	210.36
1015.06	209.64
1015.35	209.71
1015.64	209.93
1015.92	210.43
1016.21	210.60
1016.50	211.00
1016.78	211.21
1017.07	211.24
1017.36	210.81
1017.64	210.45
1017.93	210.60
1018.22	210.64
1018.50	210.69
1018.79	210.81
1019.08	209.83
1019.36	210.12
1019.65	210.05
1019.93	210.50
1020.22	210.76
1020.51	211.71
1020.79	211.45
1021.08	210.50
1021.36	208.50
1021.65	209.50
1021.94	211.50
1022.22	212.50
1022.51	207.50
1022.79	222.00
1023.08	213.00
1023.36	233.00
1023.65	205.50
>>>>>End Processed Spectral Data<<<<<
