SpectraSuite Data File
++++++++++++++++++++++++++++++++++++
Date: Tue Apr 02 18:40:43 EDT 2013
User: group
Dark Spectrum Present: No
Reference Spectrum Present: No
Number of Sampled Component Spectra: 1
Spectrometers: USB2E7196
Integration Time (usec): 580000 (USB2E7196)
Spectra Averaged: 2 (USB2E7196)
Boxcar Smoothing: 10 (USB2E7196)
Correct for Electrical Dark: No (USB2E7196)
Strobe/Lamp Enabled: No (USB2E7196)
Correct for Detector Non-linearity: No (USB2E7196)
Correct for Stray Light: No (USB2E7196)
Number of Pixels in Processed Spectrum: 2048
>>>>>Begin Processed Spectral Data<<<<<
339.09	0.00
339.48	195.50
339.86	197.50
340.24	195.00
340.63	201.00
341.01	236.50
341.39	203.00
341.78	205.50
342.16	211.50
342.54	206.00
342.93	199.14
343.31	209.05
343.69	209.50
344.07	209.98
344.46	210.79
344.84	211.24
345.22	210.07
345.60	210.64
345.99	210.90
346.37	211.05
346.75	211.07
347.13	211.14
347.52	211.43
347.90	212.05
348.28	212.00
348.66	212.40
349.05	211.48
349.43	211.62
349.81	211.71
350.19	211.79
350.57	212.02
350.96	212.14
351.34	212.21
351.72	212.55
352.10	212.69
352.48	212.48
352.87	212.24
353.25	212.10
353.63	211.71
354.01	211.67
354.39	211.60
354.77	211.86
355.15	212.36
355.54	212.21
355.92	211.64
356.30	211.76
356.68	213.24
357.06	213.52
357.44	213.12
357.82	213.05
358.20	213.76
358.58	213.67
358.97	213.64
359.35	213.90
359.73	214.07
360.11	213.98
360.49	214.31
360.87	214.45
361.25	214.90
361.63	215.76
362.01	215.79
362.39	215.67
362.77	215.74
363.15	215.57
363.53	215.36
363.91	215.31
364.29	215.10
364.67	213.05
365.05	212.88
365.43	213.38
365.81	213.60
366.19	213.86
366.57	214.52
366.95	214.62
367.33	214.52
367.71	214.62
368.09	215.10
368.47	214.95
368.85	214.95
369.23	215.29
369.61	214.40
369.99	215.07
370.37	215.21
370.75	216.00
371.13	215.60
371.51	215.43
371.89	215.81
372.27	215.95
372.65	216.14
373.03	216.33
373.41	216.14
373.78	215.98
374.16	214.79
374.54	214.21
374.92	213.88
375.30	213.71
375.68	213.19
376.06	213.17
376.44	213.00
376.82	213.10
377.19	212.86
377.57	212.88
377.95	212.24
378.33	212.17
378.71	211.24
379.09	211.48
379.47	211.98
379.84	211.71
380.22	211.62
380.60	211.40
380.98	211.38
381.36	211.14
381.73	210.76
382.11	211.38
382.49	211.52
382.87	211.36
383.25	211.48
383.62	214.14
384.00	213.71
384.38	214.10
384.76	214.60
385.13	215.36
385.51	215.24
385.89	215.19
386.27	215.19
386.64	215.29
387.02	215.19
387.40	214.98
387.78	215.07
388.15	215.26
388.53	215.10
388.91	214.98
389.29	214.86
389.66	215.24
390.04	215.07
390.42	215.43
390.79	215.71
391.17	215.62
391.55	213.10
391.92	213.21
392.30	213.38
392.68	213.02
393.05	212.93
393.43	213.38
393.81	213.45
394.18	213.29
394.56	213.57
394.94	214.02
395.31	213.98
395.69	214.69
396.06	214.81
396.44	215.12
396.82	215.07
397.19	216.29
397.57	216.07
397.95	216.19
398.32	215.81
398.70	216.05
399.07	216.60
399.45	216.69
399.82	216.52
400.20	216.12
400.58	216.07
400.95	215.40
401.33	215.71
401.70	217.19
402.08	217.31
402.45	217.43
402.83	217.90
403.20	218.36
403.58	217.98
403.95	218.57
404.33	219.02
404.71	219.33
405.08	220.57
405.46	221.17
405.83	221.81
406.21	221.98
406.58	222.40
406.96	222.69
407.33	223.29
407.70	224.29
408.08	226.45
408.45	227.45
408.83	228.29
409.20	228.64
409.58	228.19
409.95	229.45
410.33	230.29
410.70	230.50
411.08	231.69
411.45	233.10
411.82	233.90
412.20	235.67
412.57	238.19
412.95	237.83
413.32	239.81
413.69	241.12
414.07	242.90
414.44	244.76
414.82	246.76
415.19	249.19
415.56	251.45
415.94	253.12
416.31	256.05
416.68	258.93
417.06	262.45
417.43	266.24
417.81	269.90
418.18	273.71
418.55	277.88
418.93	282.02
419.30	286.43
419.67	291.31
420.04	295.74
420.42	300.24
420.79	307.29
421.16	312.83
421.54	320.21
421.91	326.79
422.28	333.45
422.66	340.31
423.03	348.76
423.40	355.88
423.77	363.36
424.15	370.98
424.52	379.19
424.89	388.48
425.26	396.48
425.64	404.50
426.01	413.19
426.38	422.55
426.75	432.62
427.13	442.48
427.50	452.55
427.87	463.19
428.24	473.81
428.61	482.98
428.99	495.02
429.36	505.83
429.73	517.36
430.10	529.24
430.47	541.90
430.85	552.67
431.22	566.24
431.59	581.60
431.96	594.71
432.33	609.62
432.70	623.31
433.08	640.64
433.45	656.67
433.82	672.67
434.19	690.55
434.56	707.83
434.93	723.67
435.30	740.33
435.68	758.50
436.05	776.55
436.42	794.31
436.79	810.81
437.16	828.52
437.53	847.86
437.90	866.83
438.27	885.43
438.64	904.81
439.01	923.17
439.38	937.36
439.75	953.43
440.13	971.43
440.50	987.93
440.87	1001.40
441.24	1015.55
441.61	1031.40
441.98	1042.31
442.35	1054.60
442.72	1068.81
443.09	1082.83
443.46	1091.14
443.83	1096.55
444.20	1102.14
444.57	1108.50
444.94	1112.33
445.31	1115.62
445.68	1121.05
446.05	1122.57
446.42	1121.10
446.79	1119.55
447.16	1117.55
447.53	1115.67
447.90	1108.17
448.27	1101.81
448.64	1092.62
449.01	1086.29
449.37	1074.24
449.74	1063.57
450.11	1052.29
450.48	1036.69
450.85	1019.64
451.22	1005.69
451.59	993.02
451.96	980.40
452.33	964.07
452.70	949.00
453.07	931.60
453.43	911.33
453.80	893.81
454.17	877.55
454.54	860.57
454.91	843.76
455.28	826.86
455.65	811.31
456.02	799.00
456.38	785.31
456.75	768.90
457.12	754.98
457.49	740.88
457.86	725.40
458.23	714.69
458.59	702.81
458.96	690.93
459.33	679.88
459.70	669.02
460.07	659.83
460.43	649.90
460.80	640.43
461.17	632.38
461.54	623.50
461.91	614.88
462.27	606.26
462.64	599.07
463.01	591.50
463.38	585.02
463.74	573.64
464.11	566.88
464.48	560.36
464.85	553.95
465.21	549.40
465.58	544.62
465.95	537.60
466.32	532.21
466.68	526.71
467.05	521.55
467.42	516.12
467.78	510.86
468.15	505.21
468.52	501.52
468.88	495.64
469.25	490.76
469.62	487.14
469.98	483.74
470.35	479.50
470.72	475.64
471.08	470.45
471.45	467.90
471.82	464.74
472.18	461.14
472.55	458.45
472.92	454.55
473.28	451.36
473.65	448.45
474.02	445.50
474.38	443.50
474.75	441.57
475.11	439.21
475.48	437.36
475.85	436.17
476.21	433.74
476.58	432.79
476.94	431.57
477.31	430.24
477.67	428.48
478.04	427.74
478.41	427.29
478.77	428.62
479.14	427.14
479.50	426.45
479.87	426.50
480.23	426.02
480.60	425.95
480.96	425.76
481.33	427.05
481.69	427.33
482.06	427.33
482.42	427.26
482.79	427.64
483.15	428.07
483.52	428.81
483.88	429.62
484.25	429.88
484.61	430.81
484.98	431.24
485.34	432.95
485.71	434.62
486.07	435.79
486.44	435.60
486.80	437.00
487.17	438.60
487.53	440.90
487.90	443.05
488.26	446.05
488.62	448.62
488.99	449.95
489.35	452.95
489.72	455.29
490.08	458.07
490.44	461.05
490.81	464.19
491.17	467.57
491.54	470.93
491.90	475.12
492.26	478.86
492.63	482.93
492.99	486.36
493.36	490.38
493.72	495.60
494.08	500.02
494.45	505.86
494.81	510.90
495.17	515.38
495.54	520.76
495.90	525.19
496.26	530.40
496.63	536.88
496.99	542.21
497.35	548.31
497.72	554.60
498.08	560.69
498.44	566.98
498.80	573.55
499.17	580.19
499.53	586.83
499.89	594.40
500.26	601.43
500.62	608.64
500.98	616.21
501.34	622.95
501.71	630.76
502.07	637.60
502.43	645.05
502.79	652.45
503.16	659.29
503.52	667.10
503.88	674.43
504.24	681.83
504.60	689.88
504.97	697.98
505.33	705.76
505.69	715.07
506.05	723.71
506.41	731.95
506.78	740.52
507.14	748.00
507.50	755.62
507.86	764.12
508.22	772.81
508.59	780.50
508.95	788.93
509.31	798.45
509.67	807.00
510.03	815.14
510.39	823.21
510.75	831.74
511.12	840.14
511.48	848.31
511.84	856.36
512.20	864.29
512.56	872.36
512.92	881.12
513.28	888.76
513.64	896.64
514.00	903.93
514.37	911.40
514.73	919.83
515.09	928.24
515.45	935.36
515.81	942.55
516.17	950.24
516.53	957.26
516.89	963.19
517.25	970.36
517.61	978.57
517.97	986.05
518.33	993.90
518.69	1000.62
519.05	1008.19
519.41	1014.95
519.77	1022.98
520.13	1030.19
520.49	1036.14
520.85	1042.45
521.21	1049.67
521.57	1056.55
521.93	1061.95
522.29	1068.05
522.65	1073.40
523.01	1080.21
523.37	1086.21
523.73	1092.10
524.09	1098.19
524.45	1103.83
524.81	1109.50
525.17	1114.60
525.53	1120.00
525.89	1124.69
526.25	1129.93
526.61	1134.64
526.97	1139.67
527.33	1144.74
527.68	1151.02
528.04	1155.74
528.40	1160.52
528.76	1164.81
529.12	1169.71
529.48	1176.21
529.84	1181.19
530.20	1186.62
530.56	1191.64
530.91	1197.17
531.27	1201.71
531.63	1206.60
531.99	1211.45
532.35	1216.14
532.71	1220.45
533.07	1225.43
533.42	1232.10
533.78	1237.64
534.14	1242.98
534.50	1247.76
534.86	1252.12
535.21	1255.26
535.57	1261.14
535.93	1264.93
536.29	1269.93
536.65	1274.71
537.00	1278.21
537.36	1282.67
537.72	1285.93
538.08	1289.98
538.44	1293.24
538.79	1297.50
539.15	1301.40
539.51	1305.43
539.87	1309.64
540.22	1313.95
540.58	1318.17
540.94	1319.88
541.29	1323.19
541.65	1325.98
542.01	1330.07
542.37	1333.12
542.72	1335.81
543.08	1338.48
543.44	1342.38
543.79	1344.62
544.15	1347.69
544.51	1352.74
544.87	1355.67
545.22	1360.24
545.58	1363.95
545.94	1367.45
546.29	1371.52
546.65	1374.10
547.01	1377.38
547.36	1380.31
547.72	1382.69
548.07	1385.88
548.43	1389.45
548.79	1392.33
549.14	1395.79
549.50	1399.55
549.86	1402.43
550.21	1406.57
550.57	1409.43
550.92	1412.74
551.28	1416.83
551.64	1420.69
551.99	1422.64
552.35	1426.14
552.70	1429.38
553.06	1432.38
553.41	1436.81
553.77	1441.36
554.13	1446.60
554.48	1451.64
554.84	1456.24
555.19	1462.05
555.55	1467.48
555.90	1472.05
556.26	1476.45
556.61	1480.74
556.97	1484.05
557.32	1488.76
557.68	1493.38
558.03	1499.48
558.39	1504.17
558.74	1509.24
559.10	1513.36
559.45	1518.52
559.81	1523.69
560.16	1527.88
560.52	1533.00
560.87	1537.17
561.23	1540.79
561.58	1546.74
561.94	1550.83
562.29	1555.62
562.64	1560.31
563.00	1564.48
563.35	1570.24
563.71	1576.17
564.06	1581.79
564.42	1587.71
564.77	1594.02
565.12	1599.98
565.48	1606.14
565.83	1612.43
566.19	1617.36
566.54	1622.83
566.89	1627.88
567.25	1634.14
567.60	1641.12
567.96	1648.64
568.31	1655.69
568.66	1661.86
569.02	1665.62
569.37	1671.26
569.72	1676.29
570.08	1680.67
570.43	1685.12
570.78	1689.64
571.14	1693.76
571.49	1698.19
571.84	1702.48
572.20	1706.29
572.55	1710.74
572.90	1713.33
573.26	1716.38
573.61	1720.21
573.96	1724.40
574.31	1728.02
574.67	1731.26
575.02	1733.76
575.37	1735.14
575.72	1736.52
576.08	1738.95
576.43	1741.60
576.78	1743.50
577.13	1746.29
577.49	1748.21
577.84	1751.14
578.19	1753.86
578.54	1757.19
578.90	1760.55
579.25	1764.33
579.60	1766.07
579.95	1767.52
580.30	1770.38
580.66	1773.57
581.01	1775.69
581.36	1777.60
581.71	1779.48
582.06	1782.19
582.42	1785.45
582.77	1787.05
583.12	1789.33
583.47	1791.31
583.82	1793.40
584.17	1796.36
584.53	1798.43
584.88	1799.31
585.23	1801.38
585.58	1802.55
585.93	1803.07
586.28	1804.48
586.63	1804.93
586.98	1807.02
587.34	1808.50
587.69	1809.29
588.04	1809.64
588.39	1810.98
588.74	1810.98
589.09	1811.76
589.44	1810.55
589.79	1809.81
590.14	1810.38
590.49	1810.31
590.84	1809.93
591.19	1810.71
591.54	1809.90
591.89	1809.19
592.25	1812.00
592.60	1811.00
592.95	1811.00
593.30	1811.74
593.65	1812.07
594.00	1810.88
594.35	1814.81
594.70	1813.55
595.05	1812.79
595.40	1812.33
595.75	1811.57
596.10	1811.64
596.45	1812.69
596.80	1812.93
597.15	1812.50
597.50	1811.00
597.85	1811.95
598.19	1811.79
598.54	1809.64
598.89	1808.93
599.24	1808.71
599.59	1806.29
599.94	1804.95
600.29	1803.74
600.64	1801.79
600.99	1799.38
601.34	1798.57
601.69	1791.74
602.04	1790.02
602.39	1787.76
602.74	1786.21
603.08	1784.14
603.43	1783.29
603.78	1779.64
604.13	1778.02
604.48	1775.43
604.83	1774.40
605.18	1770.74
605.53	1768.07
605.87	1765.83
606.22	1763.29
606.57	1760.43
606.92	1758.62
607.27	1757.64
607.62	1755.33
607.96	1753.45
608.31	1751.55
608.66	1748.33
609.01	1745.71
609.36	1744.19
609.70	1742.17
610.05	1738.90
610.40	1735.95
610.75	1732.24
611.10	1729.93
611.44	1726.50
611.79	1722.48
612.14	1718.12
612.49	1714.62
612.83	1710.26
613.18	1706.48
613.53	1702.02
613.88	1697.40
614.22	1692.71
614.57	1687.17
614.92	1682.00
615.27	1677.48
615.61	1671.24
615.96	1666.48
616.31	1661.90
616.65	1656.64
617.00	1651.14
617.35	1646.29
617.70	1641.43
618.04	1636.12
618.39	1630.48
618.74	1624.55
619.08	1619.10
619.43	1614.79
619.78	1609.26
620.12	1604.93
620.47	1601.29
620.82	1595.62
621.16	1590.07
621.51	1585.38
621.85	1579.57
622.20	1574.48
622.55	1568.24
622.89	1564.33
623.24	1559.62
623.59	1554.07
623.93	1548.69
624.28	1544.38
624.62	1541.55
624.97	1537.14
625.32	1532.12
625.66	1526.07
626.01	1521.19
626.35	1517.24
626.70	1511.88
627.04	1508.50
627.39	1503.60
627.73	1497.74
628.08	1494.21
628.43	1489.83
628.77	1483.64
629.12	1478.81
629.46	1473.45
629.81	1468.40
630.15	1462.19
630.50	1456.45
630.84	1451.21
631.19	1445.45
631.53	1438.76
631.88	1430.10
632.22	1423.45
632.57	1418.50
632.91	1413.43
633.26	1407.45
633.60	1400.98
633.95	1394.67
634.29	1386.81
634.64	1380.79
634.98	1374.26
635.32	1368.62
635.67	1363.31
636.01	1357.93
636.36	1352.19
636.70	1347.26
637.05	1341.90
637.39	1337.00
637.73	1332.02
638.08	1327.45
638.42	1322.07
638.77	1317.05
639.11	1311.67
639.45	1306.21
639.80	1299.40
640.14	1292.74
640.49	1287.45
640.83	1281.90
641.17	1276.71
641.52	1271.48
641.86	1265.29
642.20	1259.95
642.55	1252.33
642.89	1245.76
643.23	1239.95
643.58	1234.21
643.92	1226.31
644.26	1218.95
644.61	1212.43
644.95	1205.24
645.29	1197.26
645.64	1190.67
645.98	1184.07
646.32	1177.76
646.66	1170.38
647.01	1163.52
647.35	1158.74
647.69	1151.90
648.04	1146.26
648.38	1140.00
648.72	1133.33
649.06	1126.76
649.41	1119.76
649.75	1113.21
650.09	1106.57
650.43	1098.43
650.78	1090.55
651.12	1084.33
651.46	1078.17
651.80	1070.88
652.14	1064.19
652.49	1058.48
652.83	1052.05
653.17	1045.05
653.51	1038.48
653.85	1032.07
654.20	1025.31
654.54	1017.55
654.88	1010.24
655.22	1003.33
655.56	995.52
655.90	988.57
656.25	982.02
656.59	975.90
656.93	970.21
657.27	964.69
657.61	959.45
657.95	954.36
658.29	948.71
658.64	943.29
658.98	936.90
659.32	930.76
659.66	924.21
660.00	918.60
660.34	912.86
660.68	907.00
661.02	901.00
661.36	895.33
661.70	889.98
662.05	885.00
662.39	879.21
662.73	874.48
663.07	870.14
663.41	864.43
663.75	858.36
664.09	852.38
664.43	845.81
664.77	839.98
665.11	833.62
665.45	827.95
665.79	822.26
666.13	817.26
666.47	811.86
666.81	806.43
667.15	799.69
667.49	794.64
667.83	789.88
668.17	785.17
668.51	780.24
668.85	775.48
669.19	770.83
669.53	764.74
669.87	758.90
670.21	752.83
670.55	747.88
670.89	743.43
671.23	738.62
671.57	734.17
671.91	729.31
672.25	725.21
672.58	721.00
672.92	715.74
673.26	710.52
673.60	705.74
673.94	701.12
674.28	697.12
674.62	692.29
674.96	687.67
675.30	683.29
675.64	678.48
675.97	673.62
676.31	668.83
676.65	664.69
676.99	660.95
677.33	656.55
677.67	651.81
678.01	646.45
678.34	641.76
678.68	637.55
679.02	633.48
679.36	628.86
679.70	623.90
680.04	619.31
680.37	615.31
680.71	611.12
681.05	607.55
681.39	603.50
681.73	599.26
682.06	594.55
682.40	590.07
682.74	586.12
683.08	582.52
683.42	577.60
683.75	573.71
684.09	569.19
684.43	565.00
684.77	560.98
685.10	557.50
685.44	553.57
685.78	549.24
686.12	545.40
686.45	541.24
686.79	537.43
687.13	534.21
687.46	530.38
687.80	527.17
688.14	522.88
688.48	519.24
688.81	515.95
689.15	512.90
689.49	509.14
689.82	505.90
690.16	501.38
690.50	497.88
690.83	494.36
691.17	490.90
691.51	487.93
691.84	485.21
692.18	482.21
692.52	479.10
692.85	476.10
693.19	473.62
693.52	470.24
693.86	466.76
694.20	463.55
694.53	460.50
694.87	456.93
695.21	453.67
695.54	450.31
695.88	446.26
696.21	442.24
696.55	439.52
696.88	436.33
697.22	433.33
697.56	431.38
697.89	428.57
698.23	425.64
698.56	422.88
698.90	420.60
699.23	417.48
699.57	414.98
699.90	412.07
700.24	408.45
700.58	406.21
700.91	403.90
701.25	402.79
701.58	401.31
701.92	399.71
702.25	397.76
702.59	395.33
702.92	393.52
703.26	391.74
703.59	389.38
703.93	388.83
704.26	387.26
704.60	385.07
704.93	383.05
705.26	380.90
705.60	379.02
705.93	376.07
706.27	374.40
706.60	372.71
706.94	371.83
707.27	369.62
707.61	367.95
707.94	366.31
708.27	363.14
708.61	360.29
708.94	357.90
709.28	355.93
709.61	353.81
709.94	352.02
710.28	349.79
710.61	347.76
710.95	343.88
711.28	343.31
711.61	341.48
711.95	340.26
712.28	338.55
712.61	336.62
712.95	336.07
713.28	335.52
713.61	333.48
713.95	331.17
714.28	330.26
714.61	328.64
714.95	327.02
715.28	325.31
715.61	323.93
715.95	322.88
716.28	321.55
716.61	320.98
716.95	319.40
717.28	318.62
717.61	317.50
717.94	316.62
718.28	313.90
718.61	312.48
718.94	310.57
719.27	309.38
719.61	308.14
719.94	306.21
720.27	303.83
720.60	302.60
720.94	301.52
721.27	300.40
721.60	299.67
721.93	298.74
722.27	298.36
722.60	297.67
722.93	296.26
723.26	295.29
723.59	294.05
723.93	293.40
724.26	292.45
724.59	291.29
724.92	290.60
725.25	290.26
725.59	289.40
725.92	288.83
726.25	288.12
726.58	287.36
726.91	286.52
727.24	285.90
727.57	285.14
727.91	283.88
728.24	282.98
728.57	281.71
728.90	280.98
729.23	279.48
729.56	279.67
729.89	278.71
730.22	277.83
730.55	276.88
730.89	276.19
731.22	275.40
731.55	274.93
731.88	274.10
732.21	273.38
732.54	272.52
732.87	271.74
733.20	271.17
733.53	270.57
733.86	270.05
734.19	269.21
734.52	269.10
734.85	269.81
735.18	269.12
735.51	269.14
735.84	268.52
736.17	268.74
736.50	266.88
736.83	268.62
737.16	268.10
737.49	267.79
737.82	267.07
738.15	266.74
738.48	266.12
738.81	265.31
739.14	264.14
739.47	263.29
739.80	262.74
740.13	262.48
740.46	261.76
740.79	260.98
741.12	260.60
741.45	259.64
741.78	258.19
742.11	258.36
742.44	257.40
742.77	257.26
743.10	256.29
743.43	255.55
743.75	253.10
744.08	255.21
744.41	254.57
744.74	254.07
745.07	253.10
745.40	252.90
745.73	253.40
746.06	253.19
746.39	253.31
746.71	252.50
747.04	251.71
747.37	251.00
747.70	251.10
748.03	250.50
748.36	250.33
748.68	249.62
749.01	248.50
749.34	247.98
749.67	247.48
750.00	247.24
750.33	248.60
750.65	248.52
750.98	245.62
751.31	245.43
751.64	245.17
751.97	246.10
752.29	245.67
752.62	244.43
752.95	243.79
753.28	243.19
753.60	243.26
753.93	243.50
754.26	243.38
754.59	242.50
754.91	242.12
755.24	241.62
755.57	241.50
755.90	241.10
756.22	240.57
756.55	239.98
756.88	239.57
757.20	237.74
757.53	236.74
757.86	236.50
758.19	236.21
758.51	235.79
758.84	234.45
759.17	233.90
759.49	233.79
759.82	234.93
760.15	234.81
760.47	234.38
760.80	233.31
761.13	233.38
761.45	232.90
761.78	232.55
762.11	232.29
762.43	232.02
762.76	231.76
763.08	231.98
763.41	231.69
763.74	231.55
764.06	231.60
764.39	231.74
764.71	231.48
765.04	231.00
765.37	230.81
765.69	230.57
766.02	230.40
766.34	229.88
766.67	228.81
767.00	228.86
767.32	229.67
767.65	230.64
767.97	230.31
768.30	230.38
768.62	230.26
768.95	229.86
769.27	229.50
769.60	229.67
769.92	229.14
770.25	228.98
770.57	228.24
770.90	227.88
771.22	227.48
771.55	227.40
771.87	227.52
772.20	227.07
772.52	228.76
772.85	230.90
773.17	230.88
773.50	230.64
773.82	230.24
774.15	229.00
774.47	227.64
774.80	227.33
775.12	227.17
775.45	227.14
775.77	227.14
776.09	227.24
776.42	227.10
776.74	227.43
777.07	226.90
777.39	227.33
777.72	227.00
778.04	226.95
778.36	226.45
778.69	226.12
779.01	226.33
779.33	224.19
779.66	222.12
779.98	221.95
780.31	221.81
780.63	222.40
780.95	222.95
781.28	223.12
781.60	223.05
781.92	223.05
782.25	222.98
782.57	223.02
782.89	222.88
783.22	222.57
783.54	222.26
783.86	222.31
784.19	221.86
784.51	222.38
784.83	221.86
785.16	221.95
785.48	221.98
785.80	221.81
786.12	222.05
786.45	221.83
786.77	221.74
787.09	221.50
787.42	220.88
787.74	220.86
788.06	220.83
788.38	220.55
788.71	220.19
789.03	220.07
789.35	220.14
789.67	219.69
789.99	219.90
790.32	219.36
790.64	219.55
790.96	221.26
791.28	220.64
791.61	220.76
791.93	220.81
792.25	220.90
792.57	222.52
792.89	222.05
793.21	222.05
793.54	222.05
793.86	222.19
794.18	222.12
794.50	221.67
794.82	221.60
795.14	222.00
795.47	222.48
795.79	222.40
796.11	221.90
796.43	221.79
796.75	221.60
797.07	221.81
797.39	221.83
797.71	220.17
798.04	220.19
798.36	220.43
798.68	220.19
799.00	219.98
799.32	218.55
799.64	219.02
799.96	219.05
800.28	219.48
800.60	219.02
800.92	219.31
801.24	218.98
801.56	218.98
801.89	218.74
802.21	218.64
802.53	218.36
802.85	218.71
803.17	219.86
803.49	219.74
803.81	219.60
804.13	219.36
804.45	219.05
804.77	219.36
805.09	219.19
805.41	219.07
805.73	218.71
806.05	218.38
806.37	218.17
806.69	217.95
807.01	217.64
807.33	217.86
807.65	217.02
807.97	218.00
808.28	217.79
808.60	217.43
808.92	217.26
809.24	218.60
809.56	218.33
809.88	217.60
810.20	217.52
810.52	218.00
810.84	217.62
811.16	217.55
811.48	217.24
811.80	217.95
812.12	217.79
812.43	218.43
812.75	218.74
813.07	218.48
813.39	218.48
813.71	218.26
814.03	217.88
814.35	217.88
814.67	217.26
814.98	217.02
815.30	217.14
815.62	216.69
815.94	215.17
816.26	215.31
816.58	214.79
816.89	214.74
817.21	214.07
817.53	214.38
817.85	214.31
818.17	214.12
818.48	213.36
818.80	213.83
819.12	213.31
819.44	212.88
819.76	212.52
820.07	212.57
820.39	212.45
820.71	212.69
821.03	212.83
821.34	212.52
821.66	212.98
821.98	213.07
822.30	212.98
822.61	214.29
822.93	214.14
823.25	214.02
823.57	214.02
823.88	214.67
824.20	214.50
824.52	214.93
824.83	214.95
825.15	214.55
825.47	214.57
825.79	214.98
826.10	215.00
826.42	215.21
826.74	215.55
827.05	215.55
827.37	215.79
827.69	215.62
828.00	215.62
828.32	215.31
828.64	215.12
828.95	216.19
829.27	215.74
829.58	215.62
829.90	216.19
830.22	216.24
830.53	215.81
830.85	215.69
831.17	215.21
831.48	215.24
831.80	215.33
832.11	215.24
832.43	214.81
832.75	214.64
833.06	215.83
833.38	215.17
833.69	215.05
834.01	215.24
834.32	215.24
834.64	215.07
834.96	215.21
835.27	215.40
835.59	214.83
835.90	214.19
836.22	214.17
836.53	213.64
836.85	213.40
837.16	215.52
837.48	215.60
837.79	216.26
838.11	216.36
838.42	216.50
838.74	216.48
839.05	216.43
839.37	216.29
839.68	215.02
840.00	214.90
840.31	215.21
840.63	214.83
840.94	214.62
841.26	214.60
841.57	214.74
841.88	214.93
842.20	214.69
842.51	214.57
842.83	214.43
843.14	216.26
843.46	216.43
843.77	215.17
844.08	215.19
844.40	214.43
844.71	214.24
845.03	213.93
845.34	213.86
845.65	213.71
845.97	214.07
846.28	214.26
846.60	214.19
846.91	214.00
847.22	213.86
847.54	214.36
847.85	214.50
848.16	214.24
848.48	213.83
848.79	214.55
849.10	214.88
849.42	215.29
849.73	213.64
850.04	213.52
850.36	212.88
850.67	213.07
850.98	213.07
851.30	213.29
851.61	213.24
851.92	212.95
852.23	213.81
852.55	213.76
852.86	213.71
853.17	214.00
853.49	214.40
853.80	214.88
854.11	215.05
854.42	215.40
854.74	215.17
855.05	215.24
855.36	214.26
855.67	214.55
855.99	214.45
856.30	216.95
856.61	216.76
856.92	216.64
857.23	216.74
857.55	216.60
857.86	216.74
858.17	217.26
858.48	217.17
858.79	216.36
859.11	216.36
859.42	216.12
859.73	216.02
860.04	215.86
860.35	215.38
860.66	214.74
860.98	214.52
861.29	214.74
861.60	214.55
861.91	215.10
862.22	214.48
862.53	214.14
862.84	211.38
863.16	212.31
863.47	211.86
863.78	211.74
864.09	212.05
864.40	212.12
864.71	212.33
865.02	212.93
865.33	212.86
865.64	212.60
865.95	212.60
866.27	213.69
866.58	213.45
866.89	213.67
867.20	213.69
867.51	213.29
867.82	213.07
868.13	213.69
868.44	213.29
868.75	213.74
869.06	213.83
869.37	214.17
869.68	213.10
869.99	213.76
870.30	213.71
870.61	214.02
870.92	213.38
871.23	212.88
871.54	212.83
871.85	213.33
872.16	213.76
872.47	213.83
872.78	212.83
873.09	212.86
873.40	212.52
873.71	212.64
874.02	212.93
874.33	212.90
874.64	212.33
874.95	212.60
875.26	212.26
875.56	212.07
875.87	211.95
876.18	211.90
876.49	213.67
876.80	213.52
877.11	212.83
877.42	213.19
877.73	213.17
878.04	212.90
878.35	212.88
878.66	212.69
878.96	212.45
879.27	212.21
879.58	212.19
879.89	212.31
880.20	213.05
880.51	212.79
880.82	212.79
881.12	213.10
881.43	212.64
881.74	212.31
882.05	212.29
882.36	212.33
882.67	212.74
882.97	210.48
883.28	210.38
883.59	210.71
883.90	210.83
884.21	211.12
884.51	210.81
884.82	210.29
885.13	210.38
885.44	210.71
885.74	210.83
886.05	210.83
886.36	210.79
886.67	209.93
886.98	211.21
887.28	211.50
887.59	211.38
887.90	211.50
888.20	211.50
888.51	211.86
888.82	211.50
889.13	211.57
889.43	213.24
889.74	213.29
890.05	213.10
890.35	212.98
890.66	212.79
890.97	213.00
891.28	212.93
891.58	212.86
891.89	212.86
892.20	212.62
892.50	212.31
892.81	212.14
893.12	212.14
893.42	210.98
893.73	211.05
894.04	211.12
894.34	211.45
894.65	211.64
894.95	211.36
895.26	211.64
895.57	212.45
895.87	210.74
896.18	210.98
896.48	211.02
896.79	210.86
897.10	211.38
897.40	211.36
897.71	211.67
898.01	211.57
898.32	211.76
898.63	211.79
898.93	211.93
899.24	212.00
899.54	211.90
899.85	211.95
900.15	211.67
900.46	211.50
900.76	211.71
901.07	211.64
901.38	211.71
901.68	211.95
901.99	210.64
902.29	210.57
902.60	210.55
902.90	210.64
903.21	210.71
903.51	210.43
903.82	210.74
904.12	210.90
904.43	211.29
904.73	211.10
905.03	211.36
905.34	213.45
905.64	213.31
905.95	213.21
906.25	213.29
906.56	213.43
906.86	213.64
907.17	213.29
907.47	213.40
907.77	213.43
908.08	212.86
908.38	213.31
908.69	213.76
908.99	213.86
909.30	213.81
909.60	213.88
909.90	213.83
910.21	213.33
910.51	213.14
910.81	213.00
911.12	213.05
911.42	212.93
911.73	210.83
912.03	211.00
912.33	211.60
912.64	211.31
912.94	211.02
913.24	210.60
913.55	210.57
913.85	210.38
914.15	210.64
914.46	211.05
914.76	210.86
915.06	210.55
915.37	210.26
915.67	210.19
915.97	210.10
916.27	209.79
916.58	210.05
916.88	209.69
917.18	209.31
917.49	210.67
917.79	210.69
918.09	211.00
918.39	211.60
918.70	211.29
919.00	211.36
919.30	212.24
919.60	212.33
919.91	212.12
920.21	212.17
920.51	211.67
920.81	211.52
921.12	211.83
921.42	211.93
921.72	212.17
922.02	212.29
922.32	212.64
922.63	212.67
922.93	213.52
923.23	213.71
923.53	213.69
923.83	212.31
924.13	212.45
924.44	212.50
924.74	212.74
925.04	213.33
925.34	213.55
925.64	212.98
925.94	212.88
926.24	213.95
926.55	213.71
926.85	214.26
927.15	214.52
927.45	214.60
927.75	214.71
928.05	214.71
928.35	214.50
928.65	214.95
928.95	215.33
929.26	214.57
929.56	215.07
929.86	215.38
930.16	215.24
930.46	214.93
930.76	215.05
931.06	214.24
931.36	213.64
931.66	213.81
931.96	213.74
932.26	213.95
932.56	213.29
932.86	213.55
933.16	213.36
933.46	213.00
933.76	212.76
934.06	213.21
934.36	213.79
934.66	213.95
934.96	213.48
935.26	213.43
935.56	213.64
935.86	213.10
936.16	212.98
936.46	213.21
936.76	213.31
937.06	212.90
937.36	213.05
937.66	213.21
937.96	213.00
938.26	212.83
938.56	212.74
938.86	212.90
939.16	213.36
939.46	213.57
939.76	213.60
940.06	213.62
940.35	212.83
940.65	211.83
940.95	211.98
941.25	211.45
941.55	211.21
941.85	211.21
942.15	211.79
942.45	212.10
942.75	211.76
943.04	211.81
943.34	212.36
943.64	212.12
943.94	211.74
944.24	211.95
944.54	212.14
944.84	211.95
945.13	211.48
945.43	211.17
945.73	211.29
946.03	211.12
946.33	210.79
946.62	211.00
946.92	211.12
947.22	211.12
947.52	211.40
947.82	211.62
948.11	211.33
948.41	210.74
948.71	210.29
949.01	210.43
949.31	210.29
949.60	210.05
949.90	210.24
950.20	210.31
950.50	210.17
950.79	209.69
951.09	210.10
951.39	210.17
951.69	209.90
951.98	210.12
952.28	210.19
952.58	210.45
952.87	210.43
953.17	210.76
953.47	210.62
953.76	210.40
954.06	210.19
954.36	209.98
954.66	209.98
954.95	210.60
955.25	210.74
955.55	210.88
955.84	210.55
956.14	210.74
956.44	210.90
956.73	210.60
957.03	210.98
957.32	210.93
957.62	210.52
957.92	211.00
958.21	210.81
958.51	213.33
958.81	213.40
959.10	213.55
959.40	213.79
959.69	213.88
959.99	214.40
960.29	214.31
960.58	214.45
960.88	215.29
961.17	214.93
961.47	215.00
961.76	214.88
962.06	215.31
962.36	215.24
962.65	215.19
962.95	215.33
963.24	215.17
963.54	215.31
963.83	215.81
964.13	215.60
964.42	214.83
964.72	213.14
965.01	213.21
965.31	212.90
965.60	212.48
965.90	213.71
966.19	213.17
966.49	213.38
966.78	213.29
967.08	213.14
967.37	213.10
967.67	212.81
967.96	213.17
968.26	213.00
968.55	213.10
968.85	212.98
969.14	213.12
969.43	213.10
969.73	212.81
970.02	212.62
970.32	212.67
970.61	212.79
970.91	212.12
971.20	211.81
971.49	211.76
971.79	212.00
972.08	210.57
972.38	211.02
972.67	210.88
972.96	211.07
973.26	210.69
973.55	211.43
973.85	211.21
974.14	211.02
974.43	211.19
974.73	210.88
975.02	210.86
975.31	210.93
975.61	210.98
975.90	210.98
976.19	210.88
976.49	210.79
976.78	211.02
977.07	210.93
977.37	211.17
977.66	211.62
977.95	211.33
978.24	211.71
978.54	212.00
978.83	211.81
979.12	211.64
979.42	211.50
979.71	211.07
980.00	211.02
980.29	211.33
980.59	210.88
980.88	211.48
981.17	211.48
981.46	211.10
981.76	211.24
982.05	211.74
982.34	211.55
982.63	211.76
982.93	211.79
983.22	212.52
983.51	212.43
983.80	212.57
984.09	212.93
984.39	212.57
984.68	212.05
984.97	212.10
985.26	212.12
985.55	212.50
985.85	212.07
986.14	212.62
986.43	212.64
986.72	212.52
987.01	211.86
987.30	211.90
987.59	212.02
987.89	211.88
988.18	211.50
988.47	211.67
988.76	211.55
989.05	211.48
989.34	210.95
989.63	211.60
989.92	211.29
990.22	210.93
990.51	211.00
990.80	211.10
991.09	211.45
991.38	211.43
991.67	211.02
991.96	210.83
992.25	210.81
992.54	210.29
992.83	210.36
993.12	210.38
993.41	210.62
993.70	211.29
993.99	211.71
994.28	211.79
994.58	212.05
994.87	211.79
995.16	211.67
995.45	211.45
995.74	210.76
996.03	210.90
996.32	211.26
996.61	211.52
996.90	211.48
997.19	211.05
997.48	211.29
997.77	211.17
998.06	211.45
998.34	211.19
998.63	211.52
998.92	211.57
999.21	211.81
999.50	211.71
999.79	211.29
1000.08	211.10
1000.37	210.98
1000.66	210.60
1000.95	211.17
1001.24	211.10
1001.53	211.45
1001.82	211.17
1002.11	210.90
1002.40	211.10
1002.68	211.57
1002.97	212.98
1003.26	212.95
1003.55	212.67
1003.84	212.83
1004.13	213.33
1004.42	213.26
1004.71	213.26
1004.99	213.10
1005.28	213.62
1005.57	213.60
1005.86	213.12
1006.15	212.98
1006.44	212.95
1006.72	213.17
1007.01	212.71
1007.30	212.88
1007.59	212.88
1007.88	213.21
1008.17	213.24
1008.45	212.74
1008.74	211.79
1009.03	210.57
1009.32	210.69
1009.60	210.62
1009.89	210.38
1010.18	209.74
1010.47	209.60
1010.76	209.33
1011.04	209.29
1011.33	209.50
1011.62	209.60
1011.91	209.86
1012.19	209.88
1012.48	209.64
1012.77	209.81
1013.05	210.74
1013.34	210.79
1013.63	210.43
1013.92	210.29
1014.20	210.17
1014.49	210.17
1014.78	210.48
1015.06	210.07
1015.35	210.02
1015.64	210.38
1015.92	210.79
1016.21	210.83
1016.50	210.81
1016.78	211.02
1017.07	211.38
1017.36	210.62
1017.64	210.38
1017.93	210.69
1018.22	210.60
1018.50	210.71
1018.79	210.36
1019.08	209.52
1019.36	209.43
1019.65	209.36
1019.93	209.88
1020.22	210.21
1020.51	211.40
1020.79	211.19
1021.08	207.50
1021.36	208.00
1021.65	205.00
1021.94	211.50
1022.22	208.50
1022.51	206.50
1022.79	218.00
1023.08	214.50
1023.36	236.00
1023.65	205.50
>>>>>End Processed Spectral Data<<<<<
