SpectraSuite Data File
++++++++++++++++++++++++++++++++++++
Date: Tue Apr 02 18:44:10 EDT 2013
User: group
Dark Spectrum Present: No
Reference Spectrum Present: No
Number of Sampled Component Spectra: 1
Spectrometers: USB2E7196
Integration Time (usec): 580000 (USB2E7196)
Spectra Averaged: 2 (USB2E7196)
Boxcar Smoothing: 10 (USB2E7196)
Correct for Electrical Dark: No (USB2E7196)
Strobe/Lamp Enabled: No (USB2E7196)
Correct for Detector Non-linearity: No (USB2E7196)
Correct for Stray Light: No (USB2E7196)
Number of Pixels in Processed Spectrum: 2048
>>>>>Begin Processed Spectral Data<<<<<
339.09	0.00
339.48	196.00
339.86	193.00
340.24	192.50
340.63	199.00
341.01	232.00
341.39	198.00
341.78	205.00
342.16	211.50
342.54	205.00
342.93	196.67
343.31	206.48
343.69	206.69
344.07	207.26
344.46	208.21
344.84	208.67
345.22	207.43
345.60	208.02
345.99	208.26
346.37	208.12
346.75	208.31
347.13	208.29
347.52	208.40
347.90	209.05
348.28	209.21
348.66	209.81
349.05	209.14
349.43	209.52
349.81	209.79
350.19	209.74
350.57	209.76
350.96	210.19
351.34	210.26
351.72	210.74
352.10	210.79
352.48	210.43
352.87	210.26
353.25	210.36
353.63	210.31
354.01	210.33
354.39	210.55
354.77	210.57
355.15	211.24
355.54	211.10
355.92	210.69
356.30	210.81
356.68	212.07
357.06	212.40
357.44	212.00
357.82	211.71
358.20	212.74
358.58	212.81
358.97	212.86
359.35	213.50
359.73	213.90
360.11	214.14
360.49	214.33
360.87	214.69
361.25	215.02
361.63	215.62
362.01	215.86
362.39	215.86
362.77	216.07
363.15	215.90
363.53	216.24
363.91	216.40
364.29	216.26
364.67	214.60
365.05	214.76
365.43	215.14
365.81	215.55
366.19	216.02
366.57	217.10
366.95	216.98
367.33	216.60
367.71	216.55
368.09	217.05
368.47	217.19
368.85	217.02
369.23	217.33
369.61	216.86
369.99	217.43
370.37	217.67
370.75	218.57
371.13	218.31
371.51	218.02
371.89	218.24
372.27	218.62
372.65	218.81
373.03	218.64
373.41	218.52
373.78	218.57
374.16	216.98
374.54	216.10
374.92	215.74
375.30	215.62
375.68	215.12
376.06	215.12
376.44	215.00
376.82	215.21
377.19	215.10
377.57	215.02
377.95	214.19
378.33	213.81
378.71	212.74
379.09	213.12
379.47	213.24
379.84	213.07
380.22	212.83
380.60	212.36
380.98	212.38
381.36	212.24
381.73	211.95
382.11	212.83
382.49	212.90
382.87	212.86
383.25	212.90
383.62	215.17
384.00	214.79
384.38	214.81
384.76	215.21
385.13	216.19
385.51	216.07
385.89	216.00
386.27	216.21
386.64	216.43
387.02	216.12
387.40	215.93
387.78	215.79
388.15	215.76
388.53	215.60
388.91	215.45
389.29	215.43
389.66	215.81
390.04	215.12
390.42	215.40
390.79	215.60
391.17	215.69
391.55	213.67
391.92	213.64
392.30	214.00
392.68	213.50
393.05	213.12
393.43	213.21
393.81	213.33
394.18	213.26
394.56	213.19
394.94	213.64
395.31	213.55
395.69	214.33
396.06	214.71
396.44	215.21
396.82	215.10
397.19	216.05
397.57	215.95
397.95	216.55
398.32	215.98
398.70	216.24
399.07	216.64
399.45	216.55
399.82	216.40
400.20	216.14
400.58	216.17
400.95	215.29
401.33	215.86
401.70	217.40
402.08	217.55
402.45	217.79
402.83	218.31
403.20	218.57
403.58	218.45
403.95	218.93
404.33	219.26
404.71	219.76
405.08	221.17
405.46	221.48
405.83	221.64
406.21	222.17
406.58	222.50
406.96	222.64
407.33	223.40
407.70	224.19
408.08	226.17
408.45	227.07
408.83	228.48
409.20	228.76
409.58	228.19
409.95	229.12
410.33	230.17
410.70	230.21
411.08	231.52
411.45	232.83
411.82	233.26
412.20	234.98
412.57	237.31
412.95	236.64
413.32	238.33
413.69	239.64
414.07	241.19
414.44	243.29
414.82	245.48
415.19	247.74
415.56	249.95
415.94	251.57
416.31	254.64
416.68	257.05
417.06	260.29
417.43	263.67
417.81	266.93
418.18	270.45
418.55	274.52
418.93	278.40
419.30	282.14
419.67	287.02
420.04	291.26
420.42	295.57
420.79	302.90
421.16	308.45
421.54	315.17
421.91	321.50
422.28	327.52
422.66	333.69
423.03	341.60
423.40	348.55
423.77	355.52
424.15	362.19
424.52	370.12
424.89	378.88
425.26	386.48
425.64	394.14
426.01	402.60
426.38	411.67
426.75	421.19
427.13	430.81
427.50	440.24
427.87	449.93
428.24	459.93
428.61	468.10
428.99	479.55
429.36	490.38
429.73	501.07
430.10	511.95
430.47	524.31
430.85	534.40
431.22	546.76
431.59	561.67
431.96	574.45
432.33	588.10
432.70	601.60
433.08	617.74
433.45	632.90
433.82	648.07
434.19	664.62
434.56	681.17
434.93	696.69
435.30	712.29
435.68	729.86
436.05	746.93
436.42	763.95
436.79	779.07
437.16	795.81
437.53	814.17
437.90	832.33
438.27	849.50
438.64	868.00
439.01	885.48
439.38	898.50
439.75	913.45
440.13	930.43
440.50	946.10
440.87	958.88
441.24	972.69
441.61	987.31
441.98	998.17
442.35	1010.48
442.72	1023.26
443.09	1036.95
443.46	1044.52
443.83	1049.90
444.20	1054.95
444.57	1061.57
444.94	1064.98
445.31	1068.40
445.68	1074.88
446.05	1076.31
446.42	1074.43
446.79	1073.45
447.16	1071.57
447.53	1070.79
447.90	1064.40
448.27	1058.00
448.64	1049.38
449.01	1042.60
449.37	1031.79
449.74	1020.67
450.11	1009.24
450.48	994.98
450.85	979.00
451.22	966.19
451.59	953.64
451.96	941.64
452.33	925.36
452.70	911.62
453.07	894.55
453.43	874.19
453.80	858.19
454.17	843.05
454.54	826.81
454.91	811.38
455.28	794.86
455.65	780.24
456.02	768.74
456.38	756.19
456.75	741.38
457.12	727.74
457.49	715.14
457.86	700.86
458.23	690.71
458.59	679.14
458.96	667.57
459.33	657.31
459.70	647.05
460.07	639.40
460.43	629.17
460.80	620.48
461.17	613.33
461.54	604.69
461.91	596.74
462.27	588.83
462.64	581.79
463.01	574.67
463.38	567.98
463.74	557.33
464.11	550.79
464.48	544.69
464.85	538.48
465.21	534.19
465.58	528.93
465.95	522.00
466.32	517.05
466.68	511.69
467.05	506.64
467.42	501.88
467.78	496.36
468.15	491.33
468.52	487.81
468.88	482.31
469.25	477.74
469.62	474.62
469.98	470.76
470.35	467.19
470.72	463.81
471.08	458.88
471.45	456.24
471.82	453.64
472.18	450.17
472.55	447.62
472.92	443.71
473.28	440.74
473.65	438.05
474.02	435.33
474.38	433.43
474.75	431.40
475.11	428.67
475.48	427.19
475.85	425.76
476.21	423.45
476.58	421.83
476.94	420.69
477.31	418.86
477.67	417.50
478.04	416.10
478.41	414.86
478.77	416.62
479.14	415.26
479.50	414.31
479.87	414.31
480.23	413.71
480.60	413.31
480.96	413.40
481.33	414.10
481.69	413.95
482.06	414.00
482.42	414.60
482.79	415.07
483.15	415.21
483.52	416.38
483.88	417.31
484.25	417.95
484.61	418.81
484.98	419.79
485.34	421.86
485.71	423.33
486.07	424.90
486.44	424.21
486.80	425.88
487.17	427.50
487.53	429.24
487.90	431.48
488.26	434.76
488.62	437.62
488.99	439.24
489.35	442.02
489.72	444.57
490.08	447.10
490.44	450.02
490.81	453.45
491.17	456.19
491.54	459.60
491.90	463.21
492.26	466.69
492.63	470.31
492.99	473.52
493.36	477.90
493.72	482.33
494.08	487.14
494.45	491.83
494.81	496.52
495.17	501.64
495.54	506.98
495.90	511.07
496.26	515.90
496.63	521.50
496.99	526.79
497.35	532.50
497.72	538.17
498.08	543.62
498.44	549.33
498.80	556.07
499.17	562.62
499.53	568.83
499.89	575.71
500.26	582.33
500.62	589.02
500.98	595.86
501.34	603.05
501.71	610.31
502.07	617.55
502.43	624.79
502.79	631.88
503.16	638.67
503.52	646.00
503.88	653.12
504.24	660.50
504.60	668.02
504.97	675.62
505.33	683.43
505.69	692.29
506.05	700.02
506.41	707.95
506.78	714.88
507.14	723.31
507.50	731.33
507.86	739.33
508.22	747.60
508.59	754.86
508.95	762.38
509.31	771.07
509.67	778.48
510.03	786.19
510.39	793.69
510.75	801.81
511.12	809.55
511.48	817.31
511.84	825.07
512.20	833.38
512.56	841.12
512.92	848.57
513.28	855.83
513.64	863.17
514.00	869.88
514.37	877.38
514.73	884.10
515.09	891.26
515.45	898.67
515.81	905.14
516.17	912.26
516.53	918.60
516.89	923.07
517.25	930.14
517.61	937.02
517.97	943.40
518.33	949.79
518.69	956.67
519.05	963.07
519.41	969.26
519.77	975.67
520.13	981.36
520.49	986.90
520.85	992.76
521.21	999.33
521.57	1005.38
521.93	1010.02
522.29	1016.05
522.65	1020.57
523.01	1026.19
523.37	1030.93
523.73	1036.07
524.09	1041.71
524.45	1046.60
524.81	1050.86
525.17	1055.57
525.53	1060.38
525.89	1064.95
526.25	1070.19
526.61	1074.02
526.97	1078.33
527.33	1082.12
527.68	1088.40
528.04	1093.31
528.40	1097.55
528.76	1101.62
529.12	1105.93
529.48	1111.79
529.84	1115.67
530.20	1120.60
530.56	1124.69
530.91	1129.36
531.27	1134.31
531.63	1138.40
531.99	1143.67
532.35	1147.83
532.71	1151.26
533.07	1155.36
533.42	1161.86
533.78	1165.45
534.14	1170.00
534.50	1173.57
534.86	1178.24
535.21	1180.02
535.57	1183.83
535.93	1186.45
536.29	1191.00
536.65	1194.67
537.00	1197.67
537.36	1200.71
537.72	1203.76
538.08	1206.57
538.44	1209.05
538.79	1212.02
539.15	1214.90
539.51	1218.00
539.87	1221.69
540.22	1225.95
540.58	1229.07
540.94	1229.76
541.29	1232.64
541.65	1234.60
542.01	1238.98
542.37	1241.31
542.72	1243.38
543.08	1245.71
543.44	1250.21
543.79	1251.21
544.15	1254.79
544.51	1258.57
544.87	1262.21
545.22	1265.00
545.58	1268.19
545.94	1270.88
546.29	1273.79
546.65	1276.26
547.01	1278.69
547.36	1280.67
547.72	1282.40
548.07	1285.02
548.43	1287.12
548.79	1289.29
549.14	1292.71
549.50	1295.19
549.86	1297.81
550.21	1301.93
550.57	1305.36
550.92	1307.07
551.28	1310.60
551.64	1312.93
551.99	1315.12
552.35	1317.62
552.70	1321.26
553.06	1323.67
553.41	1327.64
553.77	1331.38
554.13	1334.38
554.48	1338.74
554.84	1343.17
555.19	1347.48
555.55	1352.38
555.90	1356.31
556.26	1360.48
556.61	1363.62
556.97	1366.12
557.32	1370.29
557.68	1373.86
558.03	1377.67
558.39	1381.57
558.74	1385.24
559.10	1388.79
559.45	1393.14
559.81	1397.50
560.16	1400.43
560.52	1405.10
560.87	1409.83
561.23	1413.02
561.58	1418.88
561.94	1422.36
562.29	1426.48
562.64	1431.45
563.00	1435.21
563.35	1440.19
563.71	1444.71
564.06	1450.52
564.42	1456.40
564.77	1461.33
565.12	1467.14
565.48	1474.83
565.83	1481.31
566.19	1486.48
566.54	1492.10
566.89	1496.93
567.25	1502.88
567.60	1510.43
567.96	1518.24
568.31	1524.74
568.66	1531.33
569.02	1536.50
569.37	1542.79
569.72	1548.86
570.08	1553.74
570.43	1559.00
570.78	1565.21
571.14	1571.19
571.49	1576.38
571.84	1581.43
572.20	1587.05
572.55	1592.10
572.90	1594.88
573.26	1598.98
573.61	1603.81
573.96	1608.48
574.31	1613.57
574.67	1617.90
575.02	1621.43
575.37	1623.02
575.72	1626.40
576.08	1630.45
576.43	1633.67
576.78	1636.55
577.13	1639.90
577.49	1643.29
577.84	1647.67
578.19	1650.02
578.54	1653.40
578.90	1657.52
579.25	1661.14
579.60	1663.40
579.95	1666.45
580.30	1669.48
580.66	1673.00
581.01	1677.38
581.36	1681.17
581.71	1684.19
582.06	1688.62
582.42	1692.17
582.77	1695.71
583.12	1698.95
583.47	1701.86
583.82	1705.26
584.17	1708.21
584.53	1711.90
584.88	1714.76
585.23	1718.31
585.58	1722.19
585.93	1724.95
586.28	1728.14
586.63	1730.69
586.98	1734.17
587.34	1738.36
587.69	1741.05
588.04	1743.98
588.39	1745.74
588.74	1746.60
589.09	1749.05
589.44	1748.48
589.79	1750.19
590.14	1751.69
590.49	1752.90
590.84	1753.86
591.19	1755.62
591.54	1757.19
591.89	1757.71
592.25	1761.40
592.60	1761.40
592.95	1763.02
593.30	1764.48
593.65	1764.67
594.00	1765.14
594.35	1771.31
594.70	1770.21
595.05	1771.14
595.40	1770.81
595.75	1771.43
596.10	1773.31
596.45	1773.86
596.80	1776.17
597.15	1777.05
597.50	1778.05
597.85	1780.40
598.19	1781.14
598.54	1781.48
598.89	1782.33
599.24	1783.26
599.59	1781.12
599.94	1781.64
600.29	1781.62
600.64	1781.86
600.99	1781.62
601.34	1783.19
601.69	1778.14
602.04	1777.48
602.39	1776.98
602.74	1777.64
603.08	1778.02
603.43	1778.19
603.78	1778.50
604.13	1777.93
604.48	1775.88
604.83	1775.81
605.18	1773.81
605.53	1773.71
605.87	1772.83
606.22	1771.62
606.57	1769.81
606.92	1769.93
607.27	1769.00
607.62	1768.00
607.96	1766.62
608.31	1767.00
608.66	1764.57
609.01	1762.55
609.36	1762.81
609.70	1761.02
610.05	1758.55
610.40	1756.62
610.75	1754.50
611.10	1753.07
611.44	1750.50
611.79	1748.74
612.14	1746.71
612.49	1743.76
612.83	1740.95
613.18	1738.40
613.53	1735.79
613.88	1733.07
614.22	1729.36
614.57	1725.57
614.92	1721.05
615.27	1718.02
615.61	1712.83
615.96	1709.86
616.31	1706.14
616.65	1703.24
617.00	1701.07
617.35	1698.43
617.70	1694.62
618.04	1690.50
618.39	1685.79
618.74	1682.17
619.08	1678.95
619.43	1674.81
619.78	1672.12
620.12	1668.76
620.47	1664.36
620.82	1660.60
621.16	1656.55
621.51	1653.74
621.85	1649.38
622.20	1646.31
622.55	1641.24
622.89	1637.76
623.24	1634.90
623.59	1631.88
623.93	1627.48
624.28	1622.33
624.62	1620.60
624.97	1617.33
625.32	1612.52
625.66	1608.67
626.01	1604.43
626.35	1601.52
626.70	1597.00
627.04	1593.07
627.39	1589.14
627.73	1587.86
628.08	1584.95
628.43	1581.74
628.77	1577.40
629.12	1574.93
629.46	1571.02
629.81	1568.17
630.15	1564.52
630.50	1559.29
630.84	1554.90
631.19	1549.48
631.53	1545.55
631.88	1536.88
632.22	1529.86
632.57	1527.19
632.91	1522.00
633.26	1518.29
633.60	1512.60
633.95	1507.98
634.29	1502.14
634.64	1498.02
634.98	1491.40
635.32	1487.29
635.67	1483.05
636.01	1479.02
636.36	1473.33
636.70	1469.21
637.05	1464.07
637.39	1459.88
637.73	1455.57
638.08	1451.48
638.42	1447.43
638.77	1443.12
639.11	1439.05
639.45	1435.52
639.80	1429.57
640.14	1425.26
640.49	1419.76
640.83	1413.95
641.17	1409.50
641.52	1405.12
641.86	1398.57
642.20	1394.57
642.55	1388.60
642.89	1383.07
643.23	1377.26
643.58	1373.12
643.92	1366.74
644.26	1361.12
644.61	1355.45
644.95	1350.33
645.29	1343.64
645.64	1338.40
645.98	1332.76
646.32	1328.14
646.66	1321.81
647.01	1315.64
647.35	1309.83
647.69	1304.81
648.04	1300.60
648.38	1294.86
648.72	1289.00
649.06	1283.36
649.41	1276.55
649.75	1269.26
650.09	1262.64
650.43	1255.71
650.78	1248.50
651.12	1242.14
651.46	1235.67
651.80	1228.71
652.14	1222.00
652.49	1215.98
652.83	1208.81
653.17	1201.60
653.51	1195.17
653.85	1189.88
654.20	1183.57
654.54	1176.33
654.88	1168.90
655.22	1162.26
655.56	1156.07
655.90	1148.55
656.25	1141.86
656.59	1135.81
656.93	1130.33
657.27	1124.95
657.61	1118.36
657.95	1112.26
658.29	1105.57
658.64	1099.95
658.98	1093.40
659.32	1085.71
659.66	1079.24
660.00	1073.24
660.34	1066.98
660.68	1060.69
661.02	1054.26
661.36	1048.19
661.70	1042.67
662.05	1036.55
662.39	1030.40
662.73	1023.67
663.07	1019.67
663.41	1013.76
663.75	1006.62
664.09	1000.98
664.43	993.98
664.77	988.60
665.11	982.17
665.45	976.76
665.79	970.79
666.13	965.12
666.47	959.67
666.81	953.98
667.15	948.05
667.49	943.10
667.83	937.83
668.17	931.76
668.51	926.31
668.85	920.31
669.19	915.29
669.53	908.90
669.87	903.07
670.21	896.17
670.55	890.26
670.89	886.17
671.23	880.55
671.57	875.45
671.91	870.05
672.25	864.79
672.58	859.95
672.92	853.40
673.26	847.98
673.60	842.71
673.94	836.71
674.28	831.67
674.62	826.24
674.96	820.38
675.30	815.24
675.64	810.05
675.97	805.05
676.31	799.43
676.65	794.29
676.99	790.71
677.33	785.55
677.67	781.10
678.01	775.05
678.34	770.07
678.68	765.31
679.02	759.69
679.36	755.02
679.70	749.21
680.04	744.71
680.37	739.86
680.71	735.07
681.05	731.05
681.39	726.17
681.73	721.14
682.06	716.74
682.40	712.14
682.74	707.76
683.08	703.67
683.42	698.67
683.75	694.26
684.09	688.48
684.43	684.07
684.77	678.64
685.10	674.74
685.44	669.90
685.78	665.07
686.12	660.86
686.45	655.60
686.79	651.43
687.13	647.45
687.46	643.05
687.80	639.33
688.14	634.52
688.48	630.69
688.81	626.71
689.15	622.79
689.49	618.19
689.82	614.19
690.16	609.14
690.50	605.17
690.83	601.24
691.17	596.62
691.51	592.38
691.84	589.02
692.18	584.38
692.52	580.43
692.85	577.07
693.19	573.64
693.52	569.79
693.86	565.64
694.20	561.76
694.53	557.90
694.87	553.62
695.21	549.83
695.54	545.31
695.88	540.76
696.21	535.69
696.55	532.19
696.88	528.00
697.22	524.36
697.56	521.07
697.89	517.05
698.23	514.02
698.56	510.36
698.90	507.17
699.23	503.90
699.57	500.48
699.90	496.43
700.24	492.57
700.58	489.19
700.91	486.55
701.25	484.50
701.58	482.12
701.92	479.48
702.25	476.52
702.59	473.10
702.92	470.05
703.26	467.64
703.59	465.05
703.93	463.79
704.26	461.29
704.60	458.48
704.93	455.55
705.26	452.52
705.60	449.93
705.93	446.52
706.27	444.05
706.60	441.50
706.94	439.81
707.27	437.14
707.61	435.05
707.94	432.12
708.27	428.21
708.61	424.67
708.94	421.71
709.28	419.10
709.61	416.55
709.94	414.26
710.28	411.67
710.61	409.24
710.95	404.74
711.28	403.76
711.61	401.31
711.95	399.57
712.28	397.05
712.61	394.64
712.95	393.45
713.28	391.90
713.61	389.40
713.95	386.33
714.28	384.24
714.61	381.95
714.95	379.33
715.28	376.71
715.61	374.81
715.95	372.88
716.28	370.71
716.61	369.33
716.95	367.19
717.28	365.31
717.61	362.81
717.94	360.88
718.28	357.29
718.61	355.10
718.94	352.81
719.27	351.19
719.61	349.64
719.94	347.17
720.27	344.43
720.60	342.52
720.94	340.98
721.27	339.57
721.60	338.24
721.93	336.90
722.27	336.62
722.60	335.14
722.93	333.36
723.26	332.29
723.59	330.36
723.93	329.31
724.26	328.02
724.59	327.07
724.92	326.21
725.25	325.81
725.59	324.79
725.92	323.88
726.25	322.48
726.58	321.00
726.91	319.83
727.24	318.69
727.57	317.81
727.91	316.24
728.24	315.26
728.57	313.67
728.90	312.67
729.23	310.83
729.56	310.29
729.89	309.24
730.22	307.76
730.55	306.95
730.89	305.81
731.22	304.93
731.55	303.57
731.88	302.55
732.21	301.21
732.54	299.93
732.87	298.83
733.20	297.98
733.53	297.40
733.86	296.79
734.19	295.81
734.52	295.05
734.85	295.64
735.18	294.07
735.51	293.98
735.84	293.36
736.17	292.74
736.50	291.26
736.83	292.71
737.16	292.33
737.49	291.67
737.82	290.86
738.15	290.12
738.48	289.33
738.81	288.33
739.14	287.05
739.47	286.10
739.80	285.19
740.13	284.33
740.46	283.21
740.79	281.95
741.12	280.88
741.45	279.52
741.78	277.60
742.11	277.60
742.44	276.36
742.77	276.00
743.10	275.19
743.43	274.40
743.75	271.43
744.08	273.00
744.41	272.05
744.74	271.07
745.07	270.07
745.40	269.86
745.73	269.98
746.06	269.36
746.39	268.90
746.71	268.07
747.04	267.14
747.37	266.38
747.70	265.95
748.03	265.55
748.36	265.62
748.68	264.79
749.01	263.71
749.34	263.05
749.67	262.12
750.00	261.86
750.33	262.81
750.65	262.69
750.98	259.64
751.31	258.98
751.64	258.57
751.97	259.12
752.29	258.19
752.62	256.69
752.95	256.36
753.28	255.62
753.60	254.90
753.93	255.10
754.26	254.50
754.59	253.62
754.91	252.95
755.24	251.90
755.57	251.60
755.90	251.02
756.22	250.55
756.55	249.98
756.88	248.88
757.20	247.02
757.53	245.98
757.86	245.31
758.19	245.07
758.51	244.69
758.84	243.21
759.17	242.69
759.49	242.33
759.82	242.86
760.15	242.62
760.47	242.19
760.80	240.98
761.13	241.19
761.45	240.69
761.78	240.12
762.11	239.95
762.43	239.45
762.76	239.17
763.08	238.98
763.41	238.67
763.74	238.52
764.06	237.93
764.39	237.79
764.71	237.74
765.04	237.17
765.37	236.69
765.69	236.21
766.02	236.36
766.34	236.10
766.67	235.00
767.00	235.12
767.32	236.00
767.65	237.17
767.97	236.69
768.30	236.43
768.62	236.48
768.95	235.93
769.27	235.71
769.60	235.62
769.92	235.14
770.25	234.55
770.57	233.93
770.90	233.83
771.22	233.26
771.55	232.95
771.87	232.83
772.20	232.50
772.52	234.12
772.85	236.05
773.17	236.10
773.50	235.88
773.82	235.29
774.15	234.21
774.47	232.88
774.80	232.26
775.12	232.12
775.45	231.74
775.77	231.71
776.09	231.62
776.42	231.50
776.74	231.88
777.07	231.76
777.39	231.79
777.72	231.57
778.04	231.71
778.36	231.31
778.69	231.38
779.01	231.33
779.33	229.33
779.66	226.86
779.98	226.31
780.31	226.19
780.63	226.88
780.95	227.10
781.28	227.14
781.60	227.24
781.92	226.98
782.25	226.71
782.57	226.55
782.89	226.10
783.22	225.69
783.54	225.02
783.86	225.05
784.19	224.71
784.51	225.21
784.83	224.76
785.16	224.55
785.48	224.31
785.80	224.10
786.12	224.31
786.45	224.05
786.77	224.14
787.09	223.74
787.42	222.81
787.74	222.55
788.06	222.40
788.38	221.98
788.71	221.81
789.03	221.88
789.35	222.00
789.67	221.76
789.99	221.83
790.32	221.52
790.64	221.62
790.96	223.36
791.28	222.60
791.61	222.64
791.93	222.52
792.25	222.29
792.57	223.67
792.89	223.21
793.21	223.21
793.54	222.88
793.86	222.60
794.18	222.79
794.50	222.43
794.82	222.26
795.14	222.62
795.47	223.17
795.79	223.29
796.11	222.67
796.43	222.50
796.75	222.19
797.07	222.31
797.39	221.88
797.71	220.29
798.04	220.26
798.36	220.31
798.68	220.64
799.00	220.88
799.32	219.88
799.64	220.07
799.96	220.29
800.28	220.71
800.60	220.60
800.92	220.60
801.24	220.60
801.56	220.52
801.89	220.33
802.21	220.14
802.53	219.57
802.85	220.24
803.17	221.17
803.49	220.81
803.81	220.81
804.13	220.88
804.45	220.62
804.77	220.64
805.09	220.40
805.41	220.05
805.73	219.67
806.05	219.24
806.37	219.05
806.69	218.74
807.01	218.33
807.33	218.57
807.65	217.67
807.97	218.48
808.28	218.48
808.60	218.12
808.92	217.88
809.24	219.12
809.56	218.64
809.88	217.83
810.20	218.10
810.52	218.36
810.84	218.07
811.16	217.95
811.48	217.83
811.80	218.36
812.12	218.29
812.43	218.50
812.75	218.57
813.07	218.33
813.39	218.40
813.71	218.10
814.03	217.69
814.35	217.88
814.67	217.02
814.98	216.67
815.30	216.64
815.62	216.17
815.94	215.02
816.26	215.05
816.58	214.86
816.89	215.00
817.21	214.45
817.53	214.57
817.85	214.57
818.17	214.57
818.48	214.02
818.80	214.36
819.12	213.95
819.44	213.50
819.76	213.24
820.07	213.19
820.39	213.29
820.71	213.52
821.03	213.40
821.34	213.17
821.66	213.57
821.98	213.81
822.30	213.88
822.61	215.19
822.93	214.93
823.25	215.10
823.57	214.69
823.88	215.02
824.20	214.95
824.52	215.19
824.83	215.19
825.15	214.83
825.47	214.88
825.79	215.07
826.10	214.95
826.42	214.93
826.74	214.98
827.05	214.90
827.37	215.02
827.69	215.07
828.00	215.33
828.32	215.17
828.64	214.93
828.95	216.26
829.27	215.55
829.58	215.55
829.90	215.69
830.22	216.02
830.53	215.57
830.85	215.45
831.17	215.02
831.48	214.88
831.80	215.02
832.11	214.60
832.43	214.33
832.75	214.57
833.06	216.10
833.38	215.43
833.69	215.26
834.01	215.48
834.32	215.48
834.64	215.26
834.96	215.38
835.27	215.43
835.59	214.57
835.90	214.17
836.22	214.07
836.53	213.79
836.85	213.74
837.16	215.83
837.48	215.62
837.79	216.31
838.11	216.50
838.42	216.60
838.74	216.93
839.05	216.67
839.37	216.38
839.68	214.86
840.00	214.98
840.31	215.43
840.63	215.00
840.94	214.98
841.26	214.52
841.57	214.45
841.88	214.83
842.20	214.52
842.51	214.36
842.83	214.60
843.14	216.36
843.46	216.10
843.77	215.02
844.08	215.00
844.40	214.48
844.71	214.19
845.03	213.95
845.34	213.86
845.65	213.86
845.97	213.90
846.28	214.12
846.60	214.33
846.91	213.86
847.22	213.83
847.54	214.29
847.85	214.76
848.16	214.52
848.48	213.83
848.79	214.55
849.10	214.76
849.42	214.71
849.73	212.74
850.04	212.55
850.36	211.76
850.67	212.24
850.98	212.05
851.30	212.24
851.61	212.31
851.92	212.21
852.23	212.90
852.55	213.02
852.86	213.05
853.17	213.29
853.49	213.76
853.80	214.17
854.11	214.07
854.42	214.21
854.74	213.90
855.05	214.12
855.36	213.10
855.67	213.21
855.99	213.17
856.30	215.83
856.61	215.95
856.92	216.05
857.23	215.93
857.55	215.88
857.86	215.93
858.17	216.36
858.48	216.10
858.79	215.62
859.11	215.74
859.42	215.43
859.73	215.00
860.04	214.95
860.35	214.40
860.66	213.83
860.98	213.67
861.29	214.12
861.60	213.95
861.91	214.50
862.22	213.95
862.53	213.64
862.84	211.02
863.16	211.57
863.47	211.00
863.78	210.98
864.09	211.02
864.40	211.02
864.71	210.98
865.02	211.29
865.33	210.95
865.64	210.86
865.95	211.02
866.27	212.31
866.58	211.86
866.89	212.10
867.20	212.26
867.51	212.19
867.82	212.05
868.13	212.83
868.44	212.31
868.75	212.81
869.06	213.05
869.37	213.43
869.68	212.90
869.99	213.55
870.30	213.55
870.61	213.83
870.92	213.52
871.23	213.05
871.54	213.31
871.85	214.10
872.16	214.29
872.47	214.31
872.78	213.10
873.09	213.76
873.40	213.69
873.71	213.95
874.02	213.98
874.33	213.67
874.64	212.88
874.95	213.33
875.26	212.86
875.56	212.67
875.87	212.67
876.18	212.62
876.49	214.57
876.80	214.55
877.11	214.12
877.42	214.38
877.73	214.57
878.04	214.29
878.35	214.19
878.66	214.17
878.96	213.93
879.27	214.05
879.58	213.74
879.89	213.52
880.20	213.90
880.51	213.88
880.82	214.05
881.12	214.50
881.43	214.02
881.74	214.24
882.05	214.50
882.36	214.31
882.67	214.43
882.97	212.36
883.28	212.10
883.59	212.07
883.90	211.95
884.21	212.36
884.51	212.12
884.82	211.86
885.13	211.88
885.44	211.83
885.74	211.74
886.05	211.55
886.36	211.69
886.67	211.00
886.98	211.93
887.28	212.21
887.59	211.95
887.90	212.05
888.20	211.81
888.51	211.98
888.82	211.79
889.13	211.90
889.43	213.40
889.74	213.29
890.05	213.55
890.35	213.36
890.66	212.90
890.97	212.88
891.28	212.71
891.58	212.76
891.89	212.86
892.20	212.79
892.50	212.79
892.81	212.69
893.12	212.60
893.42	211.64
893.73	211.71
894.04	211.86
894.34	212.29
894.65	212.19
894.95	211.81
895.26	211.88
895.57	212.81
895.87	210.81
896.18	211.40
896.48	211.31
896.79	211.55
897.10	211.83
897.40	211.83
897.71	212.24
898.01	212.05
898.32	212.55
898.63	212.45
898.93	212.64
899.24	212.74
899.54	212.86
899.85	212.88
900.15	212.69
900.46	212.76
900.76	212.83
901.07	212.74
901.38	213.02
901.68	213.36
901.99	212.02
902.29	212.33
902.60	211.88
902.90	211.74
903.21	211.55
903.51	211.62
903.82	212.12
904.12	211.98
904.43	212.00
904.73	211.74
905.03	211.98
905.34	213.83
905.64	213.69
905.95	213.62
906.25	213.57
906.56	213.52
906.86	213.40
907.17	213.19
907.47	213.38
907.77	212.95
908.08	212.57
908.38	213.00
908.69	213.26
908.99	213.74
909.30	213.86
909.60	214.07
909.90	214.14
910.21	213.40
910.51	213.19
910.81	213.36
911.12	213.55
911.42	213.62
911.73	211.48
912.03	211.50
912.33	211.86
912.64	211.81
912.94	211.71
913.24	211.33
913.55	211.12
913.85	211.02
914.15	211.76
914.46	212.05
914.76	211.90
915.06	211.43
915.37	211.05
915.67	211.10
915.97	210.98
916.27	210.43
916.58	210.74
916.88	210.74
917.18	210.52
917.49	211.79
917.79	211.64
918.09	211.95
918.39	212.50
918.70	212.33
919.00	212.31
919.30	213.07
919.60	213.17
919.91	212.90
920.21	213.07
920.51	212.57
920.81	212.29
921.12	212.55
921.42	212.76
921.72	212.98
922.02	213.10
922.32	213.48
922.63	213.64
922.93	214.69
923.23	214.76
923.53	214.52
923.83	212.98
924.13	213.17
924.44	213.14
924.74	213.64
925.04	214.33
925.34	214.40
925.64	213.67
925.94	213.40
926.24	214.81
926.55	214.55
926.85	214.79
927.15	214.81
927.45	214.62
927.75	214.48
928.05	214.45
928.35	214.19
928.65	214.17
928.95	214.31
929.26	213.31
929.56	213.76
929.86	214.07
930.16	214.31
930.46	214.19
930.76	214.05
931.06	212.83
931.36	212.02
931.66	212.29
931.96	212.57
932.26	212.93
932.56	211.93
932.86	212.10
933.16	211.95
933.46	211.90
933.76	211.88
934.06	212.43
934.36	213.33
934.66	213.19
934.96	213.00
935.26	213.12
935.56	213.48
935.86	212.81
936.16	212.60
936.46	212.33
936.76	211.90
937.06	211.76
937.36	212.17
937.66	212.33
937.96	211.98
938.26	211.38
938.56	211.19
938.86	211.31
939.16	211.69
939.46	211.93
939.76	211.90
940.06	211.81
940.35	211.38
940.65	210.07
940.95	210.21
941.25	209.71
941.55	209.38
941.85	209.24
942.15	209.64
942.45	210.45
942.75	210.31
943.04	210.57
943.34	211.21
943.64	210.95
943.94	210.55
944.24	210.86
944.54	211.14
944.84	211.12
945.13	210.93
945.43	210.93
945.73	210.83
946.03	211.02
946.33	210.69
946.62	210.60
946.92	210.74
947.22	211.02
947.52	211.40
947.82	211.60
948.11	211.33
948.41	211.02
948.71	210.07
949.01	210.50
949.31	210.17
949.60	210.00
949.90	210.33
950.20	210.48
950.50	210.26
950.79	210.12
951.09	210.33
951.39	210.12
951.69	209.64
951.98	209.79
952.28	209.83
952.58	210.05
952.87	210.10
953.17	210.33
953.47	209.90
953.76	209.79
954.06	209.55
954.36	209.26
954.66	209.17
954.95	210.07
955.25	209.93
955.55	210.36
955.84	209.83
956.14	209.90
956.44	210.10
956.73	209.88
957.03	210.05
957.32	210.14
957.62	210.26
957.92	210.64
958.21	210.86
958.51	213.26
958.81	213.52
959.10	213.62
959.40	213.81
959.69	214.14
959.99	214.71
960.29	214.76
960.58	214.98
960.88	215.83
961.17	215.12
961.47	215.52
961.76	215.40
962.06	215.79
962.36	215.67
962.65	215.79
962.95	215.90
963.24	215.83
963.54	215.88
963.83	215.95
964.13	215.76
964.42	214.98
964.72	212.88
965.01	212.83
965.31	212.57
965.60	212.07
965.90	213.36
966.19	212.69
966.49	212.83
966.78	212.45
967.08	212.17
967.37	212.45
967.67	211.71
967.96	212.24
968.26	212.24
968.55	212.45
968.85	212.10
969.14	212.19
969.43	212.38
969.73	212.21
970.02	212.36
970.32	212.40
970.61	212.62
970.91	212.12
971.20	211.90
971.49	211.95
971.79	212.50
972.08	211.10
972.38	211.31
972.67	211.10
972.96	211.52
973.26	211.26
973.55	211.93
973.85	212.10
974.14	211.90
974.43	212.05
974.73	211.69
975.02	211.60
975.31	211.52
975.61	211.19
975.90	211.21
976.19	210.93
976.49	211.10
976.78	211.33
977.07	211.50
977.37	211.50
977.66	211.83
977.95	211.40
978.24	211.26
978.54	211.69
978.83	211.57
979.12	211.43
979.42	211.33
979.71	210.74
980.00	210.57
980.29	210.38
980.59	209.71
980.88	210.14
981.17	210.33
981.46	210.43
981.76	210.52
982.05	210.98
982.34	211.07
982.63	211.14
982.93	211.10
983.22	211.62
983.51	211.60
983.80	211.90
984.09	212.31
984.39	212.38
984.68	212.02
984.97	212.12
985.26	212.14
985.55	212.31
985.85	211.93
986.14	212.21
986.43	212.43
986.72	212.69
987.01	212.12
987.30	211.86
987.59	211.62
987.89	211.86
988.18	211.19
988.47	210.88
988.76	210.67
989.05	210.36
989.34	209.86
989.63	210.71
989.92	210.26
990.22	209.71
990.51	209.60
990.80	209.52
991.09	209.83
991.38	209.93
991.67	209.76
991.96	209.60
992.25	209.69
992.54	209.38
992.83	209.19
993.12	209.14
993.41	209.62
993.70	210.43
993.99	210.55
994.28	211.02
994.58	211.62
994.87	211.31
995.16	211.38
995.45	211.40
995.74	210.52
996.03	211.02
996.32	211.31
996.61	211.83
996.90	211.76
997.19	211.69
997.48	211.83
997.77	211.57
998.06	212.00
998.34	211.98
998.63	211.98
998.92	212.17
999.21	212.52
999.50	212.67
999.79	211.93
1000.08	211.93
1000.37	211.74
1000.66	211.38
1000.95	212.14
1001.24	211.98
1001.53	212.00
1001.82	212.17
1002.11	211.52
1002.40	211.71
1002.68	211.93
1002.97	213.52
1003.26	213.26
1003.55	212.95
1003.84	213.48
1004.13	213.95
1004.42	213.79
1004.71	213.88
1004.99	213.74
1005.28	214.10
1005.57	213.71
1005.86	213.60
1006.15	213.29
1006.44	213.12
1006.72	213.17
1007.01	212.81
1007.30	213.02
1007.59	212.95
1007.88	212.86
1008.17	212.86
1008.45	212.57
1008.74	212.14
1009.03	211.00
1009.32	211.12
1009.60	211.21
1009.89	210.71
1010.18	209.86
1010.47	209.79
1010.76	209.76
1011.04	209.76
1011.33	210.00
1011.62	210.36
1011.91	210.48
1012.19	210.57
1012.48	210.62
1012.77	210.86
1013.05	211.52
1013.34	211.57
1013.63	211.62
1013.92	211.71
1014.20	211.48
1014.49	211.62
1014.78	211.74
1015.06	211.21
1015.35	210.98
1015.64	211.00
1015.92	211.43
1016.21	211.55
1016.50	211.52
1016.78	211.69
1017.07	211.81
1017.36	211.29
1017.64	210.69
1017.93	211.12
1018.22	211.02
1018.50	210.71
1018.79	210.24
1019.08	209.38
1019.36	209.14
1019.65	208.76
1019.93	209.26
1020.22	209.67
1020.51	210.64
1020.79	210.21
1021.08	208.50
1021.36	202.00
1021.65	205.00
1021.94	210.00
1022.22	206.00
1022.51	204.50
1022.79	221.50
1023.08	211.00
1023.36	233.50
1023.65	204.50
>>>>>End Processed Spectral Data<<<<<
