SpectraSuite Data File
++++++++++++++++++++++++++++++++++++
Date: Tue Apr 02 18:42:11 EDT 2013
User: group
Dark Spectrum Present: No
Reference Spectrum Present: No
Number of Sampled Component Spectra: 1
Spectrometers: USB2E7196
Integration Time (usec): 580000 (USB2E7196)
Spectra Averaged: 2 (USB2E7196)
Boxcar Smoothing: 10 (USB2E7196)
Correct for Electrical Dark: No (USB2E7196)
Strobe/Lamp Enabled: No (USB2E7196)
Correct for Detector Non-linearity: No (USB2E7196)
Correct for Stray Light: No (USB2E7196)
Number of Pixels in Processed Spectrum: 2048
>>>>>Begin Processed Spectral Data<<<<<
339.09	0.00
339.48	193.00
339.86	197.00
340.24	200.00
340.63	205.00
341.01	234.50
341.39	206.50
341.78	209.50
342.16	212.50
342.54	203.50
342.93	200.43
343.31	210.29
343.69	210.98
344.07	211.55
344.46	212.26
344.84	212.48
345.22	211.36
345.60	211.55
345.99	211.67
346.37	211.79
346.75	212.17
347.13	212.45
347.52	212.60
347.90	213.10
348.28	212.83
348.66	213.43
349.05	212.69
349.43	213.05
349.81	213.24
350.19	213.38
350.57	213.38
350.96	213.50
351.34	213.86
351.72	214.05
352.10	214.05
352.48	213.62
352.87	213.69
353.25	213.74
353.63	213.88
354.01	214.05
354.39	213.76
354.77	213.71
355.15	214.21
355.54	213.88
355.92	213.38
356.30	213.43
356.68	214.50
357.06	214.50
357.44	214.21
357.82	214.24
358.20	215.02
358.58	214.79
358.97	214.60
359.35	214.69
359.73	214.98
360.11	214.86
360.49	215.05
360.87	215.00
361.25	215.05
361.63	215.67
362.01	215.52
362.39	215.64
362.77	215.74
363.15	215.43
363.53	215.36
363.91	215.29
364.29	215.19
364.67	213.14
365.05	213.26
365.43	213.36
365.81	213.62
366.19	213.71
366.57	214.43
366.95	214.50
367.33	214.21
367.71	214.07
368.09	214.60
368.47	214.60
368.85	214.50
369.23	215.02
369.61	214.05
369.99	214.76
370.37	214.76
370.75	215.64
371.13	215.21
371.51	215.21
371.89	215.38
372.27	215.55
372.65	215.81
373.03	215.62
373.41	215.38
373.78	214.95
374.16	214.24
374.54	213.83
374.92	213.76
375.30	213.93
375.68	213.50
376.06	213.45
376.44	213.36
376.82	213.48
377.19	213.07
377.57	213.07
377.95	212.10
378.33	212.02
378.71	210.93
379.09	211.24
379.47	211.31
379.84	211.05
380.22	210.83
380.60	210.36
380.98	210.45
381.36	210.50
381.73	210.38
382.11	210.74
382.49	210.64
382.87	210.38
383.25	210.24
383.62	212.88
384.00	212.36
384.38	212.50
384.76	213.00
385.13	214.07
385.51	214.14
385.89	214.07
386.27	214.12
386.64	214.24
387.02	214.12
387.40	214.00
387.78	214.21
388.15	214.40
388.53	214.43
388.91	214.29
389.29	214.12
389.66	214.57
390.04	214.24
390.42	214.62
390.79	214.88
391.17	214.79
391.55	212.52
391.92	212.76
392.30	213.10
392.68	212.50
393.05	212.19
393.43	212.38
393.81	212.55
394.18	212.48
394.56	212.64
394.94	213.12
395.31	213.14
395.69	213.71
396.06	214.02
396.44	214.40
396.82	214.33
397.19	215.38
397.57	215.24
397.95	215.55
398.32	215.21
398.70	215.21
399.07	215.79
399.45	215.81
399.82	215.93
400.20	215.71
400.58	215.86
400.95	215.02
401.33	215.43
401.70	216.88
402.08	217.17
402.45	217.29
402.83	217.74
403.20	217.93
403.58	217.88
403.95	218.19
404.33	218.55
404.71	218.93
405.08	220.19
405.46	220.48
405.83	220.98
406.21	221.17
406.58	221.76
406.96	222.00
407.33	222.33
407.70	222.90
408.08	224.69
408.45	225.67
408.83	226.69
409.20	226.95
409.58	226.57
409.95	227.69
410.33	228.79
410.70	229.02
411.08	229.93
411.45	230.98
411.82	231.79
412.20	233.17
412.57	235.62
412.95	235.14
413.32	236.71
413.69	237.86
414.07	239.81
414.44	241.79
414.82	243.79
415.19	246.14
415.56	248.48
415.94	249.98
416.31	252.98
416.68	255.93
417.06	259.48
417.43	262.90
417.81	266.12
418.18	269.60
418.55	273.60
418.93	277.95
419.30	282.31
419.67	287.00
420.04	291.60
420.42	295.69
420.79	302.67
421.16	308.60
421.54	315.33
421.91	321.79
422.28	327.95
422.66	334.55
423.03	342.79
423.40	350.07
423.77	357.29
424.15	364.33
424.52	372.12
424.89	380.81
425.26	388.81
425.64	396.69
426.01	405.45
426.38	414.29
426.75	423.62
427.13	433.21
427.50	443.02
427.87	453.21
428.24	463.21
428.61	471.76
428.99	482.90
429.36	493.81
429.73	505.07
430.10	516.62
430.47	528.67
430.85	539.69
431.22	552.12
431.59	566.90
431.96	579.48
432.33	593.43
432.70	606.83
433.08	623.45
433.45	638.79
433.82	653.79
434.19	670.86
434.56	688.36
434.93	703.98
435.30	720.29
435.68	738.19
436.05	756.17
436.42	773.79
436.79	789.79
437.16	807.07
437.53	825.31
437.90	843.43
438.27	862.02
438.64	880.07
439.01	897.55
439.38	911.52
439.75	926.52
440.13	943.81
440.50	960.10
440.87	972.79
441.24	986.86
441.61	1001.62
441.98	1013.05
442.35	1024.79
442.72	1037.90
443.09	1050.76
443.46	1058.71
443.83	1064.17
444.20	1069.05
444.57	1075.12
444.94	1078.76
445.31	1082.60
445.68	1088.24
446.05	1089.38
446.42	1087.52
446.79	1086.43
447.16	1084.83
447.53	1083.81
447.90	1077.55
448.27	1070.74
448.64	1061.67
449.01	1054.57
449.37	1043.62
449.74	1032.19
450.11	1020.69
450.48	1006.17
450.85	990.07
451.22	976.71
451.59	964.60
451.96	952.74
452.33	937.12
452.70	922.81
453.07	904.36
453.43	884.60
453.80	867.43
454.17	851.69
454.54	835.50
454.91	819.60
455.28	803.55
455.65	788.21
456.02	776.74
456.38	763.76
456.75	748.31
457.12	734.88
457.49	721.90
457.86	707.69
458.23	696.74
458.59	685.02
458.96	672.90
459.33	662.24
459.70	651.55
460.07	643.17
460.43	633.17
460.80	625.02
461.17	617.69
461.54	609.07
461.91	601.43
462.27	592.98
462.64	585.38
463.01	578.17
463.38	571.29
463.74	560.36
464.11	554.17
464.48	548.33
464.85	542.02
465.21	537.67
465.58	532.45
465.95	525.60
466.32	520.86
466.68	515.95
467.05	510.52
467.42	505.48
467.78	500.17
468.15	495.12
468.52	491.05
468.88	485.00
469.25	480.50
469.62	477.19
469.98	473.38
470.35	469.90
470.72	466.10
471.08	461.64
471.45	459.31
471.82	456.55
472.18	453.12
472.55	450.48
472.92	446.74
473.28	443.69
473.65	441.50
474.02	438.40
474.38	436.05
474.75	434.00
475.11	431.50
475.48	429.93
475.85	428.43
476.21	426.55
476.58	425.67
476.94	424.33
477.31	422.48
477.67	421.14
478.04	420.00
478.41	418.98
478.77	420.43
479.14	418.55
479.50	417.71
479.87	417.43
480.23	417.02
480.60	416.45
480.96	416.14
481.33	416.62
481.69	416.79
482.06	416.90
482.42	416.93
482.79	417.50
483.15	417.57
483.52	418.29
483.88	418.81
484.25	419.26
484.61	420.31
484.98	421.60
485.34	423.76
485.71	425.17
486.07	426.33
486.44	425.95
486.80	428.12
487.17	429.31
487.53	431.26
487.90	433.43
488.26	436.36
488.62	439.40
488.99	441.19
489.35	444.05
489.72	446.48
490.08	449.36
490.44	452.05
490.81	455.43
491.17	457.88
491.54	461.48
491.90	465.14
492.26	468.62
492.63	471.79
492.99	474.81
493.36	478.98
493.72	483.74
494.08	487.83
494.45	492.45
494.81	497.64
495.17	502.33
495.54	507.50
495.90	512.17
496.26	517.24
496.63	522.95
496.99	528.19
497.35	534.12
497.72	539.95
498.08	545.64
498.44	551.60
498.80	558.69
499.17	564.93
499.53	571.55
499.89	578.50
500.26	585.24
500.62	592.45
500.98	599.36
501.34	606.62
501.71	614.26
502.07	620.74
502.43	627.60
502.79	634.69
503.16	641.60
503.52	649.00
503.88	655.50
504.24	663.07
504.60	671.02
504.97	679.07
505.33	686.76
505.69	695.74
506.05	703.55
506.41	710.98
506.78	718.98
507.14	726.43
507.50	734.55
507.86	742.62
508.22	750.24
508.59	757.90
508.95	764.74
509.31	773.43
509.67	782.24
510.03	790.12
510.39	798.31
510.75	806.40
511.12	814.33
511.48	822.50
511.84	830.71
512.20	838.21
512.56	845.52
512.92	853.76
513.28	860.90
513.64	867.76
514.00	875.45
514.37	883.07
514.73	890.60
515.09	897.79
515.45	905.02
515.81	912.52
516.17	919.52
516.53	926.95
516.89	932.50
517.25	938.81
517.61	946.07
517.97	952.31
518.33	959.02
518.69	965.90
519.05	972.55
519.41	978.48
519.77	985.74
520.13	991.79
520.49	996.71
520.85	1002.43
521.21	1009.74
521.57	1016.07
521.93	1021.19
522.29	1027.12
522.65	1031.64
523.01	1037.29
523.37	1042.07
523.73	1047.36
524.09	1053.00
524.45	1058.43
524.81	1063.36
525.17	1068.79
525.53	1073.86
525.89	1078.38
526.25	1082.79
526.61	1087.05
526.97	1091.76
527.33	1096.19
527.68	1102.31
528.04	1107.36
528.40	1111.76
528.76	1115.14
529.12	1118.62
529.48	1123.90
529.84	1127.83
530.20	1133.31
530.56	1137.74
530.91	1142.48
531.27	1146.62
531.63	1151.10
531.99	1154.98
532.35	1158.90
532.71	1162.40
533.07	1166.86
533.42	1173.64
533.78	1178.10
534.14	1183.29
534.50	1187.31
534.86	1191.95
535.21	1195.21
535.57	1199.81
535.93	1203.69
536.29	1208.83
536.65	1213.86
537.00	1217.40
537.36	1221.60
537.72	1224.86
538.08	1228.81
538.44	1231.79
538.79	1236.02
539.15	1238.86
539.51	1242.79
539.87	1247.43
540.22	1250.52
540.58	1254.69
540.94	1255.50
541.29	1259.19
541.65	1261.81
542.01	1265.31
542.37	1266.86
542.72	1269.43
543.08	1271.81
543.44	1275.07
543.79	1276.45
544.15	1279.12
544.51	1282.60
544.87	1285.33
545.22	1288.50
545.58	1290.88
545.94	1294.12
546.29	1296.57
546.65	1299.48
547.01	1302.52
547.36	1304.43
547.72	1308.69
548.07	1310.86
548.43	1313.45
548.79	1315.67
549.14	1317.86
549.50	1320.45
549.86	1323.52
550.21	1326.24
550.57	1329.36
550.92	1332.45
551.28	1336.24
551.64	1338.86
551.99	1341.69
552.35	1344.83
552.70	1347.67
553.06	1351.76
553.41	1354.60
553.77	1359.55
554.13	1362.81
554.48	1367.07
554.84	1372.19
555.19	1374.79
555.55	1380.69
555.90	1385.19
556.26	1389.05
556.61	1393.19
556.97	1396.48
557.32	1400.55
557.68	1404.31
558.03	1408.19
558.39	1411.71
558.74	1415.60
559.10	1419.79
559.45	1424.07
559.81	1428.48
560.16	1432.95
560.52	1436.83
560.87	1442.50
561.23	1445.67
561.58	1451.43
561.94	1454.69
562.29	1458.33
562.64	1463.76
563.00	1466.79
563.35	1471.40
563.71	1476.10
564.06	1481.17
564.42	1487.17
564.77	1493.05
565.12	1499.55
565.48	1507.21
565.83	1514.21
566.19	1520.76
566.54	1527.48
566.89	1532.50
567.25	1538.86
567.60	1545.86
567.96	1553.43
568.31	1559.88
568.66	1566.83
569.02	1571.50
569.37	1577.67
569.72	1583.43
570.08	1589.02
570.43	1593.64
570.78	1599.45
571.14	1605.05
571.49	1610.71
571.84	1615.74
572.20	1621.29
572.55	1625.10
572.90	1627.52
573.26	1631.14
573.61	1635.00
573.96	1638.90
574.31	1644.12
574.67	1648.21
575.02	1650.76
575.37	1652.29
575.72	1654.93
576.08	1657.93
576.43	1661.60
576.78	1664.48
577.13	1668.10
577.49	1671.50
577.84	1675.76
578.19	1679.50
578.54	1683.36
578.90	1687.19
579.25	1690.50
579.60	1691.90
579.95	1696.14
580.30	1699.38
580.66	1702.57
581.01	1705.10
581.36	1707.88
581.71	1710.10
582.06	1713.98
582.42	1717.76
582.77	1720.31
583.12	1723.10
583.47	1725.60
583.82	1729.07
584.17	1731.98
584.53	1735.31
584.88	1737.10
585.23	1740.10
585.58	1741.86
585.93	1743.95
586.28	1745.90
586.63	1748.64
586.98	1751.79
587.34	1754.31
587.69	1756.36
588.04	1758.21
588.39	1760.00
588.74	1760.12
589.09	1761.55
589.44	1761.31
589.79	1762.26
590.14	1765.14
590.49	1766.52
590.84	1767.14
591.19	1767.88
591.54	1768.98
591.89	1768.55
592.25	1771.76
592.60	1771.81
592.95	1772.95
593.30	1773.38
593.65	1773.86
594.00	1772.60
594.35	1778.93
594.70	1778.69
595.05	1779.43
595.40	1779.52
595.75	1780.86
596.10	1783.33
596.45	1784.40
596.80	1785.60
597.15	1786.05
597.50	1785.14
597.85	1786.50
598.19	1787.29
598.54	1787.62
598.89	1787.88
599.24	1788.40
599.59	1786.55
599.94	1786.83
600.29	1786.81
600.64	1787.71
600.99	1787.86
601.34	1789.76
601.69	1783.95
602.04	1782.31
602.39	1780.95
602.74	1780.48
603.08	1779.10
603.43	1778.45
603.78	1777.67
604.13	1776.24
604.48	1774.69
604.83	1774.81
605.18	1773.62
605.53	1772.76
605.87	1771.07
606.22	1769.12
606.57	1767.79
606.92	1766.19
607.27	1765.02
607.62	1764.00
607.96	1762.36
608.31	1761.05
608.66	1759.31
609.01	1756.83
609.36	1756.21
609.70	1754.83
610.05	1752.98
610.40	1750.50
610.75	1747.12
611.10	1744.60
611.44	1741.43
611.79	1739.24
612.14	1736.29
612.49	1731.76
612.83	1728.17
613.18	1725.24
613.53	1721.69
613.88	1718.07
614.22	1714.33
614.57	1709.26
614.92	1704.60
615.27	1700.07
615.61	1695.93
615.96	1690.69
616.31	1686.67
616.65	1683.26
617.00	1679.64
617.35	1675.55
617.70	1671.74
618.04	1667.95
618.39	1663.24
618.74	1659.57
619.08	1655.36
619.43	1650.45
619.78	1647.38
620.12	1643.40
620.47	1639.86
620.82	1636.19
621.16	1631.45
621.51	1628.12
621.85	1624.38
622.20	1620.26
622.55	1615.43
622.89	1610.36
623.24	1607.19
623.59	1602.60
623.93	1597.36
624.28	1593.19
624.62	1590.69
624.97	1587.86
625.32	1583.40
625.66	1579.36
626.01	1574.98
626.35	1571.40
626.70	1567.71
627.04	1564.12
627.39	1559.95
627.73	1556.40
628.08	1553.12
628.43	1549.36
628.77	1544.43
629.12	1540.10
629.46	1535.64
629.81	1531.62
630.15	1527.48
630.50	1522.29
630.84	1517.62
631.19	1513.17
631.53	1507.88
631.88	1500.21
632.22	1493.38
632.57	1489.02
632.91	1483.86
633.26	1479.74
633.60	1473.26
633.95	1467.40
634.29	1460.93
634.64	1455.33
634.98	1448.55
635.32	1443.90
635.67	1439.60
636.01	1435.12
636.36	1429.64
636.70	1425.19
637.05	1420.55
637.39	1415.62
637.73	1410.14
638.08	1406.05
638.42	1400.62
638.77	1395.86
639.11	1391.83
639.45	1387.00
639.80	1380.74
640.14	1374.86
640.49	1368.55
640.83	1363.10
641.17	1358.86
641.52	1353.07
641.86	1347.76
642.20	1343.52
642.55	1336.57
642.89	1329.98
643.23	1323.10
643.58	1317.93
643.92	1311.00
644.26	1304.19
644.61	1298.62
644.95	1292.86
645.29	1286.07
645.64	1280.86
645.98	1274.21
646.32	1268.05
646.66	1261.33
647.01	1254.50
647.35	1248.88
647.69	1243.10
648.04	1237.88
648.38	1230.64
648.72	1224.62
649.06	1218.24
649.41	1210.07
649.75	1203.29
650.09	1197.10
650.43	1191.31
650.78	1184.62
651.12	1177.98
651.46	1171.52
651.80	1164.26
652.14	1157.60
652.49	1151.74
652.83	1144.31
653.17	1137.43
653.51	1131.00
653.85	1125.26
654.20	1119.21
654.54	1111.86
654.88	1104.57
655.22	1098.24
655.56	1091.40
655.90	1085.14
656.25	1078.62
656.59	1072.98
656.93	1066.93
657.27	1060.90
657.61	1053.86
657.95	1048.14
658.29	1041.24
658.64	1035.52
658.98	1029.21
659.32	1022.05
659.66	1014.90
660.00	1008.60
660.34	1002.45
660.68	995.43
661.02	988.55
661.36	982.14
661.70	976.98
662.05	971.31
662.39	965.36
662.73	959.93
663.07	953.95
663.41	947.79
663.75	941.26
664.09	935.52
664.43	928.98
664.77	923.69
665.11	917.26
665.45	912.52
665.79	906.86
666.13	900.86
666.47	895.55
666.81	890.17
667.15	884.52
667.49	879.57
667.83	875.14
668.17	870.17
668.51	865.40
668.85	859.86
669.19	855.31
669.53	848.55
669.87	842.90
670.21	837.50
670.55	831.81
670.89	827.36
671.23	822.17
671.57	816.79
671.91	810.67
672.25	805.57
672.58	800.50
672.92	794.17
673.26	789.17
673.60	784.69
673.94	779.67
674.28	774.57
674.62	769.57
674.96	763.93
675.30	759.33
675.64	753.90
675.97	749.57
676.31	743.60
676.65	738.95
676.99	735.12
677.33	730.76
677.67	726.50
678.01	721.12
678.34	716.31
678.68	712.38
679.02	707.67
679.36	702.95
679.70	698.00
680.04	693.88
680.37	689.24
680.71	684.55
681.05	680.52
681.39	675.95
681.73	670.90
682.06	666.40
682.40	661.60
682.74	657.50
683.08	652.90
683.42	648.48
683.75	644.57
684.09	639.31
684.43	634.24
684.77	629.71
685.10	625.40
685.44	620.98
685.78	616.12
686.12	612.52
686.45	608.00
686.79	603.55
687.13	599.98
687.46	595.95
687.80	591.90
688.14	586.95
688.48	582.88
688.81	579.14
689.15	575.98
689.49	571.93
689.82	567.90
690.16	563.29
690.50	558.83
690.83	555.00
691.17	550.31
691.51	546.50
691.84	542.76
692.18	538.98
692.52	535.29
692.85	532.29
693.19	529.05
693.52	524.69
693.86	521.02
694.20	517.12
694.53	513.36
694.87	509.31
695.21	505.69
695.54	502.29
695.88	498.52
696.21	494.19
696.55	490.50
696.88	487.12
697.22	483.62
697.56	481.29
697.89	477.76
698.23	475.17
698.56	471.88
698.90	468.71
699.23	465.43
699.57	462.21
699.90	458.38
700.24	454.62
700.58	452.17
700.91	449.36
701.25	447.81
701.58	445.86
701.92	443.50
702.25	440.79
702.59	437.67
702.92	434.95
703.26	432.07
703.59	429.50
703.93	428.36
704.26	426.05
704.60	423.31
704.93	420.29
705.26	417.40
705.60	415.31
705.93	412.24
706.27	410.52
706.60	408.55
706.94	406.93
707.27	404.29
707.61	402.21
707.94	399.81
708.27	396.02
708.61	392.86
708.94	390.45
709.28	388.76
709.61	386.64
709.94	384.71
710.28	382.55
710.61	380.10
710.95	376.02
711.28	375.40
711.61	372.95
711.95	371.93
712.28	369.93
712.61	367.40
712.95	367.17
713.28	366.05
713.61	363.88
713.95	361.33
714.28	359.86
714.61	357.69
714.95	355.90
715.28	353.88
715.61	351.88
715.95	349.98
716.28	347.76
716.61	346.57
716.95	344.40
717.28	342.90
717.61	341.60
717.94	340.10
718.28	336.88
718.61	335.29
718.94	332.95
719.27	331.67
719.61	330.40
719.94	327.60
720.27	324.74
720.60	323.17
720.94	321.71
721.27	320.60
721.60	319.52
721.93	317.90
722.27	317.33
722.60	316.31
722.93	315.00
723.26	313.88
723.59	312.19
723.93	311.45
724.26	310.21
724.59	309.05
724.92	308.33
725.25	307.67
725.59	306.60
725.92	305.83
726.25	304.52
726.58	303.76
726.91	303.19
727.24	302.76
727.57	301.74
727.91	300.64
728.24	299.50
728.57	298.29
728.90	297.45
729.23	295.69
729.56	295.79
729.89	295.07
730.22	294.02
730.55	293.14
730.89	292.31
731.22	291.40
731.55	290.38
731.88	289.26
732.21	288.07
732.54	287.19
732.87	286.50
733.20	285.83
733.53	284.67
733.86	283.79
734.19	282.31
734.52	281.45
734.85	282.19
735.18	281.05
735.51	281.07
735.84	280.71
736.17	280.45
736.50	278.52
736.83	279.95
737.16	279.10
737.49	278.17
737.82	277.19
738.15	276.60
738.48	275.67
738.81	275.00
739.14	274.19
739.47	273.57
739.80	272.79
740.13	272.12
740.46	271.21
740.79	270.26
741.12	269.64
741.45	269.10
741.78	267.14
742.11	267.14
742.44	265.79
742.77	265.29
743.10	264.29
743.43	263.69
743.75	260.83
744.08	262.95
744.41	262.12
744.74	261.38
745.07	260.45
745.40	260.60
745.73	261.05
746.06	260.62
746.39	260.12
746.71	259.40
747.04	258.88
747.37	258.26
747.70	258.05
748.03	257.74
748.36	257.31
748.68	256.95
749.01	255.67
749.34	255.26
749.67	254.69
750.00	254.64
750.33	255.79
750.65	255.57
750.98	252.74
751.31	252.62
751.64	252.33
751.97	253.29
752.29	252.50
752.62	251.05
752.95	250.48
753.28	249.88
753.60	249.40
753.93	249.52
754.26	249.50
754.59	248.50
754.91	248.10
755.24	247.60
755.57	247.05
755.90	246.83
756.22	246.38
756.55	245.98
756.88	245.10
757.20	243.31
757.53	242.29
757.86	241.71
758.19	241.52
758.51	240.95
758.84	239.36
759.17	238.83
759.49	238.81
759.82	239.45
760.15	239.38
760.47	238.86
760.80	237.81
761.13	237.86
761.45	237.64
761.78	237.00
762.11	236.67
762.43	235.98
762.76	235.60
763.08	235.60
763.41	235.21
763.74	235.07
764.06	234.64
764.39	234.60
764.71	234.43
765.04	233.93
765.37	233.74
765.69	233.67
766.02	233.60
766.34	233.14
766.67	231.95
767.00	232.02
767.32	233.14
767.65	234.31
767.97	233.60
768.30	233.52
768.62	233.40
768.95	232.95
769.27	232.88
769.60	232.98
769.92	232.29
770.25	231.67
770.57	231.19
770.90	230.90
771.22	230.45
771.55	230.29
771.87	230.21
772.20	230.05
772.52	231.55
772.85	233.69
773.17	233.55
773.50	233.36
773.82	232.81
774.15	231.33
774.47	229.67
774.80	229.64
775.12	229.26
775.45	229.26
775.77	229.24
776.09	229.19
776.42	229.12
776.74	229.69
777.07	229.50
777.39	229.43
777.72	229.31
778.04	229.67
778.36	229.36
778.69	229.31
779.01	229.33
779.33	227.36
779.66	224.98
779.98	224.76
780.31	224.64
780.63	225.14
780.95	225.60
781.28	225.52
781.60	225.24
781.92	224.90
782.25	224.60
782.57	224.33
782.89	224.12
783.22	223.88
783.54	223.24
783.86	223.38
784.19	223.07
784.51	223.64
784.83	222.81
785.16	222.76
785.48	222.43
785.80	222.12
786.12	222.21
786.45	222.10
786.77	221.76
787.09	221.60
787.42	220.83
787.74	220.86
788.06	221.02
788.38	220.55
788.71	220.60
789.03	220.76
789.35	221.21
789.67	220.90
789.99	220.69
790.32	220.50
790.64	220.76
790.96	222.62
791.28	221.62
791.61	221.90
791.93	221.95
792.25	222.00
792.57	223.43
792.89	223.05
793.21	223.02
793.54	222.93
793.86	222.83
794.18	223.10
794.50	222.52
794.82	222.21
795.14	222.95
795.47	223.17
795.79	223.02
796.11	222.33
796.43	222.24
796.75	222.52
797.07	222.52
797.39	222.19
797.71	220.45
798.04	220.60
798.36	220.45
798.68	220.19
799.00	220.43
799.32	219.19
799.64	219.40
799.96	219.38
800.28	219.86
800.60	219.60
800.92	219.55
801.24	219.43
801.56	219.45
801.89	218.83
802.21	218.79
802.53	218.57
802.85	219.07
803.17	220.07
803.49	219.64
803.81	219.38
804.13	219.21
804.45	219.14
804.77	219.14
805.09	219.14
805.41	218.88
805.73	218.38
806.05	218.05
806.37	217.69
806.69	217.38
807.01	217.19
807.33	217.50
807.65	216.71
807.97	217.71
808.28	217.64
808.60	217.48
808.92	217.57
809.24	218.74
809.56	218.36
809.88	217.74
810.20	217.67
810.52	217.90
810.84	217.45
811.16	217.19
811.48	217.31
811.80	217.93
812.12	218.00
812.43	218.21
812.75	218.31
813.07	218.21
813.39	218.40
813.71	218.10
814.03	217.74
814.35	217.90
814.67	216.88
814.98	216.64
815.30	216.86
815.62	216.17
815.94	214.74
816.26	214.81
816.58	214.33
816.89	214.38
817.21	214.07
817.53	214.48
817.85	214.43
818.17	214.19
818.48	213.45
818.80	213.88
819.12	213.76
819.44	213.50
819.76	213.17
820.07	213.12
820.39	212.98
820.71	213.02
821.03	213.02
821.34	212.90
821.66	213.55
821.98	213.64
822.30	213.93
822.61	215.14
822.93	215.00
823.25	214.95
823.57	214.79
823.88	215.19
824.20	215.07
824.52	215.45
824.83	215.24
825.15	215.29
825.47	214.98
825.79	215.00
826.10	214.93
826.42	215.14
826.74	215.31
827.05	215.12
827.37	215.33
827.69	215.19
828.00	215.14
828.32	214.74
828.64	214.55
828.95	215.38
829.27	214.93
829.58	214.81
829.90	215.21
830.22	215.33
830.53	215.00
830.85	214.93
831.17	214.50
831.48	214.50
831.80	214.45
832.11	214.14
832.43	213.90
832.75	213.81
833.06	215.24
833.38	214.52
833.69	214.74
834.01	214.79
834.32	214.74
834.64	214.86
834.96	215.05
835.27	214.76
835.59	214.24
835.90	213.52
836.22	213.45
836.53	212.93
836.85	212.79
837.16	214.50
837.48	214.45
837.79	215.24
838.11	215.45
838.42	215.38
838.74	215.79
839.05	215.69
839.37	215.64
839.68	214.10
840.00	214.14
840.31	214.45
840.63	214.26
840.94	214.00
841.26	213.76
841.57	213.60
841.88	213.93
842.20	213.48
842.51	213.50
842.83	213.69
843.14	215.55
843.46	215.69
843.77	214.79
844.08	214.64
844.40	213.81
844.71	213.57
845.03	213.36
845.34	213.36
845.65	213.29
845.97	213.38
846.28	213.60
846.60	213.67
846.91	213.14
847.22	213.12
847.54	213.76
847.85	213.93
848.16	213.86
848.48	213.67
848.79	214.76
849.10	215.14
849.42	215.12
849.73	213.10
850.04	212.83
850.36	212.24
850.67	212.69
850.98	212.67
851.30	213.21
851.61	213.26
851.92	212.95
852.23	213.74
852.55	213.76
852.86	213.86
853.17	214.17
853.49	214.81
853.80	215.38
854.11	215.52
854.42	215.95
854.74	215.60
855.05	215.62
855.36	214.38
855.67	214.36
855.99	214.55
856.30	217.19
856.61	217.17
856.92	217.14
857.23	217.02
857.55	217.02
857.86	216.62
858.17	217.07
858.48	216.90
858.79	216.40
859.11	216.64
859.42	216.31
859.73	216.14
860.04	215.83
860.35	214.86
860.66	213.90
860.98	213.71
861.29	214.12
861.60	214.00
861.91	214.74
862.22	214.24
862.53	213.90
862.84	211.31
863.16	211.95
863.47	211.52
863.78	211.33
864.09	211.55
864.40	211.79
864.71	211.60
865.02	211.98
865.33	211.79
865.64	211.55
865.95	211.69
866.27	212.83
866.58	212.67
866.89	213.12
867.20	213.52
867.51	213.21
867.82	213.10
868.13	213.88
868.44	213.26
868.75	213.57
869.06	213.86
869.37	214.29
869.68	213.67
869.99	214.17
870.30	214.19
870.61	214.26
870.92	213.86
871.23	213.74
871.54	213.81
871.85	214.26
872.16	214.38
872.47	214.36
872.78	213.36
873.09	213.67
873.40	213.55
873.71	213.67
874.02	213.76
874.33	213.60
874.64	212.98
874.95	213.21
875.26	213.10
875.56	212.90
875.87	212.55
876.18	212.26
876.49	214.14
876.80	214.10
877.11	213.69
877.42	213.76
877.73	213.88
878.04	213.76
878.35	213.79
878.66	213.81
878.96	213.64
879.27	213.38
879.58	213.24
879.89	213.24
880.20	213.81
880.51	213.52
880.82	213.45
881.12	213.45
881.43	213.05
881.74	212.81
882.05	212.57
882.36	212.83
882.67	213.19
882.97	210.90
883.28	210.86
883.59	210.64
883.90	210.90
884.21	211.07
884.51	211.00
884.82	210.55
885.13	210.45
885.44	210.64
885.74	210.81
886.05	210.62
886.36	210.62
886.67	209.60
886.98	210.76
887.28	211.02
887.59	211.10
887.90	211.38
888.20	211.45
888.51	212.00
888.82	211.62
889.13	211.83
889.43	213.71
889.74	213.43
890.05	213.69
890.35	213.45
890.66	213.17
890.97	212.93
891.28	212.74
891.58	212.98
891.89	212.81
892.20	212.57
892.50	212.57
892.81	212.40
893.12	212.69
893.42	211.69
893.73	211.74
894.04	211.69
894.34	211.76
894.65	211.45
894.95	211.02
895.26	211.40
895.57	212.19
895.87	210.19
896.18	210.60
896.48	210.57
896.79	210.43
897.10	210.71
897.40	210.71
897.71	211.10
898.01	210.90
898.32	211.07
898.63	210.86
898.93	211.05
899.24	211.19
899.54	211.14
899.85	211.05
900.15	211.02
900.46	211.02
900.76	211.31
901.07	211.60
901.38	211.69
901.68	211.69
901.99	210.76
902.29	211.00
902.60	210.98
902.90	210.86
903.21	210.98
903.51	210.67
903.82	211.14
904.12	210.93
904.43	210.93
904.73	210.90
905.03	211.26
905.34	213.26
905.64	213.00
905.95	212.95
906.25	212.93
906.56	212.76
906.86	212.67
907.17	212.48
907.47	212.71
907.77	212.55
908.08	212.10
908.38	212.19
908.69	212.14
908.99	212.48
909.30	212.55
909.60	212.79
909.90	213.02
910.21	212.52
910.51	212.31
910.81	212.33
911.12	212.36
911.42	212.29
911.73	209.93
912.03	210.12
912.33	210.62
912.64	210.71
912.94	210.60
913.24	210.48
913.55	210.36
913.85	209.95
914.15	210.55
914.46	210.76
914.76	210.67
915.06	210.55
915.37	210.21
915.67	210.24
915.97	210.17
916.27	209.79
916.58	209.83
916.88	209.93
917.18	209.60
917.49	211.02
917.79	211.05
918.09	211.55
918.39	212.12
918.70	211.86
919.00	211.83
919.30	212.81
919.60	212.76
919.91	212.52
920.21	212.67
920.51	211.98
920.81	212.12
921.12	212.38
921.42	212.26
921.72	212.40
922.02	212.45
922.32	212.62
922.63	212.79
922.93	213.79
923.23	214.02
923.53	214.05
923.83	212.64
924.13	212.69
924.44	212.57
924.74	212.95
925.04	213.52
925.34	213.62
925.64	212.60
925.94	212.50
926.24	213.57
926.55	213.48
926.85	213.76
927.15	213.50
927.45	213.55
927.75	213.69
928.05	213.67
928.35	213.74
928.65	214.17
928.95	214.40
929.26	213.74
929.56	213.95
929.86	214.36
930.16	214.14
930.46	214.07
930.76	214.12
931.06	213.10
931.36	212.57
931.66	212.74
931.96	213.33
932.26	213.60
932.56	212.90
932.86	213.12
933.16	213.07
933.46	213.14
933.76	212.67
934.06	213.36
934.36	213.88
934.66	213.64
934.96	213.17
935.26	213.19
935.56	213.50
935.86	213.10
936.16	212.71
936.46	212.57
936.76	212.62
937.06	212.17
937.36	212.43
937.66	212.45
937.96	212.52
938.26	211.86
938.56	211.67
938.86	211.60
939.16	211.79
939.46	212.14
939.76	212.17
940.06	212.31
940.35	211.93
940.65	211.19
940.95	211.45
941.25	211.05
941.55	210.86
941.85	210.45
942.15	210.71
942.45	211.36
942.75	211.33
943.04	211.17
943.34	211.95
943.64	211.60
943.94	211.38
944.24	211.17
944.54	211.50
944.84	211.36
945.13	211.12
945.43	210.81
945.73	210.71
946.03	210.45
946.33	210.17
946.62	209.69
946.92	209.86
947.22	210.14
947.52	210.38
947.82	210.50
948.11	210.43
948.41	209.98
948.71	209.48
949.01	209.67
949.31	209.64
949.60	209.17
949.90	209.62
950.20	209.52
950.50	209.60
950.79	209.33
951.09	209.69
951.39	209.64
951.69	209.60
951.98	209.67
952.28	210.07
952.58	210.19
952.87	210.31
953.17	210.24
953.47	210.05
953.76	209.90
954.06	209.64
954.36	209.52
954.66	209.55
954.95	209.76
955.25	210.00
955.55	210.29
955.84	209.95
956.14	209.98
956.44	210.26
956.73	209.95
957.03	210.24
957.32	210.14
957.62	210.14
957.92	210.57
958.21	210.57
958.51	212.81
958.81	213.10
959.10	213.50
959.40	214.05
959.69	214.17
959.99	214.33
960.29	214.36
960.58	214.48
960.88	215.48
961.17	215.43
961.47	215.67
961.76	215.45
962.06	216.00
962.36	215.93
962.65	215.95
962.95	216.10
963.24	215.76
963.54	216.02
963.83	216.31
964.13	216.12
964.42	215.60
964.72	214.00
965.01	213.93
965.31	213.74
965.60	213.17
965.90	214.40
966.19	213.98
966.49	214.07
966.78	213.83
967.08	213.67
967.37	213.71
967.67	213.14
967.96	213.48
968.26	213.14
968.55	213.45
968.85	213.21
969.14	213.07
969.43	213.12
969.73	212.95
970.02	212.67
970.32	212.31
970.61	212.29
970.91	211.55
971.20	211.17
971.49	210.93
971.79	211.24
972.08	209.83
972.38	210.29
972.67	210.17
972.96	210.48
973.26	210.00
973.55	210.67
973.85	210.81
974.14	210.57
974.43	210.90
974.73	210.60
975.02	210.36
975.31	210.43
975.61	210.33
975.90	210.14
976.19	209.98
976.49	210.29
976.78	210.40
977.07	210.40
977.37	210.67
977.66	210.86
977.95	210.38
978.24	210.38
978.54	210.69
978.83	210.38
979.12	210.07
979.42	209.98
979.71	209.71
980.00	209.45
980.29	209.67
980.59	209.33
980.88	209.64
981.17	209.86
981.46	209.98
981.76	210.14
982.05	210.67
982.34	211.05
982.63	211.14
982.93	211.40
983.22	211.90
983.51	211.93
983.80	212.29
984.09	212.79
984.39	212.64
984.68	212.31
984.97	212.45
985.26	212.14
985.55	212.31
985.85	211.81
986.14	212.45
986.43	212.52
986.72	212.29
987.01	211.71
987.30	211.64
987.59	211.50
987.89	211.43
988.18	210.86
988.47	210.79
988.76	210.67
989.05	210.43
989.34	209.98
989.63	210.55
989.92	210.17
990.22	209.76
990.51	210.02
990.80	210.26
991.09	210.55
991.38	211.14
991.67	210.83
991.96	210.55
992.25	210.57
992.54	210.29
992.83	210.38
993.12	210.26
993.41	210.43
993.70	211.21
993.99	211.60
994.28	211.86
994.58	211.93
994.87	211.62
995.16	211.52
995.45	211.57
995.74	210.69
996.03	210.79
996.32	211.00
996.61	211.12
996.90	210.71
997.19	210.60
997.48	210.86
997.77	210.83
998.06	211.31
998.34	210.86
998.63	211.02
998.92	211.31
999.21	211.79
999.50	212.00
999.79	211.50
1000.08	211.48
1000.37	211.36
1000.66	211.12
1000.95	211.57
1001.24	211.76
1001.53	212.00
1001.82	212.17
1002.11	212.02
1002.40	212.48
1002.68	212.71
1002.97	214.29
1003.26	214.07
1003.55	213.57
1003.84	213.69
1004.13	214.21
1004.42	214.21
1004.71	213.88
1004.99	213.64
1005.28	214.00
1005.57	213.67
1005.86	213.29
1006.15	213.10
1006.44	213.02
1006.72	213.12
1007.01	212.86
1007.30	212.93
1007.59	212.64
1007.88	212.57
1008.17	212.40
1008.45	211.57
1008.74	211.02
1009.03	210.19
1009.32	210.52
1009.60	210.48
1009.89	210.21
1010.18	209.17
1010.47	209.17
1010.76	209.36
1011.04	209.29
1011.33	209.33
1011.62	209.67
1011.91	209.79
1012.19	209.95
1012.48	209.88
1012.77	209.90
1013.05	211.12
1013.34	210.93
1013.63	211.10
1013.92	211.14
1014.20	211.12
1014.49	211.33
1014.78	211.43
1015.06	210.71
1015.35	210.29
1015.64	210.57
1015.92	211.19
1016.21	211.50
1016.50	211.38
1016.78	211.60
1017.07	211.79
1017.36	211.36
1017.64	210.98
1017.93	211.14
1018.22	211.05
1018.50	211.00
1018.79	211.19
1019.08	210.10
1019.36	210.14
1019.65	209.79
1019.93	210.36
1020.22	210.71
1020.51	211.79
1020.79	211.57
1021.08	211.00
1021.36	205.00
1021.65	215.00
1021.94	211.00
1022.22	209.50
1022.51	206.00
1022.79	219.00
1023.08	213.00
1023.36	233.00
1023.65	206.00
>>>>>End Processed Spectral Data<<<<<
