SpectraSuite Data File
++++++++++++++++++++++++++++++++++++
Date: Tue Apr 02 18:41:27 EDT 2013
User: group
Dark Spectrum Present: No
Reference Spectrum Present: No
Number of Sampled Component Spectra: 1
Spectrometers: USB2E7196
Integration Time (usec): 580000 (USB2E7196)
Spectra Averaged: 2 (USB2E7196)
Boxcar Smoothing: 10 (USB2E7196)
Correct for Electrical Dark: No (USB2E7196)
Strobe/Lamp Enabled: No (USB2E7196)
Correct for Detector Non-linearity: No (USB2E7196)
Correct for Stray Light: No (USB2E7196)
Number of Pixels in Processed Spectrum: 2048
>>>>>Begin Processed Spectral Data<<<<<
339.09	0.00
339.48	197.00
339.86	193.50
340.24	193.50
340.63	197.00
341.01	234.50
341.39	199.00
341.78	204.50
342.16	214.50
342.54	208.50
342.93	198.74
343.31	208.71
343.69	209.14
344.07	210.00
344.46	211.00
344.84	211.98
345.22	210.79
345.60	211.43
345.99	211.88
346.37	211.64
346.75	211.81
347.13	212.07
347.52	212.21
347.90	212.88
348.28	212.93
348.66	213.69
349.05	213.00
349.43	213.26
349.81	213.29
350.19	213.26
350.57	213.33
350.96	213.64
351.34	213.95
351.72	214.29
352.10	214.14
352.48	213.90
352.87	213.50
353.25	213.50
353.63	213.50
354.01	213.31
354.39	213.52
354.77	213.33
355.15	214.07
355.54	213.57
355.92	212.64
356.30	212.67
356.68	213.69
357.06	213.90
357.44	213.50
357.82	213.50
358.20	214.40
358.58	214.21
358.97	214.24
359.35	214.50
359.73	214.69
360.11	214.69
360.49	214.74
360.87	214.86
361.25	214.93
361.63	215.40
362.01	215.62
362.39	215.38
362.77	215.64
363.15	215.38
363.53	215.74
363.91	216.02
364.29	215.86
364.67	213.93
365.05	214.10
365.43	214.45
365.81	214.62
366.19	214.64
366.57	215.36
366.95	215.52
367.33	214.76
367.71	214.60
368.09	214.98
368.47	214.95
368.85	215.00
369.23	215.60
369.61	214.86
369.99	215.29
370.37	215.67
370.75	216.50
371.13	216.10
371.51	215.43
371.89	215.62
372.27	215.86
372.65	216.00
373.03	215.74
373.41	215.45
373.78	215.31
374.16	214.31
374.54	213.55
374.92	213.10
375.30	213.62
375.68	213.14
376.06	213.36
376.44	213.24
376.82	213.12
377.19	212.98
377.57	212.98
377.95	212.48
378.33	212.00
378.71	210.93
379.09	211.21
379.47	211.67
379.84	211.45
380.22	211.17
380.60	210.90
380.98	210.93
381.36	210.83
381.73	210.57
382.11	210.93
382.49	211.05
382.87	210.93
383.25	210.67
383.62	213.26
384.00	212.69
384.38	213.05
384.76	213.64
385.13	214.26
385.51	214.60
385.89	214.19
386.27	214.62
386.64	214.83
387.02	214.52
387.40	214.29
387.78	214.45
388.15	214.79
388.53	214.79
388.91	214.93
389.29	215.02
389.66	215.19
390.04	215.33
390.42	215.69
390.79	215.95
391.17	215.98
391.55	213.76
391.92	213.88
392.30	213.93
392.68	213.62
393.05	213.36
393.43	213.17
393.81	213.36
394.18	213.05
394.56	213.21
394.94	213.79
395.31	213.64
395.69	214.36
396.06	214.40
396.44	214.62
396.82	214.38
397.19	215.52
397.57	215.43
397.95	215.57
398.32	214.93
398.70	215.05
399.07	215.57
399.45	215.40
399.82	215.43
400.20	215.26
400.58	215.02
400.95	214.36
401.33	215.07
401.70	216.67
402.08	216.98
402.45	216.95
402.83	217.40
403.20	217.74
403.58	217.38
403.95	218.05
404.33	218.52
404.71	218.90
405.08	219.86
405.46	220.38
405.83	220.45
406.21	220.86
406.58	221.31
406.96	221.29
407.33	222.12
407.70	222.71
408.08	224.86
408.45	226.02
408.83	227.33
409.20	227.38
409.58	226.95
409.95	228.00
410.33	229.36
410.70	229.74
411.08	231.02
411.45	232.12
411.82	232.74
412.20	234.52
412.57	236.86
412.95	236.52
413.32	238.17
413.69	239.74
414.07	241.60
414.44	243.64
414.82	245.86
415.19	248.02
415.56	250.38
415.94	251.50
416.31	254.19
416.68	256.67
417.06	260.33
417.43	263.90
417.81	267.31
418.18	270.69
418.55	274.50
418.93	278.81
419.30	283.29
419.67	288.05
420.04	292.48
420.42	296.86
420.79	304.17
421.16	309.98
421.54	317.36
421.91	323.76
422.28	329.90
422.66	336.74
423.03	344.86
423.40	352.00
423.77	359.64
424.15	367.12
424.52	375.19
424.89	383.60
425.26	391.52
425.64	399.40
426.01	408.21
426.38	417.69
426.75	427.19
427.13	436.45
427.50	446.52
427.87	456.60
428.24	466.71
428.61	475.60
428.99	487.26
429.36	497.88
429.73	509.29
430.10	520.90
430.47	532.95
430.85	543.90
431.22	556.71
431.59	571.62
431.96	584.95
432.33	599.60
432.70	614.17
433.08	630.95
433.45	646.98
433.82	663.40
434.19	680.36
434.56	697.57
434.93	713.93
435.30	729.48
435.68	747.38
436.05	765.55
436.42	783.14
436.79	799.05
437.16	817.45
437.53	835.88
437.90	854.74
438.27	872.40
438.64	891.50
439.01	909.38
439.38	924.17
439.75	938.98
440.13	955.64
440.50	971.62
440.87	984.83
441.24	998.10
441.61	1011.90
441.98	1023.29
442.35	1035.50
442.72	1048.95
443.09	1063.14
443.46	1071.45
443.83	1076.57
444.20	1080.86
444.57	1087.64
444.94	1090.10
445.31	1093.90
445.68	1099.64
446.05	1101.86
446.42	1100.12
446.79	1098.64
447.16	1096.40
447.53	1095.45
447.90	1089.71
448.27	1083.00
448.64	1073.81
449.01	1067.83
449.37	1056.90
449.74	1045.00
450.11	1033.88
450.48	1018.81
450.85	1002.50
451.22	989.43
451.59	977.36
451.96	966.07
452.33	949.57
452.70	935.12
453.07	917.67
453.43	897.14
453.80	880.50
454.17	864.21
454.54	848.55
454.91	831.81
455.28	814.98
455.65	799.05
456.02	787.48
456.38	775.14
456.75	759.21
457.12	745.33
457.49	732.71
457.86	717.62
458.23	706.90
458.59	695.14
458.96	682.40
459.33	671.24
459.70	660.12
460.07	651.86
460.43	641.67
460.80	632.50
461.17	625.40
461.54	616.69
461.91	608.62
462.27	599.95
462.64	592.74
463.01	585.43
463.38	578.81
463.74	567.50
464.11	559.86
464.48	553.83
464.85	547.19
465.21	542.83
465.58	538.02
465.95	531.48
466.32	525.95
466.68	521.07
467.05	515.71
467.42	510.71
467.78	505.14
468.15	500.36
468.52	496.76
468.88	490.93
469.25	486.05
469.62	482.45
469.98	478.21
470.35	474.43
470.72	470.76
471.08	466.02
471.45	463.48
471.82	460.93
472.18	457.10
472.55	454.88
472.92	450.98
473.28	447.81
473.65	444.83
474.02	442.45
474.38	440.24
474.75	438.64
475.11	436.10
475.48	434.43
475.85	432.81
476.21	430.88
476.58	429.19
476.94	427.67
477.31	426.48
477.67	425.57
478.04	424.45
478.41	423.62
478.77	424.90
479.14	423.52
479.50	422.43
479.87	422.19
480.23	421.26
480.60	420.64
480.96	420.38
481.33	421.19
481.69	420.88
482.06	420.74
482.42	420.71
482.79	421.07
483.15	421.36
483.52	421.90
483.88	422.45
484.25	422.88
484.61	423.71
484.98	424.00
485.34	425.52
485.71	427.02
486.07	428.00
486.44	427.86
486.80	429.26
487.17	430.69
487.53	432.74
487.90	435.14
488.26	438.31
488.62	440.60
488.99	442.31
489.35	445.24
489.72	448.00
490.08	450.90
490.44	454.07
490.81	457.45
491.17	460.69
491.54	463.76
491.90	468.00
492.26	471.52
492.63	475.62
492.99	479.07
493.36	483.07
493.72	488.24
494.08	492.74
494.45	497.69
494.81	503.02
495.17	508.17
495.54	513.98
495.90	518.29
496.26	523.50
496.63	529.31
496.99	534.88
497.35	540.74
497.72	546.90
498.08	552.74
498.44	558.33
498.80	564.55
499.17	571.17
499.53	577.26
499.89	584.74
500.26	591.64
500.62	599.19
500.98	606.71
501.34	613.29
501.71	621.00
502.07	628.26
502.43	635.19
502.79	642.36
503.16	649.14
503.52	657.10
503.88	664.38
504.24	672.07
504.60	679.76
504.97	688.14
505.33	695.55
505.69	703.95
506.05	712.19
506.41	720.38
506.78	728.81
507.14	736.62
507.50	744.40
507.86	752.88
508.22	760.40
508.59	767.64
508.95	775.95
509.31	784.07
509.67	791.98
510.03	799.95
510.39	807.98
510.75	815.43
511.12	823.21
511.48	831.79
511.84	839.33
512.20	847.31
512.56	854.57
512.92	863.38
513.28	871.36
513.64	878.93
514.00	886.36
514.37	893.36
514.73	901.33
515.09	909.14
515.45	915.64
515.81	923.07
516.17	930.50
516.53	936.88
516.89	942.69
517.25	949.60
517.61	957.31
517.97	964.24
518.33	971.67
518.69	978.12
519.05	985.24
519.41	991.93
519.77	999.19
520.13	1005.50
520.49	1010.31
520.85	1015.93
521.21	1023.26
521.57	1029.62
521.93	1034.88
522.29	1040.86
522.65	1046.02
523.01	1052.48
523.37	1057.76
523.73	1063.62
524.09	1069.14
524.45	1075.40
524.81	1080.60
525.17	1085.83
525.53	1090.50
525.89	1095.60
526.25	1101.21
526.61	1105.12
526.97	1109.60
527.33	1113.83
527.68	1120.05
528.04	1125.29
528.40	1129.90
528.76	1133.95
529.12	1138.29
529.48	1144.55
529.84	1148.79
530.20	1153.81
530.56	1157.88
530.91	1162.52
531.27	1166.60
531.63	1172.00
531.99	1175.43
532.35	1179.62
532.71	1183.40
533.07	1188.19
533.42	1194.52
533.78	1198.98
534.14	1203.33
534.50	1207.67
534.86	1212.57
535.21	1215.48
535.57	1220.12
535.93	1224.12
536.29	1228.69
536.65	1233.57
537.00	1236.26
537.36	1240.60
537.72	1243.69
538.08	1247.79
538.44	1251.31
538.79	1254.74
539.15	1257.74
539.51	1262.21
539.87	1266.45
540.22	1270.21
540.58	1273.71
540.94	1275.69
541.29	1278.64
541.65	1281.71
542.01	1285.81
542.37	1288.60
542.72	1291.50
543.08	1293.48
543.44	1297.36
543.79	1298.90
544.15	1301.21
544.51	1304.88
544.87	1308.07
545.22	1311.67
545.58	1315.05
545.94	1318.48
546.29	1322.45
546.65	1325.60
547.01	1328.24
547.36	1331.02
547.72	1333.64
548.07	1337.57
548.43	1339.74
548.79	1342.81
549.14	1345.95
549.50	1349.36
549.86	1352.12
550.21	1355.24
550.57	1360.12
550.92	1362.79
551.28	1367.36
551.64	1371.00
551.99	1374.83
552.35	1377.43
552.70	1380.52
553.06	1384.21
553.41	1387.26
553.77	1392.17
554.13	1395.83
554.48	1400.69
554.84	1406.24
555.19	1410.88
555.55	1415.38
555.90	1419.62
556.26	1423.98
556.61	1428.95
556.97	1432.17
557.32	1436.43
557.68	1441.07
558.03	1444.17
558.39	1448.57
558.74	1452.29
559.10	1456.33
559.45	1460.83
559.81	1465.52
560.16	1470.26
560.52	1474.48
560.87	1479.86
561.23	1483.07
561.58	1488.83
561.94	1492.98
562.29	1496.60
562.64	1501.26
563.00	1505.05
563.35	1510.12
563.71	1514.67
564.06	1519.17
564.42	1524.83
564.77	1531.29
565.12	1537.26
565.48	1544.95
565.83	1550.98
566.19	1556.62
566.54	1561.98
566.89	1567.40
567.25	1574.14
567.60	1581.90
567.96	1588.93
568.31	1595.00
568.66	1601.74
569.02	1605.98
569.37	1611.26
569.72	1617.12
570.08	1622.57
570.43	1627.36
570.78	1632.57
571.14	1638.83
571.49	1644.38
571.84	1649.43
572.20	1653.26
572.55	1657.71
572.90	1660.48
573.26	1664.26
573.61	1667.29
573.96	1672.36
574.31	1675.50
574.67	1678.93
575.02	1680.38
575.37	1683.21
575.72	1685.83
576.08	1688.62
576.43	1692.60
576.78	1695.24
577.13	1697.69
577.49	1701.69
577.84	1705.64
578.19	1709.83
578.54	1712.83
578.90	1716.07
579.25	1719.26
579.60	1722.24
579.95	1724.12
580.30	1727.17
580.66	1731.45
581.01	1736.17
581.36	1738.67
581.71	1741.95
582.06	1745.90
582.42	1750.24
582.77	1751.93
583.12	1755.38
583.47	1758.10
583.82	1760.90
584.17	1765.10
584.53	1768.29
584.88	1770.26
585.23	1773.07
585.58	1774.71
585.93	1776.21
586.28	1777.79
586.63	1779.21
586.98	1781.12
587.34	1785.05
587.69	1786.43
588.04	1786.93
588.39	1788.57
588.74	1788.52
589.09	1789.81
589.44	1789.21
589.79	1790.12
590.14	1792.26
590.49	1792.64
590.84	1793.69
591.19	1794.29
591.54	1794.31
591.89	1794.64
592.25	1796.74
592.60	1796.60
592.95	1796.76
593.30	1797.71
593.65	1798.57
594.00	1798.14
594.35	1803.88
594.70	1802.10
595.05	1802.31
595.40	1802.26
595.75	1802.50
596.10	1803.98
596.45	1804.55
596.80	1805.26
597.15	1804.98
597.50	1804.86
597.85	1805.33
598.19	1805.05
598.54	1804.90
598.89	1804.60
599.24	1804.79
599.59	1803.07
599.94	1802.26
600.29	1802.45
600.64	1801.38
600.99	1801.00
601.34	1802.67
601.69	1796.69
602.04	1795.76
602.39	1794.79
602.74	1794.52
603.08	1793.05
603.43	1793.00
603.78	1791.55
604.13	1789.86
604.48	1788.21
604.83	1787.50
605.18	1786.43
605.53	1785.02
605.87	1783.48
606.22	1781.21
606.57	1778.17
606.92	1775.50
607.27	1773.55
607.62	1771.43
607.96	1770.24
608.31	1768.31
608.66	1765.43
609.01	1762.74
609.36	1761.74
609.70	1759.43
610.05	1756.48
610.40	1754.05
610.75	1750.74
611.10	1748.21
611.44	1745.45
611.79	1742.10
612.14	1738.74
612.49	1734.79
612.83	1730.83
613.18	1726.38
613.53	1723.02
613.88	1719.33
614.22	1715.33
614.57	1711.26
614.92	1706.88
615.27	1702.19
615.61	1696.90
615.96	1692.12
616.31	1687.62
616.65	1683.17
617.00	1678.95
617.35	1674.50
617.70	1669.71
618.04	1664.26
618.39	1659.26
618.74	1655.48
619.08	1650.74
619.43	1645.33
619.78	1640.38
620.12	1635.95
620.47	1632.26
620.82	1626.88
621.16	1622.07
621.51	1618.31
621.85	1613.29
622.20	1608.14
622.55	1602.45
622.89	1598.12
623.24	1593.79
623.59	1588.62
623.93	1583.69
624.28	1579.14
624.62	1576.86
624.97	1572.90
625.32	1569.38
625.66	1565.43
626.01	1559.95
626.35	1555.26
626.70	1550.62
627.04	1547.40
627.39	1543.21
627.73	1539.62
628.08	1536.21
628.43	1532.33
628.77	1527.07
629.12	1523.52
629.46	1519.31
629.81	1515.12
630.15	1509.05
630.50	1503.67
630.84	1499.05
631.19	1493.88
631.53	1487.55
631.88	1479.21
632.22	1472.29
632.57	1467.02
632.91	1460.81
633.26	1455.76
633.60	1450.43
633.95	1443.95
634.29	1436.64
634.64	1430.14
634.98	1423.14
635.32	1417.86
635.67	1412.67
636.01	1408.02
636.36	1401.36
636.70	1396.71
637.05	1391.50
637.39	1387.93
637.73	1382.86
638.08	1378.52
638.42	1373.05
638.77	1368.71
639.11	1363.64
639.45	1358.81
639.80	1351.52
640.14	1345.69
640.49	1339.45
640.83	1332.81
641.17	1327.57
641.52	1321.79
641.86	1316.64
642.20	1312.36
642.55	1305.38
642.89	1299.10
643.23	1292.36
643.58	1287.90
643.92	1280.29
644.26	1274.29
644.61	1267.38
644.95	1260.81
645.29	1253.21
645.64	1247.05
645.98	1240.43
646.32	1234.88
646.66	1227.64
647.01	1221.60
647.35	1215.19
647.69	1209.10
648.04	1203.36
648.38	1196.48
648.72	1190.31
649.06	1183.64
649.41	1175.60
649.75	1169.05
650.09	1162.60
650.43	1155.76
650.78	1148.14
651.12	1141.71
651.46	1134.71
651.80	1128.05
652.14	1120.86
652.49	1115.24
652.83	1108.24
653.17	1101.48
653.51	1093.74
653.85	1088.17
654.20	1081.43
654.54	1074.98
654.88	1067.40
655.22	1061.36
655.56	1055.43
655.90	1048.88
656.25	1042.33
656.59	1036.29
656.93	1030.79
657.27	1025.12
657.61	1018.76
657.95	1012.71
658.29	1006.69
658.64	1000.86
658.98	994.10
659.32	987.64
659.66	981.50
660.00	974.88
660.34	968.64
660.68	962.62
661.02	955.45
661.36	949.74
661.70	944.14
662.05	938.95
662.39	933.50
662.73	928.10
663.07	923.24
663.41	917.10
663.75	910.57
664.09	903.95
664.43	896.88
664.77	890.57
665.11	883.79
665.45	877.88
665.79	871.90
666.13	866.26
666.47	860.86
666.81	854.36
667.15	849.10
667.49	843.90
667.83	839.52
668.17	834.38
668.51	829.02
668.85	823.31
669.19	818.69
669.53	812.21
669.87	806.26
670.21	800.43
670.55	794.64
670.89	790.50
671.23	785.52
671.57	780.64
671.91	775.62
672.25	771.14
672.58	766.31
672.92	760.74
673.26	756.14
673.60	751.17
673.94	746.50
674.28	742.00
674.62	737.76
674.96	731.93
675.30	727.69
675.64	722.76
675.97	718.48
676.31	713.05
676.65	708.26
676.99	704.45
677.33	699.31
677.67	695.00
678.01	689.33
678.34	684.81
678.68	680.19
679.02	675.86
679.36	671.19
679.70	666.26
680.04	661.74
680.37	656.86
680.71	652.62
681.05	648.55
681.39	644.07
681.73	638.71
682.06	634.31
682.40	629.98
682.74	626.21
683.08	622.14
683.42	617.81
683.75	613.71
684.09	608.88
684.43	604.71
684.77	600.40
685.10	596.48
685.44	591.88
685.78	587.45
686.12	583.33
686.45	578.79
686.79	574.67
687.13	571.24
687.46	567.19
687.80	563.24
688.14	558.38
688.48	554.33
688.81	550.43
689.15	547.02
689.49	542.76
689.82	538.36
690.16	533.93
690.50	530.07
690.83	526.48
691.17	522.24
691.51	518.12
691.84	514.57
692.18	510.83
692.52	507.76
692.85	504.60
693.19	501.74
693.52	498.40
693.86	495.10
694.20	491.21
694.53	487.95
694.87	484.17
695.21	480.88
695.54	477.31
695.88	474.00
696.21	470.05
696.55	466.74
696.88	463.64
697.22	460.29
697.56	457.10
697.89	453.88
698.23	451.55
698.56	448.71
698.90	445.98
699.23	442.90
699.57	439.86
699.90	436.64
700.24	433.38
700.58	430.62
700.91	427.90
701.25	427.05
701.58	425.19
701.92	423.29
702.25	421.21
702.59	418.36
702.92	415.74
703.26	413.62
703.59	411.14
703.93	410.64
704.26	408.38
704.60	406.02
704.93	403.31
705.26	400.36
705.60	398.57
705.93	395.81
706.27	394.36
706.60	392.60
706.94	391.31
707.27	388.71
707.61	386.93
707.94	384.74
708.27	380.79
708.61	377.95
708.94	375.60
709.28	373.43
709.61	371.52
709.94	369.88
710.28	368.02
710.61	366.29
710.95	362.17
711.28	361.55
711.61	360.00
711.95	359.05
712.28	357.36
712.61	354.98
712.95	354.40
713.28	353.36
713.61	351.14
713.95	348.79
714.28	347.57
714.61	345.83
714.95	343.76
715.28	342.19
715.61	340.19
715.95	338.64
716.28	337.07
716.61	335.74
716.95	334.05
717.28	331.83
717.61	329.95
717.94	328.67
718.28	325.74
718.61	323.93
718.94	322.02
719.27	320.31
719.61	319.40
719.94	317.19
720.27	314.43
720.60	312.76
720.94	311.55
721.27	310.17
721.60	309.07
721.93	308.26
722.27	307.93
722.60	307.24
722.93	305.90
723.26	304.52
723.59	303.21
723.93	302.21
724.26	301.64
724.59	300.60
724.92	299.60
725.25	299.29
725.59	298.36
725.92	297.43
726.25	296.62
726.58	295.71
726.91	295.07
727.24	294.81
727.57	294.26
727.91	292.86
728.24	292.14
728.57	290.95
728.90	290.07
729.23	288.48
729.56	288.33
729.89	287.60
730.22	286.71
730.55	285.76
730.89	285.02
731.22	284.26
731.55	283.26
731.88	282.67
732.21	281.36
732.54	280.38
732.87	279.55
733.20	279.05
733.53	278.31
733.86	277.67
734.19	276.29
734.52	275.67
734.85	276.38
735.18	275.33
735.51	275.33
735.84	274.71
736.17	274.57
736.50	273.05
736.83	274.60
737.16	274.24
737.49	273.93
737.82	273.17
738.15	272.71
738.48	272.40
738.81	271.60
739.14	270.71
739.47	270.12
739.80	269.40
740.13	268.64
740.46	267.50
740.79	266.40
741.12	265.93
741.45	264.95
741.78	263.60
742.11	263.64
742.44	262.74
742.77	262.64
743.10	261.52
743.43	260.88
743.75	258.24
744.08	260.00
744.41	259.33
744.74	258.50
745.07	257.33
745.40	257.24
745.73	257.45
746.06	257.19
746.39	256.95
746.71	256.21
747.04	255.45
747.37	255.12
747.70	255.05
748.03	254.57
748.36	254.57
748.68	253.88
749.01	252.60
749.34	251.90
749.67	251.17
750.00	251.36
750.33	252.38
750.65	252.17
750.98	249.43
751.31	249.00
751.64	248.90
751.97	249.83
752.29	248.90
752.62	247.62
752.95	247.14
753.28	246.50
753.60	246.24
753.93	246.45
754.26	246.26
754.59	245.45
754.91	245.02
755.24	244.48
755.57	243.83
755.90	243.76
756.22	243.31
756.55	242.48
756.88	241.48
757.20	239.86
757.53	238.93
757.86	238.57
758.19	238.43
758.51	238.05
758.84	236.67
759.17	236.36
759.49	236.19
759.82	236.86
760.15	236.88
760.47	236.67
760.80	235.83
761.13	235.76
761.45	235.40
761.78	235.21
762.11	235.00
762.43	235.02
762.76	234.69
763.08	234.67
763.41	234.71
763.74	234.43
764.06	234.05
764.39	234.02
764.71	233.71
765.04	233.14
765.37	232.86
765.69	232.79
766.02	232.67
766.34	232.26
766.67	231.17
767.00	231.10
767.32	232.05
767.65	233.02
767.97	232.76
768.30	232.48
768.62	232.19
768.95	231.50
769.27	231.17
769.60	231.19
769.92	230.38
770.25	229.95
770.57	229.36
770.90	229.14
771.22	228.45
771.55	228.31
771.87	228.29
772.20	227.86
772.52	229.45
772.85	231.88
773.17	231.86
773.50	231.69
773.82	231.21
774.15	229.71
774.47	228.24
774.80	227.76
775.12	227.95
775.45	227.88
775.77	228.17
776.09	228.07
776.42	227.86
776.74	228.64
777.07	228.19
777.39	228.31
777.72	228.21
778.04	228.43
778.36	228.10
778.69	227.83
779.01	227.93
779.33	225.90
779.66	223.40
779.98	223.24
780.31	223.33
780.63	224.17
780.95	224.79
781.28	224.81
781.60	224.52
781.92	224.29
782.25	224.12
782.57	223.81
782.89	223.52
783.22	223.40
783.54	222.74
783.86	222.93
784.19	222.86
784.51	223.24
784.83	222.98
785.16	223.07
785.48	223.05
785.80	223.17
786.12	223.38
786.45	223.05
786.77	223.05
787.09	222.55
787.42	221.69
787.74	221.48
788.06	221.43
788.38	221.29
788.71	220.83
789.03	220.83
789.35	221.00
789.67	220.74
789.99	220.69
790.32	220.60
790.64	220.76
790.96	222.48
791.28	221.79
791.61	221.64
791.93	221.26
792.25	221.45
792.57	222.79
792.89	222.29
793.21	222.21
793.54	222.10
793.86	222.05
794.18	222.02
794.50	221.69
794.82	221.74
795.14	222.29
795.47	222.76
795.79	222.81
796.11	222.33
796.43	222.05
796.75	222.10
797.07	222.29
797.39	222.10
797.71	220.48
798.04	220.45
798.36	220.55
798.68	220.48
799.00	220.57
799.32	219.07
799.64	219.48
799.96	219.52
800.28	219.76
800.60	219.57
800.92	219.62
801.24	219.31
801.56	219.57
801.89	219.26
802.21	219.29
802.53	218.81
802.85	219.07
803.17	220.21
803.49	219.69
803.81	219.36
804.13	219.31
804.45	219.17
804.77	219.43
805.09	219.50
805.41	219.36
805.73	218.81
806.05	218.50
806.37	218.19
806.69	217.90
807.01	217.76
807.33	217.98
807.65	217.21
807.97	218.12
808.28	217.79
808.60	217.55
808.92	217.45
809.24	218.81
809.56	218.62
809.88	217.86
810.20	217.93
810.52	218.38
810.84	217.98
811.16	217.52
811.48	217.29
811.80	217.90
812.12	218.14
812.43	218.45
812.75	218.83
813.07	218.45
813.39	218.88
813.71	218.24
814.03	217.74
814.35	217.76
814.67	216.98
814.98	216.67
815.30	216.74
815.62	216.14
815.94	214.62
816.26	214.79
816.58	214.43
816.89	214.55
817.21	214.02
817.53	214.31
817.85	214.52
818.17	214.57
818.48	213.79
818.80	213.98
819.12	213.45
819.44	212.95
819.76	212.76
820.07	212.57
820.39	212.95
820.71	213.24
821.03	213.45
821.34	213.43
821.66	213.71
821.98	213.86
822.30	213.88
822.61	215.12
822.93	214.74
823.25	214.93
823.57	214.81
823.88	215.02
824.20	214.95
824.52	215.24
824.83	215.05
825.15	214.62
825.47	214.57
825.79	214.98
826.10	214.74
826.42	214.93
826.74	215.17
827.05	214.86
827.37	214.98
827.69	214.86
828.00	214.76
828.32	214.81
828.64	214.69
828.95	215.83
829.27	215.29
829.58	215.48
829.90	215.74
830.22	215.83
830.53	215.45
830.85	215.24
831.17	214.69
831.48	214.76
831.80	215.00
832.11	214.74
832.43	214.64
832.75	214.81
833.06	216.00
833.38	215.24
833.69	215.29
834.01	215.24
834.32	215.26
834.64	215.12
834.96	215.00
835.27	214.83
835.59	214.12
835.90	213.60
836.22	213.50
836.53	213.17
836.85	212.86
837.16	214.98
837.48	215.00
837.79	215.79
838.11	215.86
838.42	216.12
838.74	216.36
839.05	215.98
839.37	215.90
839.68	214.67
840.00	214.60
840.31	215.10
840.63	215.14
840.94	214.95
841.26	214.64
841.57	214.38
841.88	214.62
842.20	214.31
842.51	214.29
842.83	214.21
843.14	215.93
843.46	216.07
843.77	214.83
844.08	214.79
844.40	214.19
844.71	213.98
845.03	213.81
845.34	213.55
845.65	213.62
845.97	213.76
846.28	213.81
846.60	214.21
846.91	213.62
847.22	213.55
847.54	213.88
847.85	214.07
848.16	214.26
848.48	213.83
848.79	214.76
849.10	215.00
849.42	215.17
849.73	213.29
850.04	213.26
850.36	212.43
850.67	212.76
850.98	212.60
851.30	212.98
851.61	212.76
851.92	212.86
852.23	213.60
852.55	213.67
852.86	213.71
853.17	213.76
853.49	214.31
853.80	214.76
854.11	215.02
854.42	215.50
854.74	215.10
855.05	215.21
855.36	214.19
855.67	214.33
855.99	214.40
856.30	216.95
856.61	216.83
856.92	217.33
857.23	217.29
857.55	217.33
857.86	217.10
858.17	217.67
858.48	217.24
858.79	216.71
859.11	216.93
859.42	216.95
859.73	216.55
860.04	216.55
860.35	215.64
860.66	214.79
860.98	214.48
861.29	215.00
861.60	214.98
861.91	215.29
862.22	214.79
862.53	214.38
862.84	211.64
863.16	212.14
863.47	211.48
863.78	211.29
864.09	211.43
864.40	211.52
864.71	211.24
865.02	211.60
865.33	211.24
865.64	210.79
865.95	210.67
866.27	212.17
866.58	211.86
866.89	212.29
867.20	212.57
867.51	212.43
867.82	212.26
868.13	212.83
868.44	212.26
868.75	213.02
869.06	213.14
869.37	213.43
869.68	212.74
869.99	213.05
870.30	213.29
870.61	213.57
870.92	213.17
871.23	213.17
871.54	213.45
871.85	214.10
872.16	214.17
872.47	214.17
872.78	212.79
873.09	212.93
873.40	212.81
873.71	212.71
874.02	212.57
874.33	212.21
874.64	211.67
874.95	212.36
875.26	211.52
875.56	211.55
875.87	211.45
876.18	211.64
876.49	213.86
876.80	213.67
877.11	213.12
877.42	213.43
877.73	213.29
878.04	212.95
878.35	212.62
878.66	212.67
878.96	212.69
879.27	213.02
879.58	212.88
879.89	212.83
880.20	213.36
880.51	213.71
880.82	213.88
881.12	214.10
881.43	213.40
881.74	213.31
882.05	213.31
882.36	213.62
882.67	213.71
882.97	211.57
883.28	211.50
883.59	211.55
883.90	211.57
884.21	211.88
884.51	211.62
884.82	211.40
885.13	211.71
885.44	211.74
885.74	211.57
886.05	211.67
886.36	211.57
886.67	211.05
886.98	211.95
887.28	212.21
887.59	212.07
887.90	212.29
888.20	212.29
888.51	212.43
888.82	211.95
889.13	212.19
889.43	213.76
889.74	213.67
890.05	213.74
890.35	213.36
890.66	213.14
890.97	213.43
891.28	213.33
891.58	213.21
891.89	212.98
892.20	212.71
892.50	212.43
892.81	212.29
893.12	212.40
893.42	211.38
893.73	211.17
894.04	211.26
894.34	211.50
894.65	211.55
894.95	211.62
895.26	211.93
895.57	212.60
895.87	210.62
896.18	211.02
896.48	211.14
896.79	211.38
897.10	211.50
897.40	211.45
897.71	211.83
898.01	211.62
898.32	212.00
898.63	212.19
898.93	212.45
899.24	212.64
899.54	212.31
899.85	212.29
900.15	212.24
900.46	212.12
900.76	212.14
901.07	212.17
901.38	212.07
901.68	212.12
901.99	211.24
902.29	211.67
902.60	211.48
902.90	211.19
903.21	211.14
903.51	211.05
903.82	211.38
904.12	211.29
904.43	211.43
904.73	211.26
905.03	211.38
905.34	213.33
905.64	213.07
905.95	213.21
906.25	213.19
906.56	213.26
906.86	213.31
907.17	213.12
907.47	213.12
907.77	212.90
908.08	212.43
908.38	212.64
908.69	212.69
908.99	212.76
909.30	212.95
909.60	212.90
909.90	212.83
910.21	212.14
910.51	212.05
910.81	212.00
911.12	212.02
911.42	211.86
911.73	209.55
912.03	209.76
912.33	210.21
912.64	210.17
912.94	209.81
913.24	209.50
913.55	209.62
913.85	209.60
914.15	209.88
914.46	210.19
914.76	209.98
915.06	209.74
915.37	209.55
915.67	209.38
915.97	209.55
916.27	209.24
916.58	209.38
916.88	209.31
917.18	209.57
917.49	210.90
917.79	210.76
918.09	211.19
918.39	211.69
918.70	211.50
919.00	211.50
919.30	212.60
919.60	212.57
919.91	212.21
920.21	212.36
920.51	212.12
920.81	212.36
921.12	212.57
921.42	212.52
921.72	212.60
922.02	212.90
922.32	213.12
922.63	213.21
922.93	214.52
923.23	214.64
923.53	213.83
923.83	212.76
924.13	212.93
924.44	212.71
924.74	213.02
925.04	213.38
925.34	213.60
925.64	212.81
925.94	213.00
926.24	214.50
926.55	214.17
926.85	214.26
927.15	213.88
927.45	213.86
927.75	213.90
928.05	213.93
928.35	213.45
928.65	213.81
928.95	214.14
929.26	213.29
929.56	213.57
929.86	214.02
930.16	213.57
930.46	213.40
930.76	213.67
931.06	212.86
931.36	212.45
931.66	212.71
931.96	212.86
932.26	212.76
932.56	211.76
932.86	212.17
933.16	212.33
933.46	212.48
933.76	212.12
934.06	212.60
934.36	213.33
934.66	213.36
934.96	212.71
935.26	212.67
935.56	212.79
935.86	212.29
936.16	212.17
936.46	212.17
936.76	212.07
937.06	211.71
937.36	211.88
937.66	212.05
937.96	211.52
938.26	211.12
938.56	211.14
938.86	211.21
939.16	211.57
939.46	211.69
939.76	211.79
940.06	212.05
940.35	211.38
940.65	210.40
940.95	210.83
941.25	210.83
941.55	210.79
941.85	210.74
942.15	211.43
942.45	212.02
942.75	212.10
943.04	212.31
943.34	212.88
943.64	212.76
943.94	212.31
944.24	212.62
944.54	212.90
944.84	212.81
945.13	212.45
945.43	211.93
945.73	211.90
946.03	211.79
946.33	211.48
946.62	211.48
946.92	211.57
947.22	211.57
947.52	211.50
947.82	211.67
948.11	211.31
948.41	210.60
948.71	210.12
949.01	210.26
949.31	210.10
949.60	209.76
949.90	210.00
950.20	210.17
950.50	210.19
950.79	209.98
951.09	210.40
951.39	210.74
951.69	210.60
951.98	210.95
952.28	210.81
952.58	210.76
952.87	210.71
953.17	211.19
953.47	210.93
953.76	210.88
954.06	210.57
954.36	210.40
954.66	210.29
954.95	210.81
955.25	210.86
955.55	211.29
955.84	210.98
956.14	211.07
956.44	211.12
956.73	210.71
957.03	210.98
957.32	210.76
957.62	210.26
957.92	210.81
958.21	210.40
958.51	213.00
958.81	213.31
959.10	213.62
959.40	213.93
959.69	214.14
959.99	214.71
960.29	214.71
960.58	214.57
960.88	215.50
961.17	215.31
961.47	215.40
961.76	215.12
962.06	215.57
962.36	215.55
962.65	215.57
962.95	215.69
963.24	215.36
963.54	215.50
963.83	215.86
964.13	215.62
964.42	215.26
964.72	213.57
965.01	213.38
965.31	213.31
965.60	212.79
965.90	214.05
966.19	213.26
966.49	213.40
966.78	213.50
967.08	213.36
967.37	213.14
967.67	212.71
967.96	212.88
968.26	212.98
968.55	213.07
968.85	213.05
969.14	213.02
969.43	213.31
969.73	212.98
970.02	212.88
970.32	213.02
970.61	213.07
970.91	212.29
971.20	212.17
971.49	211.71
971.79	211.98
972.08	210.26
972.38	210.64
972.67	210.40
972.96	210.71
973.26	210.21
973.55	210.74
973.85	210.88
974.14	210.88
974.43	210.88
974.73	210.40
975.02	210.14
975.31	210.17
975.61	210.02
975.90	210.00
976.19	209.69
976.49	209.52
976.78	209.57
977.07	209.55
977.37	209.83
977.66	210.36
977.95	209.90
978.24	210.24
978.54	210.45
978.83	210.40
979.12	210.21
979.42	210.29
979.71	210.10
980.00	209.90
980.29	209.90
980.59	209.33
980.88	210.00
981.17	210.05
981.46	209.95
981.76	210.05
982.05	210.57
982.34	210.90
982.63	211.00
982.93	210.90
983.22	211.67
983.51	211.55
983.80	211.67
984.09	211.88
984.39	211.71
984.68	211.64
984.97	211.74
985.26	211.71
985.55	211.83
985.85	211.21
986.14	211.69
986.43	211.86
986.72	211.86
987.01	211.10
987.30	211.07
987.59	211.12
987.89	211.05
988.18	210.50
988.47	210.24
988.76	209.98
989.05	209.83
989.34	209.29
989.63	209.83
989.92	209.55
990.22	209.38
990.51	209.31
990.80	209.02
991.09	209.07
991.38	209.24
991.67	209.00
991.96	209.10
992.25	208.90
992.54	208.64
992.83	208.83
993.12	208.79
993.41	209.26
993.70	209.95
993.99	210.36
994.28	210.81
994.58	211.17
994.87	211.14
995.16	211.17
995.45	211.17
995.74	210.55
996.03	210.98
996.32	211.26
996.61	211.64
996.90	211.69
997.19	211.52
997.48	211.60
997.77	211.62
998.06	211.67
998.34	211.62
998.63	211.62
998.92	211.50
999.21	211.76
999.50	211.76
999.79	211.24
1000.08	211.00
1000.37	210.98
1000.66	210.57
1000.95	211.05
1001.24	211.36
1001.53	211.52
1001.82	211.40
1002.11	210.83
1002.40	211.10
1002.68	211.83
1002.97	213.36
1003.26	213.29
1003.55	213.00
1003.84	212.88
1004.13	213.60
1004.42	213.57
1004.71	213.48
1004.99	213.62
1005.28	214.17
1005.57	213.74
1005.86	213.52
1006.15	213.48
1006.44	213.12
1006.72	213.48
1007.01	213.00
1007.30	212.69
1007.59	212.38
1007.88	212.33
1008.17	212.50
1008.45	211.95
1008.74	211.02
1009.03	210.17
1009.32	210.12
1009.60	210.02
1009.89	209.98
1010.18	209.10
1010.47	209.07
1010.76	208.88
1011.04	208.83
1011.33	209.07
1011.62	209.45
1011.91	209.57
1012.19	209.88
1012.48	210.12
1012.77	210.05
1013.05	210.95
1013.34	211.00
1013.63	210.79
1013.92	210.95
1014.20	210.86
1014.49	211.07
1014.78	211.26
1015.06	210.45
1015.35	210.62
1015.64	210.93
1015.92	211.31
1016.21	211.55
1016.50	211.45
1016.78	211.98
1017.07	212.19
1017.36	211.50
1017.64	211.29
1017.93	211.26
1018.22	210.93
1018.50	210.67
1018.79	210.55
1019.08	209.76
1019.36	210.00
1019.65	210.10
1019.93	210.48
1020.22	210.76
1020.51	211.76
1020.79	211.45
1021.08	209.50
1021.36	206.00
1021.65	209.50
1021.94	210.00
1022.22	211.50
1022.51	207.50
1022.79	216.00
1023.08	214.00
1023.36	236.00
1023.65	205.00
>>>>>End Processed Spectral Data<<<<<
