SpectraSuite Data File
++++++++++++++++++++++++++++++++++++
Date: Tue Apr 02 18:42:43 EDT 2013
User: group
Dark Spectrum Present: No
Reference Spectrum Present: No
Number of Sampled Component Spectra: 1
Spectrometers: USB2E7196
Integration Time (usec): 580000 (USB2E7196)
Spectra Averaged: 2 (USB2E7196)
Boxcar Smoothing: 10 (USB2E7196)
Correct for Electrical Dark: No (USB2E7196)
Strobe/Lamp Enabled: No (USB2E7196)
Correct for Detector Non-linearity: No (USB2E7196)
Correct for Stray Light: No (USB2E7196)
Number of Pixels in Processed Spectrum: 2048
>>>>>Begin Processed Spectral Data<<<<<
339.09	0.00
339.48	191.00
339.86	194.00
340.24	198.50
340.63	198.00
341.01	234.50
341.39	205.00
341.78	207.00
342.16	210.00
342.54	204.50
342.93	198.05
343.31	207.88
343.69	208.67
344.07	209.10
344.46	209.76
344.84	210.33
345.22	209.12
345.60	209.76
345.99	210.10
346.37	209.98
346.75	210.10
347.13	210.12
347.52	210.29
347.90	211.00
348.28	210.88
348.66	211.24
349.05	210.64
349.43	210.86
349.81	211.14
350.19	211.10
350.57	211.50
350.96	211.83
351.34	212.17
351.72	212.21
352.10	212.60
352.48	212.31
352.87	212.31
353.25	212.33
353.63	211.83
354.01	211.67
354.39	211.83
354.77	211.76
355.15	212.60
355.54	212.45
355.92	211.62
356.30	211.69
356.68	212.81
357.06	213.00
357.44	212.86
357.82	212.86
358.20	214.07
358.58	213.74
358.97	213.83
359.35	214.07
359.73	214.55
360.11	214.45
360.49	214.81
360.87	214.69
361.25	215.14
361.63	215.90
362.01	216.31
362.39	216.07
362.77	216.48
363.15	216.31
363.53	216.24
363.91	216.52
364.29	216.43
364.67	214.57
365.05	214.62
365.43	214.71
365.81	214.83
366.19	214.76
366.57	215.62
366.95	215.36
367.33	214.76
367.71	214.95
368.09	215.26
368.47	215.19
368.85	215.17
369.23	215.31
369.61	214.64
369.99	215.07
370.37	215.48
370.75	216.52
371.13	215.98
371.51	215.74
371.89	215.81
372.27	216.05
372.65	216.36
373.03	216.40
373.41	216.26
373.78	216.21
374.16	215.02
374.54	214.45
374.92	214.38
375.30	214.55
375.68	213.88
376.06	213.90
376.44	213.88
376.82	214.10
377.19	213.98
377.57	213.81
377.95	213.02
378.33	212.93
378.71	211.55
379.09	211.86
379.47	212.40
379.84	212.29
380.22	212.07
380.60	211.81
380.98	211.76
381.36	211.76
381.73	211.26
382.11	211.71
382.49	211.69
382.87	211.36
383.25	211.57
383.62	213.93
384.00	213.62
384.38	213.64
384.76	213.93
385.13	214.71
385.51	214.74
385.89	214.64
386.27	214.81
386.64	215.38
387.02	215.40
387.40	215.10
387.78	215.00
388.15	215.24
388.53	215.07
388.91	215.07
389.29	214.86
389.66	215.33
390.04	215.24
390.42	215.55
390.79	215.86
391.17	215.57
391.55	213.33
391.92	213.33
392.30	213.38
392.68	213.14
393.05	213.00
393.43	213.07
393.81	213.17
394.18	212.79
394.56	212.79
394.94	213.07
395.31	212.93
395.69	213.81
396.06	214.02
396.44	214.14
396.82	214.07
397.19	215.02
397.57	214.98
397.95	215.29
398.32	214.93
398.70	215.07
399.07	215.76
399.45	215.81
399.82	216.05
400.20	216.14
400.58	216.14
400.95	215.50
401.33	215.98
401.70	217.48
402.08	217.71
402.45	217.60
402.83	218.00
403.20	218.21
403.58	217.90
403.95	218.14
404.33	218.67
404.71	219.02
405.08	220.38
405.46	220.62
405.83	220.86
406.21	220.98
406.58	221.64
406.96	221.62
407.33	222.26
407.70	222.88
408.08	224.88
408.45	225.74
408.83	226.55
409.20	227.29
409.58	226.93
409.95	227.95
410.33	229.02
410.70	229.48
411.08	230.86
411.45	232.02
411.82	232.81
412.20	234.43
412.57	236.71
412.95	236.33
413.32	238.24
413.69	239.71
414.07	241.57
414.44	243.43
414.82	245.45
415.19	247.60
415.56	249.83
415.94	250.90
416.31	253.69
416.68	256.50
417.06	259.60
417.43	262.76
417.81	266.60
418.18	270.50
418.55	274.19
418.93	278.02
419.30	282.17
419.67	286.86
420.04	291.07
420.42	295.19
420.79	302.26
421.16	307.81
421.54	314.86
421.91	320.90
422.28	326.83
422.66	333.67
423.03	341.88
423.40	348.90
423.77	356.29
424.15	363.90
424.52	371.83
424.89	380.50
425.26	388.31
425.64	395.79
426.01	403.62
426.38	412.93
426.75	422.12
427.13	431.64
427.50	441.33
427.87	451.69
428.24	461.64
428.61	470.19
428.99	481.50
429.36	492.00
429.73	503.29
430.10	515.33
430.47	527.10
430.85	537.57
431.22	550.07
431.59	564.81
431.96	577.05
432.33	591.02
432.70	604.76
433.08	621.26
433.45	636.19
433.82	651.88
434.19	668.69
434.56	686.36
434.93	701.79
435.30	717.95
435.68	735.86
436.05	753.57
436.42	770.45
436.79	785.93
437.16	803.40
437.53	821.52
437.90	838.93
438.27	856.26
438.64	875.12
439.01	891.86
439.38	906.12
439.75	921.21
440.13	938.40
440.50	954.29
440.87	967.10
441.24	981.38
441.61	995.76
441.98	1006.36
442.35	1017.69
442.72	1030.88
443.09	1044.17
443.46	1051.31
443.83	1056.62
444.20	1061.74
444.57	1068.17
444.94	1070.90
445.31	1074.60
445.68	1080.14
446.05	1081.86
446.42	1080.31
446.79	1079.12
447.16	1076.90
447.53	1075.74
447.90	1068.67
448.27	1061.31
448.64	1052.64
449.01	1045.98
449.37	1035.00
449.74	1024.17
450.11	1012.76
450.48	998.00
450.85	981.98
451.22	969.55
451.59	957.43
451.96	945.79
452.33	930.50
452.70	916.48
453.07	899.10
453.43	880.00
453.80	863.60
454.17	847.26
454.54	832.05
454.91	815.90
455.28	800.00
455.65	785.57
456.02	774.98
456.38	762.07
456.75	746.50
457.12	733.43
457.49	720.48
457.86	706.57
458.23	696.71
458.59	685.31
458.96	673.24
459.33	661.98
459.70	651.29
460.07	642.55
460.43	633.10
460.80	624.50
461.17	616.62
461.54	608.40
461.91	600.36
462.27	592.07
462.64	585.36
463.01	578.19
463.38	571.55
463.74	560.33
464.11	553.98
464.48	548.12
464.85	541.40
465.21	537.45
465.58	532.26
465.95	525.21
466.32	520.02
466.68	514.52
467.05	509.95
467.42	505.12
467.78	499.33
468.15	494.14
468.52	490.21
468.88	484.74
469.25	479.98
469.62	476.67
469.98	473.02
470.35	468.67
470.72	464.86
471.08	459.98
471.45	457.48
471.82	454.48
472.18	450.81
472.55	448.57
472.92	444.43
473.28	441.81
473.65	439.02
474.02	436.21
474.38	434.57
474.75	432.40
475.11	429.67
475.48	428.29
475.85	426.69
476.21	424.95
476.58	423.60
476.94	422.33
477.31	420.76
477.67	419.60
478.04	418.71
478.41	417.79
478.77	418.98
479.14	417.57
479.50	416.50
479.87	416.21
480.23	415.57
480.60	415.14
480.96	414.52
481.33	415.79
481.69	415.69
482.06	415.67
482.42	416.29
482.79	416.86
483.15	417.24
483.52	418.10
483.88	418.57
484.25	419.26
484.61	420.43
484.98	421.31
485.34	422.95
485.71	424.71
486.07	425.76
486.44	425.48
486.80	427.21
487.17	428.83
487.53	431.36
487.90	433.64
488.26	437.24
488.62	440.24
488.99	441.71
489.35	444.57
489.72	447.07
490.08	449.86
490.44	452.79
490.81	455.88
491.17	458.71
491.54	461.79
491.90	465.40
492.26	469.05
492.63	473.10
492.99	476.10
493.36	480.02
493.72	484.81
494.08	489.26
494.45	494.31
494.81	499.24
495.17	503.33
495.54	508.50
495.90	512.40
496.26	517.19
496.63	522.67
496.99	528.12
497.35	533.76
497.72	539.48
498.08	545.33
498.44	551.62
498.80	558.60
499.17	565.26
499.53	571.40
499.89	578.12
500.26	584.43
500.62	591.71
500.98	598.95
501.34	605.45
501.71	612.79
502.07	619.74
502.43	627.14
502.79	634.38
503.16	641.29
503.52	648.76
503.88	655.64
504.24	663.07
504.60	670.52
504.97	678.43
505.33	685.79
505.69	694.26
506.05	702.02
506.41	709.29
506.78	716.95
507.14	724.57
507.50	732.14
507.86	740.36
508.22	747.74
508.59	754.90
508.95	763.17
509.31	772.12
509.67	779.88
510.03	787.69
510.39	795.60
510.75	803.76
511.12	811.26
511.48	819.26
511.84	826.40
512.20	834.36
512.56	842.05
512.92	849.69
513.28	857.10
513.64	864.57
514.00	872.05
514.37	879.86
514.73	887.76
515.09	895.55
515.45	902.74
515.81	909.69
516.17	916.60
516.53	922.93
516.89	928.40
517.25	935.64
517.61	942.50
517.97	949.33
518.33	955.64
518.69	962.45
519.05	969.07
519.41	975.83
519.77	982.69
520.13	988.14
520.49	994.02
520.85	999.38
521.21	1006.07
521.57	1012.07
521.93	1016.60
522.29	1022.67
522.65	1026.98
523.01	1031.93
523.37	1037.69
523.73	1043.26
524.09	1048.76
524.45	1054.36
524.81	1058.71
525.17	1063.50
525.53	1067.98
525.89	1072.62
526.25	1078.19
526.61	1082.29
526.97	1087.10
527.33	1091.24
527.68	1097.67
528.04	1101.57
528.40	1105.71
528.76	1108.76
529.12	1112.95
529.48	1118.31
529.84	1121.38
530.20	1126.02
530.56	1129.88
530.91	1134.10
531.27	1138.52
531.63	1142.55
531.99	1145.26
532.35	1149.48
532.71	1153.55
533.07	1157.60
533.42	1163.88
533.78	1167.12
534.14	1172.26
534.50	1175.86
534.86	1180.05
535.21	1182.83
535.57	1187.74
535.93	1192.14
536.29	1196.60
536.65	1200.74
537.00	1204.29
537.36	1207.93
537.72	1211.24
538.08	1215.50
538.44	1218.74
538.79	1221.76
539.15	1225.05
539.51	1229.57
539.87	1232.67
540.22	1236.45
540.58	1240.45
540.94	1242.14
541.29	1245.38
541.65	1247.38
542.01	1251.02
542.37	1253.90
542.72	1255.62
543.08	1258.33
543.44	1261.76
543.79	1263.02
544.15	1266.02
544.51	1269.55
544.87	1272.88
545.22	1276.26
545.58	1279.38
545.94	1282.64
546.29	1285.98
546.65	1289.67
547.01	1291.69
547.36	1294.52
547.72	1296.29
548.07	1298.26
548.43	1300.12
548.79	1302.88
549.14	1305.17
549.50	1308.19
549.86	1310.36
550.21	1314.17
550.57	1317.38
550.92	1319.00
551.28	1324.29
551.64	1326.88
551.99	1329.21
552.35	1332.45
552.70	1335.26
553.06	1338.10
553.41	1340.88
553.77	1345.52
554.13	1348.64
554.48	1353.95
554.84	1358.52
555.19	1363.19
555.55	1368.52
555.90	1372.60
556.26	1376.86
556.61	1381.29
556.97	1384.26
557.32	1388.26
557.68	1391.81
558.03	1395.07
558.39	1399.60
558.74	1402.38
559.10	1406.50
559.45	1411.60
559.81	1416.17
560.16	1420.52
560.52	1424.98
560.87	1430.24
561.23	1432.74
561.58	1438.17
561.94	1441.36
562.29	1444.69
562.64	1448.90
563.00	1452.29
563.35	1457.17
563.71	1461.02
564.06	1466.02
564.42	1471.10
564.77	1477.07
565.12	1483.76
565.48	1490.93
565.83	1497.05
566.19	1503.29
566.54	1508.33
566.89	1512.86
567.25	1518.88
567.60	1526.43
567.96	1534.00
568.31	1541.05
568.66	1547.86
569.02	1552.07
569.37	1557.76
569.72	1564.26
570.08	1569.19
570.43	1574.71
570.78	1580.95
571.14	1587.50
571.49	1593.12
571.84	1598.74
572.20	1603.02
572.55	1607.05
572.90	1610.83
573.26	1615.36
573.61	1619.50
573.96	1624.55
574.31	1629.14
574.67	1633.00
575.02	1634.88
575.37	1636.57
575.72	1638.79
576.08	1642.36
576.43	1646.71
576.78	1650.62
577.13	1653.67
577.49	1657.95
577.84	1662.52
578.19	1666.00
578.54	1669.19
578.90	1673.55
579.25	1677.29
579.60	1681.02
579.95	1683.52
580.30	1686.90
580.66	1689.95
581.01	1693.43
581.36	1696.29
581.71	1699.14
582.06	1702.76
582.42	1706.93
582.77	1709.33
583.12	1711.69
583.47	1714.69
583.82	1717.26
584.17	1720.71
584.53	1724.83
584.88	1727.55
585.23	1730.24
585.58	1731.95
585.93	1734.81
586.28	1737.19
586.63	1739.17
586.98	1742.10
587.34	1745.95
587.69	1748.14
588.04	1751.31
588.39	1752.95
588.74	1754.38
589.09	1756.83
589.44	1757.81
589.79	1759.17
590.14	1762.17
590.49	1764.40
590.84	1765.26
591.19	1767.76
591.54	1768.76
591.89	1769.29
592.25	1772.62
592.60	1772.98
592.95	1774.43
593.30	1775.43
593.65	1775.67
594.00	1776.43
594.35	1782.76
594.70	1782.95
595.05	1783.98
595.40	1783.02
595.75	1782.88
596.10	1784.36
596.45	1785.33
596.80	1786.67
597.15	1787.93
597.50	1787.79
597.85	1788.95
598.19	1789.67
598.54	1789.14
598.89	1789.36
599.24	1789.76
599.59	1787.83
599.94	1788.26
600.29	1788.88
600.64	1788.93
600.99	1788.76
601.34	1789.21
601.69	1783.12
602.04	1782.76
602.39	1782.29
602.74	1782.74
603.08	1782.21
603.43	1781.98
603.78	1780.67
604.13	1779.64
604.48	1778.45
604.83	1778.43
605.18	1777.33
605.53	1777.05
605.87	1776.07
606.22	1774.00
606.57	1772.40
606.92	1770.86
607.27	1769.48
607.62	1768.07
607.96	1766.33
608.31	1765.69
608.66	1764.52
609.01	1762.69
609.36	1761.31
609.70	1759.24
610.05	1756.69
610.40	1755.79
610.75	1753.52
611.10	1752.29
611.44	1749.31
611.79	1746.26
612.14	1743.12
612.49	1739.86
612.83	1736.21
613.18	1732.67
613.53	1729.14
613.88	1726.12
614.22	1723.67
614.57	1719.57
614.92	1715.55
615.27	1711.24
615.61	1707.26
615.96	1702.83
616.31	1699.21
616.65	1695.83
617.00	1692.50
617.35	1689.10
617.70	1685.71
618.04	1681.50
618.39	1676.45
618.74	1672.31
619.08	1668.52
619.43	1664.95
619.78	1662.00
620.12	1658.52
620.47	1655.21
620.82	1651.50
621.16	1647.21
621.51	1643.45
621.85	1639.19
622.20	1635.33
622.55	1630.48
622.89	1626.71
623.24	1624.00
623.59	1619.52
623.93	1615.33
624.28	1611.50
624.62	1609.95
624.97	1606.14
625.32	1601.38
625.66	1597.36
626.01	1594.10
626.35	1590.38
626.70	1586.38
627.04	1581.74
627.39	1577.17
627.73	1573.69
628.08	1571.55
628.43	1567.36
628.77	1562.83
629.12	1560.00
629.46	1556.43
629.81	1553.52
630.15	1548.88
630.50	1543.14
630.84	1538.74
631.19	1533.12
631.53	1527.45
631.88	1519.48
632.22	1513.36
632.57	1509.38
632.91	1503.48
633.26	1498.43
633.60	1493.07
633.95	1487.45
634.29	1482.00
634.64	1476.07
634.98	1469.71
635.32	1464.83
635.67	1459.81
636.01	1454.26
636.36	1448.29
636.70	1443.36
637.05	1438.52
637.39	1432.60
637.73	1428.17
638.08	1423.71
638.42	1419.21
638.77	1414.98
639.11	1410.40
639.45	1405.95
639.80	1400.76
640.14	1396.33
640.49	1390.45
640.83	1384.71
641.17	1379.64
641.52	1374.43
641.86	1369.81
642.20	1365.52
642.55	1358.33
642.89	1352.40
643.23	1346.67
643.58	1342.10
643.92	1334.86
644.26	1328.26
644.61	1322.86
644.95	1317.00
645.29	1309.86
645.64	1304.10
645.98	1296.98
646.32	1291.05
646.66	1284.24
647.01	1277.40
647.35	1272.05
647.69	1266.57
648.04	1261.40
648.38	1255.17
648.72	1248.40
649.06	1242.67
649.41	1235.29
649.75	1228.90
650.09	1223.17
650.43	1215.74
650.78	1208.02
651.12	1201.90
651.46	1195.74
651.80	1189.36
652.14	1182.76
652.49	1177.57
652.83	1171.10
653.17	1164.36
653.51	1157.52
653.85	1151.64
654.20	1145.26
654.54	1138.10
654.88	1131.07
655.22	1124.40
655.56	1118.31
655.90	1112.19
656.25	1105.17
656.59	1099.55
656.93	1093.60
657.27	1088.21
657.61	1082.79
657.95	1077.29
658.29	1071.10
658.64	1065.29
658.98	1058.74
659.32	1051.24
659.66	1044.38
660.00	1037.48
660.34	1032.12
660.68	1026.52
661.02	1019.98
661.36	1013.81
661.70	1008.83
662.05	1002.57
662.39	996.43
662.73	990.43
663.07	985.40
663.41	979.98
663.75	973.12
664.09	967.43
664.43	959.86
664.77	953.69
665.11	947.14
665.45	941.62
665.79	934.86
666.13	928.55
666.47	922.95
666.81	916.76
667.15	910.90
667.49	904.86
667.83	899.74
668.17	894.02
668.51	888.45
668.85	882.29
669.19	877.71
669.53	871.26
669.87	865.07
670.21	858.19
670.55	851.26
670.89	847.02
671.23	841.50
671.57	836.17
671.91	830.67
672.25	825.83
672.58	820.79
672.92	815.29
673.26	810.83
673.60	805.83
673.94	800.50
674.28	795.26
674.62	790.60
674.96	784.60
675.30	779.98
675.64	775.07
675.97	769.60
676.31	763.88
676.65	759.05
676.99	754.93
677.33	749.64
677.67	745.88
678.01	740.07
678.34	735.29
678.68	731.12
679.02	726.67
679.36	720.90
679.70	714.83
680.04	710.10
680.37	705.07
680.71	700.40
681.05	696.43
681.39	692.12
681.73	687.74
682.06	683.33
682.40	679.00
682.74	674.57
683.08	670.79
683.42	666.26
683.75	662.19
684.09	657.21
684.43	653.14
684.77	648.43
685.10	644.31
685.44	639.45
685.78	635.24
686.12	630.74
686.45	626.45
686.79	622.07
687.13	619.05
687.46	614.50
687.80	610.74
688.14	606.19
688.48	602.38
688.81	597.38
689.15	593.60
689.49	589.12
689.82	585.00
690.16	579.95
690.50	575.79
690.83	571.93
691.17	567.71
691.51	563.36
691.84	559.79
692.18	555.67
692.52	552.17
692.85	548.17
693.19	545.64
693.52	542.17
693.86	538.71
694.20	534.55
694.53	531.24
694.87	527.48
695.21	523.31
695.54	519.62
695.88	516.05
696.21	511.64
696.55	508.02
696.88	504.60
697.22	501.17
697.56	498.29
697.89	494.57
698.23	491.69
698.56	488.29
698.90	484.86
699.23	481.26
699.57	478.02
699.90	474.48
700.24	470.02
700.58	466.88
700.91	464.14
701.25	462.48
701.58	459.76
701.92	456.74
702.25	454.29
702.59	450.86
702.92	447.93
703.26	445.43
703.59	442.57
703.93	441.60
704.26	439.36
704.60	436.40
704.93	433.60
705.26	430.50
705.60	428.88
705.93	425.71
706.27	423.95
706.60	421.40
706.94	419.60
707.27	416.95
707.61	414.71
707.94	412.12
708.27	408.50
708.61	405.67
708.94	403.14
709.28	400.90
709.61	398.71
709.94	396.50
710.28	394.31
710.61	391.93
710.95	387.76
711.28	386.69
711.61	384.21
711.95	382.60
712.28	380.45
712.61	377.95
712.95	377.14
713.28	375.57
713.61	373.14
713.95	370.60
714.28	368.88
714.61	366.71
714.95	364.83
715.28	362.62
715.61	360.62
715.95	358.93
716.28	356.95
716.61	355.24
716.95	353.36
717.28	351.12
717.61	349.17
717.94	347.21
718.28	344.12
718.61	342.62
718.94	340.50
719.27	338.95
719.61	337.12
719.94	334.98
720.27	332.17
720.60	330.76
720.94	329.07
721.27	327.74
721.60	326.64
721.93	325.10
722.27	324.02
722.60	322.90
722.93	321.29
723.26	319.98
723.59	318.43
723.93	317.31
724.26	316.48
724.59	315.31
724.92	314.60
725.25	314.00
725.59	312.64
725.92	312.00
726.25	311.02
726.58	310.31
726.91	308.90
727.24	308.48
727.57	307.29
727.91	306.05
728.24	305.29
728.57	303.81
728.90	303.12
729.23	301.50
729.56	301.33
729.89	300.48
730.22	299.38
730.55	298.36
730.89	297.40
731.22	296.21
731.55	295.21
731.88	294.12
732.21	292.67
732.54	291.67
732.87	290.45
733.20	289.43
733.53	288.31
733.86	287.50
734.19	286.12
734.52	285.62
734.85	285.88
735.18	284.69
735.51	284.81
735.84	284.10
736.17	283.74
736.50	281.81
736.83	283.45
737.16	282.60
737.49	282.05
737.82	281.14
738.15	280.95
738.48	280.40
738.81	279.21
739.14	278.43
739.47	277.55
739.80	276.90
740.13	276.14
740.46	275.12
740.79	274.19
741.12	273.50
741.45	272.40
741.78	270.67
742.11	270.60
742.44	269.05
742.77	268.36
743.10	267.29
743.43	266.43
743.75	263.50
744.08	265.36
744.41	264.81
744.74	264.07
745.07	262.79
745.40	262.55
745.73	263.05
746.06	262.40
746.39	262.00
746.71	260.95
747.04	260.19
747.37	259.36
747.70	259.12
748.03	258.83
748.36	258.62
748.68	258.43
749.01	257.05
749.34	256.88
749.67	256.57
750.00	256.67
750.33	257.83
750.65	257.57
750.98	254.71
751.31	254.00
751.64	253.62
751.97	254.45
752.29	253.81
752.62	252.62
752.95	251.88
753.28	251.26
753.60	251.12
753.93	251.31
754.26	251.43
754.59	250.79
754.91	249.98
755.24	249.40
755.57	248.95
755.90	248.69
756.22	247.83
756.55	246.86
756.88	245.95
757.20	244.31
757.53	243.10
757.86	242.71
758.19	242.45
758.51	242.21
758.84	240.76
759.17	240.29
759.49	239.93
759.82	240.74
760.15	240.62
760.47	240.36
760.80	239.40
761.13	239.48
761.45	238.95
761.78	238.62
762.11	238.33
762.43	237.57
762.76	237.02
763.08	237.00
763.41	237.05
763.74	237.02
764.06	236.76
764.39	236.64
764.71	236.26
765.04	235.86
765.37	235.43
765.69	235.02
766.02	234.69
766.34	234.40
766.67	233.45
767.00	233.57
767.32	234.05
767.65	235.19
767.97	234.50
768.30	234.57
768.62	234.45
768.95	233.83
769.27	233.74
769.60	233.90
769.92	233.31
770.25	232.50
770.57	231.69
770.90	231.33
771.22	230.95
771.55	230.93
771.87	230.67
772.20	230.24
772.52	231.74
772.85	233.74
773.17	233.48
773.50	233.24
773.82	232.62
774.15	231.60
774.47	229.95
774.80	229.69
775.12	229.38
775.45	229.02
775.77	229.10
776.09	228.93
776.42	228.93
776.74	229.71
777.07	229.69
777.39	229.79
777.72	229.45
778.04	229.64
778.36	229.07
778.69	229.29
779.01	229.38
779.33	227.33
779.66	224.86
779.98	224.64
780.31	224.38
780.63	225.12
780.95	225.24
781.28	225.10
781.60	224.62
781.92	224.40
782.25	224.43
782.57	224.40
782.89	224.10
783.22	223.60
783.54	222.81
783.86	222.90
784.19	222.90
784.51	223.43
784.83	222.93
785.16	222.69
785.48	222.45
785.80	222.67
786.12	222.88
786.45	222.95
786.77	223.14
787.09	223.02
787.42	222.26
787.74	222.29
788.06	222.45
788.38	222.52
788.71	222.12
789.03	222.05
789.35	222.12
789.67	222.02
789.99	222.14
790.32	221.69
790.64	221.76
790.96	223.02
791.28	222.19
791.61	222.17
791.93	222.43
792.25	222.17
792.57	223.33
792.89	222.88
793.21	222.95
793.54	222.69
793.86	222.40
794.18	222.31
794.50	221.93
794.82	222.00
795.14	222.14
795.47	222.71
795.79	222.83
796.11	222.38
796.43	222.17
796.75	222.12
797.07	222.60
797.39	222.43
797.71	221.10
798.04	221.38
798.36	221.26
798.68	221.26
799.00	221.19
799.32	219.88
799.64	220.36
799.96	220.26
800.28	220.31
800.60	220.14
800.92	220.24
801.24	220.07
801.56	219.90
801.89	219.74
802.21	219.57
802.53	219.10
802.85	219.60
803.17	220.52
803.49	220.21
803.81	219.71
804.13	219.26
804.45	218.86
804.77	219.07
805.09	219.02
805.41	218.76
805.73	218.50
806.05	218.17
806.37	217.95
806.69	217.79
807.01	217.52
807.33	217.71
807.65	216.86
807.97	217.83
808.28	217.55
808.60	217.31
808.92	216.93
809.24	218.43
809.56	217.98
809.88	217.40
810.20	217.40
810.52	217.90
810.84	217.86
811.16	217.79
811.48	217.10
811.80	217.90
812.12	217.90
812.43	218.29
812.75	218.43
813.07	218.14
813.39	218.00
813.71	217.98
814.03	217.81
814.35	218.17
814.67	217.31
814.98	217.17
815.30	217.31
815.62	217.12
815.94	215.40
816.26	215.52
816.58	215.00
816.89	215.29
817.21	214.71
817.53	214.74
817.85	214.74
818.17	215.12
818.48	214.43
818.80	214.67
819.12	214.48
819.44	214.02
819.76	213.88
820.07	213.88
820.39	213.74
820.71	213.81
821.03	213.90
821.34	213.74
821.66	214.19
821.98	214.52
822.30	214.45
822.61	215.50
822.93	215.29
823.25	215.29
823.57	214.86
823.88	215.26
824.20	215.36
824.52	215.69
824.83	215.43
825.15	215.02
825.47	214.95
825.79	215.02
826.10	215.17
826.42	215.10
826.74	215.43
827.05	215.36
827.37	215.26
827.69	215.19
828.00	215.19
828.32	214.93
828.64	214.48
828.95	215.62
829.27	215.26
829.58	215.26
829.90	215.57
830.22	215.79
830.53	215.14
830.85	215.02
831.17	214.45
831.48	214.40
831.80	214.57
832.11	214.43
832.43	214.17
832.75	213.95
833.06	215.57
833.38	214.86
833.69	214.83
834.01	214.90
834.32	214.60
834.64	214.26
834.96	214.36
835.27	214.48
835.59	213.67
835.90	213.31
836.22	213.26
836.53	212.76
836.85	212.60
837.16	214.74
837.48	214.60
837.79	215.31
838.11	215.40
838.42	215.38
838.74	215.79
839.05	215.62
839.37	215.71
839.68	214.07
840.00	214.21
840.31	214.45
840.63	214.50
840.94	214.45
841.26	214.60
841.57	214.38
841.88	214.50
842.20	214.45
842.51	214.36
842.83	214.19
843.14	216.21
843.46	216.17
843.77	215.14
844.08	215.26
844.40	214.71
844.71	214.76
845.03	214.64
845.34	214.24
845.65	214.24
845.97	214.19
846.28	214.31
846.60	214.38
846.91	214.14
847.22	213.95
847.54	214.31
847.85	214.48
848.16	214.40
848.48	214.12
848.79	214.90
849.10	215.07
849.42	215.33
849.73	213.40
850.04	213.40
850.36	212.67
850.67	212.81
850.98	212.79
851.30	212.83
851.61	212.74
851.92	212.81
852.23	213.29
852.55	213.31
852.86	213.29
853.17	213.38
853.49	213.69
853.80	214.31
854.11	214.57
854.42	214.57
854.74	214.38
855.05	214.29
855.36	213.07
855.67	213.24
855.99	213.26
856.30	215.55
856.61	215.38
856.92	215.33
857.23	215.29
857.55	215.26
857.86	215.00
858.17	215.60
858.48	215.29
858.79	214.81
859.11	214.95
859.42	214.90
859.73	214.74
860.04	214.64
860.35	213.93
860.66	213.33
860.98	213.31
861.29	213.67
861.60	213.60
861.91	214.21
862.22	213.67
862.53	213.33
862.84	211.17
863.16	211.62
863.47	211.33
863.78	211.14
864.09	211.14
864.40	211.40
864.71	211.19
865.02	211.48
865.33	211.36
865.64	211.07
865.95	211.14
866.27	212.40
866.58	212.24
866.89	212.57
867.20	212.64
867.51	212.52
867.82	212.36
868.13	213.21
868.44	212.74
868.75	213.14
869.06	213.24
869.37	213.45
869.68	212.98
869.99	213.29
870.30	213.36
870.61	213.79
870.92	213.40
871.23	213.29
871.54	213.62
871.85	214.21
872.16	214.52
872.47	214.36
872.78	213.19
873.09	213.50
873.40	213.33
873.71	213.57
874.02	213.55
874.33	213.57
874.64	212.86
874.95	213.24
875.26	212.81
875.56	212.93
875.87	212.86
876.18	212.86
876.49	214.86
876.80	214.83
877.11	214.33
877.42	214.64
877.73	214.62
878.04	214.31
878.35	214.31
878.66	214.26
878.96	214.14
879.27	214.07
879.58	213.76
879.89	213.79
880.20	214.29
880.51	214.38
880.82	214.14
881.12	214.31
881.43	213.71
881.74	213.60
882.05	213.45
882.36	213.45
882.67	213.52
882.97	211.31
883.28	211.55
883.59	211.45
883.90	211.79
884.21	211.95
884.51	211.81
884.82	211.52
885.13	211.45
885.44	211.55
885.74	211.76
886.05	211.98
886.36	211.93
886.67	211.10
886.98	211.93
887.28	212.31
887.59	212.29
887.90	212.64
888.20	212.64
888.51	212.88
888.82	212.67
889.13	213.02
889.43	214.69
889.74	214.36
890.05	214.43
890.35	213.88
890.66	213.76
890.97	213.74
891.28	213.48
891.58	213.64
891.89	213.67
892.20	213.38
892.50	213.19
892.81	213.12
893.12	213.14
893.42	212.33
893.73	212.33
894.04	212.24
894.34	212.29
894.65	212.43
894.95	212.29
895.26	212.52
895.57	213.29
895.87	211.40
896.18	211.52
896.48	211.64
896.79	211.79
897.10	211.93
897.40	212.02
897.71	212.29
898.01	212.07
898.32	212.43
898.63	212.45
898.93	212.40
899.24	212.43
899.54	212.40
899.85	212.26
900.15	212.24
900.46	212.31
900.76	212.57
901.07	212.48
901.38	212.40
901.68	212.45
901.99	211.52
902.29	211.88
902.60	211.88
902.90	211.64
903.21	211.69
903.51	211.62
903.82	212.00
904.12	212.07
904.43	212.26
904.73	212.02
905.03	212.07
905.34	214.19
905.64	214.24
905.95	214.29
906.25	214.50
906.56	214.38
906.86	214.52
907.17	214.24
907.47	214.45
907.77	214.26
908.08	213.83
908.38	213.83
908.69	213.95
908.99	214.17
909.30	214.36
909.60	214.48
909.90	214.52
910.21	213.88
910.51	213.67
910.81	213.74
911.12	213.81
911.42	213.86
911.73	211.52
912.03	211.60
912.33	211.81
912.64	211.69
912.94	211.67
913.24	211.36
913.55	211.38
913.85	211.17
914.15	211.50
914.46	211.95
914.76	211.48
915.06	211.36
915.37	211.14
915.67	211.24
915.97	211.12
916.27	210.83
916.58	210.95
916.88	210.71
917.18	210.52
917.49	212.05
917.79	212.12
918.09	212.74
918.39	213.17
918.70	213.12
919.00	213.00
919.30	213.76
919.60	213.62
919.91	213.48
920.21	213.40
920.51	213.00
920.81	212.86
921.12	213.69
921.42	213.60
921.72	213.74
922.02	213.71
922.32	213.86
922.63	213.98
922.93	214.95
923.23	215.19
923.53	215.07
923.83	213.52
924.13	213.74
924.44	213.60
924.74	213.83
925.04	214.43
925.34	214.33
925.64	213.64
925.94	213.76
926.24	214.57
926.55	214.60
926.85	215.00
927.15	214.90
927.45	214.62
927.75	214.71
928.05	214.71
928.35	214.64
928.65	215.00
928.95	214.98
929.26	214.24
929.56	214.76
929.86	214.93
930.16	215.05
930.46	214.76
930.76	214.69
931.06	213.74
931.36	213.14
931.66	213.48
931.96	213.33
932.26	213.55
932.56	212.83
932.86	213.12
933.16	213.17
933.46	212.95
933.76	212.50
934.06	212.88
934.36	213.69
934.66	213.52
934.96	213.31
935.26	213.60
935.56	213.88
935.86	213.14
936.16	213.12
936.46	212.93
936.76	212.60
937.06	212.52
937.36	212.76
937.66	212.86
937.96	212.76
938.26	212.67
938.56	212.55
938.86	212.81
939.16	213.07
939.46	213.21
939.76	213.50
940.06	213.81
940.35	213.26
940.65	212.12
940.95	212.57
941.25	211.98
941.55	211.79
941.85	211.40
942.15	212.14
942.45	212.33
942.75	212.21
943.04	212.55
943.34	212.88
943.64	212.60
943.94	212.26
944.24	212.19
944.54	212.31
944.84	212.07
945.13	211.81
945.43	211.50
945.73	211.38
946.03	211.17
946.33	210.95
946.62	211.10
946.92	211.24
947.22	211.12
947.52	211.29
947.82	211.45
948.11	211.52
948.41	210.88
948.71	210.52
949.01	210.81
949.31	210.55
949.60	210.36
949.90	210.79
950.20	210.64
950.50	210.90
950.79	210.81
951.09	211.19
951.39	211.05
951.69	211.00
951.98	211.36
952.28	211.31
952.58	211.21
952.87	211.10
953.17	211.40
953.47	211.07
953.76	211.05
954.06	210.81
954.36	210.50
954.66	210.55
954.95	211.07
955.25	211.05
955.55	211.29
955.84	211.02
956.14	211.19
956.44	211.14
956.73	210.79
957.03	211.02
957.32	210.86
957.62	210.90
957.92	210.90
958.21	210.50
958.51	213.05
958.81	213.43
959.10	213.67
959.40	214.19
959.69	214.48
959.99	214.83
960.29	214.79
960.58	214.79
960.88	215.29
961.17	214.88
961.47	215.02
961.76	214.79
962.06	215.02
962.36	214.81
962.65	215.26
962.95	215.43
963.24	215.29
963.54	215.26
963.83	215.26
964.13	215.31
964.42	214.83
964.72	213.02
965.01	212.93
965.31	212.81
965.60	212.14
965.90	213.48
966.19	213.00
966.49	212.98
966.78	212.95
967.08	212.93
967.37	212.86
967.67	212.43
967.96	212.60
968.26	212.62
968.55	212.95
968.85	212.57
969.14	212.43
969.43	212.40
969.73	212.43
970.02	212.31
970.32	212.33
970.61	212.38
970.91	211.71
971.20	211.38
971.49	211.12
971.79	211.14
972.08	209.57
972.38	209.57
972.67	209.71
972.96	210.00
973.26	209.71
973.55	210.67
973.85	210.67
974.14	210.57
974.43	210.74
974.73	210.26
975.02	210.02
975.31	210.17
975.61	209.95
975.90	209.74
976.19	209.67
976.49	209.76
976.78	210.12
977.07	210.19
977.37	210.45
977.66	210.79
977.95	210.57
978.24	210.64
978.54	211.36
978.83	211.36
979.12	211.21
979.42	211.19
979.71	210.76
980.00	210.71
980.29	210.90
980.59	210.14
980.88	210.67
981.17	210.83
981.46	210.55
981.76	210.60
982.05	211.14
982.34	211.33
982.63	211.29
982.93	211.14
983.22	211.64
983.51	211.83
983.80	211.88
984.09	212.14
984.39	212.10
984.68	211.76
984.97	211.69
985.26	211.55
985.55	211.76
985.85	211.17
986.14	211.71
986.43	211.79
986.72	211.88
987.01	211.14
987.30	211.36
987.59	211.33
987.89	211.40
988.18	210.93
988.47	210.88
988.76	210.74
989.05	210.43
989.34	210.17
989.63	210.71
989.92	210.38
990.22	210.19
990.51	210.29
990.80	210.05
991.09	210.12
991.38	210.38
991.67	210.17
991.96	210.21
992.25	209.98
992.54	209.60
992.83	209.71
993.12	210.00
993.41	210.17
993.70	211.19
993.99	211.67
994.28	211.95
994.58	212.12
994.87	211.93
995.16	212.33
995.45	211.95
995.74	211.10
996.03	211.57
996.32	212.02
996.61	212.40
996.90	212.33
997.19	212.31
997.48	212.31
997.77	211.79
998.06	211.86
998.34	211.64
998.63	211.79
998.92	211.76
999.21	211.79
999.50	211.69
999.79	210.69
1000.08	210.60
1000.37	210.93
1000.66	210.64
1000.95	211.17
1001.24	210.98
1001.53	211.57
1001.82	211.50
1002.11	211.05
1002.40	211.10
1002.68	211.38
1002.97	212.86
1003.26	212.48
1003.55	212.02
1003.84	212.43
1004.13	212.95
1004.42	212.90
1004.71	212.81
1004.99	212.76
1005.28	213.26
1005.57	213.05
1005.86	213.05
1006.15	212.86
1006.44	212.21
1006.72	212.62
1007.01	212.19
1007.30	212.24
1007.59	212.02
1007.88	212.07
1008.17	212.17
1008.45	211.86
1008.74	211.12
1009.03	210.33
1009.32	210.67
1009.60	210.79
1009.89	210.55
1010.18	209.69
1010.47	209.76
1010.76	209.76
1011.04	209.79
1011.33	209.67
1011.62	210.17
1011.91	210.24
1012.19	210.17
1012.48	210.33
1012.77	210.14
1013.05	211.12
1013.34	211.21
1013.63	210.81
1013.92	210.93
1014.20	210.76
1014.49	210.74
1014.78	210.88
1015.06	209.93
1015.35	209.86
1015.64	210.21
1015.92	210.81
1016.21	211.26
1016.50	210.98
1016.78	211.48
1017.07	211.57
1017.36	211.33
1017.64	210.74
1017.93	210.79
1018.22	210.90
1018.50	210.71
1018.79	210.64
1019.08	209.76
1019.36	209.79
1019.65	209.62
1019.93	210.17
1020.22	210.29
1020.51	211.33
1020.79	211.19
1021.08	212.50
1021.36	206.00
1021.65	210.00
1021.94	210.50
1022.22	211.00
1022.51	202.00
1022.79	221.00
1023.08	208.50
1023.36	236.00
1023.65	207.50
>>>>>End Processed Spectral Data<<<<<
