SpectraSuite Data File
++++++++++++++++++++++++++++++++++++
Date: Tue Apr 02 18:46:00 EDT 2013
User: group
Dark Spectrum Present: No
Reference Spectrum Present: No
Number of Sampled Component Spectra: 1
Spectrometers: USB2E7196
Integration Time (usec): 580000 (USB2E7196)
Spectra Averaged: 2 (USB2E7196)
Boxcar Smoothing: 10 (USB2E7196)
Correct for Electrical Dark: No (USB2E7196)
Strobe/Lamp Enabled: No (USB2E7196)
Correct for Detector Non-linearity: No (USB2E7196)
Correct for Stray Light: No (USB2E7196)
Number of Pixels in Processed Spectrum: 2048
>>>>>Begin Processed Spectral Data<<<<<
339.09	0.00
339.48	196.00
339.86	192.00
340.24	196.50
340.63	192.50
341.01	230.00
341.39	199.00
341.78	204.00
342.16	211.50
342.54	206.50
342.93	197.10
343.31	206.93
343.69	207.33
344.07	207.98
344.46	208.74
344.84	209.45
345.22	208.40
345.60	208.83
345.99	209.10
346.37	209.12
346.75	209.00
347.13	209.05
347.52	208.93
347.90	209.74
348.28	209.71
348.66	210.12
349.05	209.38
349.43	209.57
349.81	209.93
350.19	210.00
350.57	209.90
350.96	210.24
351.34	210.55
351.72	210.60
352.10	210.67
352.48	210.40
352.87	210.12
353.25	210.31
353.63	210.29
354.01	210.21
354.39	210.05
354.77	210.19
355.15	210.76
355.54	210.76
355.92	209.90
356.30	210.14
356.68	211.40
357.06	211.64
357.44	211.33
357.82	211.00
358.20	211.86
358.58	211.88
358.97	212.17
359.35	212.57
359.73	213.10
360.11	213.17
360.49	213.48
360.87	213.98
361.25	213.95
361.63	214.69
362.01	215.14
362.39	215.26
362.77	215.43
363.15	215.14
363.53	215.33
363.91	215.48
364.29	215.19
364.67	213.50
365.05	213.64
365.43	214.00
365.81	214.45
366.19	214.81
366.57	215.40
366.95	215.17
367.33	214.57
367.71	214.40
368.09	214.67
368.47	214.60
368.85	214.40
369.23	214.88
369.61	214.19
369.99	214.60
370.37	214.79
370.75	215.95
371.13	215.60
371.51	215.29
371.89	215.69
372.27	216.10
372.65	215.93
373.03	215.95
373.41	215.74
373.78	215.48
374.16	214.48
374.54	213.88
374.92	213.76
375.30	213.88
375.68	213.52
376.06	213.79
376.44	213.81
376.82	214.00
377.19	214.14
377.57	213.98
377.95	213.36
378.33	213.17
378.71	211.90
379.09	212.26
379.47	212.55
379.84	212.24
380.22	212.24
380.60	212.05
380.98	211.90
381.36	211.95
381.73	211.90
382.11	212.10
382.49	212.38
382.87	212.10
383.25	212.12
383.62	214.40
384.00	213.86
384.38	213.60
384.76	214.07
385.13	214.48
385.51	214.60
385.89	214.36
386.27	214.50
386.64	214.88
387.02	214.74
387.40	214.45
387.78	214.64
388.15	214.48
388.53	214.48
388.91	214.60
389.29	214.52
389.66	214.98
390.04	214.67
390.42	215.10
390.79	215.38
391.17	215.40
391.55	213.29
391.92	213.31
392.30	213.79
392.68	213.12
393.05	213.00
393.43	212.93
393.81	213.29
394.18	213.26
394.56	213.45
394.94	214.05
395.31	214.05
395.69	214.57
396.06	214.95
396.44	215.14
396.82	215.00
397.19	216.31
397.57	215.83
397.95	216.29
398.32	215.67
398.70	215.90
399.07	216.26
399.45	216.17
399.82	216.19
400.20	215.79
400.58	216.10
400.95	215.55
401.33	216.29
401.70	217.57
402.08	217.52
402.45	217.33
402.83	217.69
403.20	217.74
403.58	217.38
403.95	217.90
404.33	218.38
404.71	218.74
405.08	219.67
405.46	220.00
405.83	220.38
406.21	220.93
406.58	221.24
406.96	221.76
407.33	222.55
407.70	223.48
408.08	225.81
408.45	226.57
408.83	227.40
409.20	227.57
409.58	226.79
409.95	227.98
410.33	229.05
410.70	229.38
411.08	230.64
411.45	231.79
411.82	232.29
412.20	233.74
412.57	235.88
412.95	235.21
413.32	237.10
413.69	238.43
414.07	240.12
414.44	241.98
414.82	243.74
415.19	246.10
415.56	248.26
415.94	249.50
416.31	252.43
416.68	255.17
417.06	258.38
417.43	261.90
417.81	265.31
418.18	268.81
418.55	272.60
418.93	276.40
419.30	280.64
419.67	285.07
420.04	289.29
420.42	293.50
420.79	300.83
421.16	306.29
421.54	313.50
421.91	319.55
422.28	325.67
422.66	332.19
423.03	340.05
423.40	346.69
423.77	353.83
424.15	360.69
424.52	368.43
424.89	377.17
425.26	385.14
425.64	392.31
426.01	400.93
426.38	409.64
426.75	419.00
427.13	428.31
427.50	437.86
427.87	447.90
428.24	458.00
428.61	466.19
428.99	477.50
429.36	487.76
429.73	498.76
430.10	510.45
430.47	522.07
430.85	532.45
431.22	544.76
431.59	559.31
431.96	572.07
432.33	586.36
432.70	600.00
433.08	616.02
433.45	631.31
433.82	645.50
434.19	662.57
434.56	679.21
434.93	694.43
435.30	710.62
435.68	727.95
436.05	745.21
436.42	762.00
436.79	777.67
437.16	795.05
437.53	812.76
437.90	830.31
438.27	847.90
438.64	866.10
439.01	883.21
439.38	897.36
439.75	912.64
440.13	928.88
440.50	944.52
440.87	957.00
441.24	970.07
441.61	985.33
441.98	995.74
442.35	1007.74
442.72	1020.81
443.09	1033.98
443.46	1041.79
443.83	1046.62
444.20	1051.83
444.57	1057.67
444.94	1060.43
445.31	1064.38
445.68	1069.60
446.05	1070.98
446.42	1069.69
446.79	1068.88
447.16	1066.67
447.53	1064.86
447.90	1058.64
448.27	1052.02
448.64	1043.14
449.01	1037.45
449.37	1026.05
449.74	1015.86
450.11	1004.64
450.48	990.14
450.85	973.88
451.22	960.98
451.59	949.62
451.96	938.29
452.33	923.07
452.70	909.36
453.07	891.67
453.43	872.60
453.80	856.21
454.17	840.79
454.54	825.02
454.91	808.98
455.28	793.24
455.65	778.10
456.02	766.74
456.38	754.40
456.75	738.88
457.12	725.50
457.49	711.55
457.86	697.52
458.23	687.79
458.59	676.52
458.96	664.76
459.33	653.50
459.70	642.81
460.07	634.69
460.43	624.64
460.80	616.38
461.17	609.00
461.54	601.17
461.91	593.14
462.27	584.83
462.64	577.69
463.01	570.31
463.38	564.26
463.74	553.43
464.11	547.19
464.48	541.81
464.85	535.90
465.21	532.50
465.58	527.26
465.95	520.67
466.32	515.69
466.68	510.57
467.05	506.45
467.42	501.43
467.78	495.83
468.15	491.21
468.52	487.29
468.88	481.71
469.25	476.76
469.62	472.95
469.98	469.45
470.35	466.38
470.72	462.79
471.08	457.90
471.45	455.26
471.82	452.38
472.18	448.43
472.55	446.12
472.92	442.12
473.28	439.48
473.65	436.48
474.02	433.88
474.38	432.14
474.75	430.00
475.11	427.60
475.48	425.64
475.85	423.33
476.21	421.67
476.58	420.74
476.94	419.74
477.31	418.40
477.67	417.14
478.04	415.52
478.41	414.76
478.77	416.10
479.14	415.12
479.50	414.33
479.87	414.29
480.23	413.93
480.60	413.64
480.96	413.57
481.33	414.43
481.69	414.43
482.06	414.81
482.42	414.81
482.79	415.50
483.15	416.05
483.52	417.40
483.88	418.07
484.25	418.29
484.61	418.98
484.98	420.05
485.34	421.83
485.71	423.60
486.07	425.00
486.44	424.43
486.80	426.10
487.17	427.48
487.53	429.90
487.90	431.90
488.26	434.88
488.62	437.52
488.99	439.38
489.35	442.07
489.72	444.29
490.08	446.98
490.44	449.17
490.81	452.79
491.17	455.57
491.54	459.33
491.90	463.21
492.26	466.90
492.63	470.71
492.99	474.12
493.36	478.40
493.72	482.50
494.08	487.02
494.45	491.74
494.81	496.90
495.17	501.07
495.54	506.33
495.90	511.12
496.26	516.60
496.63	522.24
496.99	527.36
497.35	533.21
497.72	539.17
498.08	545.60
498.44	551.74
498.80	558.50
499.17	564.48
499.53	570.40
499.89	577.48
500.26	584.00
500.62	591.02
500.98	597.81
501.34	605.02
501.71	612.33
502.07	619.36
502.43	626.33
502.79	633.71
503.16	640.60
503.52	647.88
503.88	654.45
504.24	661.57
504.60	669.60
504.97	677.10
505.33	684.50
505.69	693.05
506.05	700.19
506.41	707.69
506.78	715.62
507.14	723.81
507.50	731.50
507.86	739.57
508.22	747.19
508.59	754.17
508.95	761.71
509.31	770.81
509.67	778.43
510.03	786.43
510.39	794.05
510.75	802.00
511.12	809.24
511.48	817.38
511.84	824.95
512.20	832.52
512.56	840.05
512.92	847.93
513.28	854.79
513.64	862.17
514.00	869.50
514.37	876.24
514.73	883.45
515.09	890.57
515.45	897.19
515.81	903.60
516.17	910.55
516.53	917.50
516.89	923.05
517.25	930.05
517.61	936.33
517.97	942.88
518.33	949.24
518.69	956.10
519.05	962.52
519.41	968.60
519.77	975.90
520.13	982.19
520.49	987.40
520.85	992.57
521.21	999.33
521.57	1004.93
521.93	1010.14
522.29	1015.50
522.65	1020.69
523.01	1026.02
523.37	1031.02
523.73	1036.60
524.09	1041.48
524.45	1046.81
524.81	1051.60
525.17	1056.55
525.53	1061.33
525.89	1066.24
526.25	1070.60
526.61	1074.31
526.97	1078.14
527.33	1081.64
527.68	1087.45
528.04	1092.38
528.40	1096.81
528.76	1100.50
529.12	1104.33
529.48	1109.67
529.84	1114.02
530.20	1117.79
530.56	1122.67
530.91	1127.95
531.27	1132.26
531.63	1137.14
531.99	1140.24
532.35	1143.83
532.71	1146.98
533.07	1151.19
533.42	1157.62
533.78	1161.86
534.14	1165.90
534.50	1170.36
534.86	1174.93
535.21	1177.36
535.57	1181.57
535.93	1185.29
536.29	1190.52
536.65	1194.38
537.00	1197.86
537.36	1201.31
537.72	1204.45
538.08	1207.93
538.44	1211.07
538.79	1214.43
539.15	1217.12
539.51	1220.90
539.87	1224.67
540.22	1229.21
540.58	1232.36
540.94	1232.64
541.29	1236.17
541.65	1239.57
542.01	1243.24
542.37	1245.29
542.72	1246.98
543.08	1248.93
543.44	1252.64
543.79	1253.50
544.15	1256.02
544.51	1258.45
544.87	1260.88
545.22	1264.55
545.58	1267.40
545.94	1269.55
546.29	1271.83
546.65	1273.81
547.01	1276.12
547.36	1278.83
547.72	1280.67
548.07	1283.02
548.43	1285.62
548.79	1287.07
549.14	1288.64
549.50	1291.76
549.86	1293.76
550.21	1296.90
550.57	1300.33
550.92	1302.21
551.28	1305.12
551.64	1308.17
551.99	1310.88
552.35	1314.05
552.70	1316.17
553.06	1317.74
553.41	1320.71
553.77	1325.38
554.13	1329.02
554.48	1333.19
554.84	1336.93
555.19	1341.29
555.55	1345.67
555.90	1349.33
556.26	1353.19
556.61	1357.00
556.97	1359.60
557.32	1364.14
557.68	1367.79
558.03	1370.19
558.39	1373.79
558.74	1377.69
559.10	1382.48
559.45	1386.50
559.81	1390.45
560.16	1395.31
560.52	1399.79
560.87	1404.45
561.23	1407.05
561.58	1413.24
561.94	1416.71
562.29	1420.74
562.64	1425.21
563.00	1428.48
563.35	1433.00
563.71	1438.14
564.06	1443.76
564.42	1448.40
564.77	1453.36
565.12	1459.69
565.48	1467.93
565.83	1474.40
566.19	1479.95
566.54	1484.40
566.89	1489.50
567.25	1495.43
567.60	1502.43
567.96	1510.40
568.31	1516.95
568.66	1523.62
569.02	1527.52
569.37	1532.64
569.72	1538.02
570.08	1542.95
570.43	1548.98
570.78	1554.74
571.14	1560.64
571.49	1566.21
571.84	1572.12
572.20	1576.64
572.55	1580.48
572.90	1582.95
573.26	1586.71
573.61	1590.79
573.96	1595.50
574.31	1600.31
574.67	1603.60
575.02	1606.19
575.37	1608.12
575.72	1611.40
576.08	1615.12
576.43	1618.71
576.78	1622.17
577.13	1626.36
577.49	1630.10
577.84	1634.45
578.19	1638.40
578.54	1641.40
578.90	1645.79
579.25	1649.48
579.60	1653.36
579.95	1656.93
580.30	1661.29
580.66	1665.17
581.01	1669.60
581.36	1672.69
581.71	1675.93
582.06	1681.33
582.42	1685.02
582.77	1688.14
583.12	1691.36
583.47	1694.93
583.82	1698.81
584.17	1702.38
584.53	1705.69
584.88	1707.88
585.23	1711.07
585.58	1713.52
585.93	1715.88
586.28	1717.67
586.63	1721.10
586.98	1724.21
587.34	1727.74
587.69	1729.67
588.04	1732.64
588.39	1734.76
588.74	1736.62
589.09	1739.12
589.44	1739.50
589.79	1741.21
590.14	1743.90
590.49	1745.69
590.84	1747.17
591.19	1749.48
591.54	1752.00
591.89	1753.29
592.25	1757.40
592.60	1758.26
592.95	1759.93
593.30	1762.57
593.65	1763.55
594.00	1763.12
594.35	1770.38
594.70	1770.69
595.05	1773.83
595.40	1773.90
595.75	1774.14
596.10	1776.86
596.45	1778.57
596.80	1779.64
597.15	1781.14
597.50	1782.14
597.85	1783.69
598.19	1783.79
598.54	1783.31
598.89	1783.62
599.24	1784.12
599.59	1784.00
599.94	1784.55
600.29	1785.12
600.64	1785.38
600.99	1786.07
601.34	1788.14
601.69	1781.67
602.04	1781.14
602.39	1779.50
602.74	1781.10
603.08	1781.31
603.43	1781.38
603.78	1781.07
604.13	1781.88
604.48	1780.50
604.83	1779.81
605.18	1778.76
605.53	1778.69
605.87	1778.19
606.22	1777.79
606.57	1776.83
606.92	1774.98
607.27	1773.90
607.62	1773.69
607.96	1772.62
608.31	1771.76
608.66	1769.76
609.01	1768.60
609.36	1769.02
609.70	1767.14
610.05	1764.95
610.40	1763.90
610.75	1761.50
611.10	1759.81
611.44	1756.69
611.79	1755.79
612.14	1753.81
612.49	1750.93
612.83	1747.81
613.18	1745.07
613.53	1742.62
613.88	1739.07
614.22	1735.62
614.57	1731.43
614.92	1726.95
615.27	1723.64
615.61	1719.67
615.96	1716.02
616.31	1713.07
616.65	1709.88
617.00	1707.52
617.35	1704.19
617.70	1701.05
618.04	1697.52
618.39	1694.12
618.74	1691.05
619.08	1686.40
619.43	1682.31
619.78	1679.38
620.12	1676.69
620.47	1673.67
620.82	1669.95
621.16	1666.43
621.51	1663.83
621.85	1660.76
622.20	1657.64
622.55	1653.67
622.89	1650.74
623.24	1648.69
623.59	1645.12
623.93	1640.50
624.28	1635.88
624.62	1633.93
624.97	1630.76
625.32	1626.69
625.66	1621.19
626.01	1617.55
626.35	1614.48
626.70	1610.74
627.04	1607.93
627.39	1603.67
627.73	1600.45
628.08	1597.05
628.43	1594.05
628.77	1589.95
629.12	1586.90
629.46	1583.90
629.81	1579.95
630.15	1575.21
630.50	1570.12
630.84	1565.69
631.19	1561.24
631.53	1557.05
631.88	1549.26
632.22	1542.76
632.57	1538.64
632.91	1534.40
633.26	1530.29
633.60	1525.10
633.95	1520.74
634.29	1514.57
634.64	1510.62
634.98	1505.43
635.32	1500.76
635.67	1496.86
636.01	1492.90
636.36	1487.24
636.70	1482.21
637.05	1477.62
637.39	1473.29
637.73	1468.07
638.08	1464.14
638.42	1459.57
638.77	1454.64
639.11	1451.14
639.45	1446.43
639.80	1440.93
640.14	1436.62
640.49	1431.05
640.83	1425.76
641.17	1420.67
641.52	1416.29
641.86	1410.90
642.20	1406.79
642.55	1400.93
642.89	1394.36
643.23	1388.02
643.58	1384.26
643.92	1378.36
644.26	1372.62
644.61	1367.64
644.95	1362.90
645.29	1356.17
645.64	1351.64
645.98	1345.90
646.32	1340.62
646.66	1335.29
647.01	1328.93
647.35	1323.38
647.69	1317.64
648.04	1313.19
648.38	1308.02
648.72	1302.00
649.06	1296.02
649.41	1289.67
649.75	1284.02
650.09	1278.69
650.43	1272.55
650.78	1265.83
651.12	1259.81
651.46	1253.79
651.80	1247.95
652.14	1241.14
652.49	1236.55
652.83	1229.88
653.17	1224.31
653.51	1217.90
653.85	1212.21
654.20	1206.55
654.54	1200.12
654.88	1194.02
655.22	1188.02
655.56	1180.98
655.90	1174.64
656.25	1168.36
656.59	1161.50
656.93	1155.60
657.27	1150.19
657.61	1144.69
657.95	1138.71
658.29	1132.40
658.64	1126.95
658.98	1119.83
659.32	1113.17
659.66	1105.26
660.00	1098.98
660.34	1092.38
660.68	1086.21
661.02	1079.60
661.36	1074.00
661.70	1067.86
662.05	1062.24
662.39	1055.76
662.73	1050.79
663.07	1045.95
663.41	1040.57
663.75	1034.79
664.09	1028.98
664.43	1022.14
664.77	1016.52
665.11	1010.36
665.45	1004.50
665.79	998.90
666.13	993.31
666.47	988.19
666.81	983.02
667.15	977.05
667.49	971.95
667.83	966.57
668.17	960.79
668.51	955.19
668.85	949.48
669.19	944.88
669.53	939.07
669.87	932.86
670.21	927.05
670.55	921.48
670.89	917.00
671.23	911.88
671.57	906.17
671.91	900.29
672.25	895.17
672.58	890.95
672.92	885.07
673.26	880.40
673.60	875.14
673.94	869.95
674.28	865.05
674.62	860.45
674.96	855.17
675.30	851.19
675.64	846.38
675.97	841.57
676.31	835.69
676.65	829.79
676.99	826.19
677.33	820.86
677.67	815.95
678.01	810.12
678.34	805.00
678.68	801.19
679.02	796.12
679.36	791.10
679.70	785.26
680.04	780.48
680.37	775.33
680.71	770.02
681.05	766.07
681.39	761.55
681.73	756.17
682.06	751.86
682.40	746.95
682.74	742.60
683.08	739.02
683.42	733.69
683.75	729.43
684.09	723.60
684.43	718.57
684.77	713.07
685.10	708.05
685.44	702.76
685.78	697.74
686.12	693.19
686.45	688.21
686.79	682.95
687.13	678.29
687.46	673.55
687.80	669.98
688.14	664.71
688.48	660.45
688.81	656.12
689.15	651.93
689.49	646.71
689.82	642.45
690.16	636.88
690.50	632.60
690.83	628.76
691.17	624.10
691.51	619.45
691.84	615.57
692.18	611.60
692.52	607.52
692.85	603.57
693.19	600.48
693.52	596.88
693.86	593.00
694.20	588.62
694.53	584.38
694.87	579.74
695.21	575.62
695.54	570.98
695.88	566.95
696.21	561.76
696.55	558.21
696.88	553.86
697.22	550.10
697.56	546.52
697.89	542.48
698.23	539.05
698.56	535.33
698.90	532.12
699.23	528.12
699.57	524.76
699.90	520.67
700.24	516.40
700.58	512.40
700.91	509.33
701.25	507.74
701.58	505.12
701.92	502.50
702.25	499.10
702.59	495.86
702.92	492.24
703.26	489.31
703.59	486.31
703.93	484.86
704.26	482.02
704.60	478.93
704.93	475.76
705.26	472.76
705.60	470.21
705.93	466.60
706.27	464.62
706.60	462.00
706.94	460.07
707.27	456.93
707.61	454.57
707.94	451.86
708.27	447.43
708.61	443.83
708.94	440.64
709.28	438.43
709.61	435.88
709.94	433.50
710.28	431.17
710.61	428.52
710.95	423.88
711.28	422.69
711.61	420.26
711.95	418.07
712.28	415.24
712.61	412.98
712.95	411.74
713.28	410.02
713.61	406.95
713.95	403.71
714.28	401.36
714.61	398.81
714.95	396.10
715.28	393.67
715.61	391.52
715.95	389.26
716.28	386.71
716.61	384.62
716.95	382.21
717.28	379.71
717.61	377.62
717.94	375.90
718.28	372.24
718.61	369.88
718.94	367.67
719.27	365.81
719.61	363.62
719.94	360.98
720.27	357.62
720.60	355.76
720.94	353.98
721.27	352.55
721.60	351.17
721.93	349.64
722.27	348.64
722.60	347.12
722.93	345.36
723.26	343.95
723.59	342.17
723.93	341.21
724.26	339.88
724.59	337.88
724.92	336.55
725.25	335.90
725.59	334.71
725.92	333.69
726.25	332.48
726.58	331.62
726.91	330.33
727.24	329.60
727.57	328.31
727.91	326.81
728.24	325.52
728.57	323.60
728.90	322.71
729.23	320.81
729.56	320.24
729.89	319.21
730.22	317.88
730.55	316.50
730.89	315.21
731.22	314.17
731.55	313.26
731.88	311.93
732.21	310.36
732.54	309.17
732.87	307.98
733.20	306.76
733.53	305.48
733.86	304.60
734.19	303.26
734.52	302.55
734.85	302.93
735.18	301.64
735.51	301.62
735.84	300.55
736.17	300.14
736.50	298.21
736.83	299.38
737.16	298.60
737.49	297.93
737.82	296.69
738.15	296.10
738.48	295.17
738.81	294.19
739.14	293.02
739.47	291.81
739.80	290.90
740.13	289.93
740.46	288.76
740.79	287.43
741.12	286.43
741.45	285.14
741.78	283.19
742.11	283.00
742.44	281.74
742.77	281.29
743.10	279.90
743.43	279.45
743.75	276.43
744.08	278.14
744.41	277.21
744.74	276.50
745.07	275.02
745.40	274.71
745.73	274.67
746.06	274.14
746.39	273.48
746.71	272.45
747.04	271.74
747.37	270.88
747.70	270.57
748.03	270.02
748.36	269.83
748.68	269.33
749.01	267.86
749.34	266.95
749.67	266.38
750.00	266.38
750.33	267.17
750.65	267.00
750.98	263.93
751.31	263.26
751.64	262.64
751.97	263.60
752.29	262.90
752.62	261.69
752.95	261.10
753.28	260.55
753.60	259.86
753.93	259.93
754.26	259.62
754.59	258.64
754.91	258.07
755.24	257.05
755.57	256.33
755.90	255.88
756.22	255.40
756.55	254.48
756.88	253.40
757.20	251.43
757.53	250.19
757.86	249.45
758.19	249.21
758.51	248.71
758.84	246.88
759.17	246.21
759.49	245.64
759.82	246.07
760.15	245.79
760.47	245.62
760.80	244.67
761.13	244.83
761.45	244.26
761.78	243.81
762.11	243.52
762.43	243.17
762.76	242.64
763.08	242.43
763.41	242.07
763.74	241.95
764.06	241.55
764.39	241.31
764.71	241.17
765.04	240.62
765.37	240.33
765.69	239.95
766.02	239.67
766.34	239.36
766.67	238.10
767.00	238.19
767.32	238.98
767.65	239.74
767.97	239.10
768.30	238.95
768.62	238.60
768.95	238.33
769.27	237.81
769.60	237.86
769.92	237.36
770.25	236.81
770.57	236.24
770.90	235.98
771.22	235.88
771.55	235.60
771.87	235.40
772.20	234.95
772.52	236.29
772.85	238.40
773.17	238.19
773.50	238.07
773.82	237.52
774.15	236.33
774.47	235.21
774.80	234.55
775.12	234.40
775.45	234.31
775.77	234.00
776.09	234.00
776.42	233.95
776.74	234.33
777.07	234.14
777.39	234.12
777.72	233.69
778.04	233.60
778.36	233.19
778.69	233.12
779.01	232.90
779.33	231.02
779.66	228.55
779.98	228.24
780.31	228.02
780.63	228.83
780.95	228.79
781.28	228.48
781.60	228.31
781.92	227.93
782.25	227.74
782.57	227.71
782.89	227.62
783.22	227.21
783.54	226.52
783.86	226.50
784.19	225.90
784.51	226.67
784.83	226.29
785.16	226.21
785.48	226.17
785.80	226.29
786.12	226.64
786.45	226.60
786.77	226.57
787.09	226.48
787.42	225.31
787.74	225.57
788.06	225.52
788.38	225.26
788.71	225.00
789.03	224.98
789.35	225.10
789.67	224.50
789.99	224.48
790.32	224.36
790.64	224.55
790.96	226.43
791.28	225.36
791.61	225.12
791.93	225.07
792.25	224.60
792.57	226.07
792.89	225.43
793.21	225.19
793.54	225.19
793.86	224.79
794.18	225.05
794.50	224.52
794.82	224.50
795.14	224.81
795.47	225.19
795.79	225.00
796.11	224.60
796.43	224.45
796.75	224.31
797.07	224.33
797.39	224.02
797.71	222.33
798.04	222.26
798.36	222.31
798.68	222.10
799.00	222.07
799.32	220.50
799.64	220.83
799.96	221.02
800.28	221.24
800.60	221.05
800.92	220.90
801.24	220.52
801.56	220.48
801.89	220.07
802.21	219.86
802.53	219.45
802.85	219.81
803.17	220.79
803.49	220.26
803.81	219.83
804.13	219.93
804.45	219.60
804.77	219.90
805.09	219.81
805.41	219.62
805.73	219.57
806.05	219.21
806.37	219.00
806.69	218.62
807.01	218.38
807.33	218.55
807.65	217.86
807.97	218.81
808.28	218.57
808.60	218.55
808.92	218.52
809.24	219.93
809.56	219.57
809.88	218.95
810.20	219.33
810.52	219.88
810.84	219.26
811.16	219.12
811.48	218.86
811.80	219.48
812.12	219.55
812.43	219.69
812.75	219.86
813.07	219.57
813.39	219.57
813.71	219.19
814.03	219.05
814.35	219.14
814.67	218.33
814.98	218.02
815.30	218.10
815.62	217.52
815.94	215.90
816.26	215.83
816.58	215.40
816.89	215.50
817.21	215.05
817.53	215.36
817.85	215.50
818.17	215.57
818.48	214.81
818.80	215.02
819.12	214.79
819.44	214.36
819.76	214.05
820.07	214.17
820.39	214.26
820.71	214.40
821.03	214.48
821.34	214.40
821.66	214.90
821.98	215.05
822.30	215.17
822.61	216.43
822.93	216.26
823.25	216.12
823.57	215.95
823.88	216.07
824.20	215.81
824.52	215.98
824.83	215.76
825.15	215.67
825.47	215.57
825.79	215.52
826.10	215.64
826.42	215.76
826.74	215.86
827.05	215.71
827.37	215.57
827.69	215.45
828.00	215.24
828.32	214.93
828.64	214.64
828.95	215.43
829.27	214.93
829.58	214.93
829.90	215.19
830.22	215.36
830.53	214.93
830.85	214.76
831.17	214.52
831.48	214.48
831.80	214.33
832.11	213.98
832.43	213.76
832.75	213.57
833.06	214.76
833.38	214.05
833.69	214.19
834.01	214.26
834.32	214.02
834.64	213.86
834.96	213.95
835.27	213.79
835.59	213.21
835.90	212.81
836.22	212.83
836.53	212.36
836.85	212.00
837.16	214.19
837.48	214.29
837.79	214.67
838.11	214.88
838.42	214.93
838.74	215.33
839.05	215.31
839.37	215.19
839.68	213.98
840.00	213.71
840.31	213.64
840.63	213.52
840.94	213.55
841.26	213.45
841.57	213.24
841.88	213.64
842.20	213.40
842.51	213.38
842.83	213.21
843.14	215.12
843.46	215.24
843.77	213.95
844.08	213.86
844.40	213.12
844.71	212.74
845.03	212.52
845.34	212.57
845.65	212.45
845.97	212.62
846.28	212.79
846.60	213.38
846.91	213.19
847.22	213.14
847.54	213.45
847.85	213.79
848.16	213.76
848.48	213.40
848.79	214.48
849.10	214.55
849.42	214.76
849.73	212.90
850.04	212.57
850.36	212.07
850.67	212.57
850.98	213.02
851.30	213.38
851.61	213.45
851.92	213.21
852.23	213.76
852.55	213.79
852.86	214.00
853.17	214.10
853.49	214.62
853.80	215.05
854.11	215.31
854.42	215.24
854.74	214.98
855.05	214.98
855.36	213.69
855.67	213.71
855.99	213.64
856.30	216.10
856.61	216.17
856.92	215.98
857.23	215.62
857.55	215.17
857.86	215.00
858.17	215.36
858.48	215.14
858.79	214.79
859.11	214.86
859.42	214.55
859.73	214.14
860.04	213.88
860.35	213.21
860.66	212.62
860.98	212.88
861.29	213.31
861.60	213.24
861.91	213.81
862.22	213.55
862.53	213.50
862.84	211.12
863.16	211.64
863.47	211.24
863.78	211.29
864.09	211.38
864.40	211.48
864.71	211.24
865.02	211.50
865.33	211.43
865.64	211.31
865.95	211.50
866.27	212.95
866.58	212.71
866.89	213.21
867.20	212.98
867.51	212.62
867.82	212.43
868.13	213.29
868.44	212.88
868.75	213.12
869.06	213.12
869.37	213.33
869.68	212.69
869.99	213.17
870.30	213.24
870.61	213.67
870.92	213.40
871.23	213.31
871.54	213.52
871.85	213.98
872.16	214.24
872.47	214.12
872.78	212.90
873.09	213.07
873.40	212.79
873.71	213.02
874.02	213.10
874.33	212.88
874.64	212.36
874.95	212.74
875.26	212.48
875.56	212.48
875.87	212.62
876.18	212.50
876.49	214.52
876.80	214.45
877.11	214.12
877.42	214.38
877.73	214.36
878.04	214.21
878.35	214.02
878.66	213.86
878.96	213.69
879.27	213.69
879.58	213.67
879.89	213.48
880.20	214.36
880.51	214.24
880.82	214.38
881.12	214.33
881.43	214.02
881.74	213.71
882.05	213.60
882.36	213.50
882.67	213.71
882.97	211.60
883.28	211.24
883.59	211.17
883.90	211.12
884.21	211.62
884.51	211.38
884.82	211.17
885.13	211.31
885.44	211.21
885.74	211.17
886.05	211.07
886.36	211.26
886.67	210.19
886.98	211.12
887.28	211.31
887.59	211.31
887.90	211.40
888.20	211.62
888.51	212.05
888.82	211.79
889.13	212.14
889.43	213.86
889.74	213.88
890.05	213.74
890.35	213.60
890.66	213.43
890.97	213.31
891.28	213.19
891.58	213.05
891.89	213.24
892.20	212.98
892.50	212.79
892.81	212.57
893.12	212.79
893.42	211.83
893.73	211.88
894.04	211.64
894.34	211.90
894.65	211.76
894.95	211.52
895.26	211.79
895.57	212.57
895.87	210.64
896.18	210.90
896.48	211.10
896.79	211.00
897.10	210.98
897.40	211.10
897.71	211.38
898.01	211.40
898.32	211.62
898.63	211.81
898.93	212.02
899.24	212.17
899.54	212.14
899.85	212.26
900.15	212.07
900.46	212.21
900.76	212.14
901.07	212.00
901.38	212.10
901.68	212.02
901.99	210.98
902.29	211.17
902.60	211.19
902.90	211.19
903.21	211.12
903.51	211.14
903.82	211.57
904.12	211.62
904.43	211.76
904.73	211.69
905.03	211.86
905.34	214.00
905.64	213.88
905.95	213.88
906.25	213.93
906.56	213.90
906.86	214.02
907.17	213.60
907.47	213.93
907.77	213.67
908.08	213.19
908.38	213.33
908.69	213.64
908.99	214.00
909.30	214.17
909.60	214.40
909.90	214.48
910.21	213.76
910.51	213.55
910.81	213.57
911.12	213.64
911.42	213.57
911.73	211.21
912.03	211.33
912.33	211.64
912.64	211.52
912.94	211.52
913.24	211.10
913.55	211.14
913.85	210.93
914.15	211.29
914.46	211.69
914.76	211.43
915.06	211.02
915.37	210.62
915.67	210.36
915.97	210.45
916.27	210.02
916.58	210.26
916.88	209.93
917.18	209.74
917.49	210.98
917.79	210.98
918.09	211.31
918.39	211.98
918.70	211.76
919.00	211.62
919.30	212.33
919.60	212.29
919.91	212.24
920.21	212.36
920.51	212.00
920.81	211.76
921.12	212.38
921.42	212.57
921.72	212.71
922.02	212.88
922.32	212.93
922.63	213.07
922.93	214.02
923.23	214.19
923.53	214.05
923.83	212.62
924.13	212.79
924.44	212.76
924.74	212.90
925.04	213.26
925.34	213.33
925.64	212.74
925.94	212.83
926.24	214.00
926.55	213.83
926.85	214.14
927.15	214.48
927.45	214.38
927.75	214.19
928.05	214.05
928.35	213.93
928.65	214.43
928.95	214.38
929.26	213.69
929.56	214.07
929.86	214.45
930.16	214.21
930.46	213.93
930.76	213.88
931.06	212.90
931.36	212.67
931.66	213.14
931.96	213.02
932.26	213.02
932.56	212.33
932.86	212.52
933.16	212.29
933.46	212.02
933.76	211.48
934.06	211.90
934.36	212.71
934.66	212.62
934.96	212.19
935.26	212.29
935.56	212.57
935.86	212.10
936.16	211.83
936.46	212.12
936.76	212.14
937.06	211.93
937.36	212.05
937.66	211.93
937.96	211.57
938.26	211.55
938.56	211.33
938.86	211.38
939.16	211.76
939.46	212.05
939.76	211.98
940.06	212.10
940.35	211.48
940.65	210.38
940.95	210.71
941.25	210.19
941.55	210.29
941.85	210.10
942.15	210.71
942.45	211.10
942.75	210.64
943.04	210.67
943.34	211.12
943.64	211.00
943.94	210.74
944.24	210.88
944.54	210.88
944.84	211.02
945.13	210.52
945.43	210.21
945.73	210.02
946.03	210.02
946.33	209.81
946.62	210.00
946.92	210.17
947.22	210.12
947.52	210.26
947.82	210.40
948.11	210.17
948.41	209.43
948.71	208.81
949.01	209.26
949.31	209.10
949.60	208.98
949.90	209.21
950.20	209.24
950.50	209.17
950.79	208.88
951.09	209.14
951.39	209.07
951.69	208.90
951.98	209.45
952.28	209.60
952.58	209.57
952.87	209.62
953.17	209.74
953.47	209.48
953.76	209.69
954.06	209.36
954.36	209.00
954.66	209.17
954.95	209.81
955.25	209.86
955.55	210.12
955.84	209.98
956.14	210.36
956.44	210.38
956.73	210.10
957.03	210.48
957.32	210.40
957.62	210.33
957.92	210.86
958.21	210.33
958.51	212.81
958.81	213.14
959.10	213.14
959.40	213.69
959.69	213.88
959.99	214.14
960.29	213.95
960.58	213.98
960.88	214.88
961.17	214.64
961.47	214.76
961.76	214.50
962.06	214.81
962.36	214.36
962.65	214.67
962.95	214.79
963.24	214.50
963.54	214.55
963.83	215.05
964.13	214.93
964.42	214.71
964.72	213.00
965.01	213.19
965.31	213.05
965.60	212.50
965.90	213.60
966.19	212.93
966.49	213.24
966.78	213.33
967.08	213.05
967.37	213.10
967.67	212.81
967.96	213.26
968.26	213.21
968.55	213.60
968.85	213.52
969.14	213.36
969.43	213.36
969.73	213.36
970.02	213.21
970.32	213.02
970.61	212.86
970.91	212.17
971.20	211.69
971.49	211.88
971.79	212.24
972.08	211.02
972.38	211.45
972.67	211.24
972.96	211.50
973.26	211.26
973.55	211.74
973.85	211.67
974.14	211.21
974.43	211.12
974.73	210.79
975.02	210.62
975.31	210.74
975.61	210.81
975.90	210.52
976.19	210.29
976.49	210.31
976.78	210.52
977.07	210.55
977.37	210.79
977.66	210.95
977.95	210.38
978.24	210.52
978.54	211.00
978.83	211.07
979.12	210.81
979.42	210.86
979.71	210.48
980.00	210.36
980.29	210.69
980.59	210.43
980.88	210.93
981.17	210.81
981.46	210.98
981.76	211.07
982.05	211.90
982.34	211.95
982.63	212.00
982.93	211.64
983.22	212.14
983.51	212.00
983.80	212.19
984.09	212.88
984.39	212.83
984.68	212.62
984.97	212.74
985.26	212.76
985.55	212.93
985.85	212.48
986.14	213.05
986.43	213.26
986.72	213.10
987.01	212.43
987.30	212.36
987.59	212.07
987.89	212.10
988.18	211.40
988.47	211.52
988.76	211.33
989.05	211.62
989.34	211.36
989.63	212.12
989.92	211.69
990.22	210.98
990.51	210.83
990.80	210.52
991.09	210.62
991.38	210.60
991.67	210.07
991.96	210.29
992.25	210.10
992.54	209.62
992.83	209.69
993.12	209.74
993.41	210.14
993.70	211.26
993.99	211.55
994.28	211.60
994.58	211.98
994.87	211.81
995.16	211.76
995.45	211.55
995.74	210.55
996.03	211.00
996.32	211.24
996.61	211.83
996.90	211.74
997.19	211.69
997.48	211.93
997.77	211.88
998.06	211.76
998.34	211.62
998.63	211.55
998.92	211.67
999.21	212.05
999.50	212.12
999.79	211.19
1000.08	211.05
1000.37	211.21
1000.66	210.74
1000.95	211.19
1001.24	211.24
1001.53	211.48
1001.82	211.64
1002.11	211.00
1002.40	211.57
1002.68	212.10
1002.97	213.50
1003.26	213.24
1003.55	213.10
1003.84	213.14
1004.13	213.98
1004.42	213.93
1004.71	214.02
1004.99	213.79
1005.28	214.21
1005.57	214.10
1005.86	214.02
1006.15	213.95
1006.44	213.74
1006.72	213.98
1007.01	213.79
1007.30	213.76
1007.59	213.48
1007.88	213.50
1008.17	213.81
1008.45	213.14
1008.74	211.95
1009.03	211.24
1009.32	211.26
1009.60	211.00
1009.89	211.02
1010.18	210.12
1010.47	210.05
1010.76	210.02
1011.04	210.24
1011.33	209.95
1011.62	209.98
1011.91	210.17
1012.19	210.14
1012.48	210.17
1012.77	210.07
1013.05	211.00
1013.34	211.19
1013.63	211.29
1013.92	211.45
1014.20	211.07
1014.49	211.29
1014.78	211.43
1015.06	210.67
1015.35	210.67
1015.64	211.14
1015.92	211.29
1016.21	211.29
1016.50	211.24
1016.78	211.45
1017.07	211.33
1017.36	211.02
1017.64	210.79
1017.93	210.79
1018.22	210.62
1018.50	210.60
1018.79	210.36
1019.08	209.12
1019.36	209.02
1019.65	208.81
1019.93	209.14
1020.22	209.60
1020.51	210.55
1020.79	210.43
1021.08	207.50
1021.36	208.00
1021.65	207.00
1021.94	205.00
1022.22	209.50
1022.51	207.50
1022.79	217.50
1023.08	213.50
1023.36	233.00
1023.65	206.00
>>>>>End Processed Spectral Data<<<<<
