SpectraSuite Data File
++++++++++++++++++++++++++++++++++++
Date: Tue Apr 02 18:39:48 EDT 2013
User: group
Dark Spectrum Present: No
Reference Spectrum Present: No
Number of Sampled Component Spectra: 1
Spectrometers: USB2E7196
Integration Time (usec): 580000 (USB2E7196)
Spectra Averaged: 2 (USB2E7196)
Boxcar Smoothing: 10 (USB2E7196)
Correct for Electrical Dark: No (USB2E7196)
Strobe/Lamp Enabled: No (USB2E7196)
Correct for Detector Non-linearity: No (USB2E7196)
Correct for Stray Light: No (USB2E7196)
Number of Pixels in Processed Spectrum: 2048
>>>>>Begin Processed Spectral Data<<<<<
339.09	0.00
339.48	194.50
339.86	193.50
340.24	198.00
340.63	197.00
341.01	236.50
341.39	203.50
341.78	209.00
342.16	212.50
342.54	208.50
342.93	198.74
343.31	208.62
343.69	209.29
344.07	210.00
344.46	210.71
344.84	211.52
345.22	210.31
345.60	210.71
345.99	210.67
346.37	210.88
346.75	210.90
347.13	210.86
347.52	211.26
347.90	212.00
348.28	212.29
348.66	213.12
349.05	212.31
349.43	212.48
349.81	212.83
350.19	212.93
350.57	212.86
350.96	213.12
351.34	213.43
351.72	213.64
352.10	213.86
352.48	213.60
352.87	213.21
353.25	213.12
353.63	213.00
354.01	213.07
354.39	212.93
354.77	213.02
355.15	213.64
355.54	213.12
355.92	212.40
356.30	212.38
356.68	213.62
357.06	214.02
357.44	213.71
357.82	213.52
358.20	214.29
358.58	214.52
358.97	214.36
359.35	214.79
359.73	215.10
360.11	215.00
360.49	215.26
360.87	215.31
361.25	215.52
361.63	216.40
362.01	216.48
362.39	216.57
362.77	216.74
363.15	216.50
363.53	216.74
363.91	217.12
364.29	217.02
364.67	214.74
365.05	214.67
365.43	214.95
365.81	215.14
366.19	215.29
366.57	216.07
366.95	216.02
367.33	215.43
367.71	215.38
368.09	215.50
368.47	215.38
368.85	215.57
369.23	216.14
369.61	215.17
369.99	215.81
370.37	215.76
370.75	216.52
371.13	215.93
371.51	215.69
371.89	215.57
372.27	215.93
372.65	216.26
373.03	216.17
373.41	215.76
373.78	215.83
374.16	214.88
374.54	214.17
374.92	214.19
375.30	214.00
375.68	213.50
376.06	213.55
376.44	213.71
376.82	213.76
377.19	213.81
377.57	213.86
377.95	213.55
378.33	213.31
378.71	212.24
379.09	212.60
379.47	212.81
379.84	212.86
380.22	212.40
380.60	212.10
380.98	212.29
381.36	212.40
381.73	212.14
382.11	212.64
382.49	212.81
382.87	212.55
383.25	212.71
383.62	215.10
384.00	214.81
384.38	214.74
384.76	215.21
385.13	215.71
385.51	215.64
385.89	215.19
386.27	215.33
386.64	215.74
387.02	215.55
387.40	215.50
387.78	215.52
388.15	215.57
388.53	215.52
388.91	215.43
389.29	215.31
389.66	215.69
390.04	215.33
390.42	215.55
390.79	215.90
391.17	215.86
391.55	213.64
391.92	213.67
392.30	214.02
392.68	213.62
393.05	213.21
393.43	213.24
393.81	213.43
394.18	213.24
394.56	213.21
394.94	213.83
395.31	213.50
395.69	214.12
396.06	214.57
396.44	214.95
396.82	215.00
397.19	216.29
397.57	216.00
397.95	216.29
398.32	215.64
398.70	215.67
399.07	216.38
399.45	216.24
399.82	216.45
400.20	215.98
400.58	216.02
400.95	215.19
401.33	215.93
401.70	217.31
402.08	217.57
402.45	217.81
402.83	217.98
403.20	218.60
403.58	218.38
403.95	218.79
404.33	219.05
404.71	219.50
405.08	220.40
405.46	220.79
405.83	221.24
406.21	221.67
406.58	222.26
406.96	222.36
407.33	223.14
407.70	223.86
408.08	226.14
408.45	227.26
408.83	228.43
409.20	228.62
409.58	228.29
409.95	229.62
410.33	230.62
410.70	231.19
411.08	232.48
411.45	233.52
411.82	234.76
412.20	236.43
412.57	238.57
412.95	238.40
413.32	240.38
413.69	242.07
414.07	244.02
414.44	246.00
414.82	248.07
415.19	250.76
415.56	253.38
415.94	255.07
416.31	258.05
416.68	261.17
417.06	264.93
417.43	268.50
417.81	272.17
418.18	276.19
418.55	280.31
418.93	284.40
419.30	289.21
419.67	294.07
420.04	299.02
420.42	303.81
420.79	311.50
421.16	317.43
421.54	324.90
421.91	331.86
422.28	338.69
422.66	346.10
423.03	354.38
423.40	361.74
423.77	369.12
424.15	376.71
424.52	385.24
424.89	394.57
425.26	403.50
425.64	411.29
426.01	420.21
426.38	429.95
426.75	440.36
427.13	450.24
427.50	460.55
427.87	471.26
428.24	482.67
428.61	492.14
428.99	504.67
429.36	516.14
429.73	528.81
430.10	540.90
430.47	553.83
430.85	565.45
431.22	578.93
431.59	595.29
431.96	609.12
432.33	624.14
432.70	639.14
433.08	656.55
433.45	673.43
433.82	690.19
434.19	708.29
434.56	726.69
434.93	744.21
435.30	761.76
435.68	780.98
436.05	798.93
436.42	817.40
436.79	834.43
437.16	853.26
437.53	872.57
437.90	892.21
438.27	911.38
438.64	931.62
439.01	950.48
439.38	965.88
439.75	982.50
440.13	1001.05
440.50	1018.02
440.87	1032.12
441.24	1046.40
441.61	1062.62
441.98	1074.81
442.35	1087.95
442.72	1102.14
443.09	1116.24
443.46	1124.76
443.83	1130.95
444.20	1136.17
444.57	1142.71
444.94	1145.64
445.31	1148.79
445.68	1154.71
446.05	1155.98
446.42	1154.95
446.79	1153.81
447.16	1151.52
447.53	1150.10
447.90	1143.69
448.27	1136.69
448.64	1127.33
449.01	1121.64
449.37	1108.60
449.74	1096.19
450.11	1083.74
450.48	1067.45
450.85	1050.64
451.22	1037.05
451.59	1023.95
451.96	1011.43
452.33	994.74
452.70	980.05
453.07	961.50
453.43	940.48
453.80	922.71
454.17	904.67
454.54	887.29
454.91	869.19
455.28	851.62
455.65	834.76
456.02	821.81
456.38	807.52
456.75	789.57
457.12	775.24
457.49	761.52
457.86	745.83
458.23	734.76
458.59	722.00
458.96	708.71
459.33	697.14
459.70	685.60
460.07	675.90
460.43	664.71
460.80	655.26
461.17	647.21
461.54	637.95
461.91	629.26
462.27	620.24
462.64	612.93
463.01	604.45
463.38	597.17
463.74	585.76
464.11	578.79
464.48	572.62
464.85	565.69
465.21	560.88
465.58	555.40
465.95	547.83
466.32	541.90
466.68	535.74
467.05	530.02
467.42	524.19
467.78	518.71
468.15	513.48
468.52	509.57
468.88	503.00
469.25	498.10
469.62	494.24
469.98	490.36
470.35	486.55
470.72	482.86
471.08	477.83
471.45	474.88
471.82	471.55
472.18	467.62
472.55	465.31
472.92	461.57
473.28	458.07
473.65	455.24
474.02	452.60
474.38	450.83
474.75	448.86
475.11	446.17
475.48	444.45
475.85	442.67
476.21	440.40
476.58	439.33
476.94	438.26
477.31	436.93
477.67	435.57
478.04	434.50
478.41	433.86
478.77	435.36
479.14	434.62
479.50	434.29
479.87	434.48
480.23	434.12
480.60	433.52
480.96	433.83
481.33	434.76
481.69	434.67
482.06	434.81
482.42	435.02
482.79	435.64
483.15	435.71
483.52	436.60
483.88	437.40
484.25	438.07
484.61	438.79
484.98	439.83
485.34	442.00
485.71	443.50
486.07	444.98
486.44	444.50
486.80	445.76
487.17	447.19
487.53	449.40
487.90	451.86
488.26	454.93
488.62	458.02
488.99	460.17
489.35	463.36
489.72	466.17
490.08	469.33
490.44	472.55
490.81	475.88
491.17	479.02
491.54	483.26
491.90	487.52
492.26	491.86
492.63	495.81
492.99	498.83
493.36	503.12
493.72	507.88
494.08	512.88
494.45	518.45
494.81	524.52
495.17	530.02
495.54	535.33
495.90	540.64
496.26	545.69
496.63	551.69
496.99	557.48
497.35	563.64
497.72	569.95
498.08	576.83
498.44	583.81
498.80	591.64
499.17	598.12
499.53	604.67
499.89	612.19
500.26	619.45
500.62	627.07
500.98	635.00
501.34	642.67
501.71	651.43
502.07	658.98
502.43	666.38
502.79	673.79
503.16	681.60
503.52	689.86
503.88	698.24
504.24	706.95
504.60	715.45
504.97	724.26
505.33	732.71
505.69	741.93
506.05	750.17
506.41	758.45
506.78	767.14
507.14	776.07
507.50	784.83
507.86	794.24
508.22	803.40
508.59	812.17
508.95	821.88
509.31	831.43
509.67	840.02
510.03	848.43
510.39	857.12
510.75	866.52
511.12	875.00
511.48	884.19
511.84	892.79
512.20	901.10
512.56	909.60
512.92	918.21
513.28	926.55
513.64	935.62
514.00	943.86
514.37	952.62
514.73	961.50
515.09	970.29
515.45	977.93
515.81	986.19
516.17	994.21
516.53	1001.50
516.89	1008.48
517.25	1016.57
517.61	1025.12
517.97	1032.98
518.33	1040.74
518.69	1049.74
519.05	1057.31
519.41	1064.90
519.77	1073.79
520.13	1081.12
520.49	1088.26
520.85	1095.07
521.21	1103.00
521.57	1110.31
521.93	1116.95
522.29	1124.40
522.65	1130.52
523.01	1138.45
523.37	1144.50
523.73	1151.93
524.09	1158.14
524.45	1164.33
524.81	1170.33
525.17	1176.79
525.53	1183.95
525.89	1190.33
526.25	1195.50
526.61	1201.21
526.97	1206.40
527.33	1211.74
527.68	1219.14
528.04	1225.19
528.40	1230.74
528.76	1236.14
529.12	1241.98
529.48	1249.05
529.84	1253.74
530.20	1259.55
530.56	1265.38
530.91	1272.52
531.27	1276.95
531.63	1282.79
531.99	1287.36
532.35	1293.79
532.71	1299.02
533.07	1304.05
533.42	1311.55
533.78	1317.71
534.14	1323.50
534.50	1329.07
534.86	1335.40
535.21	1339.88
535.57	1346.64
535.93	1352.12
536.29	1357.79
536.65	1362.86
537.00	1367.98
537.36	1373.02
537.72	1377.12
538.08	1381.24
538.44	1384.93
538.79	1390.29
539.15	1394.60
539.51	1400.93
539.87	1405.52
540.22	1409.38
540.58	1414.00
540.94	1416.07
541.29	1419.48
541.65	1423.43
542.01	1428.55
542.37	1431.93
542.72	1435.86
543.08	1437.86
543.44	1443.02
543.79	1446.10
544.15	1450.67
544.51	1454.29
544.87	1458.48
545.22	1463.50
545.58	1467.33
545.94	1471.55
546.29	1475.45
546.65	1479.07
547.01	1481.93
547.36	1484.67
547.72	1488.64
548.07	1493.33
548.43	1497.50
548.79	1501.38
549.14	1504.50
549.50	1508.36
549.86	1511.45
550.21	1514.45
550.57	1518.79
550.92	1521.38
551.28	1525.07
551.64	1528.79
551.99	1532.00
552.35	1535.33
552.70	1537.69
553.06	1540.74
553.41	1544.74
553.77	1549.60
554.13	1554.17
554.48	1558.67
554.84	1564.38
555.19	1569.38
555.55	1574.02
555.90	1578.17
556.26	1582.48
556.61	1586.83
556.97	1589.93
557.32	1593.31
557.68	1597.31
558.03	1601.38
558.39	1605.57
558.74	1610.17
559.10	1614.10
559.45	1618.60
559.81	1623.57
560.16	1628.36
560.52	1633.33
560.87	1638.38
561.23	1641.26
561.58	1647.12
561.94	1651.81
562.29	1655.17
562.64	1659.29
563.00	1661.93
563.35	1665.71
563.71	1670.55
564.06	1675.83
564.42	1681.38
564.77	1688.14
565.12	1693.90
565.48	1700.90
565.83	1706.43
566.19	1711.17
566.54	1716.48
566.89	1721.19
567.25	1726.88
567.60	1733.19
567.96	1740.02
568.31	1745.12
568.66	1751.57
569.02	1753.83
569.37	1756.71
569.72	1761.07
570.08	1765.07
570.43	1769.05
570.78	1773.83
571.14	1777.38
571.49	1780.79
571.84	1784.60
572.20	1787.12
572.55	1790.71
572.90	1792.10
573.26	1794.62
573.61	1797.62
573.96	1799.79
574.31	1801.86
574.67	1803.31
575.02	1805.26
575.37	1805.33
575.72	1806.38
576.08	1806.69
576.43	1809.81
576.78	1812.14
577.13	1813.60
577.49	1815.45
577.84	1818.05
578.19	1819.81
578.54	1822.38
578.90	1824.29
579.25	1825.24
579.60	1825.93
579.95	1826.31
580.30	1827.74
580.66	1829.40
581.01	1830.67
581.36	1831.02
581.71	1831.31
582.06	1832.83
582.42	1833.07
582.77	1832.98
583.12	1833.12
583.47	1832.83
583.82	1832.98
584.17	1833.38
584.53	1833.95
584.88	1833.64
585.23	1834.76
585.58	1833.62
585.93	1831.64
586.28	1831.19
586.63	1830.67
586.98	1831.07
587.34	1831.60
587.69	1830.26
588.04	1829.24
588.39	1828.10
588.74	1826.79
589.09	1826.86
589.44	1824.67
589.79	1824.05
590.14	1823.79
590.49	1822.24
590.84	1821.00
591.19	1819.69
591.54	1818.81
591.89	1816.81
592.25	1816.26
592.60	1811.86
592.95	1810.67
593.30	1810.26
593.65	1807.93
594.00	1805.31
594.35	1808.88
594.70	1806.02
595.05	1803.69
595.40	1800.64
595.75	1798.02
596.10	1796.33
596.45	1793.88
596.80	1792.21
597.15	1790.00
597.50	1786.90
597.85	1785.33
598.19	1784.17
598.54	1781.33
598.89	1778.55
599.24	1776.90
599.59	1774.14
599.94	1772.79
600.29	1770.07
600.64	1767.60
600.99	1765.29
601.34	1763.43
601.69	1754.33
602.04	1751.43
602.39	1748.79
602.74	1747.55
603.08	1744.26
603.43	1743.00
603.78	1741.31
604.13	1738.02
604.48	1734.14
604.83	1731.93
605.18	1729.29
605.53	1725.31
605.87	1721.98
606.22	1718.43
606.57	1715.12
606.92	1711.48
607.27	1708.31
607.62	1705.48
607.96	1701.38
608.31	1697.79
608.66	1694.79
609.01	1691.64
609.36	1687.86
609.70	1683.95
610.05	1679.62
610.40	1675.93
610.75	1669.74
611.10	1664.29
611.44	1659.88
611.79	1655.43
612.14	1650.71
612.49	1644.71
612.83	1640.05
613.18	1635.02
613.53	1629.57
613.88	1623.60
614.22	1617.93
614.57	1611.67
614.92	1605.29
615.27	1600.10
615.61	1594.29
615.96	1587.24
616.31	1581.26
616.65	1576.81
617.00	1571.69
617.35	1565.76
617.70	1560.38
618.04	1555.57
618.39	1549.31
618.74	1543.38
619.08	1537.40
619.43	1531.29
619.78	1525.74
620.12	1520.10
620.47	1515.02
620.82	1509.05
621.16	1502.76
621.51	1498.38
621.85	1492.45
622.20	1486.76
622.55	1479.76
622.89	1473.31
623.24	1468.36
623.59	1462.52
623.93	1456.19
624.28	1450.21
624.62	1445.95
624.97	1441.55
625.32	1435.69
625.66	1430.33
626.01	1423.88
626.35	1418.95
626.70	1413.57
627.04	1409.17
627.39	1403.38
627.73	1397.71
628.08	1393.19
628.43	1387.76
628.77	1381.14
629.12	1375.81
629.46	1370.52
629.81	1365.60
630.15	1360.17
630.50	1352.90
630.84	1346.86
631.19	1340.12
631.53	1333.36
631.88	1324.10
632.22	1315.76
632.57	1309.60
632.91	1302.81
633.26	1297.76
633.60	1290.79
633.95	1284.26
634.29	1276.55
634.64	1270.76
634.98	1264.24
635.32	1258.33
635.67	1252.52
636.01	1246.02
636.36	1239.69
636.70	1233.52
637.05	1227.33
637.39	1221.52
637.73	1216.64
638.08	1211.43
638.42	1205.40
638.77	1200.93
639.11	1196.14
639.45	1190.52
639.80	1183.90
640.14	1178.19
640.49	1170.95
640.83	1164.76
641.17	1159.02
641.52	1152.55
641.86	1145.71
642.20	1139.24
642.55	1132.00
642.89	1125.52
643.23	1118.81
643.58	1113.26
643.92	1105.95
644.26	1099.12
644.61	1092.62
644.95	1085.36
645.29	1077.57
645.64	1071.43
645.98	1064.12
646.32	1058.14
646.66	1051.33
647.01	1045.00
647.35	1038.38
647.69	1033.19
648.04	1027.10
648.38	1020.74
648.72	1014.55
649.06	1008.24
649.41	1001.31
649.75	994.81
650.09	988.38
650.43	981.90
650.78	974.14
651.12	967.60
651.46	961.38
651.80	954.76
652.14	949.21
652.49	944.33
652.83	938.33
653.17	932.14
653.51	924.57
653.85	918.55
654.20	911.69
654.54	905.02
654.88	897.71
655.22	892.00
655.56	885.31
655.90	879.31
656.25	873.43
656.59	867.86
656.93	862.31
657.27	857.07
657.61	850.81
657.95	846.26
658.29	840.60
658.64	834.52
658.98	828.45
659.32	822.24
659.66	815.74
660.00	809.26
660.34	803.69
660.68	798.07
661.02	792.05
661.36	786.90
661.70	782.17
662.05	776.86
662.39	771.50
662.73	766.67
663.07	762.52
663.41	757.31
663.75	752.00
664.09	746.00
664.43	739.74
664.77	734.50
665.11	728.24
665.45	722.95
665.79	718.21
666.13	713.36
666.47	707.86
666.81	702.67
667.15	696.88
667.49	691.74
667.83	688.00
668.17	683.64
668.51	678.90
668.85	674.00
669.19	670.14
669.53	664.43
669.87	658.98
670.21	653.26
670.55	648.00
670.89	643.98
671.23	639.88
671.57	636.14
671.91	632.21
672.25	627.52
672.58	624.31
672.92	620.02
673.26	615.67
673.60	611.76
673.94	607.98
674.28	604.83
674.62	601.17
674.96	596.38
675.30	592.45
675.64	588.36
675.97	584.19
676.31	579.62
676.65	575.74
676.99	573.33
677.33	569.45
677.67	566.14
678.01	561.83
678.34	558.33
678.68	555.00
679.02	550.76
679.36	547.36
679.70	542.90
680.04	538.74
680.37	535.10
680.71	531.62
681.05	528.67
681.39	524.90
681.73	521.02
682.06	517.29
682.40	513.50
682.74	510.60
683.08	508.21
683.42	504.86
683.75	501.79
684.09	497.33
684.43	493.86
684.77	490.00
685.10	486.86
685.44	483.07
685.78	479.05
686.12	475.98
686.45	472.57
686.79	469.36
687.13	467.14
687.46	464.14
687.80	461.45
688.14	457.29
688.48	454.45
688.81	451.55
689.15	449.76
689.49	447.14
689.82	444.05
690.16	439.98
690.50	437.36
690.83	434.48
691.17	431.40
691.51	428.62
691.84	426.24
692.18	423.19
692.52	420.81
692.85	419.00
693.19	417.38
693.52	415.05
693.86	412.67
694.20	409.90
694.53	407.31
694.87	404.69
695.21	402.10
695.54	399.64
695.88	396.86
696.21	393.45
696.55	391.02
696.88	388.71
697.22	386.69
697.56	384.57
697.89	382.07
698.23	380.19
698.56	378.26
698.90	376.55
699.23	374.52
699.57	372.48
699.90	369.62
700.24	366.76
700.58	365.12
700.91	363.43
701.25	362.81
701.58	361.81
701.92	360.40
702.25	358.88
702.59	356.98
702.92	355.33
703.26	353.98
703.59	352.38
703.93	352.19
704.26	350.81
704.60	348.98
704.93	347.33
705.26	345.40
705.60	343.93
705.93	341.88
706.27	340.90
706.60	340.02
706.94	339.60
707.27	338.55
707.61	337.26
707.94	335.33
708.27	332.17
708.61	329.74
708.94	327.86
709.28	326.55
709.61	325.14
709.94	323.90
710.28	322.36
710.61	320.98
710.95	317.76
711.28	317.36
711.61	315.88
711.95	315.26
712.28	314.12
712.61	312.76
712.95	312.60
713.28	311.83
713.61	310.00
713.95	308.17
714.28	306.90
714.61	305.45
714.95	304.33
715.28	303.00
715.61	302.29
715.95	301.31
716.28	300.10
716.61	299.48
716.95	297.98
717.28	297.05
717.61	296.05
717.94	295.02
718.28	292.52
718.61	291.74
718.94	290.17
719.27	289.02
719.61	288.38
719.94	286.81
720.27	284.93
720.60	283.88
720.94	283.00
721.27	282.12
721.60	281.88
721.93	281.10
722.27	281.19
722.60	280.45
722.93	279.62
723.26	279.17
723.59	278.02
723.93	277.60
724.26	276.88
724.59	276.10
724.92	275.74
725.25	275.98
725.59	275.00
725.92	274.48
726.25	274.12
726.58	273.40
726.91	272.69
727.24	272.36
727.57	271.60
727.91	270.67
728.24	270.14
728.57	268.95
728.90	268.60
729.23	267.10
729.56	267.43
729.89	266.86
730.22	265.62
730.55	264.95
730.89	264.29
731.22	263.55
731.55	262.69
731.88	261.90
732.21	260.74
732.54	259.83
732.87	259.31
733.20	258.81
733.53	258.29
733.86	257.86
734.19	256.98
734.52	256.86
734.85	257.55
735.18	256.52
735.51	256.45
735.84	255.98
736.17	256.07
736.50	254.33
736.83	256.50
737.16	256.29
737.49	256.00
737.82	255.55
738.15	255.14
738.48	255.00
738.81	254.71
739.14	254.14
739.47	254.19
739.80	253.81
740.13	253.52
740.46	252.79
740.79	252.10
741.12	251.55
741.45	250.83
741.78	249.69
742.11	250.21
742.44	249.62
742.77	249.79
743.10	249.14
743.43	248.76
743.75	245.71
744.08	248.05
744.41	247.57
744.74	247.17
745.07	246.83
745.40	246.43
745.73	246.76
746.06	246.55
746.39	246.07
746.71	245.48
747.04	244.67
747.37	244.10
747.70	244.05
748.03	244.17
748.36	244.33
748.68	243.74
749.01	242.86
749.34	242.38
749.67	241.86
750.00	241.79
750.33	243.12
750.65	243.33
750.98	240.69
751.31	240.43
751.64	240.14
751.97	240.93
752.29	240.57
752.62	239.52
752.95	238.95
753.28	238.40
753.60	238.21
753.93	238.74
754.26	238.64
754.59	237.71
754.91	237.12
755.24	236.40
755.57	236.21
755.90	235.62
756.22	235.64
756.55	235.19
756.88	234.57
757.20	232.90
757.53	232.02
757.86	231.74
758.19	231.74
758.51	231.50
758.84	230.17
759.17	229.98
759.49	230.00
759.82	231.02
760.15	231.17
760.47	230.81
760.80	229.95
761.13	230.21
761.45	229.88
761.78	229.83
762.11	229.74
762.43	229.55
762.76	229.50
763.08	229.29
763.41	229.05
763.74	229.10
764.06	228.95
764.39	228.74
764.71	228.48
765.04	228.17
765.37	227.90
765.69	227.71
766.02	227.52
766.34	227.10
766.67	226.07
767.00	226.33
767.32	227.50
767.65	228.74
767.97	228.43
768.30	228.62
768.62	228.43
768.95	228.24
769.27	227.93
769.60	228.17
769.92	227.67
770.25	227.14
770.57	226.64
770.90	226.76
771.22	226.31
771.55	226.17
771.87	225.79
772.20	225.60
772.52	227.17
772.85	229.31
773.17	229.21
773.50	228.98
773.82	228.38
774.15	227.29
774.47	225.64
774.80	225.29
775.12	225.07
775.45	224.90
775.77	224.83
776.09	224.90
776.42	224.50
776.74	225.29
777.07	225.17
777.39	225.26
777.72	224.62
778.04	224.98
778.36	224.71
778.69	224.81
779.01	224.95
779.33	223.12
779.66	220.71
779.98	220.45
780.31	220.43
780.63	221.29
780.95	221.40
781.28	221.48
781.60	221.26
781.92	221.43
782.25	221.17
782.57	220.86
782.89	220.45
783.22	220.31
783.54	219.60
783.86	219.76
784.19	219.38
784.51	220.00
784.83	219.62
785.16	219.69
785.48	219.50
785.80	219.50
786.12	219.64
786.45	219.79
786.77	219.81
787.09	219.55
787.42	218.93
787.74	218.88
788.06	218.71
788.38	218.55
788.71	218.12
789.03	218.36
789.35	218.98
789.67	218.71
789.99	219.10
790.32	218.71
790.64	218.98
790.96	220.76
791.28	220.12
791.61	220.07
791.93	220.10
792.25	220.10
792.57	221.21
792.89	220.79
793.21	220.90
793.54	220.76
793.86	220.79
794.18	220.57
794.50	220.26
794.82	220.33
795.14	220.69
795.47	221.24
795.79	221.19
796.11	220.33
796.43	220.45
796.75	220.24
797.07	220.33
797.39	220.12
797.71	218.76
798.04	218.86
798.36	219.02
798.68	219.00
799.00	219.12
799.32	218.14
799.64	218.31
799.96	218.12
800.28	218.57
800.60	218.50
800.92	218.67
801.24	218.62
801.56	218.64
801.89	218.50
802.21	218.55
802.53	218.17
802.85	218.69
803.17	219.83
803.49	219.38
803.81	219.29
804.13	218.90
804.45	218.57
804.77	218.57
805.09	218.38
805.41	218.38
805.73	218.14
806.05	217.71
806.37	217.62
806.69	217.33
807.01	217.31
807.33	217.36
807.65	216.90
807.97	217.74
808.28	217.76
808.60	217.69
808.92	217.50
809.24	218.98
809.56	218.57
809.88	217.71
810.20	217.83
810.52	218.38
810.84	218.38
811.16	218.02
811.48	217.95
811.80	219.05
812.12	218.69
812.43	218.57
812.75	218.52
813.07	218.24
813.39	218.36
813.71	217.76
814.03	217.50
814.35	217.14
814.67	216.05
814.98	215.67
815.30	215.50
815.62	214.76
815.94	213.17
816.26	213.19
816.58	212.67
816.89	212.93
817.21	212.43
817.53	212.43
817.85	212.50
818.17	212.48
818.48	211.40
818.80	211.79
819.12	211.79
819.44	211.71
819.76	211.57
820.07	211.67
820.39	211.67
820.71	211.79
821.03	211.90
821.34	212.05
821.66	212.45
821.98	212.76
822.30	213.00
822.61	214.31
822.93	214.14
823.25	214.07
823.57	213.86
823.88	213.81
824.20	213.86
824.52	214.14
824.83	214.14
825.15	214.07
825.47	213.95
825.79	214.12
826.10	213.93
826.42	214.17
826.74	214.52
827.05	214.43
827.37	214.43
827.69	214.45
828.00	214.55
828.32	214.33
828.64	213.98
828.95	215.00
829.27	214.33
829.58	214.55
829.90	214.98
830.22	214.98
830.53	214.86
830.85	214.69
831.17	214.52
831.48	214.55
831.80	214.48
832.11	214.31
832.43	214.21
832.75	214.26
833.06	215.52
833.38	214.86
833.69	214.95
834.01	215.10
834.32	215.17
834.64	215.05
834.96	214.98
835.27	215.10
835.59	214.36
835.90	214.05
836.22	213.90
836.53	213.57
836.85	213.45
837.16	215.38
837.48	215.26
837.79	215.81
838.11	215.79
838.42	216.12
838.74	216.57
839.05	216.19
839.37	216.26
839.68	214.86
840.00	214.71
840.31	215.00
840.63	214.74
840.94	214.57
841.26	214.33
841.57	214.26
841.88	214.38
842.20	214.26
842.51	214.12
842.83	214.24
843.14	215.88
843.46	215.86
843.77	214.69
844.08	214.71
844.40	214.26
844.71	214.02
845.03	213.43
845.34	213.12
845.65	213.40
845.97	213.24
846.28	213.40
846.60	213.71
846.91	213.43
847.22	213.36
847.54	213.83
847.85	213.95
848.16	213.86
848.48	213.69
848.79	214.40
849.10	214.71
849.42	214.74
849.73	213.10
850.04	213.05
850.36	212.55
850.67	212.93
850.98	212.62
851.30	212.95
851.61	213.02
851.92	212.98
852.23	213.50
852.55	213.57
852.86	213.69
853.17	213.81
853.49	214.38
853.80	214.79
854.11	214.95
854.42	215.17
854.74	215.00
855.05	214.90
855.36	213.83
855.67	213.86
855.99	213.79
856.30	216.26
856.61	216.31
856.92	216.52
857.23	216.40
857.55	216.26
857.86	216.26
858.17	216.83
858.48	216.45
858.79	215.98
859.11	216.24
859.42	216.07
859.73	215.83
860.04	215.45
860.35	214.86
860.66	214.24
860.98	214.14
861.29	214.36
861.60	214.21
861.91	214.79
862.22	214.24
862.53	214.17
862.84	211.62
863.16	212.21
863.47	211.64
863.78	211.55
864.09	211.95
864.40	211.88
864.71	211.81
865.02	212.21
865.33	211.83
865.64	211.76
865.95	211.74
866.27	212.71
866.58	212.62
866.89	213.29
867.20	213.14
867.51	212.93
867.82	212.93
868.13	213.57
868.44	213.10
868.75	213.67
869.06	213.67
869.37	213.81
869.68	212.98
869.99	213.38
870.30	213.48
870.61	213.43
870.92	213.14
871.23	212.98
871.54	213.17
871.85	213.79
872.16	213.81
872.47	213.60
872.78	212.36
873.09	212.55
873.40	212.17
873.71	212.31
874.02	212.45
874.33	212.36
874.64	211.86
874.95	212.36
875.26	211.93
875.56	212.07
875.87	212.19
876.18	212.07
876.49	214.05
876.80	213.98
877.11	213.62
877.42	213.64
877.73	213.43
878.04	213.07
878.35	213.07
878.66	213.14
878.96	213.33
879.27	213.48
879.58	213.24
879.89	213.10
880.20	213.90
880.51	213.86
880.82	213.98
881.12	214.10
881.43	213.79
881.74	213.76
882.05	213.64
882.36	213.74
882.67	214.02
882.97	211.71
883.28	211.50
883.59	211.36
883.90	211.62
884.21	212.14
884.51	212.10
884.82	211.62
885.13	211.38
885.44	211.10
885.74	211.17
886.05	211.19
886.36	211.12
886.67	209.98
886.98	211.12
887.28	211.24
887.59	211.29
887.90	211.24
888.20	211.02
888.51	211.31
888.82	210.98
889.13	211.17
889.43	213.14
889.74	213.00
890.05	213.24
890.35	212.95
890.66	212.55
890.97	212.29
891.28	212.26
891.58	212.43
891.89	212.55
892.20	212.40
892.50	212.29
892.81	212.29
893.12	212.50
893.42	211.21
893.73	211.12
894.04	211.02
894.34	211.14
894.65	211.19
894.95	210.71
895.26	210.83
895.57	211.62
895.87	209.50
896.18	209.95
896.48	210.21
896.79	210.50
897.10	210.71
897.40	210.88
897.71	211.29
898.01	211.24
898.32	211.52
898.63	211.38
898.93	211.57
899.24	211.64
899.54	211.60
899.85	211.64
900.15	211.79
900.46	211.74
900.76	211.93
901.07	211.98
901.38	212.31
901.68	212.74
901.99	211.81
902.29	212.07
902.60	211.86
902.90	211.45
903.21	211.40
903.51	211.36
903.82	211.83
904.12	211.67
904.43	211.69
904.73	211.50
905.03	211.86
905.34	213.69
905.64	213.79
905.95	213.81
906.25	213.88
906.56	213.83
906.86	213.95
907.17	213.76
907.47	213.86
907.77	213.55
908.08	213.07
908.38	213.17
908.69	213.31
908.99	213.60
909.30	213.76
909.60	213.69
909.90	213.64
910.21	213.14
910.51	212.98
910.81	213.24
911.12	213.36
911.42	213.36
911.73	211.52
912.03	211.57
912.33	212.07
912.64	211.90
912.94	211.69
913.24	211.38
913.55	211.05
913.85	210.79
914.15	211.14
914.46	211.02
914.76	210.67
915.06	210.29
915.37	209.98
915.67	209.86
915.97	209.76
916.27	209.29
916.58	209.26
916.88	209.12
917.18	208.90
917.49	210.45
917.79	210.29
918.09	210.24
918.39	210.74
918.70	210.40
919.00	210.38
919.30	211.21
919.60	211.19
919.91	211.19
920.21	211.26
920.51	210.76
920.81	210.93
921.12	211.52
921.42	211.76
921.72	211.93
922.02	212.10
922.32	212.33
922.63	212.69
922.93	213.81
923.23	214.05
923.53	213.83
923.83	212.29
924.13	212.50
924.44	212.48
924.74	212.48
925.04	212.88
925.34	213.19
925.64	212.64
925.94	212.60
926.24	213.76
926.55	213.83
926.85	214.29
927.15	214.24
927.45	214.26
927.75	214.26
928.05	214.45
928.35	214.43
928.65	214.69
928.95	214.79
929.26	213.90
929.56	214.33
929.86	214.62
930.16	214.71
930.46	214.57
930.76	214.71
931.06	214.14
931.36	213.69
931.66	213.81
931.96	213.81
932.26	213.79
932.56	212.74
932.86	212.98
933.16	212.88
933.46	212.71
933.76	212.38
934.06	212.71
934.36	213.24
934.66	213.05
934.96	212.79
935.26	212.95
935.56	213.43
935.86	212.69
936.16	212.45
936.46	212.10
936.76	211.95
937.06	211.67
937.36	211.69
937.66	211.81
937.96	211.55
938.26	211.14
938.56	211.45
938.86	211.83
939.16	212.14
939.46	212.24
939.76	212.26
940.06	212.14
940.35	211.64
940.65	210.55
940.95	210.93
941.25	210.57
941.55	210.24
941.85	209.81
942.15	210.45
942.45	211.00
942.75	211.07
943.04	211.43
943.34	211.86
943.64	211.69
943.94	211.40
944.24	211.50
944.54	211.71
944.84	211.45
945.13	211.31
945.43	210.79
945.73	210.71
946.03	210.86
946.33	210.81
946.62	210.74
946.92	210.88
947.22	211.00
947.52	211.05
947.82	211.31
948.11	211.17
948.41	210.64
948.71	210.12
949.01	210.24
949.31	209.90
949.60	209.74
949.90	210.07
950.20	210.19
950.50	210.29
950.79	210.12
951.09	210.38
951.39	209.95
951.69	209.98
951.98	210.50
952.28	210.60
952.58	210.67
952.87	210.64
953.17	211.10
953.47	210.64
953.76	210.74
954.06	210.38
954.36	210.12
954.66	210.10
954.95	210.52
955.25	210.52
955.55	210.76
955.84	210.57
956.14	210.55
956.44	210.40
956.73	209.98
957.03	210.17
957.32	210.12
957.62	210.29
957.92	210.69
958.21	210.40
958.51	212.71
958.81	212.83
959.10	213.29
959.40	213.38
959.69	213.71
959.99	214.05
960.29	214.00
960.58	214.36
960.88	215.33
961.17	215.02
961.47	215.26
961.76	215.02
962.06	215.43
962.36	215.10
962.65	215.31
962.95	215.60
963.24	215.52
963.54	215.74
963.83	215.74
964.13	215.52
964.42	214.95
964.72	213.29
965.01	213.36
965.31	213.17
965.60	212.88
965.90	214.21
966.19	213.67
966.49	213.83
966.78	213.57
967.08	213.29
967.37	213.48
967.67	213.17
967.96	213.71
968.26	213.45
968.55	214.17
968.85	214.29
969.14	214.26
969.43	214.05
969.73	213.79
970.02	213.81
970.32	213.60
970.61	213.86
970.91	213.17
971.20	212.90
971.49	212.60
971.79	212.71
972.08	211.21
972.38	211.50
972.67	211.40
972.96	211.64
973.26	211.21
973.55	211.71
973.85	211.71
974.14	211.50
974.43	211.71
974.73	211.14
975.02	210.86
975.31	210.86
975.61	210.98
975.90	210.81
976.19	210.69
976.49	211.00
976.78	210.98
977.07	210.86
977.37	210.93
977.66	211.24
977.95	210.95
978.24	211.05
978.54	211.45
978.83	211.50
979.12	211.31
979.42	211.29
979.71	210.81
980.00	210.60
980.29	210.38
980.59	209.93
980.88	210.57
981.17	210.52
981.46	210.43
981.76	210.26
982.05	211.00
982.34	211.00
982.63	210.93
982.93	210.98
983.22	211.64
983.51	211.67
983.80	211.93
984.09	212.21
984.39	212.07
984.68	211.90
984.97	211.86
985.26	211.74
985.55	211.79
985.85	211.26
986.14	211.76
986.43	211.88
986.72	211.67
987.01	210.93
987.30	210.79
987.59	210.71
987.89	210.79
988.18	210.12
988.47	210.07
988.76	209.81
989.05	209.64
989.34	209.14
989.63	209.74
989.92	209.45
990.22	209.07
990.51	209.12
990.80	208.79
991.09	209.10
991.38	209.40
991.67	209.40
991.96	209.48
992.25	209.40
992.54	209.31
992.83	209.55
993.12	209.69
993.41	210.07
993.70	210.86
993.99	211.24
994.28	211.55
994.58	211.79
994.87	211.62
995.16	211.67
995.45	211.45
995.74	210.55
996.03	210.83
996.32	211.36
996.61	211.64
996.90	211.57
997.19	211.52
997.48	211.40
997.77	211.12
998.06	211.26
998.34	211.19
998.63	211.07
998.92	211.17
999.21	211.57
999.50	211.79
999.79	211.29
1000.08	211.24
1000.37	211.26
1000.66	211.02
1000.95	211.55
1001.24	211.60
1001.53	212.00
1001.82	212.19
1002.11	211.79
1002.40	211.90
1002.68	212.38
1002.97	213.81
1003.26	213.29
1003.55	213.12
1003.84	213.29
1004.13	213.90
1004.42	213.90
1004.71	214.07
1004.99	213.98
1005.28	214.36
1005.57	214.10
1005.86	213.69
1006.15	213.57
1006.44	213.14
1006.72	213.50
1007.01	213.05
1007.30	213.19
1007.59	213.02
1007.88	213.00
1008.17	213.07
1008.45	212.50
1008.74	211.69
1009.03	210.69
1009.32	210.86
1009.60	211.00
1009.89	211.00
1010.18	210.21
1010.47	210.05
1010.76	210.10
1011.04	210.02
1011.33	210.00
1011.62	210.19
1011.91	210.69
1012.19	210.76
1012.48	210.76
1012.77	210.76
1013.05	211.81
1013.34	211.67
1013.63	211.57
1013.92	211.76
1014.20	211.74
1014.49	211.81
1014.78	211.81
1015.06	211.31
1015.35	211.26
1015.64	211.52
1015.92	211.71
1016.21	211.86
1016.50	211.79
1016.78	211.93
1017.07	212.17
1017.36	211.62
1017.64	211.38
1017.93	211.40
1018.22	211.36
1018.50	211.43
1018.79	211.36
1019.08	210.24
1019.36	210.50
1019.65	210.33
1019.93	211.00
1020.22	211.24
1020.51	212.52
1020.79	212.45
1021.08	210.50
1021.36	207.50
1021.65	212.50
1021.94	204.50
1022.22	215.00
1022.51	207.50
1022.79	225.50
1023.08	214.00
1023.36	237.50
1023.65	206.00
>>>>>End Processed Spectral Data<<<<<
