SpectraSuite Data File
++++++++++++++++++++++++++++++++++++
Date: Tue Apr 02 18:45:45 EDT 2013
User: group
Dark Spectrum Present: No
Reference Spectrum Present: No
Number of Sampled Component Spectra: 1
Spectrometers: USB2E7196
Integration Time (usec): 580000 (USB2E7196)
Spectra Averaged: 2 (USB2E7196)
Boxcar Smoothing: 10 (USB2E7196)
Correct for Electrical Dark: No (USB2E7196)
Strobe/Lamp Enabled: No (USB2E7196)
Correct for Detector Non-linearity: No (USB2E7196)
Correct for Stray Light: No (USB2E7196)
Number of Pixels in Processed Spectrum: 2048
>>>>>Begin Processed Spectral Data<<<<<
339.09	0.00
339.48	190.50
339.86	194.50
340.24	199.50
340.63	199.00
341.01	230.00
341.39	203.00
341.78	205.00
342.16	214.00
342.54	202.50
342.93	197.76
343.31	207.60
343.69	208.29
344.07	208.88
344.46	209.50
344.84	209.88
345.22	208.79
345.60	209.07
345.99	209.24
346.37	209.12
346.75	209.36
347.13	209.36
347.52	209.19
347.90	209.93
348.28	210.00
348.66	210.14
349.05	209.43
349.43	209.31
349.81	209.19
350.19	209.40
350.57	209.55
350.96	209.74
351.34	209.95
351.72	210.07
352.10	210.00
352.48	209.74
352.87	209.81
353.25	209.76
353.63	209.86
354.01	210.07
354.39	210.00
354.77	209.79
355.15	210.45
355.54	210.50
355.92	209.90
356.30	210.05
356.68	211.19
357.06	211.57
357.44	211.31
357.82	211.38
358.20	212.26
358.58	212.21
358.97	212.26
359.35	212.52
359.73	212.88
360.11	212.95
360.49	213.10
360.87	213.12
361.25	213.45
361.63	213.93
362.01	214.00
362.39	214.02
362.77	214.43
363.15	214.14
363.53	214.45
363.91	214.50
364.29	214.40
364.67	212.57
365.05	212.69
365.43	213.02
365.81	213.24
366.19	213.50
366.57	214.33
366.95	214.19
367.33	213.90
367.71	214.10
368.09	214.79
368.47	214.88
368.85	214.98
369.23	215.64
369.61	215.10
369.99	215.64
370.37	215.90
370.75	216.93
371.13	216.55
371.51	216.24
371.89	216.55
372.27	216.76
372.65	217.29
373.03	217.21
373.41	217.10
373.78	217.07
374.16	216.07
374.54	215.43
374.92	215.52
375.30	215.57
375.68	215.10
376.06	215.02
376.44	214.79
376.82	214.76
377.19	214.45
377.57	214.24
377.95	213.64
378.33	213.21
378.71	211.93
379.09	212.45
379.47	212.60
379.84	212.50
380.22	212.45
380.60	212.05
380.98	212.10
381.36	212.10
381.73	211.81
382.11	212.36
382.49	212.62
382.87	212.31
383.25	212.38
383.62	214.86
384.00	214.50
384.38	214.76
384.76	215.14
385.13	215.98
385.51	216.14
385.89	215.81
386.27	216.33
386.64	216.98
387.02	216.81
387.40	216.64
387.78	216.79
388.15	216.69
388.53	216.67
388.91	216.69
389.29	216.64
389.66	216.83
390.04	216.33
390.42	216.74
390.79	216.88
391.17	216.81
391.55	214.52
391.92	214.31
392.30	214.67
392.68	214.26
393.05	214.00
393.43	214.10
393.81	214.33
394.18	213.79
394.56	213.55
394.94	213.81
395.31	213.60
395.69	213.98
396.06	214.40
396.44	214.62
396.82	214.52
397.19	215.45
397.57	215.29
397.95	215.62
398.32	214.86
398.70	214.93
399.07	215.48
399.45	215.24
399.82	215.55
400.20	215.21
400.58	215.24
400.95	214.31
401.33	214.93
401.70	216.60
402.08	216.98
402.45	217.12
402.83	217.79
403.20	218.33
403.58	218.21
403.95	218.64
404.33	218.93
404.71	219.14
405.08	220.26
405.46	220.83
405.83	221.14
406.21	221.69
406.58	222.21
406.96	222.21
407.33	222.93
407.70	223.64
408.08	225.62
408.45	226.48
408.83	227.48
409.20	227.88
409.58	227.29
409.95	228.14
410.33	229.00
410.70	229.21
411.08	230.10
411.45	231.00
411.82	231.60
412.20	233.26
412.57	235.52
412.95	235.29
413.32	237.26
413.69	238.52
414.07	239.98
414.44	241.86
414.82	243.95
415.19	246.50
415.56	248.43
415.94	249.71
416.31	252.55
416.68	255.40
417.06	258.60
417.43	261.88
417.81	265.48
418.18	269.05
418.55	272.71
418.93	276.62
419.30	280.90
419.67	285.74
420.04	290.07
420.42	294.40
420.79	301.67
421.16	306.88
421.54	313.60
421.91	320.24
422.28	326.50
422.66	333.10
423.03	340.71
423.40	347.74
423.77	354.79
424.15	361.88
424.52	369.29
424.89	377.67
425.26	385.24
425.64	392.74
426.01	401.12
426.38	409.83
426.75	419.50
427.13	428.95
427.50	437.69
427.87	447.26
428.24	456.90
428.61	465.24
428.99	476.45
429.36	487.21
429.73	498.07
430.10	509.67
430.47	521.21
430.85	532.05
431.22	544.52
431.59	559.81
431.96	572.33
432.33	586.38
432.70	599.86
433.08	615.83
433.45	631.07
433.82	646.36
434.19	663.50
434.56	680.33
434.93	695.19
435.30	711.74
435.68	729.69
436.05	747.05
436.42	763.79
436.79	779.14
437.16	796.71
437.53	814.36
437.90	831.90
438.27	849.38
438.64	867.10
439.01	883.98
439.38	897.24
439.75	912.81
440.13	929.90
440.50	945.07
440.87	957.90
441.24	970.86
441.61	985.19
441.98	995.52
442.35	1007.07
442.72	1020.67
443.09	1033.55
443.46	1041.17
443.83	1046.21
444.20	1050.83
444.57	1056.17
444.94	1058.57
445.31	1062.02
445.68	1067.36
446.05	1068.57
446.42	1067.26
446.79	1066.29
447.16	1064.45
447.53	1063.12
447.90	1056.67
448.27	1050.48
448.64	1041.71
449.01	1035.38
449.37	1024.52
449.74	1013.93
450.11	1002.95
450.48	988.17
450.85	972.67
451.22	959.88
451.59	948.60
451.96	937.12
452.33	922.26
452.70	908.36
453.07	891.07
453.43	871.67
453.80	856.19
454.17	840.95
454.54	825.40
454.91	808.93
455.28	792.52
455.65	777.62
456.02	766.38
456.38	754.07
456.75	739.33
457.12	726.17
457.49	713.40
457.86	698.83
458.23	689.50
458.59	677.79
458.96	665.81
459.33	654.86
459.70	644.26
460.07	636.50
460.43	627.17
460.80	619.40
461.17	612.55
461.54	604.10
461.91	595.81
462.27	587.88
462.64	581.31
463.01	574.43
463.38	568.00
463.74	557.52
464.11	550.67
464.48	544.76
464.85	538.52
465.21	534.10
465.58	529.76
465.95	522.57
466.32	517.74
466.68	512.81
467.05	507.90
467.42	502.76
467.78	497.36
468.15	492.62
468.52	488.29
468.88	482.14
469.25	477.45
469.62	474.33
469.98	470.36
470.35	466.50
470.72	462.62
471.08	457.95
471.45	455.48
471.82	452.88
472.18	449.36
472.55	447.12
472.92	443.19
473.28	439.95
473.65	437.14
474.02	434.71
474.38	432.52
474.75	430.55
475.11	428.48
475.48	426.45
475.85	424.83
476.21	423.12
476.58	422.12
476.94	420.60
477.31	418.81
477.67	417.43
478.04	416.57
478.41	415.67
478.77	417.19
479.14	415.48
479.50	415.12
479.87	414.86
480.23	414.21
480.60	414.29
480.96	413.88
481.33	414.71
481.69	414.31
482.06	414.69
482.42	414.88
482.79	415.21
483.15	415.90
483.52	416.38
483.88	416.86
484.25	417.40
484.61	418.31
484.98	418.95
485.34	421.05
485.71	422.36
486.07	424.10
486.44	423.57
486.80	425.55
487.17	426.62
487.53	428.48
487.90	430.60
488.26	433.33
488.62	436.31
488.99	438.00
489.35	440.88
489.72	443.05
490.08	445.67
490.44	448.60
490.81	452.00
491.17	455.02
491.54	458.62
491.90	462.07
492.26	465.45
492.63	469.45
492.99	472.36
493.36	476.79
493.72	481.02
494.08	485.83
494.45	490.33
494.81	495.55
495.17	500.43
495.54	505.74
495.90	510.17
496.26	515.14
496.63	520.98
496.99	526.24
497.35	531.88
497.72	537.90
498.08	543.81
498.44	549.40
498.80	555.95
499.17	562.05
499.53	568.64
499.89	575.71
500.26	582.00
500.62	589.19
500.98	596.17
501.34	602.38
501.71	609.26
502.07	616.50
502.43	623.40
502.79	630.62
503.16	637.45
503.52	645.12
503.88	652.21
504.24	659.24
504.60	667.24
504.97	675.60
505.33	683.10
505.69	692.36
506.05	700.10
506.41	707.40
506.78	714.98
507.14	722.21
507.50	729.79
507.86	738.21
508.22	745.83
508.59	753.02
508.95	761.57
509.31	770.50
509.67	778.29
510.03	785.88
510.39	793.43
510.75	801.31
511.12	808.93
511.48	816.71
511.84	824.07
512.20	831.12
512.56	838.36
512.92	846.00
513.28	851.98
513.64	859.02
514.00	866.98
514.37	874.45
514.73	881.95
515.09	889.69
515.45	896.45
515.81	902.60
516.17	909.02
516.53	915.21
516.89	920.69
517.25	927.02
517.61	934.24
517.97	940.50
518.33	946.64
518.69	953.76
519.05	960.40
519.41	966.98
519.77	974.43
520.13	979.57
520.49	984.90
520.85	990.69
521.21	997.62
521.57	1002.43
521.93	1007.52
522.29	1012.76
522.65	1017.45
523.01	1022.69
523.37	1028.19
523.73	1034.38
524.09	1039.76
524.45	1044.36
524.81	1049.48
525.17	1054.12
525.53	1058.81
525.89	1063.31
526.25	1067.24
526.61	1071.07
526.97	1075.36
527.33	1078.67
527.68	1085.00
528.04	1090.00
528.40	1094.29
528.76	1097.90
529.12	1102.07
529.48	1106.95
529.84	1111.86
530.20	1116.40
530.56	1121.12
530.91	1126.02
531.27	1130.14
531.63	1133.86
531.99	1137.62
532.35	1141.29
532.71	1145.64
533.07	1150.43
533.42	1156.81
533.78	1161.38
534.14	1165.93
534.50	1170.31
534.86	1174.88
535.21	1177.79
535.57	1182.38
535.93	1186.17
536.29	1190.81
536.65	1195.00
537.00	1198.43
537.36	1201.57
537.72	1204.71
538.08	1207.62
538.44	1210.38
538.79	1213.52
539.15	1216.74
539.51	1219.79
539.87	1223.40
540.22	1226.95
540.58	1230.31
540.94	1231.62
541.29	1234.40
541.65	1236.69
542.01	1239.07
542.37	1241.60
542.72	1242.81
543.08	1243.79
543.44	1246.52
543.79	1247.83
544.15	1250.76
544.51	1253.81
544.87	1256.74
545.22	1259.21
545.58	1262.12
545.94	1264.60
546.29	1268.00
546.65	1271.10
547.01	1274.57
547.36	1278.00
547.72	1279.57
548.07	1282.12
548.43	1284.14
548.79	1286.86
549.14	1288.98
549.50	1292.33
549.86	1294.31
550.21	1298.38
550.57	1302.33
550.92	1304.26
551.28	1307.57
551.64	1310.62
551.99	1312.83
552.35	1315.81
552.70	1318.95
553.06	1321.62
553.41	1325.31
553.77	1329.00
554.13	1332.57
554.48	1336.71
554.84	1339.74
555.19	1342.76
555.55	1347.19
555.90	1350.79
556.26	1353.21
556.61	1356.81
556.97	1359.81
557.32	1363.90
557.68	1367.79
558.03	1371.17
558.39	1375.76
558.74	1379.60
559.10	1382.55
559.45	1387.24
559.81	1390.69
560.16	1394.71
560.52	1399.07
560.87	1403.48
561.23	1405.48
561.58	1411.00
561.94	1413.88
562.29	1417.83
562.64	1423.36
563.00	1427.26
563.35	1431.79
563.71	1437.38
564.06	1443.48
564.42	1449.02
564.77	1454.90
565.12	1459.88
565.48	1466.81
565.83	1472.00
566.19	1477.45
566.54	1483.33
566.89	1488.81
567.25	1494.43
567.60	1501.67
567.96	1509.67
568.31	1515.98
568.66	1523.48
569.02	1527.21
569.37	1532.81
569.72	1538.88
570.08	1543.90
570.43	1548.24
570.78	1554.33
571.14	1559.55
571.49	1563.69
571.84	1569.36
572.20	1573.64
572.55	1578.57
572.90	1581.95
573.26	1586.98
573.61	1591.79
573.96	1597.26
574.31	1601.48
574.67	1606.21
575.02	1609.00
575.37	1610.74
575.72	1612.93
576.08	1616.19
576.43	1620.26
576.78	1623.95
577.13	1626.90
577.49	1630.93
577.84	1635.86
578.19	1639.45
578.54	1643.60
578.90	1648.21
579.25	1651.69
579.60	1654.69
579.95	1658.36
580.30	1661.43
580.66	1665.12
581.01	1667.93
581.36	1670.67
581.71	1673.45
582.06	1678.14
582.42	1681.48
582.77	1685.24
583.12	1689.93
583.47	1693.00
583.82	1696.48
584.17	1699.48
584.53	1703.55
584.88	1705.69
585.23	1709.40
585.58	1712.45
585.93	1715.10
586.28	1718.00
586.63	1720.19
586.98	1723.60
587.34	1727.29
587.69	1729.67
588.04	1731.88
588.39	1734.10
588.74	1735.38
589.09	1737.83
589.44	1738.60
589.79	1740.60
590.14	1742.45
590.49	1743.52
590.84	1744.55
591.19	1746.43
591.54	1748.48
591.89	1749.21
592.25	1753.40
592.60	1753.45
592.95	1755.07
593.30	1757.00
593.65	1758.52
594.00	1759.17
594.35	1766.88
594.70	1766.48
595.05	1768.05
595.40	1769.86
595.75	1771.38
596.10	1773.62
596.45	1775.31
596.80	1776.14
597.15	1777.50
597.50	1778.26
597.85	1780.71
598.19	1782.02
598.54	1783.17
598.89	1783.60
599.24	1784.98
599.59	1783.57
599.94	1784.62
600.29	1784.57
600.64	1784.02
600.99	1783.43
601.34	1784.10
601.69	1777.10
602.04	1777.00
602.39	1777.57
602.74	1777.86
603.08	1777.45
603.43	1778.10
603.78	1777.45
604.13	1776.93
604.48	1775.36
604.83	1775.76
605.18	1774.55
605.53	1773.93
605.87	1772.33
606.22	1771.93
606.57	1770.50
606.92	1769.40
607.27	1768.76
607.62	1768.10
607.96	1767.36
608.31	1767.14
608.66	1765.98
609.01	1765.21
609.36	1765.14
609.70	1763.83
610.05	1761.31
610.40	1760.38
610.75	1756.76
611.10	1754.95
611.44	1752.43
611.79	1751.10
612.14	1747.60
612.49	1744.02
612.83	1741.50
613.18	1739.31
613.53	1736.81
613.88	1733.29
614.22	1730.79
614.57	1726.38
614.92	1722.45
615.27	1719.29
615.61	1714.69
615.96	1711.05
616.31	1707.76
616.65	1705.14
617.00	1702.17
617.35	1699.64
617.70	1696.48
618.04	1693.62
618.39	1690.17
618.74	1686.83
619.08	1683.14
619.43	1680.29
619.78	1677.31
620.12	1674.64
620.47	1670.79
620.82	1666.45
621.16	1662.48
621.51	1659.21
621.85	1655.38
622.20	1652.21
622.55	1648.90
622.89	1647.00
623.24	1644.74
623.59	1641.24
623.93	1636.60
624.28	1631.38
624.62	1629.07
624.97	1625.86
625.32	1621.71
625.66	1618.02
626.01	1614.86
626.35	1611.52
626.70	1606.93
627.04	1603.67
627.39	1597.83
627.73	1594.98
628.08	1592.26
628.43	1588.98
628.77	1584.43
629.12	1582.12
629.46	1578.38
629.81	1573.74
630.15	1568.40
630.50	1563.19
630.84	1558.69
631.19	1553.50
631.53	1549.40
631.88	1542.29
632.22	1535.43
632.57	1532.45
632.91	1527.31
633.26	1523.38
633.60	1517.79
633.95	1513.19
634.29	1507.81
634.64	1505.05
634.98	1499.43
635.32	1495.81
635.67	1492.24
636.01	1488.19
636.36	1482.19
636.70	1477.95
637.05	1474.00
637.39	1469.14
637.73	1464.71
638.08	1461.00
638.42	1456.90
638.77	1452.50
639.11	1448.40
639.45	1444.43
639.80	1437.69
640.14	1432.50
640.49	1427.19
640.83	1422.62
641.17	1418.76
641.52	1414.07
641.86	1408.71
642.20	1404.45
642.55	1397.57
642.89	1391.57
643.23	1385.98
643.58	1381.86
643.92	1375.69
644.26	1369.74
644.61	1365.38
644.95	1359.36
645.29	1352.50
645.64	1347.76
645.98	1342.86
646.32	1338.10
646.66	1331.95
647.01	1326.67
647.35	1322.43
647.69	1316.29
648.04	1311.10
648.38	1305.07
648.72	1299.40
649.06	1293.71
649.41	1286.81
649.75	1281.33
650.09	1275.43
650.43	1268.93
650.78	1262.12
651.12	1255.69
651.46	1249.36
651.80	1242.40
652.14	1237.12
652.49	1231.48
652.83	1225.00
653.17	1217.86
653.51	1210.98
653.85	1205.81
654.20	1199.76
654.54	1192.33
654.88	1185.76
655.22	1179.95
655.56	1173.02
655.90	1166.83
656.25	1161.14
656.59	1155.29
656.93	1149.02
657.27	1144.12
657.61	1138.81
657.95	1133.26
658.29	1127.86
658.64	1122.62
658.98	1116.67
659.32	1109.24
659.66	1103.43
660.00	1096.71
660.34	1090.81
660.68	1084.36
661.02	1077.76
661.36	1071.43
661.70	1065.76
662.05	1059.90
662.39	1054.33
662.73	1049.69
663.07	1044.81
663.41	1037.88
663.75	1031.93
664.09	1026.33
664.43	1019.93
664.77	1013.29
665.11	1006.36
665.45	1000.33
665.79	994.40
666.13	988.52
666.47	983.69
666.81	977.33
667.15	971.62
667.49	966.29
667.83	961.31
668.17	955.64
668.51	950.86
668.85	945.74
669.19	941.64
669.53	935.38
669.87	928.93
670.21	922.21
670.55	916.74
670.89	912.12
671.23	906.88
671.57	901.14
671.91	896.19
672.25	891.10
672.58	886.36
672.92	879.98
673.26	875.24
673.60	869.83
673.94	864.71
674.28	860.02
674.62	855.38
674.96	849.98
675.30	845.29
675.64	840.24
675.97	835.79
676.31	830.29
676.65	825.02
676.99	821.50
677.33	816.60
677.67	812.00
678.01	806.50
678.34	801.48
678.68	797.79
679.02	792.71
679.36	788.17
679.70	782.55
680.04	778.05
680.37	772.79
680.71	767.74
681.05	763.67
681.39	759.17
681.73	753.40
682.06	748.38
682.40	744.24
682.74	739.64
683.08	734.90
683.42	729.45
683.75	725.07
684.09	719.10
684.43	714.62
684.77	709.48
685.10	705.17
685.44	700.43
685.78	694.57
686.12	690.26
686.45	685.43
686.79	681.29
687.13	677.14
687.46	672.57
687.80	669.00
688.14	664.38
688.48	659.45
688.81	655.48
689.15	651.95
689.49	646.69
689.82	642.21
690.16	637.19
690.50	632.71
690.83	628.07
691.17	623.93
691.51	619.38
691.84	615.38
692.18	610.81
692.52	606.62
692.85	603.33
693.19	599.71
693.52	595.24
693.86	590.62
694.20	586.19
694.53	582.21
694.87	577.50
695.21	572.95
695.54	568.76
695.88	564.19
696.21	559.19
696.55	555.86
696.88	551.64
697.22	547.74
697.56	544.83
697.89	541.07
698.23	537.26
698.56	533.55
698.90	530.24
699.23	526.33
699.57	522.36
699.90	518.19
700.24	513.98
700.58	511.00
700.91	507.98
701.25	506.19
701.58	503.45
701.92	500.79
702.25	497.69
702.59	494.24
702.92	491.40
703.26	488.45
703.59	484.93
703.93	483.67
704.26	480.60
704.60	477.17
704.93	474.07
705.26	470.50
705.60	467.74
705.93	464.05
706.27	461.60
706.60	459.45
706.94	457.55
707.27	454.29
707.61	451.43
707.94	448.26
708.27	444.02
708.61	440.50
708.94	437.55
709.28	434.90
709.61	432.43
709.94	429.86
710.28	427.36
710.61	425.00
710.95	420.74
711.28	419.83
711.61	417.24
711.95	415.43
712.28	413.14
712.61	410.36
712.95	409.05
713.28	407.33
713.61	404.38
713.95	401.02
714.28	399.07
714.61	397.00
714.95	394.88
715.28	392.67
715.61	390.43
715.95	387.93
716.28	385.45
716.61	383.62
716.95	381.02
717.28	378.64
717.61	376.33
717.94	374.19
718.28	370.48
718.61	368.45
718.94	366.14
719.27	364.33
719.61	362.64
719.94	360.60
720.27	357.74
720.60	355.81
720.94	354.00
721.27	352.83
721.60	351.33
721.93	349.74
722.27	348.50
722.60	347.02
722.93	345.24
723.26	344.02
723.59	342.07
723.93	340.95
724.26	339.62
724.59	337.88
724.92	336.38
725.25	335.38
725.59	334.00
725.92	332.50
726.25	331.24
726.58	329.79
726.91	328.10
727.24	327.24
727.57	326.02
727.91	324.50
728.24	322.81
728.57	321.07
728.90	320.02
729.23	317.93
729.56	317.69
729.89	316.64
730.22	315.10
730.55	313.55
730.89	312.26
731.22	311.10
731.55	310.02
731.88	308.88
732.21	307.43
732.54	306.24
732.87	305.24
733.20	303.76
733.53	303.05
733.86	302.29
734.19	300.74
734.52	300.19
734.85	300.79
735.18	299.81
735.51	299.62
735.84	299.17
736.17	299.19
736.50	297.17
736.83	298.64
737.16	298.12
737.49	297.64
737.82	296.55
738.15	296.10
738.48	295.52
738.81	294.69
739.14	293.71
739.47	292.57
739.80	291.69
740.13	291.29
740.46	290.12
740.79	288.93
741.12	288.24
741.45	287.02
741.78	284.67
742.11	284.43
742.44	282.95
742.77	281.98
743.10	280.76
743.43	280.02
743.75	277.02
744.08	278.71
744.41	277.67
744.74	277.19
745.07	275.71
745.40	275.19
745.73	275.45
746.06	274.60
746.39	274.14
746.71	273.26
747.04	272.00
747.37	271.21
747.70	270.86
748.03	270.14
748.36	269.74
748.68	269.40
749.01	268.10
749.34	267.69
749.67	266.90
750.00	266.67
750.33	267.69
750.65	267.40
750.98	264.12
751.31	263.86
751.64	263.43
751.97	264.26
752.29	263.33
752.62	261.71
752.95	261.24
753.28	260.45
753.60	259.74
753.93	260.07
754.26	259.79
754.59	258.48
754.91	257.98
755.24	257.10
755.57	256.19
755.90	255.40
756.22	254.69
756.55	253.95
756.88	252.71
757.20	250.43
757.53	249.14
757.86	248.67
758.19	248.07
758.51	247.40
758.84	245.50
759.17	245.00
759.49	244.62
759.82	245.29
760.15	245.19
760.47	244.81
760.80	243.71
761.13	243.50
761.45	243.31
761.78	242.62
762.11	242.45
762.43	242.26
762.76	242.07
763.08	241.88
763.41	241.81
763.74	242.00
764.06	242.00
764.39	241.83
764.71	241.43
765.04	240.88
765.37	240.17
765.69	240.29
766.02	239.88
766.34	239.43
766.67	238.33
767.00	238.29
767.32	239.07
767.65	239.88
767.97	239.40
768.30	239.29
768.62	239.29
768.95	238.81
769.27	238.33
769.60	238.40
769.92	237.83
770.25	236.86
770.57	236.14
770.90	235.90
771.22	235.48
771.55	235.50
771.87	235.52
772.20	235.50
772.52	236.71
772.85	239.10
773.17	238.98
773.50	238.45
773.82	237.81
774.15	236.62
774.47	235.24
774.80	234.60
775.12	234.48
775.45	234.29
775.77	234.05
776.09	234.05
776.42	233.24
776.74	233.64
777.07	233.74
777.39	233.71
777.72	233.24
778.04	233.40
778.36	232.83
778.69	232.48
779.01	232.50
779.33	230.48
779.66	227.93
779.98	227.67
780.31	227.45
780.63	228.31
780.95	228.50
781.28	228.40
781.60	228.33
781.92	227.93
782.25	227.52
782.57	227.40
782.89	227.12
783.22	227.40
783.54	226.71
783.86	226.67
784.19	226.40
784.51	226.69
784.83	225.95
785.16	225.81
785.48	225.76
785.80	225.40
786.12	225.55
786.45	225.29
786.77	225.02
787.09	224.88
787.42	224.02
787.74	223.90
788.06	223.76
788.38	223.48
788.71	223.19
789.03	223.12
789.35	223.29
789.67	222.88
789.99	222.48
790.32	222.19
790.64	222.38
790.96	223.74
791.28	222.98
791.61	222.95
791.93	223.07
792.25	222.76
792.57	224.21
792.89	223.83
793.21	223.95
793.54	223.90
793.86	223.67
794.18	223.71
794.50	223.31
794.82	223.38
795.14	223.88
795.47	224.19
795.79	224.38
796.11	223.83
796.43	223.81
796.75	224.02
797.07	223.93
797.39	223.60
797.71	222.14
798.04	222.19
798.36	222.64
798.68	222.33
799.00	222.38
799.32	221.19
799.64	221.55
799.96	221.38
800.28	221.62
800.60	221.45
800.92	221.40
801.24	221.31
801.56	221.17
801.89	220.69
802.21	220.83
802.53	220.52
802.85	220.95
803.17	221.86
803.49	221.33
803.81	221.36
804.13	221.24
804.45	220.90
804.77	221.12
805.09	220.79
805.41	220.86
805.73	220.52
806.05	219.76
806.37	219.45
806.69	219.17
807.01	219.07
807.33	219.29
807.65	218.67
807.97	219.31
808.28	219.12
808.60	219.07
808.92	218.52
809.24	219.76
809.56	219.33
809.88	218.52
810.20	218.74
810.52	219.00
810.84	218.55
811.16	218.29
811.48	218.17
811.80	218.93
812.12	218.69
812.43	218.88
812.75	219.36
813.07	219.21
813.39	219.31
813.71	218.83
814.03	218.64
814.35	218.76
814.67	218.02
814.98	218.02
815.30	217.86
815.62	217.55
815.94	215.98
816.26	216.02
816.58	215.74
816.89	215.88
817.21	215.48
817.53	215.50
817.85	215.64
818.17	215.55
818.48	214.57
818.80	214.71
819.12	214.69
819.44	214.10
819.76	213.93
820.07	214.10
820.39	214.14
820.71	214.43
821.03	214.07
821.34	214.05
821.66	214.40
821.98	214.62
822.30	214.79
822.61	216.05
822.93	215.81
823.25	215.67
823.57	215.26
823.88	215.69
824.20	215.81
824.52	216.14
824.83	216.14
825.15	215.93
825.47	216.14
825.79	216.29
826.10	216.24
826.42	216.12
826.74	216.36
827.05	216.33
827.37	216.26
827.69	216.36
828.00	216.31
828.32	216.05
828.64	216.12
828.95	217.21
829.27	216.62
829.58	216.79
829.90	217.33
830.22	217.57
830.53	217.07
830.85	216.88
831.17	216.24
831.48	216.07
831.80	216.12
832.11	215.86
832.43	215.31
832.75	215.43
833.06	216.57
833.38	215.64
833.69	215.55
834.01	215.52
834.32	215.43
834.64	215.31
834.96	215.36
835.27	215.12
835.59	214.31
835.90	213.74
836.22	213.74
836.53	213.17
836.85	212.98
837.16	214.95
837.48	215.12
837.79	215.79
838.11	215.88
838.42	215.93
838.74	216.24
839.05	216.45
839.37	216.26
839.68	215.00
840.00	215.00
840.31	215.14
840.63	215.05
840.94	215.00
841.26	214.67
841.57	214.40
841.88	214.60
842.20	214.36
842.51	214.36
842.83	214.10
843.14	216.21
843.46	216.21
843.77	215.00
844.08	214.69
844.40	214.17
844.71	213.88
845.03	213.81
845.34	213.62
845.65	213.31
845.97	213.43
846.28	213.76
846.60	213.90
846.91	213.60
847.22	213.43
847.54	213.90
847.85	214.17
848.16	214.19
848.48	213.67
848.79	214.48
849.10	214.74
849.42	215.12
849.73	212.93
850.04	212.93
850.36	212.07
850.67	212.55
850.98	212.64
851.30	213.02
851.61	212.98
851.92	212.83
852.23	213.57
852.55	213.93
852.86	213.79
853.17	214.17
853.49	214.88
853.80	215.31
854.11	215.29
854.42	215.43
854.74	215.31
855.05	215.62
855.36	214.40
855.67	214.40
855.99	214.14
856.30	216.57
856.61	216.38
856.92	216.45
857.23	216.26
857.55	216.24
857.86	216.00
858.17	216.45
858.48	216.10
858.79	215.64
859.11	215.38
859.42	215.43
859.73	215.12
860.04	214.81
860.35	214.12
860.66	213.69
860.98	213.57
861.29	213.76
861.60	213.43
861.91	213.90
862.22	213.26
862.53	212.98
862.84	210.60
863.16	211.00
863.47	210.90
863.78	210.83
864.09	210.71
864.40	211.10
864.71	210.93
865.02	211.31
865.33	211.14
865.64	210.90
865.95	210.90
866.27	212.33
866.58	212.29
866.89	212.74
867.20	212.55
867.51	212.21
867.82	212.10
868.13	212.86
868.44	212.74
868.75	213.52
869.06	213.74
869.37	214.07
869.68	213.55
869.99	213.79
870.30	214.02
870.61	214.43
870.92	213.83
871.23	213.67
871.54	213.86
871.85	214.24
872.16	214.50
872.47	214.26
872.78	212.90
873.09	212.98
873.40	212.79
873.71	212.95
874.02	213.38
874.33	213.31
874.64	212.88
874.95	213.00
875.26	212.57
875.56	212.48
875.87	212.36
876.18	212.48
876.49	214.57
876.80	214.24
877.11	213.86
877.42	214.12
877.73	214.19
878.04	213.81
878.35	213.67
878.66	213.86
878.96	213.67
879.27	213.52
879.58	213.36
879.89	213.31
880.20	213.79
880.51	213.45
880.82	213.31
881.12	213.31
881.43	212.74
881.74	212.43
882.05	212.40
882.36	212.24
882.67	212.24
882.97	209.81
883.28	209.62
883.59	209.64
883.90	209.81
884.21	209.95
884.51	210.07
884.82	209.95
885.13	209.81
885.44	210.05
885.74	210.02
886.05	210.12
886.36	210.19
886.67	209.69
886.98	210.83
887.28	211.17
887.59	211.26
887.90	211.57
888.20	211.45
888.51	211.86
888.82	211.74
889.13	212.10
889.43	213.98
889.74	213.90
890.05	213.79
890.35	213.52
890.66	213.17
890.97	212.83
891.28	212.88
891.58	213.00
891.89	212.83
892.20	212.79
892.50	212.40
892.81	212.24
893.12	212.14
893.42	211.29
893.73	211.38
894.04	211.43
894.34	211.60
894.65	211.81
894.95	211.38
895.26	211.40
895.57	212.36
895.87	210.45
896.18	211.05
896.48	211.07
896.79	211.10
897.10	211.83
897.40	211.88
897.71	211.86
898.01	211.71
898.32	212.00
898.63	211.86
898.93	212.12
899.24	212.12
899.54	212.02
899.85	211.95
900.15	211.67
900.46	211.38
900.76	211.69
901.07	211.55
901.38	211.64
901.68	212.10
901.99	210.64
902.29	210.98
902.60	210.57
902.90	210.45
903.21	210.50
903.51	210.24
903.82	210.95
904.12	211.02
904.43	211.24
904.73	211.02
905.03	211.29
905.34	213.05
905.64	212.86
905.95	213.02
906.25	213.00
906.56	213.14
906.86	213.36
907.17	212.98
907.47	213.14
907.77	213.02
908.08	212.43
908.38	212.79
908.69	212.86
908.99	213.17
909.30	213.52
909.60	213.45
909.90	213.31
910.21	212.69
910.51	212.36
910.81	212.07
911.12	212.21
911.42	212.26
911.73	210.24
912.03	210.48
912.33	210.93
912.64	210.71
912.94	210.50
913.24	210.12
913.55	210.17
913.85	209.90
914.15	210.38
914.46	210.81
914.76	210.48
915.06	210.21
915.37	210.12
915.67	209.64
915.97	209.57
916.27	209.17
916.58	209.29
916.88	209.36
917.18	209.26
917.49	210.81
917.79	210.64
918.09	211.14
918.39	211.67
918.70	211.33
919.00	211.50
919.30	212.50
919.60	212.24
919.91	211.93
920.21	212.26
920.51	211.74
920.81	211.57
921.12	212.14
921.42	212.05
921.72	211.95
922.02	212.36
922.32	212.67
922.63	213.05
922.93	213.88
923.23	213.86
923.53	213.81
923.83	212.24
924.13	212.52
924.44	212.45
924.74	212.57
925.04	213.02
925.34	213.00
925.64	212.05
925.94	212.10
926.24	213.10
926.55	213.02
926.85	213.36
927.15	213.14
927.45	212.79
927.75	213.12
928.05	213.36
928.35	213.24
928.65	213.71
928.95	213.64
929.26	212.88
929.56	213.36
929.86	213.55
930.16	213.45
930.46	213.31
930.76	213.36
931.06	212.45
931.36	212.07
931.66	212.43
931.96	212.81
932.26	213.12
932.56	212.43
932.86	212.52
933.16	212.62
933.46	212.64
933.76	212.69
934.06	213.12
934.36	213.83
934.66	213.67
934.96	213.21
935.26	213.50
935.56	213.93
935.86	213.40
936.16	213.05
936.46	212.83
936.76	212.74
937.06	212.52
937.36	212.79
937.66	212.83
937.96	212.71
938.26	212.19
938.56	212.19
938.86	212.33
939.16	212.76
939.46	212.79
939.76	212.88
940.06	212.88
940.35	212.33
940.65	211.12
940.95	211.17
941.25	210.83
941.55	210.52
941.85	210.33
942.15	210.90
942.45	211.71
942.75	211.86
943.04	212.02
943.34	212.50
943.64	212.38
943.94	212.12
944.24	212.21
944.54	212.38
944.84	212.21
945.13	211.95
945.43	211.64
945.73	211.43
946.03	211.31
946.33	211.05
946.62	210.76
946.92	210.88
947.22	211.26
947.52	211.33
947.82	211.52
948.11	211.21
948.41	210.57
948.71	210.12
949.01	210.17
949.31	209.62
949.60	209.33
949.90	209.71
950.20	209.57
950.50	209.55
950.79	209.52
951.09	209.88
951.39	209.81
951.69	209.48
951.98	210.31
952.28	210.38
952.58	210.19
952.87	210.26
953.17	210.45
953.47	210.07
953.76	210.05
954.06	209.69
954.36	209.50
954.66	209.83
954.95	210.21
955.25	210.38
955.55	210.71
955.84	210.17
956.14	210.12
956.44	210.43
956.73	210.10
957.03	210.10
957.32	209.86
957.62	209.67
957.92	210.17
958.21	209.76
958.51	212.26
958.81	212.55
959.10	212.90
959.40	213.38
959.69	213.57
959.99	213.81
960.29	213.76
960.58	213.79
960.88	214.40
961.17	214.05
961.47	214.19
961.76	214.10
962.06	214.69
962.36	214.60
962.65	214.67
962.95	214.74
963.24	214.50
963.54	215.10
963.83	215.43
964.13	215.31
964.42	214.52
964.72	212.79
965.01	212.90
965.31	212.60
965.60	212.33
965.90	213.81
966.19	213.50
966.49	213.55
966.78	213.50
967.08	213.33
967.37	213.62
967.67	213.31
967.96	213.67
968.26	213.43
968.55	213.71
968.85	213.50
969.14	213.33
969.43	213.55
969.73	212.86
970.02	212.74
970.32	212.43
970.61	212.86
970.91	212.21
971.20	211.95
971.49	211.79
971.79	211.81
972.08	210.00
972.38	210.12
972.67	210.19
972.96	210.57
973.26	210.19
973.55	210.67
973.85	210.60
974.14	210.52
974.43	210.86
974.73	210.40
975.02	210.33
975.31	210.62
975.61	210.57
975.90	210.60
976.19	210.50
976.49	210.79
976.78	210.67
977.07	210.76
977.37	211.02
977.66	211.48
977.95	211.05
978.24	211.45
978.54	211.95
978.83	211.81
979.12	211.71
979.42	211.79
979.71	211.24
980.00	211.14
980.29	211.24
980.59	210.79
980.88	211.48
981.17	211.24
981.46	211.19
981.76	211.14
982.05	212.00
982.34	212.02
982.63	211.93
982.93	211.90
983.22	212.45
983.51	212.36
983.80	212.43
984.09	212.81
984.39	212.71
984.68	212.45
984.97	212.55
985.26	212.38
985.55	212.57
985.85	212.14
986.14	212.79
986.43	213.07
986.72	213.12
987.01	212.36
987.30	212.50
987.59	212.19
987.89	212.38
988.18	211.60
988.47	211.50
988.76	211.29
989.05	211.24
989.34	210.69
989.63	211.24
989.92	211.26
990.22	210.90
990.51	210.64
990.80	210.52
991.09	210.69
991.38	210.79
991.67	210.40
991.96	210.36
992.25	210.12
992.54	209.52
992.83	209.38
993.12	209.24
993.41	209.52
993.70	210.62
993.99	210.98
994.28	211.38
994.58	211.71
994.87	211.69
995.16	211.38
995.45	211.40
995.74	210.81
996.03	210.79
996.32	211.17
996.61	211.76
996.90	211.74
997.19	211.64
997.48	211.95
997.77	211.74
998.06	212.00
998.34	211.90
998.63	211.93
998.92	212.12
999.21	212.45
999.50	212.55
999.79	211.48
1000.08	211.31
1000.37	211.21
1000.66	211.05
1000.95	211.64
1001.24	212.07
1001.53	212.24
1001.82	212.21
1002.11	211.90
1002.40	212.17
1002.68	212.62
1002.97	214.02
1003.26	213.83
1003.55	213.24
1003.84	213.29
1004.13	213.90
1004.42	213.81
1004.71	213.98
1004.99	214.00
1005.28	214.50
1005.57	214.50
1005.86	214.57
1006.15	214.48
1006.44	214.29
1006.72	214.43
1007.01	213.81
1007.30	213.76
1007.59	213.50
1007.88	213.38
1008.17	213.55
1008.45	212.88
1008.74	212.02
1009.03	211.05
1009.32	210.98
1009.60	211.14
1009.89	211.10
1010.18	210.45
1010.47	210.45
1010.76	210.31
1011.04	210.21
1011.33	210.43
1011.62	210.45
1011.91	210.38
1012.19	210.10
1012.48	209.83
1012.77	209.74
1013.05	210.90
1013.34	211.14
1013.63	211.24
1013.92	211.60
1014.20	211.31
1014.49	211.60
1014.78	211.71
1015.06	210.95
1015.35	211.00
1015.64	211.05
1015.92	211.40
1016.21	211.64
1016.50	211.55
1016.78	211.76
1017.07	212.05
1017.36	211.52
1017.64	211.24
1017.93	211.60
1018.22	211.67
1018.50	211.69
1018.79	211.57
1019.08	210.55
1019.36	210.45
1019.65	210.14
1019.93	210.33
1020.22	210.71
1020.51	211.86
1020.79	211.52
1021.08	208.50
1021.36	205.00
1021.65	208.00
1021.94	210.00
1022.22	212.50
1022.51	205.50
1022.79	217.00
1023.08	214.50
1023.36	238.00
1023.65	204.00
>>>>>End Processed Spectral Data<<<<<
