SpectraSuite Data File
++++++++++++++++++++++++++++++++++++
Date: Tue Apr 02 18:46:19 EDT 2013
User: group
Dark Spectrum Present: No
Reference Spectrum Present: No
Number of Sampled Component Spectra: 1
Spectrometers: USB2E7196
Integration Time (usec): 580000 (USB2E7196)
Spectra Averaged: 2 (USB2E7196)
Boxcar Smoothing: 10 (USB2E7196)
Correct for Electrical Dark: No (USB2E7196)
Strobe/Lamp Enabled: No (USB2E7196)
Correct for Detector Non-linearity: No (USB2E7196)
Correct for Stray Light: No (USB2E7196)
Number of Pixels in Processed Spectrum: 2048
>>>>>Begin Processed Spectral Data<<<<<
339.09	0.00
339.48	197.00
339.86	194.50
340.24	196.50
340.63	202.00
341.01	234.50
341.39	204.00
341.78	204.50
342.16	211.50
342.54	207.00
342.93	199.10
343.31	208.88
343.69	209.40
344.07	209.95
344.46	210.79
344.84	211.24
345.22	209.81
345.60	210.14
345.99	210.45
346.37	210.33
346.75	210.21
347.13	210.33
347.52	210.55
347.90	211.14
348.28	211.21
348.66	211.69
349.05	211.07
349.43	211.33
349.81	211.14
350.19	211.29
350.57	211.29
350.96	211.31
351.34	211.67
351.72	211.71
352.10	211.86
352.48	211.69
352.87	211.48
353.25	211.57
353.63	211.31
354.01	211.21
354.39	211.26
354.77	211.33
355.15	211.86
355.54	211.48
355.92	210.90
356.30	210.86
356.68	212.07
357.06	212.33
357.44	211.95
357.82	212.02
358.20	213.10
358.58	213.02
358.97	213.10
359.35	213.26
359.73	213.69
360.11	213.62
360.49	213.50
360.87	213.57
361.25	213.86
361.63	214.69
362.01	214.64
362.39	214.52
362.77	214.60
363.15	214.40
363.53	214.40
363.91	214.43
364.29	214.36
364.67	212.33
365.05	212.12
365.43	212.57
365.81	212.95
366.19	212.76
366.57	213.55
366.95	213.36
367.33	212.90
367.71	212.74
368.09	213.26
368.47	213.45
368.85	213.48
369.23	214.12
369.61	213.26
369.99	213.90
370.37	214.33
370.75	215.60
371.13	215.26
371.51	214.88
371.89	215.17
372.27	215.45
372.65	215.64
373.03	215.98
373.41	215.86
373.78	215.57
374.16	214.60
374.54	214.00
374.92	213.90
375.30	213.98
375.68	213.74
376.06	213.69
376.44	213.55
376.82	213.60
377.19	213.24
377.57	213.21
377.95	212.57
378.33	212.57
378.71	211.33
379.09	211.67
379.47	212.05
379.84	211.83
380.22	211.62
380.60	211.14
380.98	211.00
381.36	211.00
381.73	210.71
382.11	211.38
382.49	211.29
382.87	211.17
383.25	211.12
383.62	213.38
384.00	213.24
384.38	213.52
384.76	213.83
385.13	214.86
385.51	215.17
385.89	215.10
386.27	215.02
386.64	215.26
387.02	215.07
387.40	215.07
387.78	215.17
388.15	215.24
388.53	215.33
388.91	215.38
389.29	215.07
389.66	215.57
390.04	215.31
390.42	215.79
390.79	216.00
391.17	216.24
391.55	214.07
391.92	213.88
392.30	213.81
392.68	213.55
393.05	213.21
393.43	213.26
393.81	213.50
394.18	213.17
394.56	213.43
394.94	213.88
395.31	213.90
395.69	214.64
396.06	215.02
396.44	215.17
396.82	215.07
397.19	216.29
397.57	216.19
397.95	216.33
398.32	215.81
398.70	216.24
399.07	216.57
399.45	216.60
399.82	216.81
400.20	216.76
400.58	216.81
400.95	215.88
401.33	216.40
401.70	217.79
402.08	218.10
402.45	217.90
402.83	218.29
403.20	218.62
403.58	218.45
403.95	218.76
404.33	219.21
404.71	219.52
405.08	220.90
405.46	221.26
405.83	221.55
406.21	221.88
406.58	222.12
406.96	222.50
407.33	223.21
407.70	223.64
408.08	226.05
408.45	226.83
408.83	228.14
409.20	228.31
409.58	227.98
409.95	228.93
410.33	230.14
410.70	230.38
411.08	231.45
411.45	232.62
411.82	233.43
412.20	235.31
412.57	237.79
412.95	237.07
413.32	238.67
413.69	239.86
414.07	241.81
414.44	243.31
414.82	245.29
415.19	247.43
415.56	249.76
415.94	250.62
416.31	253.67
416.68	256.45
417.06	259.81
417.43	263.62
417.81	267.07
418.18	270.38
418.55	274.19
418.93	278.14
419.30	282.00
419.67	286.52
420.04	290.60
420.42	294.67
420.79	301.86
421.16	307.36
421.54	314.62
421.91	320.64
422.28	326.88
422.66	333.07
423.03	340.76
423.40	347.52
423.77	354.74
424.15	361.62
424.52	369.10
424.89	377.81
425.26	385.05
425.64	392.83
426.01	401.00
426.38	409.90
426.75	419.57
427.13	428.67
427.50	438.33
427.87	448.10
428.24	457.93
428.61	466.50
428.99	477.74
429.36	488.10
429.73	499.12
430.10	510.45
430.47	522.26
430.85	532.62
431.22	545.14
431.59	559.76
431.96	572.29
432.33	586.60
432.70	600.14
433.08	615.74
433.45	631.29
433.82	646.48
434.19	663.31
434.56	679.29
434.93	694.98
435.30	710.79
435.68	728.00
436.05	744.74
436.42	761.00
436.79	776.52
437.16	793.29
437.53	811.29
437.90	828.76
438.27	846.50
438.64	865.14
439.01	882.14
439.38	895.95
439.75	910.81
440.13	927.52
440.50	942.40
440.87	955.33
441.24	967.98
441.61	982.79
441.98	993.00
442.35	1004.19
442.72	1016.93
443.09	1030.12
443.46	1037.93
443.83	1043.57
444.20	1048.38
444.57	1054.05
444.94	1057.76
445.31	1061.21
445.68	1067.29
446.05	1068.88
446.42	1067.43
446.79	1066.10
447.16	1064.48
447.53	1063.21
447.90	1055.93
448.27	1049.95
448.64	1041.50
449.01	1035.45
449.37	1024.69
449.74	1014.17
450.11	1003.52
450.48	989.02
450.85	973.45
451.22	960.64
451.59	948.67
451.96	937.48
452.33	922.00
452.70	907.90
453.07	890.81
453.43	871.17
453.80	854.62
454.17	838.74
454.54	823.69
454.91	807.10
455.28	791.48
455.65	777.43
456.02	766.31
456.38	754.02
456.75	738.50
457.12	725.00
457.49	712.40
457.86	698.69
458.23	688.93
458.59	676.67
458.96	665.50
459.33	655.02
459.70	644.69
460.07	636.93
460.43	626.90
460.80	618.24
461.17	611.07
461.54	602.76
461.91	595.10
462.27	586.74
462.64	579.52
463.01	572.02
463.38	565.48
463.74	554.76
464.11	548.29
464.48	542.62
464.85	536.36
465.21	532.14
465.58	527.19
465.95	520.71
466.32	516.52
466.68	511.00
467.05	506.21
467.42	501.21
467.78	495.76
468.15	491.14
468.52	487.57
468.88	481.93
469.25	477.52
469.62	474.14
469.98	470.43
470.35	467.45
470.72	464.14
471.08	459.26
471.45	456.43
471.82	453.55
472.18	450.48
472.55	447.88
472.92	443.86
473.28	440.64
473.65	437.43
474.02	434.50
474.38	432.64
474.75	430.50
475.11	428.24
475.48	426.64
475.85	424.69
476.21	422.55
476.58	421.52
476.94	420.19
477.31	418.55
477.67	417.17
478.04	415.93
478.41	415.02
478.77	416.29
479.14	414.98
479.50	414.12
479.87	413.55
480.23	413.40
480.60	413.29
480.96	413.19
481.33	414.57
481.69	414.57
482.06	414.86
482.42	414.90
482.79	415.26
483.15	415.71
483.52	417.07
483.88	417.74
484.25	418.24
484.61	419.05
484.98	420.21
485.34	422.17
485.71	423.71
486.07	424.93
486.44	425.07
486.80	426.83
487.17	427.90
487.53	430.14
487.90	432.10
488.26	435.12
488.62	438.05
488.99	439.74
489.35	442.62
489.72	444.76
490.08	447.62
490.44	450.21
490.81	453.50
491.17	455.90
491.54	459.64
491.90	463.10
492.26	466.38
492.63	469.64
492.99	472.88
493.36	476.95
493.72	481.17
494.08	485.29
494.45	490.24
494.81	496.12
495.17	500.74
495.54	506.05
495.90	510.52
496.26	515.64
496.63	521.07
496.99	526.43
497.35	532.52
497.72	538.07
498.08	544.38
498.44	550.43
498.80	556.52
499.17	562.52
499.53	569.36
499.89	576.64
500.26	583.86
500.62	590.50
500.98	597.64
501.34	604.60
501.71	611.88
502.07	618.62
502.43	624.90
502.79	632.12
503.16	639.21
503.52	646.17
503.88	652.71
504.24	660.10
504.60	667.67
504.97	675.55
505.33	683.31
505.69	691.17
506.05	698.86
506.41	707.17
506.78	715.05
507.14	721.93
507.50	729.90
507.86	737.45
508.22	745.40
508.59	752.26
508.95	760.38
509.31	769.21
509.67	777.43
510.03	785.40
510.39	792.98
510.75	800.83
511.12	808.76
511.48	816.74
511.84	824.48
512.20	831.62
512.56	839.07
512.92	847.26
513.28	855.14
513.64	862.14
514.00	869.57
514.37	877.10
514.73	884.81
515.09	891.98
515.45	899.02
515.81	906.36
516.17	914.00
516.53	920.57
516.89	925.93
517.25	932.02
517.61	939.00
517.97	945.12
518.33	951.38
518.69	958.19
519.05	964.90
519.41	970.55
519.77	977.71
520.13	984.10
520.49	989.17
520.85	994.62
521.21	1001.81
521.57	1007.24
521.93	1012.19
522.29	1017.90
522.65	1022.64
523.01	1027.93
523.37	1032.26
523.73	1037.36
524.09	1042.26
524.45	1047.62
524.81	1052.19
525.17	1056.40
525.53	1061.05
525.89	1065.33
526.25	1069.76
526.61	1074.12
526.97	1079.40
527.33	1083.83
527.68	1089.90
528.04	1095.12
528.40	1099.07
528.76	1102.45
529.12	1107.19
529.48	1112.60
529.84	1116.05
530.20	1121.29
530.56	1125.93
530.91	1131.17
531.27	1136.02
531.63	1140.36
531.99	1144.24
532.35	1149.07
532.71	1153.02
533.07	1156.88
533.42	1163.36
533.78	1167.86
534.14	1171.98
534.50	1175.24
534.86	1179.24
535.21	1180.57
535.57	1184.07
535.93	1187.60
536.29	1192.74
536.65	1196.45
537.00	1199.29
537.36	1203.64
537.72	1206.02
538.08	1209.69
538.44	1211.57
538.79	1214.26
539.15	1217.00
539.51	1220.48
539.87	1223.67
540.22	1227.60
540.58	1232.17
540.94	1233.38
541.29	1235.76
541.65	1237.76
542.01	1240.93
542.37	1243.62
542.72	1245.81
543.08	1248.17
543.44	1251.05
543.79	1251.12
544.15	1254.21
544.51	1257.17
544.87	1260.10
545.22	1262.52
545.58	1264.26
545.94	1267.40
546.29	1270.10
546.65	1272.83
547.01	1274.90
547.36	1277.00
547.72	1278.88
548.07	1280.62
548.43	1282.74
548.79	1285.10
549.14	1288.50
549.50	1291.29
549.86	1292.93
550.21	1296.95
550.57	1300.00
550.92	1302.45
551.28	1305.81
551.64	1307.83
551.99	1310.55
552.35	1312.71
552.70	1315.64
553.06	1318.93
553.41	1322.52
553.77	1326.67
554.13	1329.88
554.48	1334.60
554.84	1338.67
555.19	1342.62
555.55	1347.67
555.90	1351.12
556.26	1354.67
556.61	1357.07
556.97	1359.98
557.32	1364.36
557.68	1367.24
558.03	1370.81
558.39	1374.29
558.74	1378.60
559.10	1382.21
559.45	1386.19
559.81	1391.43
560.16	1395.45
560.52	1399.74
560.87	1403.69
561.23	1406.21
561.58	1411.95
561.94	1415.33
562.29	1418.98
562.64	1423.21
563.00	1426.71
563.35	1431.48
563.71	1436.64
564.06	1442.69
564.42	1447.43
564.77	1452.79
565.12	1458.86
565.48	1465.71
565.83	1471.52
566.19	1477.57
566.54	1483.48
566.89	1489.05
567.25	1494.64
567.60	1502.00
567.96	1509.21
568.31	1515.98
568.66	1522.50
569.02	1527.26
569.37	1532.36
569.72	1538.38
570.08	1543.83
570.43	1549.40
570.78	1555.48
571.14	1560.62
571.49	1566.19
571.84	1572.88
572.20	1577.19
572.55	1582.12
572.90	1584.57
573.26	1589.29
573.61	1592.83
573.96	1597.88
574.31	1601.71
574.67	1605.36
575.02	1607.62
575.37	1609.98
575.72	1613.33
576.08	1618.05
576.43	1620.79
576.78	1624.45
577.13	1628.21
577.49	1631.21
577.84	1634.50
578.19	1637.69
578.54	1642.33
578.90	1646.21
579.25	1649.02
579.60	1652.33
579.95	1654.74
580.30	1659.29
580.66	1664.43
581.01	1668.07
581.36	1669.98
581.71	1674.10
582.06	1678.50
582.42	1683.29
582.77	1686.36
583.12	1689.10
583.47	1691.67
583.82	1695.86
584.17	1699.10
584.53	1702.83
584.88	1706.98
585.23	1710.62
585.58	1713.88
585.93	1716.05
586.28	1718.83
586.63	1722.10
586.98	1725.64
587.34	1730.48
587.69	1732.74
588.04	1734.17
588.39	1737.50
588.74	1739.74
589.09	1742.31
589.44	1742.90
589.79	1744.88
590.14	1747.71
590.49	1749.33
590.84	1750.40
591.19	1752.93
591.54	1755.90
591.89	1756.24
592.25	1760.00
592.60	1760.81
592.95	1762.55
593.30	1764.50
593.65	1765.71
594.00	1766.29
594.35	1773.36
594.70	1771.74
595.05	1773.67
595.40	1774.67
595.75	1775.60
596.10	1778.38
596.45	1780.43
596.80	1782.00
597.15	1782.67
597.50	1783.43
597.85	1785.76
598.19	1786.29
598.54	1786.10
598.89	1785.69
599.24	1787.38
599.59	1786.24
599.94	1787.45
600.29	1787.74
600.64	1788.00
600.99	1788.24
601.34	1789.98
601.69	1784.29
602.04	1785.43
602.39	1785.24
602.74	1786.64
603.08	1785.90
603.43	1785.81
603.78	1784.14
604.13	1783.83
604.48	1783.29
604.83	1782.74
605.18	1782.48
605.53	1782.88
605.87	1782.24
606.22	1782.07
606.57	1781.38
606.92	1779.76
607.27	1778.55
607.62	1778.38
607.96	1776.55
608.31	1776.21
608.66	1774.33
609.01	1772.60
609.36	1771.98
609.70	1770.50
610.05	1767.02
610.40	1766.10
610.75	1763.79
611.10	1761.74
611.44	1758.76
611.79	1756.43
612.14	1754.33
612.49	1750.40
612.83	1747.71
613.18	1745.40
613.53	1742.69
613.88	1739.29
614.22	1736.36
614.57	1732.48
614.92	1728.12
615.27	1725.76
615.61	1721.26
615.96	1717.36
616.31	1714.60
616.65	1712.50
617.00	1709.14
617.35	1706.83
617.70	1703.45
618.04	1699.90
618.39	1696.29
618.74	1693.98
619.08	1690.64
619.43	1687.31
619.78	1684.69
620.12	1681.67
620.47	1677.86
620.82	1673.86
621.16	1669.21
621.51	1666.17
621.85	1662.64
622.20	1658.90
622.55	1654.93
622.89	1652.05
623.24	1649.64
623.59	1646.36
623.93	1640.62
624.28	1637.36
624.62	1635.17
624.97	1631.95
625.32	1627.52
625.66	1623.12
626.01	1618.26
626.35	1615.36
626.70	1611.36
627.04	1607.93
627.39	1603.45
627.73	1601.10
628.08	1597.36
628.43	1593.71
628.77	1589.55
629.12	1586.05
629.46	1582.69
629.81	1578.98
630.15	1573.69
630.50	1568.50
630.84	1563.64
631.19	1559.74
631.53	1555.36
631.88	1548.29
632.22	1541.60
632.57	1537.90
632.91	1533.60
633.26	1530.10
633.60	1524.81
633.95	1519.29
634.29	1513.38
634.64	1509.67
634.98	1503.93
635.32	1500.90
635.67	1497.93
636.01	1493.62
636.36	1488.98
636.70	1484.40
637.05	1479.36
637.39	1475.79
637.73	1471.98
638.08	1467.36
638.42	1463.02
638.77	1458.50
639.11	1454.14
639.45	1450.36
639.80	1444.55
640.14	1439.86
640.49	1434.64
640.83	1428.71
641.17	1424.57
641.52	1420.02
641.86	1414.50
642.20	1410.12
642.55	1403.95
642.89	1398.38
643.23	1392.93
643.58	1388.17
643.92	1382.21
644.26	1377.48
644.61	1372.81
644.95	1366.55
645.29	1360.31
645.64	1354.45
645.98	1349.10
646.32	1344.48
646.66	1338.07
647.01	1332.69
647.35	1327.60
647.69	1322.00
648.04	1317.62
648.38	1311.76
648.72	1306.45
649.06	1300.64
649.41	1295.12
649.75	1288.83
650.09	1282.90
650.43	1276.29
650.78	1269.76
651.12	1263.40
651.46	1256.33
651.80	1248.76
652.14	1243.21
652.49	1238.21
652.83	1232.17
653.17	1224.55
653.51	1217.05
653.85	1212.21
654.20	1205.88
654.54	1199.17
654.88	1192.69
655.22	1186.76
655.56	1180.19
655.90	1173.55
656.25	1167.14
656.59	1160.14
656.93	1153.86
657.27	1148.43
657.61	1142.76
657.95	1137.12
658.29	1131.71
658.64	1127.12
658.98	1121.36
659.32	1114.12
659.66	1107.24
660.00	1101.10
660.34	1096.05
660.68	1090.90
661.02	1084.21
661.36	1078.26
661.70	1072.83
662.05	1067.02
662.39	1060.74
662.73	1056.50
663.07	1051.74
663.41	1046.14
663.75	1040.45
664.09	1035.12
664.43	1028.33
664.77	1023.48
665.11	1017.36
665.45	1011.19
665.79	1004.60
666.13	998.40
666.47	993.02
666.81	987.48
667.15	982.10
667.49	976.14
667.83	970.76
668.17	964.86
668.51	959.95
668.85	954.69
669.19	950.10
669.53	944.05
669.87	937.43
670.21	931.14
670.55	925.24
670.89	920.02
671.23	914.12
671.57	908.81
671.91	902.83
672.25	897.71
672.58	893.29
672.92	887.36
673.26	883.05
673.60	878.07
673.94	872.98
674.28	867.90
674.62	863.64
674.96	858.02
675.30	853.86
675.64	848.95
675.97	843.88
676.31	838.00
676.65	832.98
676.99	829.00
677.33	823.67
677.67	819.62
678.01	814.12
678.34	809.62
678.68	805.14
679.02	799.31
679.36	793.81
679.70	788.29
680.04	783.76
680.37	778.31
680.71	773.64
681.05	768.93
681.39	763.60
681.73	758.21
682.06	753.62
682.40	748.88
682.74	744.43
683.08	739.79
683.42	734.69
683.75	730.10
684.09	724.14
684.43	719.62
684.77	713.71
685.10	709.19
685.44	704.40
685.78	699.57
686.12	695.60
686.45	691.26
686.79	687.02
687.13	682.81
687.46	678.24
687.80	674.10
688.14	669.69
688.48	666.00
688.81	661.45
689.15	657.33
689.49	652.62
689.82	647.76
690.16	642.33
690.50	637.90
690.83	633.62
691.17	629.14
691.51	625.02
691.84	621.33
692.18	617.31
692.52	612.83
692.85	608.93
693.19	605.88
693.52	602.05
693.86	597.17
694.20	592.52
694.53	588.33
694.87	583.83
695.21	579.55
695.54	575.07
695.88	570.38
696.21	565.62
696.55	561.19
696.88	556.79
697.22	553.33
697.56	550.17
697.89	546.57
698.23	543.12
698.56	538.79
698.90	534.86
699.23	530.17
699.57	526.50
699.90	522.55
700.24	517.90
700.58	513.86
700.91	510.98
701.25	509.60
701.58	507.19
701.92	504.33
702.25	501.14
702.59	497.69
702.92	494.45
703.26	491.31
703.59	488.52
703.93	487.74
704.26	484.90
704.60	481.55
704.93	478.29
705.26	475.07
705.60	472.90
705.93	469.48
706.27	467.33
706.60	464.93
706.94	462.74
707.27	459.55
707.61	456.71
707.94	454.07
708.27	449.36
708.61	445.81
708.94	442.64
709.28	440.02
709.61	437.12
709.94	434.98
710.28	432.57
710.61	430.07
710.95	425.48
711.28	424.00
711.61	421.57
711.95	419.71
712.28	416.95
712.61	413.95
712.95	413.21
713.28	411.76
713.61	408.76
713.95	405.86
714.28	403.81
714.61	401.60
714.95	399.10
715.28	396.76
715.61	394.45
715.95	392.24
716.28	389.62
716.61	387.67
716.95	385.02
717.28	382.86
717.61	380.64
717.94	378.36
718.28	375.02
718.61	372.64
718.94	369.83
719.27	368.00
719.61	366.31
719.94	363.60
720.27	360.79
720.60	358.76
720.94	356.64
721.27	355.02
721.60	353.79
721.93	351.69
722.27	350.76
722.60	349.21
722.93	347.24
723.26	345.93
723.59	344.26
723.93	343.02
724.26	341.64
724.59	339.98
724.92	339.00
725.25	337.90
725.59	336.64
725.92	335.57
726.25	334.71
726.58	333.48
726.91	331.74
727.24	330.60
727.57	329.60
727.91	327.88
728.24	326.83
728.57	324.79
728.90	324.12
729.23	322.24
729.56	321.64
729.89	320.69
730.22	319.50
730.55	318.19
730.89	317.07
731.22	315.36
731.55	314.26
731.88	313.02
732.21	311.45
732.54	310.50
732.87	309.45
733.20	307.93
733.53	306.69
733.86	305.93
734.19	304.67
734.52	303.40
734.85	303.86
735.18	302.60
735.51	302.67
735.84	301.69
736.17	301.10
736.50	299.26
736.83	300.40
737.16	299.26
737.49	298.62
737.82	297.60
738.15	297.29
738.48	296.33
738.81	295.40
739.14	294.48
739.47	293.02
739.80	292.00
740.13	291.50
740.46	290.26
740.79	289.12
741.12	288.14
741.45	287.40
741.78	285.62
742.11	285.10
742.44	283.74
742.77	283.14
743.10	281.98
743.43	281.10
743.75	278.33
744.08	280.31
744.41	278.90
744.74	277.90
745.07	276.93
745.40	276.19
745.73	276.29
746.06	275.57
746.39	275.55
746.71	274.52
747.04	273.14
747.37	272.29
747.70	271.90
748.03	271.29
748.36	270.74
748.68	270.07
749.01	268.67
749.34	268.02
749.67	267.00
750.00	266.57
750.33	267.79
750.65	267.33
750.98	264.17
751.31	263.81
751.64	263.36
751.97	263.71
752.29	263.10
752.62	261.57
752.95	261.19
753.28	260.14
753.60	259.69
753.93	259.81
754.26	259.64
754.59	258.45
754.91	257.71
755.24	257.21
755.57	256.67
755.90	256.26
756.22	255.38
756.55	254.50
756.88	253.86
757.20	251.71
757.53	250.55
757.86	250.00
758.19	249.74
758.51	249.29
758.84	247.83
759.17	247.33
759.49	246.95
759.82	247.31
760.15	247.26
760.47	246.81
760.80	246.05
761.13	245.86
761.45	245.64
761.78	245.24
762.11	244.71
762.43	244.10
762.76	243.71
763.08	243.76
763.41	243.74
763.74	243.45
764.06	243.05
764.39	242.98
764.71	242.64
765.04	242.05
765.37	241.40
765.69	240.74
766.02	240.40
766.34	239.74
766.67	238.71
767.00	238.50
767.32	239.10
767.65	239.74
767.97	239.21
768.30	239.02
768.62	238.81
768.95	238.36
769.27	237.95
769.60	237.98
769.92	237.29
770.25	236.48
770.57	235.86
770.90	235.48
771.22	234.64
771.55	234.33
771.87	234.38
772.20	234.29
772.52	236.12
772.85	238.29
773.17	238.29
773.50	237.98
773.82	237.45
774.15	236.21
774.47	234.88
774.80	234.60
775.12	234.29
775.45	234.19
775.77	234.05
776.09	234.05
776.42	233.83
776.74	234.10
777.07	234.05
777.39	233.95
777.72	233.52
778.04	233.98
778.36	233.60
778.69	233.21
779.01	233.12
779.33	231.02
779.66	228.69
779.98	228.19
780.31	228.07
780.63	228.98
780.95	229.21
781.28	229.02
781.60	228.62
781.92	228.36
782.25	228.00
782.57	227.88
782.89	227.67
783.22	227.02
783.54	226.48
783.86	226.48
784.19	225.86
784.51	226.55
784.83	225.71
785.16	225.55
785.48	225.40
785.80	225.17
786.12	225.40
786.45	225.12
786.77	225.26
787.09	224.98
787.42	223.81
787.74	223.43
788.06	223.33
788.38	223.21
788.71	223.00
789.03	222.71
789.35	222.74
789.67	222.29
789.99	222.52
790.32	222.38
790.64	222.55
790.96	224.36
791.28	223.45
791.61	223.60
791.93	223.71
792.25	223.67
792.57	225.21
792.89	224.62
793.21	224.64
793.54	224.40
793.86	224.07
794.18	224.19
794.50	224.29
794.82	224.14
795.14	224.29
795.47	224.45
795.79	224.64
796.11	224.24
796.43	224.17
796.75	224.05
797.07	223.93
797.39	223.64
797.71	221.83
798.04	221.93
798.36	222.07
798.68	221.86
799.00	221.86
799.32	220.50
799.64	220.83
799.96	220.64
800.28	221.05
800.60	221.05
800.92	221.12
801.24	220.76
801.56	220.98
801.89	220.90
802.21	221.14
802.53	220.64
802.85	220.76
803.17	221.76
803.49	221.43
803.81	221.43
804.13	221.24
804.45	221.19
804.77	221.26
805.09	221.05
805.41	220.98
805.73	220.52
806.05	220.24
806.37	219.95
806.69	219.74
807.01	219.31
807.33	219.26
807.65	218.50
807.97	219.38
808.28	218.98
808.60	218.95
808.92	218.67
809.24	220.05
809.56	219.95
809.88	219.10
810.20	219.24
810.52	219.60
810.84	219.14
811.16	219.31
811.48	219.31
811.80	220.24
812.12	220.07
812.43	220.50
812.75	220.38
813.07	220.17
813.39	220.36
813.71	219.98
814.03	219.88
814.35	219.81
814.67	218.88
814.98	218.95
815.30	218.60
815.62	218.12
815.94	216.62
816.26	216.79
816.58	216.48
816.89	216.67
817.21	215.95
817.53	216.05
817.85	215.98
818.17	215.76
818.48	214.74
818.80	215.24
819.12	214.88
819.44	214.62
819.76	214.40
820.07	214.21
820.39	214.26
820.71	214.19
821.03	214.17
821.34	214.29
821.66	214.60
821.98	214.88
822.30	214.69
822.61	215.86
822.93	215.48
823.25	215.48
823.57	215.14
823.88	215.48
824.20	215.71
824.52	216.14
824.83	215.98
825.15	215.79
825.47	215.40
825.79	215.69
826.10	215.64
826.42	215.79
826.74	216.02
827.05	216.14
827.37	216.36
827.69	216.31
828.00	216.29
828.32	215.81
828.64	215.60
828.95	216.88
829.27	216.29
829.58	216.14
829.90	216.36
830.22	216.24
830.53	215.98
830.85	215.81
831.17	215.05
831.48	215.21
831.80	215.19
832.11	215.05
832.43	214.62
832.75	214.40
833.06	215.52
833.38	214.98
833.69	214.79
834.01	214.83
834.32	214.74
834.64	214.26
834.96	214.48
835.27	214.57
835.59	213.83
835.90	213.55
836.22	213.67
836.53	213.33
836.85	213.31
837.16	215.05
837.48	215.02
837.79	215.64
838.11	215.64
838.42	215.81
838.74	216.02
839.05	215.79
839.37	215.83
839.68	214.55
840.00	214.55
840.31	214.83
840.63	214.48
840.94	214.43
841.26	214.55
841.57	214.29
841.88	214.52
842.20	214.00
842.51	213.76
842.83	213.90
843.14	215.98
843.46	216.05
843.77	215.31
844.08	214.98
844.40	214.57
844.71	214.40
845.03	214.14
845.34	214.19
845.65	214.33
845.97	214.26
846.28	214.31
846.60	214.10
846.91	213.90
847.22	214.05
847.54	214.52
847.85	214.69
848.16	214.69
848.48	214.00
848.79	214.90
849.10	215.00
849.42	215.02
849.73	212.81
850.04	212.74
850.36	211.98
850.67	212.52
850.98	212.31
851.30	212.40
851.61	212.36
851.92	212.24
852.23	213.02
852.55	213.14
852.86	213.43
853.17	213.86
853.49	214.26
853.80	214.40
854.11	214.60
854.42	214.38
854.74	214.17
855.05	214.24
855.36	213.26
855.67	213.62
855.99	213.50
856.30	216.12
856.61	215.83
856.92	215.62
857.23	215.74
857.55	215.90
857.86	216.17
858.17	216.50
858.48	216.07
858.79	215.43
859.11	215.83
859.42	215.45
859.73	215.07
860.04	214.79
860.35	214.45
860.66	213.62
860.98	213.71
861.29	214.05
861.60	214.07
861.91	214.57
862.22	214.29
862.53	214.05
862.84	211.60
863.16	212.40
863.47	212.36
863.78	212.12
864.09	212.19
864.40	212.14
864.71	212.07
865.02	212.43
865.33	212.24
865.64	211.71
865.95	211.57
866.27	213.02
866.58	212.76
866.89	213.02
867.20	212.93
867.51	212.86
867.82	212.86
868.13	213.40
868.44	213.00
868.75	213.26
869.06	213.29
869.37	213.43
869.68	212.88
869.99	212.88
870.30	212.83
870.61	212.93
870.92	212.33
871.23	212.26
871.54	212.62
871.85	213.17
872.16	213.29
872.47	213.24
872.78	211.95
873.09	212.17
873.40	211.88
873.71	212.19
874.02	212.33
874.33	212.10
874.64	211.60
874.95	212.19
875.26	211.76
875.56	211.98
875.87	211.93
876.18	211.88
876.49	214.10
876.80	214.07
877.11	213.52
877.42	213.62
877.73	213.60
878.04	213.05
878.35	212.90
878.66	212.95
878.96	213.10
879.27	213.24
879.58	213.17
879.89	212.83
880.20	213.38
880.51	213.21
880.82	213.26
881.12	213.57
881.43	212.93
881.74	212.71
882.05	212.38
882.36	212.31
882.67	212.40
882.97	210.29
883.28	210.10
883.59	210.31
883.90	210.76
884.21	211.14
884.51	211.26
884.82	211.05
885.13	211.26
885.44	211.21
885.74	211.02
886.05	211.14
886.36	211.52
886.67	210.71
886.98	211.64
887.28	211.76
887.59	211.48
887.90	211.67
888.20	211.74
888.51	212.21
888.82	212.26
889.13	212.29
889.43	213.69
889.74	213.60
890.05	213.45
890.35	213.14
890.66	212.90
890.97	212.69
891.28	212.45
891.58	212.45
891.89	212.67
892.20	212.60
892.50	212.43
892.81	212.43
893.12	212.69
893.42	211.64
893.73	211.64
894.04	211.76
894.34	211.76
894.65	211.67
894.95	211.67
895.26	211.62
895.57	212.38
895.87	210.57
896.18	211.00
896.48	211.14
896.79	211.29
897.10	211.52
897.40	211.71
897.71	212.12
898.01	212.02
898.32	212.17
898.63	212.05
898.93	212.29
899.24	212.36
899.54	212.36
899.85	212.52
900.15	212.43
900.46	212.31
900.76	212.60
901.07	212.67
901.38	212.38
901.68	212.48
901.99	211.48
902.29	211.79
902.60	211.38
902.90	211.26
903.21	211.00
903.51	210.76
903.82	210.76
904.12	210.79
904.43	211.05
904.73	210.86
905.03	211.17
905.34	212.90
905.64	212.90
905.95	212.57
906.25	212.36
906.56	212.36
906.86	212.48
907.17	212.33
907.47	212.50
907.77	212.62
908.08	212.45
908.38	212.81
908.69	212.71
908.99	213.38
909.30	213.71
909.60	214.00
909.90	214.14
910.21	213.83
910.51	213.62
910.81	213.40
911.12	213.45
911.42	213.33
911.73	211.19
912.03	211.17
912.33	211.81
912.64	212.17
912.94	211.95
913.24	211.64
913.55	211.36
913.85	211.21
914.15	211.29
914.46	211.52
914.76	211.33
915.06	211.38
915.37	210.81
915.67	210.64
915.97	210.57
916.27	210.17
916.58	210.43
916.88	210.14
917.18	210.14
917.49	211.60
917.79	211.57
918.09	211.76
918.39	212.33
918.70	212.14
919.00	212.02
919.30	213.00
919.60	212.98
919.91	212.98
920.21	213.12
920.51	212.76
920.81	212.62
921.12	212.88
921.42	212.93
921.72	213.12
922.02	213.21
922.32	213.43
922.63	213.33
922.93	214.24
923.23	214.36
923.53	214.14
923.83	212.86
924.13	213.17
924.44	213.29
924.74	213.55
925.04	214.00
925.34	213.90
925.64	213.12
925.94	213.36
926.24	214.38
926.55	214.05
926.85	214.21
927.15	213.95
927.45	213.95
927.75	213.81
928.05	213.88
928.35	213.62
928.65	213.86
928.95	214.33
929.26	213.57
929.56	213.83
929.86	214.14
930.16	213.98
930.46	213.67
930.76	213.67
931.06	212.62
931.36	212.07
931.66	212.31
931.96	212.55
932.26	212.57
932.56	211.81
932.86	212.26
933.16	212.62
933.46	212.64
933.76	212.24
934.06	212.67
934.36	213.33
934.66	213.33
934.96	212.95
935.26	212.74
935.56	213.10
935.86	212.93
936.16	212.50
936.46	212.29
936.76	212.17
937.06	211.86
937.36	212.21
937.66	212.40
937.96	212.19
938.26	211.52
938.56	211.40
938.86	211.62
939.16	212.12
939.46	212.10
939.76	212.07
940.06	212.12
940.35	211.74
940.65	210.79
940.95	210.81
941.25	210.36
941.55	210.38
941.85	210.12
942.15	210.17
942.45	210.79
942.75	210.62
943.04	210.83
943.34	211.40
943.64	211.02
943.94	210.67
944.24	210.74
944.54	211.10
944.84	211.02
945.13	210.64
945.43	210.05
945.73	209.98
946.03	209.98
946.33	209.74
946.62	209.67
946.92	209.64
947.22	209.76
947.52	210.00
947.82	210.26
948.11	209.88
948.41	209.79
948.71	209.26
949.01	209.55
949.31	209.40
949.60	209.05
949.90	209.45
950.20	209.43
950.50	209.52
950.79	209.62
951.09	209.81
951.39	209.83
951.69	209.55
951.98	210.05
952.28	209.98
952.58	209.93
952.87	210.00
953.17	210.19
953.47	209.98
953.76	210.00
954.06	209.57
954.36	209.52
954.66	209.50
954.95	209.95
955.25	210.14
955.55	210.21
955.84	210.10
956.14	210.14
956.44	210.31
956.73	210.19
957.03	210.19
957.32	210.24
957.62	210.02
957.92	210.43
958.21	210.10
958.51	212.69
958.81	213.33
959.10	213.57
959.40	214.05
959.69	214.19
959.99	214.48
960.29	214.45
960.58	214.55
960.88	215.43
961.17	215.31
961.47	215.38
961.76	215.48
962.06	215.76
962.36	215.71
962.65	215.98
962.95	215.98
963.24	215.81
963.54	216.00
963.83	216.29
964.13	216.12
964.42	215.55
964.72	213.81
965.01	213.57
965.31	213.31
965.60	212.93
965.90	214.26
966.19	213.83
966.49	213.88
966.78	213.71
967.08	213.45
967.37	213.31
967.67	213.07
967.96	213.14
968.26	213.10
968.55	213.21
968.85	212.88
969.14	212.93
969.43	212.86
969.73	212.50
970.02	212.31
970.32	212.33
970.61	212.07
970.91	211.74
971.20	211.33
971.49	211.14
971.79	211.19
972.08	209.62
972.38	209.90
972.67	209.90
972.96	210.38
973.26	209.79
973.55	210.55
973.85	210.36
974.14	210.21
974.43	210.29
974.73	209.86
975.02	209.69
975.31	209.43
975.61	209.60
975.90	209.55
976.19	209.40
976.49	209.64
976.78	210.12
977.07	209.88
977.37	210.19
977.66	210.36
977.95	209.93
978.24	210.21
978.54	210.69
978.83	210.50
979.12	210.24
979.42	210.19
979.71	209.67
980.00	209.62
980.29	209.74
980.59	209.33
980.88	209.93
981.17	210.07
981.46	210.26
981.76	209.98
982.05	210.50
982.34	210.76
982.63	210.76
982.93	210.57
983.22	211.10
983.51	211.05
983.80	211.50
984.09	211.93
984.39	211.79
984.68	211.48
984.97	211.81
985.26	211.57
985.55	211.81
985.85	211.43
986.14	211.88
986.43	212.02
986.72	212.07
987.01	211.17
987.30	211.10
987.59	210.93
987.89	211.07
988.18	210.43
988.47	210.10
988.76	209.71
989.05	209.71
989.34	209.14
989.63	209.88
989.92	209.33
990.22	208.98
990.51	209.00
990.80	208.71
991.09	208.83
991.38	209.24
991.67	209.07
991.96	208.93
992.25	208.81
992.54	208.45
992.83	208.60
993.12	208.83
993.41	209.05
993.70	209.76
993.99	210.10
994.28	210.12
994.58	210.38
994.87	210.36
995.16	210.33
995.45	210.38
995.74	209.21
996.03	209.71
996.32	210.02
996.61	210.52
996.90	210.43
997.19	210.24
997.48	210.24
997.77	210.19
998.06	210.24
998.34	209.79
998.63	209.93
998.92	210.05
999.21	210.55
999.50	210.69
999.79	210.21
1000.08	210.36
1000.37	210.60
1000.66	210.48
1000.95	211.14
1001.24	211.38
1001.53	211.55
1001.82	211.71
1002.11	211.21
1002.40	211.57
1002.68	211.76
1002.97	213.31
1003.26	213.07
1003.55	212.81
1003.84	212.93
1004.13	213.71
1004.42	214.00
1004.71	213.81
1004.99	213.33
1005.28	213.64
1005.57	213.48
1005.86	213.26
1006.15	212.98
1006.44	212.79
1006.72	213.12
1007.01	212.52
1007.30	212.29
1007.59	212.26
1007.88	212.40
1008.17	212.76
1008.45	212.14
1008.74	211.38
1009.03	210.45
1009.32	210.67
1009.60	210.55
1009.89	210.36
1010.18	209.79
1010.47	209.64
1010.76	209.69
1011.04	209.69
1011.33	209.83
1011.62	210.02
1011.91	210.26
1012.19	210.33
1012.48	210.26
1012.77	210.19
1013.05	211.24
1013.34	211.50
1013.63	211.19
1013.92	211.36
1014.20	210.95
1014.49	211.12
1014.78	211.36
1015.06	210.67
1015.35	210.36
1015.64	210.62
1015.92	210.93
1016.21	210.90
1016.50	211.00
1016.78	211.29
1017.07	211.64
1017.36	210.83
1017.64	210.33
1017.93	210.24
1018.22	210.02
1018.50	210.24
1018.79	210.07
1019.08	208.90
1019.36	208.76
1019.65	208.60
1019.93	209.14
1020.22	209.50
1020.51	210.57
1020.79	210.50
1021.08	206.50
1021.36	209.00
1021.65	209.50
1021.94	207.00
1022.22	209.50
1022.51	203.00
1022.79	221.50
1023.08	213.00
1023.36	234.00
1023.65	208.50
>>>>>End Processed Spectral Data<<<<<
