SpectraSuite Data File
++++++++++++++++++++++++++++++++++++
Date: Tue Apr 02 18:40:19 EDT 2013
User: group
Dark Spectrum Present: No
Reference Spectrum Present: No
Number of Sampled Component Spectra: 1
Spectrometers: USB2E7196
Integration Time (usec): 580000 (USB2E7196)
Spectra Averaged: 2 (USB2E7196)
Boxcar Smoothing: 10 (USB2E7196)
Correct for Electrical Dark: No (USB2E7196)
Strobe/Lamp Enabled: No (USB2E7196)
Correct for Detector Non-linearity: No (USB2E7196)
Correct for Stray Light: No (USB2E7196)
Number of Pixels in Processed Spectrum: 2048
>>>>>Begin Processed Spectral Data<<<<<
339.09	0.00
339.48	197.00
339.86	196.00
340.24	200.50
340.63	199.00
341.01	234.50
341.39	203.50
341.78	212.50
342.16	209.50
342.54	207.00
342.93	199.14
343.31	208.93
343.69	209.38
344.07	209.86
344.46	210.52
344.84	211.24
345.22	209.98
345.60	210.40
345.99	210.17
346.37	210.00
346.75	210.00
347.13	209.98
347.52	209.90
347.90	210.60
348.28	210.55
348.66	210.88
349.05	210.45
349.43	210.57
349.81	210.90
350.19	210.95
350.57	210.79
350.96	210.90
351.34	211.19
351.72	211.26
352.10	211.29
352.48	210.83
352.87	210.62
353.25	210.55
353.63	210.02
354.01	210.17
354.39	210.38
354.77	210.50
355.15	211.05
355.54	210.93
355.92	210.12
356.30	210.02
356.68	211.17
357.06	211.38
357.44	211.00
357.82	210.76
358.20	211.60
358.58	211.67
358.97	211.83
359.35	211.93
359.73	212.40
360.11	212.24
360.49	212.45
360.87	212.31
361.25	212.52
361.63	213.64
362.01	213.83
362.39	213.48
362.77	213.52
363.15	213.29
363.53	213.26
363.91	213.52
364.29	213.48
364.67	211.69
365.05	211.64
365.43	211.93
365.81	212.10
366.19	212.19
366.57	212.88
366.95	212.86
367.33	212.69
367.71	212.55
368.09	213.02
368.47	213.10
368.85	213.21
369.23	213.69
369.61	212.93
369.99	213.43
370.37	214.02
370.75	215.12
371.13	214.81
371.51	214.60
371.89	214.86
372.27	215.31
372.65	215.40
373.03	215.52
373.41	215.45
373.78	215.64
374.16	214.45
374.54	213.60
374.92	213.31
375.30	213.36
375.68	213.12
376.06	213.45
376.44	213.31
376.82	213.50
377.19	213.38
377.57	213.21
377.95	212.57
378.33	212.52
378.71	211.33
379.09	211.69
379.47	212.12
379.84	211.79
380.22	211.31
380.60	211.21
380.98	210.98
381.36	210.98
381.73	210.71
382.11	211.14
382.49	211.62
382.87	211.50
383.25	211.50
383.62	213.79
384.00	213.14
384.38	213.12
384.76	213.74
385.13	214.67
385.51	214.95
385.89	214.95
386.27	214.79
386.64	215.21
387.02	214.95
387.40	214.69
387.78	215.00
388.15	215.33
388.53	215.17
388.91	215.43
389.29	215.38
389.66	215.67
390.04	215.60
390.42	215.90
390.79	216.19
391.17	216.12
391.55	213.76
391.92	214.10
392.30	214.36
392.68	213.55
393.05	213.17
393.43	213.07
393.81	213.19
394.18	213.05
394.56	213.00
394.94	213.67
395.31	213.52
395.69	214.19
396.06	214.40
396.44	214.83
396.82	214.64
397.19	215.57
397.57	215.40
397.95	215.93
398.32	215.31
398.70	215.38
399.07	215.98
399.45	216.14
399.82	216.07
400.20	216.00
400.58	216.43
400.95	215.74
401.33	216.26
401.70	217.83
402.08	217.98
402.45	218.05
402.83	218.29
403.20	218.55
403.58	218.12
403.95	218.81
404.33	219.17
404.71	219.60
405.08	220.90
405.46	221.36
405.83	221.60
406.21	222.14
406.58	222.60
406.96	222.98
407.33	223.55
407.70	224.19
408.08	226.48
408.45	227.17
408.83	228.19
409.20	228.62
409.58	227.93
409.95	229.21
410.33	230.10
410.70	230.33
411.08	231.48
411.45	232.76
411.82	233.31
412.20	235.00
412.57	237.36
412.95	237.05
413.32	238.83
413.69	240.31
414.07	241.90
414.44	244.12
414.82	246.00
415.19	248.60
415.56	250.95
415.94	252.55
416.31	255.43
416.68	258.50
417.06	262.14
417.43	266.00
417.81	269.38
418.18	273.29
418.55	277.67
418.93	282.07
419.30	286.50
419.67	291.38
420.04	295.83
420.42	300.71
420.79	308.36
421.16	314.33
421.54	321.69
421.91	328.43
422.28	334.86
422.66	342.33
423.03	350.88
423.40	358.31
423.77	365.57
424.15	373.24
424.52	381.31
424.89	390.29
425.26	398.43
425.64	406.93
426.01	415.76
426.38	425.00
426.75	435.26
427.13	445.29
427.50	455.57
427.87	466.57
428.24	476.83
428.61	485.67
428.99	497.48
429.36	508.90
429.73	520.83
430.10	533.05
430.47	544.93
430.85	556.17
431.22	569.64
431.59	585.02
431.96	598.69
432.33	613.07
432.70	627.67
433.08	644.71
433.45	661.33
433.82	678.02
434.19	696.64
434.56	714.17
434.93	731.02
435.30	748.40
435.68	767.14
436.05	785.48
436.42	803.71
436.79	820.81
437.16	839.07
437.53	858.31
437.90	878.10
438.27	897.55
438.64	916.88
439.01	935.64
439.38	950.79
439.75	967.05
440.13	986.38
440.50	1003.12
440.87	1017.19
441.24	1030.67
441.61	1046.36
441.98	1058.05
442.35	1071.00
442.72	1084.71
443.09	1098.67
443.46	1106.40
443.83	1112.69
444.20	1117.71
444.57	1124.00
444.94	1126.86
445.31	1130.21
445.68	1135.52
446.05	1136.50
446.42	1134.55
446.79	1132.62
447.16	1131.05
447.53	1129.26
447.90	1121.48
448.27	1114.45
448.64	1104.98
449.01	1098.88
449.37	1086.69
449.74	1074.29
450.11	1061.98
450.48	1045.64
450.85	1028.50
451.22	1015.57
451.59	1002.48
451.96	990.81
452.33	974.14
452.70	959.48
453.07	941.40
453.43	920.48
453.80	903.52
454.17	887.29
454.54	870.74
454.91	852.48
455.28	835.57
455.65	819.69
456.02	807.60
456.38	793.98
456.75	777.19
457.12	763.12
457.49	749.60
457.86	734.38
458.23	724.17
458.59	711.40
458.96	698.36
459.33	686.98
459.70	674.69
460.07	665.69
460.43	655.64
460.80	646.40
461.17	638.00
461.54	628.71
461.91	620.02
462.27	611.05
462.64	604.00
463.01	595.86
463.38	588.86
463.74	577.52
464.11	570.17
464.48	564.38
464.85	557.45
465.21	552.79
465.58	547.38
465.95	540.48
466.32	535.43
466.68	529.86
467.05	524.45
467.42	519.60
467.78	514.31
468.15	508.67
468.52	504.93
468.88	499.38
469.25	494.50
469.62	490.93
469.98	487.00
470.35	483.69
470.72	479.90
471.08	475.14
471.45	472.05
471.82	469.62
472.18	465.40
472.55	462.98
472.92	458.98
473.28	455.93
473.65	452.90
474.02	450.38
474.38	447.74
474.75	445.50
475.11	442.74
475.48	440.83
475.85	439.00
476.21	436.67
476.58	435.50
476.94	434.19
477.31	432.36
477.67	431.29
478.04	430.31
478.41	429.52
478.77	430.90
479.14	430.21
479.50	429.57
479.87	429.62
480.23	428.81
480.60	428.62
480.96	428.74
481.33	429.29
481.69	428.83
482.06	429.29
482.42	430.00
482.79	430.60
483.15	430.69
483.52	432.05
483.88	433.10
484.25	433.24
484.61	434.26
484.98	435.48
485.34	437.29
485.71	438.40
486.07	439.79
486.44	439.24
486.80	440.43
487.17	441.98
487.53	444.48
487.90	447.10
488.26	449.57
488.62	452.26
488.99	454.62
489.35	458.07
489.72	460.60
490.08	462.81
490.44	465.55
490.81	468.74
491.17	471.50
491.54	474.95
491.90	479.60
492.26	483.38
492.63	487.31
492.99	490.69
493.36	494.81
493.72	499.38
494.08	504.52
494.45	509.52
494.81	514.62
495.17	518.79
495.54	524.21
495.90	529.05
496.26	534.33
496.63	540.07
496.99	545.67
497.35	551.95
497.72	558.93
498.08	565.45
498.44	572.62
498.80	579.38
499.17	585.69
499.53	592.21
499.89	599.93
500.26	606.98
500.62	614.33
500.98	622.31
501.34	629.95
501.71	637.98
502.07	645.26
502.43	652.86
502.79	660.50
503.16	668.31
503.52	676.74
503.88	684.86
504.24	693.00
504.60	701.31
504.97	709.67
505.33	717.57
505.69	726.24
506.05	733.71
506.41	741.24
506.78	749.76
507.14	757.86
507.50	765.50
507.86	774.81
508.22	782.83
508.59	791.02
508.95	799.36
509.31	808.50
509.67	817.57
510.03	825.88
510.39	834.81
510.75	842.67
511.12	851.00
511.48	858.76
511.84	866.62
512.20	874.62
512.56	882.81
512.92	891.31
513.28	899.88
513.64	908.71
514.00	918.12
514.37	926.67
514.73	934.81
515.09	943.29
515.45	950.88
515.81	959.40
516.17	967.02
516.53	974.69
516.89	981.31
517.25	989.33
517.61	997.10
517.97	1004.31
518.33	1012.50
518.69	1019.81
519.05	1028.50
519.41	1036.07
519.77	1044.88
520.13	1052.05
520.49	1058.10
520.85	1064.50
521.21	1071.67
521.57	1077.79
521.93	1083.62
522.29	1090.31
522.65	1095.79
523.01	1102.02
523.37	1108.19
523.73	1114.74
524.09	1120.88
524.45	1126.21
524.81	1131.00
525.17	1137.50
525.53	1143.21
525.89	1148.43
526.25	1154.12
526.61	1158.64
526.97	1163.98
527.33	1168.50
527.68	1175.60
528.04	1181.00
528.40	1185.60
528.76	1191.17
529.12	1196.43
529.48	1202.45
529.84	1207.76
530.20	1213.83
530.56	1219.19
530.91	1224.67
531.27	1229.52
531.63	1234.86
531.99	1240.67
532.35	1245.83
532.71	1250.33
533.07	1255.93
533.42	1263.02
533.78	1267.74
534.14	1273.48
534.50	1278.38
534.86	1283.43
535.21	1286.57
535.57	1292.05
535.93	1296.43
536.29	1301.93
536.65	1307.57
537.00	1311.98
537.36	1315.93
537.72	1319.95
538.08	1324.07
538.44	1327.62
538.79	1332.21
539.15	1335.74
539.51	1339.69
539.87	1344.71
540.22	1348.57
540.58	1352.50
540.94	1355.33
541.29	1359.95
541.65	1362.88
542.01	1367.00
542.37	1370.12
542.72	1373.38
543.08	1377.19
543.44	1382.43
543.79	1384.10
544.15	1386.79
544.51	1390.88
544.87	1394.83
545.22	1398.71
545.58	1403.02
545.94	1406.88
546.29	1409.74
546.65	1414.52
547.01	1417.69
547.36	1420.60
547.72	1424.05
548.07	1427.17
548.43	1430.62
548.79	1433.17
549.14	1436.67
549.50	1440.98
549.86	1443.19
550.21	1447.05
550.57	1450.93
550.92	1453.02
551.28	1457.52
551.64	1461.90
551.99	1465.19
552.35	1468.95
552.70	1472.79
553.06	1476.10
553.41	1479.86
553.77	1484.86
554.13	1488.40
554.48	1493.50
554.84	1499.02
555.19	1504.17
555.55	1510.17
555.90	1514.36
556.26	1520.17
556.61	1524.26
556.97	1527.38
557.32	1532.02
557.68	1537.33
558.03	1540.67
558.39	1545.98
558.74	1550.00
559.10	1553.57
559.45	1558.24
559.81	1562.81
560.16	1567.76
560.52	1572.14
560.87	1578.02
561.23	1581.83
561.58	1588.07
561.94	1591.36
562.29	1593.90
562.64	1597.81
563.00	1601.50
563.35	1605.40
563.71	1609.98
564.06	1615.74
564.42	1621.24
564.77	1628.17
565.12	1633.10
565.48	1640.60
565.83	1646.33
566.19	1651.40
566.54	1657.64
566.89	1662.62
567.25	1668.79
567.60	1675.71
567.96	1682.69
568.31	1687.64
568.66	1693.93
569.02	1696.33
569.37	1702.36
569.72	1708.26
570.08	1712.26
570.43	1716.62
570.78	1721.55
571.14	1726.57
571.49	1730.86
571.84	1734.95
572.20	1738.67
572.55	1742.67
572.90	1745.14
573.26	1748.33
573.61	1752.76
573.96	1756.00
574.31	1759.17
574.67	1762.19
575.02	1763.93
575.37	1765.57
575.72	1767.10
576.08	1769.48
576.43	1773.12
576.78	1774.62
577.13	1777.45
577.49	1780.90
577.84	1784.02
578.19	1787.12
578.54	1788.81
578.90	1791.05
579.25	1793.43
579.60	1794.33
579.95	1795.00
580.30	1797.33
580.66	1799.17
581.01	1800.50
581.36	1802.00
581.71	1803.98
582.06	1806.64
582.42	1808.12
582.77	1808.64
583.12	1810.69
583.47	1811.88
583.82	1813.29
584.17	1815.14
584.53	1816.62
584.88	1817.48
585.23	1818.45
585.58	1818.17
585.93	1818.76
586.28	1819.38
586.63	1820.48
586.98	1821.86
587.34	1824.33
587.69	1823.71
588.04	1823.90
588.39	1823.60
588.74	1822.55
589.09	1823.14
589.44	1821.00
589.79	1820.36
590.14	1820.45
590.49	1820.26
590.84	1819.93
591.19	1819.62
591.54	1819.57
591.89	1818.62
592.25	1820.05
592.60	1818.12
592.95	1817.83
593.30	1818.02
593.65	1817.21
594.00	1815.52
594.35	1819.38
594.70	1816.90
595.05	1816.95
595.40	1816.88
595.75	1816.71
596.10	1816.62
596.45	1814.93
596.80	1814.29
597.15	1813.45
597.50	1812.29
597.85	1811.31
598.19	1809.71
598.54	1807.50
598.89	1805.86
599.24	1804.76
599.59	1800.55
599.94	1799.50
600.29	1797.17
600.64	1795.07
600.99	1793.17
601.34	1791.90
601.69	1784.69
602.04	1783.19
602.39	1779.98
602.74	1777.86
603.08	1775.29
603.43	1774.24
603.78	1771.90
604.13	1770.60
604.48	1767.71
604.83	1765.86
605.18	1763.10
605.53	1760.00
605.87	1757.19
606.22	1754.55
606.57	1751.38
606.92	1749.98
607.27	1747.02
607.62	1745.17
607.96	1741.45
608.31	1739.17
608.66	1735.50
609.01	1732.48
609.36	1729.12
609.70	1726.38
610.05	1722.24
610.40	1718.64
610.75	1713.36
611.10	1709.52
611.44	1704.38
611.79	1700.29
612.14	1695.33
612.49	1690.74
612.83	1686.12
613.18	1682.50
613.53	1677.76
613.88	1671.40
614.22	1665.64
614.57	1660.93
614.92	1655.00
615.27	1650.07
615.61	1643.95
615.96	1638.14
616.31	1632.98
616.65	1628.81
617.00	1623.10
617.35	1617.71
617.70	1611.95
618.04	1607.02
618.39	1601.12
618.74	1595.29
619.08	1589.60
619.43	1584.76
619.78	1579.02
620.12	1574.40
620.47	1569.29
620.82	1562.95
621.16	1557.88
621.51	1553.93
621.85	1548.10
622.20	1543.21
622.55	1537.02
622.89	1531.52
623.24	1526.93
623.59	1521.12
623.93	1514.60
624.28	1510.00
624.62	1506.90
624.97	1503.43
625.32	1498.76
625.66	1494.36
626.01	1489.05
626.35	1483.86
626.70	1479.17
627.04	1475.93
627.39	1469.95
627.73	1464.60
628.08	1460.71
628.43	1456.24
628.77	1450.43
629.12	1445.81
629.46	1440.50
629.81	1435.81
630.15	1430.21
630.50	1424.21
630.84	1418.71
631.19	1412.43
631.53	1406.14
631.88	1397.40
632.22	1388.98
632.57	1383.29
632.91	1376.00
633.26	1371.26
633.60	1365.69
633.95	1359.33
634.29	1351.52
634.64	1345.60
634.98	1338.57
635.32	1332.95
635.67	1327.88
636.01	1322.40
636.36	1316.24
636.70	1310.57
637.05	1304.33
637.39	1298.93
637.73	1294.07
638.08	1289.43
638.42	1284.26
638.77	1278.05
639.11	1273.05
639.45	1268.48
639.80	1261.64
640.14	1256.24
640.49	1249.71
640.83	1242.74
641.17	1236.19
641.52	1230.21
641.86	1224.86
642.20	1219.62
642.55	1211.69
642.89	1204.10
643.23	1196.50
643.58	1190.10
643.92	1182.95
644.26	1176.71
644.61	1170.10
644.95	1162.40
645.29	1155.19
645.64	1148.57
645.98	1142.67
646.32	1136.52
646.66	1128.71
647.01	1121.26
647.35	1114.98
647.69	1108.67
648.04	1102.74
648.38	1096.67
648.72	1090.21
649.06	1083.14
649.41	1076.19
649.75	1070.05
650.09	1064.07
650.43	1056.90
650.78	1049.86
651.12	1043.50
651.46	1036.69
651.80	1030.31
652.14	1024.26
652.49	1018.31
652.83	1012.48
653.17	1005.48
653.51	998.38
653.85	992.67
654.20	986.79
654.54	980.26
654.88	973.05
655.22	967.26
655.56	960.57
655.90	954.19
656.25	947.43
656.59	941.52
656.93	936.29
657.27	931.00
657.61	925.21
657.95	919.79
658.29	913.45
658.64	907.55
658.98	901.55
659.32	895.14
659.66	888.67
660.00	882.10
660.34	876.38
660.68	870.43
661.02	864.43
661.36	858.50
661.70	852.88
662.05	847.52
662.39	842.17
662.73	836.69
663.07	831.71
663.41	826.36
663.75	820.29
664.09	814.48
664.43	807.90
664.77	802.43
665.11	796.21
665.45	791.50
665.79	786.26
666.13	780.12
666.47	774.93
666.81	769.36
667.15	763.81
667.49	758.45
667.83	754.24
668.17	748.93
668.51	744.14
668.85	738.95
669.19	734.86
669.53	728.76
669.87	723.26
670.21	717.76
670.55	712.67
670.89	708.79
671.23	704.02
671.57	699.02
671.91	694.50
672.25	690.45
672.58	686.26
672.92	681.60
673.26	677.31
673.60	673.14
673.94	668.81
674.28	664.76
674.62	660.55
674.96	655.19
675.30	651.26
675.64	646.93
675.97	642.60
676.31	637.40
676.65	633.36
676.99	630.48
677.33	626.21
677.67	622.64
678.01	617.81
678.34	613.07
678.68	609.71
679.02	605.38
679.36	600.52
679.70	595.40
680.04	591.33
680.37	587.67
680.71	583.14
681.05	579.31
681.39	575.33
681.73	571.36
682.06	567.74
682.40	563.67
682.74	559.93
683.08	557.12
683.42	552.81
683.75	549.17
684.09	544.12
684.43	540.17
684.77	535.64
685.10	531.86
685.44	528.02
685.78	523.86
686.12	520.21
686.45	516.69
686.79	512.86
687.13	509.40
687.46	505.33
687.80	502.60
688.14	499.10
688.48	495.83
688.81	492.48
689.15	489.62
689.49	486.12
689.82	482.88
690.16	478.52
690.50	475.48
690.83	471.88
691.17	468.14
691.51	464.90
691.84	462.36
692.18	459.07
692.52	456.45
692.85	453.76
693.19	451.29
693.52	448.33
693.86	445.40
694.20	442.07
694.53	439.31
694.87	435.90
695.21	432.33
695.54	428.95
695.88	425.38
696.21	421.76
696.55	419.19
696.88	416.50
697.22	413.67
697.56	411.38
697.89	408.52
698.23	406.83
698.56	404.40
698.90	402.19
699.23	399.45
699.57	396.93
699.90	394.21
700.24	391.33
700.58	388.90
700.91	387.26
701.25	386.55
701.58	384.93
701.92	383.17
702.25	381.24
702.59	379.00
702.92	377.57
703.26	375.60
703.59	373.19
703.93	372.69
704.26	371.26
704.60	369.55
704.93	367.90
705.26	365.52
705.60	363.90
705.93	361.17
706.27	360.57
706.60	358.76
706.94	357.74
707.27	355.76
707.61	354.31
707.94	352.10
708.27	348.83
708.61	346.88
708.94	345.45
709.28	344.05
709.61	342.69
709.94	340.88
710.28	339.40
710.61	338.31
710.95	334.62
711.28	334.07
711.61	332.29
711.95	331.07
712.28	329.64
712.61	327.98
712.95	327.90
713.28	326.62
713.61	324.90
713.95	322.90
714.28	322.02
714.61	320.74
714.95	319.31
715.28	317.74
715.61	315.95
715.95	314.67
716.28	312.98
716.61	311.71
716.95	310.10
717.28	308.64
717.61	307.36
717.94	306.40
718.28	304.05
718.61	302.71
718.94	301.10
719.27	299.81
719.61	298.79
719.94	297.21
720.27	294.98
720.60	293.90
720.94	292.86
721.27	291.74
721.60	290.95
721.93	290.07
722.27	289.95
722.60	289.40
722.93	287.95
723.26	287.21
723.59	286.07
723.93	285.83
724.26	285.12
724.59	283.76
724.92	283.29
725.25	282.93
725.59	282.19
725.92	281.69
726.25	281.07
726.58	280.00
726.91	278.98
727.24	278.38
727.57	277.71
727.91	276.55
728.24	275.88
728.57	274.62
728.90	274.14
729.23	272.79
729.56	272.95
729.89	272.14
730.22	271.40
730.55	270.64
730.89	270.00
731.22	269.29
731.55	268.76
731.88	267.83
732.21	266.62
732.54	265.62
732.87	264.83
733.20	264.36
733.53	264.05
733.86	263.52
734.19	262.88
734.52	262.83
734.85	263.88
735.18	263.02
735.51	263.21
735.84	262.81
736.17	262.67
736.50	260.95
736.83	262.69
737.16	262.36
737.49	261.98
737.82	261.17
738.15	260.88
738.48	260.52
738.81	260.14
739.14	259.64
739.47	259.24
739.80	258.67
740.13	258.21
740.46	257.48
740.79	256.81
741.12	256.31
741.45	255.36
741.78	253.60
742.11	253.52
742.44	252.71
742.77	252.43
743.10	252.00
743.43	251.74
743.75	249.19
744.08	251.31
744.41	251.05
744.74	250.45
745.07	249.76
745.40	249.55
745.73	249.93
746.06	249.57
746.39	249.57
746.71	249.05
747.04	248.29
747.37	247.90
747.70	247.93
748.03	247.76
748.36	247.57
748.68	247.38
749.01	246.55
749.34	246.07
749.67	245.67
750.00	245.40
750.33	246.50
750.65	246.40
750.98	243.52
751.31	242.86
751.64	242.57
751.97	243.17
752.29	242.81
752.62	241.52
752.95	241.14
753.28	240.60
753.60	240.43
753.93	240.71
754.26	240.43
754.59	239.57
754.91	239.24
755.24	238.88
755.57	238.40
755.90	238.14
756.22	237.69
756.55	236.83
756.88	236.21
757.20	234.50
757.53	233.33
757.86	233.17
758.19	233.52
758.51	233.40
758.84	232.19
759.17	231.57
759.49	231.50
759.82	232.14
760.15	231.98
760.47	231.62
760.80	230.83
761.13	231.02
761.45	230.60
761.78	230.00
762.11	229.81
762.43	229.48
762.76	229.26
763.08	229.31
763.41	229.64
763.74	229.67
764.06	229.52
764.39	229.67
764.71	229.19
765.04	228.74
765.37	228.33
765.69	227.98
766.02	227.81
766.34	227.38
766.67	226.50
767.00	226.48
767.32	227.64
767.65	228.62
767.97	228.26
768.30	228.40
768.62	228.52
768.95	228.07
769.27	227.83
769.60	227.98
769.92	227.38
770.25	226.64
770.57	226.12
770.90	226.10
771.22	225.98
771.55	226.05
771.87	225.74
772.20	225.55
772.52	227.21
772.85	229.62
773.17	229.93
773.50	229.57
773.82	229.33
774.15	227.95
774.47	226.69
774.80	226.69
775.12	226.33
775.45	226.05
775.77	226.00
776.09	226.12
776.42	226.02
776.74	226.71
777.07	226.48
777.39	226.40
777.72	226.00
778.04	226.10
778.36	225.76
778.69	225.74
779.01	225.83
779.33	224.12
779.66	221.86
779.98	221.36
780.31	221.31
780.63	222.05
780.95	222.69
781.28	222.67
781.60	222.17
781.92	222.24
782.25	222.12
782.57	221.98
782.89	221.67
783.22	221.33
783.54	220.86
783.86	221.07
784.19	220.90
784.51	221.40
784.83	221.02
785.16	221.12
785.48	221.07
785.80	220.90
786.12	221.14
786.45	220.88
786.77	220.98
787.09	220.79
787.42	220.02
787.74	219.81
788.06	219.76
788.38	219.52
788.71	219.21
789.03	219.38
789.35	219.62
789.67	219.50
789.99	219.64
790.32	219.17
790.64	219.43
790.96	221.00
791.28	220.24
791.61	220.05
791.93	219.98
792.25	219.81
792.57	221.38
792.89	220.74
793.21	220.93
793.54	220.71
793.86	220.83
794.18	220.83
794.50	220.19
794.82	220.17
795.14	220.60
795.47	221.00
795.79	220.88
796.11	220.45
796.43	220.21
796.75	220.12
797.07	220.33
797.39	220.10
797.71	218.83
798.04	218.90
798.36	219.40
798.68	219.24
799.00	219.36
799.32	218.14
799.64	218.50
799.96	218.33
800.28	218.98
800.60	218.81
800.92	219.02
801.24	219.19
801.56	219.52
801.89	219.50
802.21	219.71
802.53	219.31
802.85	219.79
803.17	220.76
803.49	220.31
803.81	220.14
804.13	220.05
804.45	219.71
804.77	219.90
805.09	219.52
805.41	219.38
805.73	218.81
806.05	218.29
806.37	218.38
806.69	218.33
807.01	217.88
807.33	218.12
807.65	217.21
807.97	217.93
808.28	217.57
808.60	217.36
808.92	216.88
809.24	218.29
809.56	217.88
809.88	217.17
810.20	217.40
810.52	217.64
810.84	217.40
811.16	217.14
811.48	217.07
811.80	217.88
812.12	217.79
812.43	218.43
812.75	218.86
813.07	218.33
813.39	218.43
813.71	218.02
814.03	217.64
814.35	217.79
814.67	216.98
814.98	216.64
815.30	216.48
815.62	216.21
815.94	214.93
816.26	214.98
816.58	214.45
816.89	214.74
817.21	214.36
817.53	214.38
817.85	214.40
818.17	214.24
818.48	213.43
818.80	213.90
819.12	213.40
819.44	212.83
819.76	212.76
820.07	212.88
820.39	212.71
820.71	212.95
821.03	212.88
821.34	212.88
821.66	213.50
821.98	213.71
822.30	213.57
822.61	214.93
822.93	214.81
823.25	215.10
823.57	214.55
823.88	214.83
824.20	215.07
824.52	215.64
824.83	215.69
825.15	215.48
825.47	215.50
825.79	215.98
826.10	215.88
826.42	216.12
826.74	215.90
827.05	216.17
827.37	216.07
827.69	216.00
828.00	215.81
828.32	215.48
828.64	215.21
828.95	216.60
829.27	215.40
829.58	215.33
829.90	215.62
830.22	215.86
830.53	215.52
830.85	215.05
831.17	214.36
831.48	214.33
831.80	214.38
832.11	214.02
832.43	213.43
832.75	213.57
833.06	214.48
833.38	213.98
833.69	213.90
834.01	214.05
834.32	214.10
834.64	213.95
834.96	213.86
835.27	213.93
835.59	213.02
835.90	212.81
836.22	212.86
836.53	212.50
836.85	212.31
837.16	214.43
837.48	214.50
837.79	215.31
838.11	215.48
838.42	215.52
838.74	215.71
839.05	215.74
839.37	215.55
839.68	214.33
840.00	214.33
840.31	214.40
840.63	214.19
840.94	214.07
841.26	214.10
841.57	214.07
841.88	214.00
842.20	213.69
842.51	213.67
842.83	213.74
843.14	215.69
843.46	215.86
843.77	214.81
844.08	214.67
844.40	213.83
844.71	213.67
845.03	213.48
845.34	213.62
845.65	213.43
845.97	213.52
846.28	213.71
846.60	214.00
846.91	213.83
847.22	213.60
847.54	214.02
847.85	214.29
848.16	214.12
848.48	213.81
848.79	214.93
849.10	215.24
849.42	215.14
849.73	213.14
850.04	213.05
850.36	212.33
850.67	212.95
850.98	213.29
851.30	213.38
851.61	213.45
851.92	213.14
852.23	213.93
852.55	214.21
852.86	214.19
853.17	214.33
853.49	214.64
853.80	215.14
854.11	215.21
854.42	215.29
854.74	215.21
855.05	215.45
855.36	214.31
855.67	214.48
855.99	214.57
856.30	216.98
856.61	216.90
856.92	217.00
857.23	216.83
857.55	216.45
857.86	216.17
858.17	216.52
858.48	216.45
858.79	216.10
859.11	216.31
859.42	216.38
859.73	216.14
860.04	216.36
860.35	215.79
860.66	215.43
860.98	215.45
861.29	215.71
861.60	215.69
861.91	216.02
862.22	215.38
862.53	214.95
862.84	212.55
863.16	213.12
863.47	212.43
863.78	212.24
864.09	212.31
864.40	212.45
864.71	212.55
865.02	212.83
865.33	212.74
865.64	211.93
865.95	211.81
866.27	213.07
866.58	212.52
866.89	212.67
867.20	212.55
867.51	211.98
867.82	211.98
868.13	212.57
868.44	212.14
868.75	213.02
869.06	213.48
869.37	213.57
869.68	212.90
869.99	213.43
870.30	213.57
870.61	213.67
870.92	213.48
871.23	213.10
871.54	213.21
871.85	213.69
872.16	214.43
872.47	214.36
872.78	213.00
873.09	213.33
873.40	213.38
873.71	213.33
874.02	213.64
874.33	213.31
874.64	212.62
874.95	213.02
875.26	212.40
875.56	212.12
875.87	212.29
876.18	212.05
876.49	214.00
876.80	213.83
877.11	213.67
877.42	213.98
877.73	214.21
878.04	213.86
878.35	213.76
878.66	213.50
878.96	213.29
879.27	213.40
879.58	213.33
879.89	213.29
880.20	214.05
880.51	213.86
880.82	213.86
881.12	214.07
881.43	213.57
881.74	213.43
882.05	213.40
882.36	213.40
882.67	213.69
882.97	211.45
883.28	211.52
883.59	211.64
883.90	211.60
884.21	211.95
884.51	211.76
884.82	211.29
885.13	211.17
885.44	211.29
885.74	211.36
886.05	211.38
886.36	211.48
886.67	210.64
886.98	211.48
887.28	211.62
887.59	211.60
887.90	211.71
888.20	211.48
888.51	211.95
888.82	211.79
889.13	212.10
889.43	213.93
889.74	213.60
890.05	213.55
890.35	213.52
890.66	213.00
890.97	212.98
891.28	212.81
891.58	212.76
891.89	212.81
892.20	212.52
892.50	212.17
892.81	212.02
893.12	212.02
893.42	211.21
893.73	211.26
894.04	211.29
894.34	211.36
894.65	211.26
894.95	210.79
895.26	210.60
895.57	211.31
895.87	209.43
896.18	209.93
896.48	209.95
896.79	209.86
897.10	210.00
897.40	210.21
897.71	210.57
898.01	210.62
898.32	210.88
898.63	210.69
898.93	210.93
899.24	211.12
899.54	210.98
899.85	211.19
900.15	211.38
900.46	211.57
900.76	211.86
901.07	212.14
901.38	212.17
901.68	212.40
901.99	211.64
902.29	211.74
902.60	211.33
902.90	211.17
903.21	211.14
903.51	211.00
903.82	211.64
904.12	211.60
904.43	211.71
904.73	211.62
905.03	211.95
905.34	214.02
905.64	213.67
905.95	213.95
906.25	213.74
906.56	213.74
906.86	213.79
907.17	213.60
907.47	213.45
907.77	213.19
908.08	212.62
908.38	212.50
908.69	212.60
908.99	213.02
909.30	213.19
909.60	213.31
909.90	213.57
910.21	212.62
910.51	212.33
910.81	212.40
911.12	212.38
911.42	212.48
911.73	210.29
912.03	210.60
912.33	210.79
912.64	210.83
912.94	210.60
913.24	209.95
913.55	210.00
913.85	209.93
914.15	210.57
914.46	211.07
914.76	210.90
915.06	210.81
915.37	210.45
915.67	210.26
915.97	210.00
916.27	209.52
916.58	209.76
916.88	209.71
917.18	209.48
917.49	211.02
917.79	210.81
918.09	210.98
918.39	211.60
918.70	211.55
919.00	211.57
919.30	212.48
919.60	212.43
919.91	212.10
920.21	212.26
920.51	211.79
920.81	211.62
921.12	211.90
921.42	211.81
921.72	212.02
922.02	212.17
922.32	212.57
922.63	212.62
922.93	213.48
923.23	213.79
923.53	213.52
923.83	212.02
924.13	212.48
924.44	212.60
924.74	212.55
925.04	213.02
925.34	213.10
925.64	212.36
925.94	212.55
926.24	213.81
926.55	213.71
926.85	213.95
927.15	214.05
927.45	214.00
927.75	214.02
928.05	214.26
928.35	214.05
928.65	214.43
928.95	214.71
929.26	213.83
929.56	214.12
929.86	214.69
930.16	214.79
930.46	214.50
930.76	214.55
931.06	213.81
931.36	213.26
931.66	213.60
931.96	213.93
932.26	214.02
932.56	213.00
932.86	213.24
933.16	213.21
933.46	213.12
933.76	213.07
934.06	213.71
934.36	214.17
934.66	214.29
934.96	213.93
935.26	214.00
935.56	214.26
935.86	213.62
936.16	213.21
936.46	212.88
936.76	212.86
937.06	212.64
937.36	212.74
937.66	212.83
937.96	212.52
938.26	211.76
938.56	211.76
938.86	212.19
939.16	212.50
939.46	212.74
939.76	212.81
940.06	212.90
940.35	212.29
940.65	211.33
940.95	211.67
941.25	211.24
941.55	210.98
941.85	211.17
942.15	211.98
942.45	212.67
942.75	212.62
943.04	212.52
943.34	212.79
943.64	212.60
943.94	212.17
944.24	212.52
944.54	212.81
944.84	212.86
945.13	212.38
945.43	212.07
945.73	211.95
946.03	211.71
946.33	211.38
946.62	211.33
946.92	211.36
947.22	211.24
947.52	211.26
947.82	211.45
948.11	211.05
948.41	210.29
948.71	209.45
949.01	209.67
949.31	209.57
949.60	209.71
949.90	209.98
950.20	210.17
950.50	209.83
950.79	209.62
951.09	209.76
951.39	209.83
951.69	209.50
951.98	209.83
952.28	210.24
952.58	210.19
952.87	210.10
953.17	210.17
953.47	210.05
953.76	210.02
954.06	209.76
954.36	209.67
954.66	209.88
954.95	210.67
955.25	210.45
955.55	210.83
955.84	210.26
956.14	210.57
956.44	210.43
956.73	210.21
957.03	210.29
957.32	210.29
957.62	210.07
957.92	210.83
958.21	210.76
958.51	213.17
958.81	213.52
959.10	213.86
959.40	214.62
959.69	214.74
959.99	215.07
960.29	215.17
960.58	215.24
960.88	215.83
961.17	215.43
961.47	215.81
961.76	215.38
962.06	215.90
962.36	215.76
962.65	216.02
962.95	216.33
963.24	216.21
963.54	216.05
963.83	216.48
964.13	216.07
964.42	215.55
964.72	213.74
965.01	213.60
965.31	213.50
965.60	212.81
965.90	214.31
966.19	213.95
966.49	214.05
966.78	213.79
967.08	213.74
967.37	213.95
967.67	213.55
967.96	214.07
968.26	213.81
968.55	214.00
968.85	213.83
969.14	213.52
969.43	213.71
969.73	213.50
970.02	213.21
970.32	213.12
970.61	212.95
970.91	212.21
971.20	212.00
971.49	211.86
971.79	212.12
972.08	210.31
972.38	210.57
972.67	210.36
972.96	210.62
973.26	210.21
973.55	210.62
973.85	210.52
974.14	210.21
974.43	210.38
974.73	209.83
975.02	209.74
975.31	209.93
975.61	210.02
975.90	210.10
976.19	209.90
976.49	210.12
976.78	210.33
977.07	210.24
977.37	210.26
977.66	210.33
977.95	209.90
978.24	210.38
978.54	210.71
978.83	210.57
979.12	210.36
979.42	210.29
979.71	209.86
980.00	209.81
980.29	210.14
980.59	209.69
980.88	210.50
981.17	210.52
981.46	210.50
981.76	210.14
982.05	210.67
982.34	210.79
982.63	210.62
982.93	210.57
983.22	211.24
983.51	211.38
983.80	211.81
984.09	212.29
984.39	211.88
984.68	211.38
984.97	211.52
985.26	211.50
985.55	211.74
985.85	211.52
986.14	212.17
986.43	212.17
986.72	212.29
987.01	211.48
987.30	211.38
987.59	211.21
987.89	211.26
988.18	210.83
988.47	210.86
988.76	210.83
989.05	210.69
989.34	210.43
989.63	211.12
989.92	210.50
990.22	210.19
990.51	210.29
990.80	210.19
991.09	210.48
991.38	210.93
991.67	210.67
991.96	210.52
992.25	210.48
992.54	210.05
992.83	209.83
993.12	209.79
993.41	210.07
993.70	210.93
993.99	211.45
994.28	211.71
994.58	212.00
994.87	211.76
995.16	211.83
995.45	211.48
995.74	210.67
996.03	211.00
996.32	211.21
996.61	211.57
996.90	211.60
997.19	211.55
997.48	211.29
997.77	211.07
998.06	211.07
998.34	210.69
998.63	210.62
998.92	210.81
999.21	211.26
999.50	211.33
999.79	210.60
1000.08	210.64
1000.37	210.38
1000.66	209.98
1000.95	210.67
1001.24	210.76
1001.53	211.14
1001.82	211.12
1002.11	210.76
1002.40	210.74
1002.68	211.24
1002.97	212.79
1003.26	212.52
1003.55	212.40
1003.84	212.69
1004.13	213.43
1004.42	213.71
1004.71	213.90
1004.99	213.83
1005.28	214.38
1005.57	214.33
1005.86	214.05
1006.15	213.69
1006.44	213.48
1006.72	213.71
1007.01	213.05
1007.30	213.05
1007.59	212.79
1007.88	212.90
1008.17	213.14
1008.45	212.88
1008.74	211.88
1009.03	211.12
1009.32	211.00
1009.60	210.86
1009.89	210.57
1010.18	209.83
1010.47	209.48
1010.76	209.55
1011.04	209.69
1011.33	209.33
1011.62	209.50
1011.91	209.69
1012.19	209.71
1012.48	209.76
1012.77	209.76
1013.05	210.95
1013.34	210.86
1013.63	210.79
1013.92	210.76
1014.20	210.64
1014.49	210.81
1014.78	211.19
1015.06	210.26
1015.35	210.26
1015.64	210.74
1015.92	211.02
1016.21	211.17
1016.50	211.19
1016.78	211.45
1017.07	211.52
1017.36	211.19
1017.64	210.83
1017.93	211.10
1018.22	210.86
1018.50	210.83
1018.79	210.86
1019.08	209.64
1019.36	209.86
1019.65	209.55
1019.93	210.14
1020.22	210.29
1020.51	211.43
1020.79	211.19
1021.08	204.50
1021.36	205.00
1021.65	212.50
1021.94	205.50
1022.22	211.50
1022.51	203.50
1022.79	222.00
1023.08	211.00
1023.36	237.00
1023.65	208.00
>>>>>End Processed Spectral Data<<<<<
