SpectraSuite Data File
++++++++++++++++++++++++++++++++++++
Date: Tue Apr 02 18:43:30 EDT 2013
User: group
Dark Spectrum Present: No
Reference Spectrum Present: No
Number of Sampled Component Spectra: 1
Spectrometers: USB2E7196
Integration Time (usec): 580000 (USB2E7196)
Spectra Averaged: 2 (USB2E7196)
Boxcar Smoothing: 10 (USB2E7196)
Correct for Electrical Dark: No (USB2E7196)
Strobe/Lamp Enabled: No (USB2E7196)
Correct for Detector Non-linearity: No (USB2E7196)
Correct for Stray Light: No (USB2E7196)
Number of Pixels in Processed Spectrum: 2048
>>>>>Begin Processed Spectral Data<<<<<
339.09	0.00
339.48	191.00
339.86	194.50
340.24	192.50
340.63	197.50
341.01	232.00
341.39	203.00
341.78	207.50
342.16	213.00
342.54	206.50
342.93	198.19
343.31	208.05
343.69	208.69
344.07	209.43
344.46	210.43
344.84	211.19
345.22	210.02
345.60	210.52
345.99	210.50
346.37	210.50
346.75	210.60
347.13	210.88
347.52	211.10
347.90	211.67
348.28	211.48
348.66	211.93
349.05	211.38
349.43	211.64
349.81	211.90
350.19	212.05
350.57	212.07
350.96	212.26
351.34	212.67
351.72	212.90
352.10	212.93
352.48	212.57
352.87	212.29
353.25	212.36
353.63	212.14
354.01	212.26
354.39	212.40
354.77	212.45
355.15	213.12
355.54	212.98
355.92	212.31
356.30	212.52
356.68	213.93
357.06	214.19
357.44	214.07
357.82	214.14
358.20	215.10
358.58	214.93
358.97	214.81
359.35	214.98
359.73	215.50
360.11	215.52
360.49	215.76
360.87	216.05
361.25	216.33
361.63	216.95
362.01	217.02
362.39	216.79
362.77	216.95
363.15	216.76
363.53	216.64
363.91	216.88
364.29	216.71
364.67	214.67
365.05	214.79
365.43	214.93
365.81	215.05
366.19	215.24
366.57	216.12
366.95	216.21
367.33	215.90
367.71	215.71
368.09	216.10
368.47	216.10
368.85	215.67
369.23	216.07
369.61	215.55
369.99	216.33
370.37	216.88
370.75	217.98
371.13	217.48
371.51	217.26
371.89	217.67
372.27	217.98
372.65	218.36
373.03	218.33
373.41	217.95
373.78	217.76
374.16	216.62
374.54	215.90
374.92	215.57
375.30	215.55
375.68	215.10
376.06	215.07
376.44	215.02
376.82	215.48
377.19	215.31
377.57	214.98
377.95	214.36
378.33	213.79
378.71	212.52
379.09	212.83
379.47	213.17
379.84	212.79
380.22	212.50
380.60	212.17
380.98	212.21
381.36	212.24
381.73	211.76
382.11	212.17
382.49	212.57
382.87	212.43
383.25	212.29
383.62	214.64
384.00	214.31
384.38	214.50
384.76	214.83
385.13	215.40
385.51	215.76
385.89	215.45
386.27	215.76
386.64	215.93
387.02	215.69
387.40	215.48
387.78	215.60
388.15	215.93
388.53	215.86
388.91	215.71
389.29	215.52
389.66	216.31
390.04	216.02
390.42	216.05
390.79	216.19
391.17	216.40
391.55	214.43
391.92	214.45
392.30	214.83
392.68	214.40
393.05	214.36
393.43	214.38
393.81	214.55
394.18	214.21
394.56	214.24
394.94	214.74
395.31	214.60
395.69	215.26
396.06	215.26
396.44	215.38
396.82	215.24
397.19	216.71
397.57	216.36
397.95	216.64
398.32	216.17
398.70	216.48
399.07	216.81
399.45	216.64
399.82	216.71
400.20	216.24
400.58	216.17
400.95	215.45
401.33	215.90
401.70	217.36
402.08	217.43
402.45	217.36
402.83	217.81
403.20	218.05
403.58	217.83
403.95	218.29
404.33	218.64
404.71	219.07
405.08	220.07
405.46	220.29
405.83	220.69
406.21	221.00
406.58	221.31
406.96	221.36
407.33	221.98
407.70	222.69
408.08	224.93
408.45	225.88
408.83	226.81
409.20	227.02
409.58	226.69
409.95	227.76
410.33	228.86
410.70	229.26
411.08	230.48
411.45	231.48
411.82	232.36
412.20	233.98
412.57	236.26
412.95	235.71
413.32	237.48
413.69	238.62
414.07	240.43
414.44	242.19
414.82	244.50
415.19	246.79
415.56	248.86
415.94	249.86
416.31	252.69
416.68	255.50
417.06	259.00
417.43	262.48
417.81	266.00
418.18	269.60
418.55	273.21
418.93	277.19
419.30	281.43
419.67	285.83
420.04	290.19
420.42	294.29
420.79	301.69
421.16	307.36
421.54	314.55
421.91	320.79
422.28	327.10
422.66	333.74
423.03	341.76
423.40	348.67
423.77	356.24
424.15	363.29
424.52	370.86
424.89	379.64
425.26	387.26
425.64	394.81
426.01	403.50
426.38	412.24
426.75	421.95
427.13	431.07
427.50	440.83
427.87	450.69
428.24	460.76
428.61	469.14
428.99	480.38
429.36	491.14
429.73	502.24
430.10	513.90
430.47	525.36
430.85	535.71
431.22	548.45
431.59	562.90
431.96	575.95
432.33	590.26
432.70	603.38
433.08	618.95
433.45	633.81
433.82	648.60
434.19	665.90
434.56	682.24
434.93	697.90
435.30	713.26
435.68	730.69
436.05	748.52
436.42	765.00
436.79	780.90
437.16	797.64
437.53	815.36
437.90	832.81
438.27	850.38
438.64	868.57
439.01	885.48
439.38	899.29
439.75	914.05
440.13	930.64
440.50	946.60
440.87	959.93
441.24	973.95
441.61	988.36
441.98	999.02
442.35	1011.00
442.72	1024.24
443.09	1038.71
443.46	1046.60
443.83	1051.81
444.20	1057.60
444.57	1063.05
444.94	1065.95
445.31	1069.43
445.68	1075.55
446.05	1077.36
446.42	1076.00
446.79	1074.57
447.16	1073.02
447.53	1072.24
447.90	1066.14
448.27	1059.60
448.64	1050.95
449.01	1044.62
449.37	1034.07
449.74	1023.00
450.11	1011.67
450.48	997.10
450.85	980.52
451.22	967.86
451.59	955.76
451.96	943.86
452.33	928.64
452.70	914.98
453.07	898.21
453.43	878.48
453.80	861.50
454.17	845.90
454.54	830.90
454.91	814.57
455.28	797.90
455.65	782.90
456.02	771.62
456.38	758.93
456.75	743.26
457.12	729.90
457.49	717.36
457.86	703.36
458.23	693.07
458.59	681.43
458.96	669.57
459.33	658.55
459.70	647.31
460.07	638.83
460.43	629.26
460.80	620.67
461.17	613.02
461.54	605.05
461.91	597.00
462.27	588.36
462.64	581.45
463.01	574.26
463.38	567.83
463.74	557.05
464.11	550.14
464.48	544.38
464.85	538.29
465.21	533.90
465.58	529.05
465.95	522.50
466.32	517.81
466.68	512.24
467.05	507.43
467.42	502.69
467.78	497.76
468.15	492.69
468.52	488.86
468.88	483.21
469.25	478.48
469.62	474.98
469.98	470.95
470.35	466.67
470.72	463.00
471.08	458.14
471.45	455.60
471.82	452.79
472.18	449.64
472.55	446.98
472.92	442.88
473.28	439.62
473.65	436.64
474.02	433.74
474.38	432.10
474.75	429.71
475.11	427.21
475.48	425.10
475.85	423.29
476.21	421.17
476.58	419.86
476.94	419.36
477.31	418.24
477.67	417.40
478.04	416.71
478.41	415.95
478.77	417.21
479.14	415.79
479.50	415.40
479.87	414.88
480.23	414.33
480.60	414.24
480.96	414.33
481.33	415.38
481.69	415.43
482.06	415.64
482.42	416.29
482.79	417.10
483.15	417.71
483.52	418.88
483.88	419.62
484.25	420.62
484.61	420.83
484.98	421.67
485.34	423.19
485.71	424.93
486.07	426.12
486.44	425.93
486.80	427.50
487.17	428.86
487.53	431.14
487.90	433.21
488.26	436.19
488.62	438.90
488.99	440.60
489.35	443.69
489.72	446.33
490.08	448.93
490.44	451.64
490.81	454.88
491.17	457.33
491.54	460.71
491.90	464.43
492.26	467.93
492.63	471.88
492.99	475.52
493.36	479.29
493.72	483.81
494.08	488.38
494.45	493.05
494.81	497.93
495.17	502.43
495.54	507.93
495.90	512.81
496.26	517.62
496.63	523.29
496.99	527.88
497.35	533.33
497.72	539.48
498.08	545.50
498.44	551.43
498.80	558.24
499.17	564.24
499.53	570.45
499.89	577.90
500.26	584.29
500.62	590.81
500.98	598.10
501.34	605.24
501.71	612.50
502.07	619.79
502.43	626.50
502.79	633.38
503.16	640.14
503.52	646.88
503.88	653.79
504.24	661.17
504.60	668.55
504.97	676.79
505.33	683.55
505.69	691.52
506.05	699.17
506.41	706.74
506.78	714.62
507.14	722.07
507.50	729.43
507.86	737.02
508.22	745.38
508.59	752.57
508.95	760.55
509.31	768.76
509.67	776.38
510.03	783.90
510.39	792.19
510.75	800.10
511.12	808.10
511.48	815.88
511.84	822.88
512.20	830.98
512.56	838.33
512.92	846.55
513.28	853.43
513.64	861.00
514.00	868.31
514.37	875.76
514.73	883.05
515.09	890.71
515.45	898.17
515.81	904.64
516.17	911.17
516.53	917.21
516.89	923.00
517.25	929.40
517.61	937.62
517.97	943.57
518.33	949.79
518.69	955.64
519.05	962.29
519.41	968.98
519.77	976.33
520.13	981.76
520.49	987.17
520.85	993.24
521.21	1000.57
521.57	1005.88
521.93	1010.95
522.29	1017.07
522.65	1021.40
523.01	1026.71
523.37	1032.14
523.73	1038.26
524.09	1043.26
524.45	1048.07
524.81	1052.40
525.17	1056.52
525.53	1061.48
525.89	1066.50
526.25	1071.83
526.61	1075.60
526.97	1079.98
527.33	1083.67
527.68	1089.71
528.04	1093.93
528.40	1098.19
528.76	1100.93
529.12	1105.93
529.48	1110.33
529.84	1113.31
530.20	1118.19
530.56	1122.64
530.91	1126.81
531.27	1130.95
531.63	1135.90
531.99	1140.00
532.35	1144.81
532.71	1148.29
533.07	1152.57
533.42	1158.62
533.78	1162.74
534.14	1167.43
534.50	1171.33
534.86	1176.12
535.21	1178.69
535.57	1183.71
535.93	1187.31
536.29	1192.12
536.65	1195.86
537.00	1199.40
537.36	1203.48
537.72	1206.24
538.08	1209.55
538.44	1212.79
538.79	1216.64
539.15	1218.88
539.51	1222.57
539.87	1225.95
540.22	1229.26
540.58	1232.50
540.94	1234.12
541.29	1237.62
541.65	1240.26
542.01	1243.45
542.37	1245.50
542.72	1247.98
543.08	1249.93
543.44	1253.17
543.79	1254.14
544.15	1257.02
544.51	1261.10
544.87	1264.33
545.22	1268.26
545.58	1270.29
545.94	1272.24
546.29	1274.00
546.65	1277.21
547.01	1280.71
547.36	1283.33
547.72	1286.50
548.07	1288.64
548.43	1290.90
548.79	1292.48
549.14	1295.21
549.50	1298.10
549.86	1299.95
550.21	1303.31
550.57	1306.10
550.92	1308.95
551.28	1312.45
551.64	1315.12
551.99	1317.26
552.35	1319.79
552.70	1322.05
553.06	1325.81
553.41	1329.71
553.77	1333.76
554.13	1337.48
554.48	1340.67
554.84	1345.12
555.19	1349.05
555.55	1355.00
555.90	1357.88
556.26	1362.02
556.61	1366.00
556.97	1369.17
557.32	1373.69
557.68	1376.57
558.03	1380.81
558.39	1384.52
558.74	1388.64
559.10	1392.67
559.45	1397.19
559.81	1401.95
560.16	1405.38
560.52	1408.74
560.87	1413.40
561.23	1417.26
561.58	1423.31
561.94	1427.05
562.29	1430.10
562.64	1434.83
563.00	1437.74
563.35	1443.45
563.71	1447.45
564.06	1452.71
564.42	1458.57
564.77	1463.43
565.12	1470.24
565.48	1477.62
565.83	1483.33
566.19	1489.00
566.54	1494.64
566.89	1500.40
567.25	1506.57
567.60	1514.55
567.96	1522.76
568.31	1529.40
568.66	1536.38
569.02	1540.14
569.37	1546.33
569.72	1553.00
570.08	1557.79
570.43	1563.38
570.78	1568.83
571.14	1575.81
571.49	1580.95
571.84	1586.24
572.20	1591.33
572.55	1595.57
572.90	1598.43
573.26	1603.02
573.61	1608.07
573.96	1612.57
574.31	1616.64
574.67	1619.79
575.02	1621.95
575.37	1624.86
575.72	1627.24
576.08	1630.21
576.43	1634.50
576.78	1637.69
577.13	1641.05
577.49	1644.60
577.84	1647.88
578.19	1651.90
578.54	1655.55
578.90	1659.12
579.25	1662.19
579.60	1665.02
579.95	1668.05
580.30	1672.52
580.66	1676.17
581.01	1679.02
581.36	1682.21
581.71	1685.74
582.06	1689.98
582.42	1694.69
582.77	1696.00
583.12	1698.98
583.47	1702.79
583.82	1705.62
584.17	1708.55
584.53	1712.50
584.88	1716.31
585.23	1720.07
585.58	1722.07
585.93	1724.26
586.28	1727.36
586.63	1730.76
586.98	1733.93
587.34	1737.21
587.69	1738.55
588.04	1740.93
588.39	1743.07
588.74	1745.26
589.09	1747.50
589.44	1748.21
589.79	1749.79
590.14	1753.21
590.49	1755.76
590.84	1756.26
591.19	1758.31
591.54	1760.26
591.89	1760.45
592.25	1763.74
592.60	1764.71
592.95	1765.62
593.30	1767.24
593.65	1768.21
594.00	1768.60
594.35	1775.50
594.70	1775.93
595.05	1777.24
595.40	1777.83
595.75	1777.88
596.10	1778.33
596.45	1779.21
596.80	1780.95
597.15	1781.81
597.50	1782.64
597.85	1783.74
598.19	1784.69
598.54	1784.45
598.89	1785.19
599.24	1786.90
599.59	1785.36
599.94	1784.93
600.29	1785.55
600.64	1785.57
600.99	1786.33
601.34	1786.83
601.69	1781.02
602.04	1780.67
602.39	1779.88
602.74	1780.67
603.08	1781.24
603.43	1782.14
603.78	1781.02
604.13	1780.50
604.48	1779.55
604.83	1778.88
605.18	1778.52
605.53	1778.29
605.87	1777.55
606.22	1776.02
606.57	1774.02
606.92	1772.81
607.27	1772.98
607.62	1772.52
607.96	1771.55
608.31	1770.48
608.66	1768.98
609.01	1767.21
609.36	1766.83
609.70	1765.83
610.05	1762.76
610.40	1760.86
610.75	1757.76
611.10	1756.52
611.44	1754.24
611.79	1751.40
612.14	1749.31
612.49	1746.19
612.83	1743.07
613.18	1740.83
613.53	1737.69
613.88	1734.12
614.22	1730.43
614.57	1726.00
614.92	1721.17
615.27	1717.50
615.61	1712.81
615.96	1708.62
616.31	1705.55
616.65	1702.69
617.00	1699.17
617.35	1696.69
617.70	1694.07
618.04	1690.52
618.39	1686.40
618.74	1682.31
619.08	1678.90
619.43	1674.50
619.78	1671.12
620.12	1667.48
620.47	1663.31
620.82	1659.40
621.16	1655.00
621.51	1652.14
621.85	1647.79
622.20	1644.50
622.55	1639.62
622.89	1636.43
623.24	1633.24
623.59	1629.21
623.93	1624.62
624.28	1620.33
624.62	1617.79
624.97	1614.50
625.32	1610.10
625.66	1606.14
626.01	1601.29
626.35	1597.05
626.70	1593.10
627.04	1589.29
627.39	1584.62
627.73	1581.83
628.08	1578.76
628.43	1575.93
628.77	1570.86
629.12	1567.88
629.46	1564.79
629.81	1560.76
630.15	1555.40
630.50	1551.02
630.84	1546.57
631.19	1540.88
631.53	1536.31
631.88	1528.24
632.22	1521.24
632.57	1517.55
632.91	1512.36
633.26	1508.45
633.60	1502.76
633.95	1497.71
634.29	1492.26
634.64	1487.95
634.98	1481.71
635.32	1477.07
635.67	1472.83
636.01	1468.29
636.36	1463.17
636.70	1458.05
637.05	1453.12
637.39	1448.74
637.73	1444.48
638.08	1440.12
638.42	1435.40
638.77	1430.33
639.11	1426.79
639.45	1422.19
639.80	1415.60
640.14	1410.71
640.49	1405.26
640.83	1400.93
641.17	1396.43
641.52	1391.10
641.86	1385.95
642.20	1381.81
642.55	1375.62
642.89	1369.00
643.23	1363.43
643.58	1358.62
643.92	1352.40
644.26	1347.71
644.61	1342.26
644.95	1335.38
645.29	1328.81
645.64	1323.55
645.98	1317.21
646.32	1311.95
646.66	1305.86
647.01	1300.29
647.35	1294.38
647.69	1288.71
648.04	1283.17
648.38	1276.33
648.72	1270.26
649.06	1263.81
649.41	1256.64
649.75	1250.67
650.09	1244.76
650.43	1238.33
650.78	1231.00
651.12	1224.31
651.46	1216.17
651.80	1209.36
652.14	1202.69
652.49	1197.19
652.83	1190.31
653.17	1183.74
653.51	1176.55
653.85	1170.24
654.20	1163.50
654.54	1156.36
654.88	1149.69
655.22	1144.05
655.56	1137.67
655.90	1131.33
656.25	1124.90
656.59	1118.33
656.93	1111.40
657.27	1105.81
657.61	1100.05
657.95	1094.14
658.29	1088.12
658.64	1083.43
658.98	1077.14
659.32	1070.14
659.66	1063.33
660.00	1057.14
660.34	1050.95
660.68	1044.69
661.02	1037.93
661.36	1031.64
661.70	1025.67
662.05	1019.86
662.39	1013.74
662.73	1008.29
663.07	1003.31
663.41	997.26
663.75	991.81
664.09	986.10
664.43	979.26
664.77	973.14
665.11	966.69
665.45	960.67
665.79	954.86
666.13	948.83
666.47	943.90
666.81	937.93
667.15	932.48
667.49	927.98
667.83	923.43
668.17	918.98
668.51	914.33
668.85	908.95
669.19	904.17
669.53	897.69
669.87	891.10
670.21	884.05
670.55	877.74
670.89	872.17
671.23	867.14
671.57	862.05
671.91	856.79
672.25	851.00
672.58	846.74
672.92	840.21
673.26	834.52
673.60	828.62
673.94	823.79
674.28	818.24
674.62	813.02
674.96	807.02
675.30	801.19
675.64	795.98
675.97	790.98
676.31	784.74
676.65	779.38
676.99	775.98
677.33	771.05
677.67	767.26
678.01	761.86
678.34	756.88
678.68	752.33
679.02	746.45
679.36	741.71
679.70	736.00
680.04	731.33
680.37	726.60
680.71	722.36
681.05	717.36
681.39	712.81
681.73	707.19
682.06	702.33
682.40	698.19
682.74	693.62
683.08	689.71
683.42	685.31
683.75	680.90
684.09	674.81
684.43	669.69
684.77	664.05
685.10	659.83
685.44	655.17
685.78	650.12
686.12	645.76
686.45	641.76
686.79	637.10
687.13	633.50
687.46	629.24
687.80	625.69
688.14	621.43
688.48	617.07
688.81	613.19
689.15	609.31
689.49	605.00
689.82	600.90
690.16	595.67
690.50	591.76
690.83	587.86
691.17	583.90
691.51	580.43
691.84	577.05
692.18	572.86
692.52	568.98
692.85	565.81
693.19	563.05
693.52	559.02
693.86	555.00
694.20	550.95
694.53	547.45
694.87	543.12
695.21	538.55
695.54	534.90
695.88	530.74
696.21	526.29
696.55	522.19
696.88	518.26
697.22	514.71
697.56	511.60
697.89	507.71
698.23	504.64
698.56	501.14
698.90	498.07
699.23	494.40
699.57	490.38
699.90	486.55
700.24	482.69
700.58	479.33
700.91	476.93
701.25	475.31
701.58	472.90
701.92	470.21
702.25	467.86
702.59	464.74
702.92	462.02
703.26	459.31
703.59	456.45
703.93	455.69
704.26	453.19
704.60	450.07
704.93	447.12
705.26	444.05
705.60	441.62
705.93	438.19
706.27	436.38
706.60	434.24
706.94	432.31
707.27	429.40
707.61	427.07
707.94	423.90
708.27	419.67
708.61	416.52
708.94	413.79
709.28	411.40
709.61	408.33
709.94	406.33
710.28	404.17
710.61	401.81
710.95	397.19
711.28	395.95
711.61	393.62
711.95	391.95
712.28	390.12
712.61	387.60
712.95	386.40
713.28	384.48
713.61	382.38
713.95	379.57
714.28	377.31
714.61	374.86
714.95	373.14
715.28	370.69
715.61	368.71
715.95	366.93
716.28	364.64
716.61	363.24
716.95	360.93
717.28	358.90
717.61	357.10
717.94	355.40
718.28	352.60
718.61	350.88
718.94	349.00
719.27	346.71
719.61	345.26
719.94	343.21
720.27	340.40
720.60	338.71
720.94	337.21
721.27	336.21
721.60	335.40
721.93	333.43
722.27	332.67
722.60	331.38
722.93	329.69
723.26	328.38
723.59	326.62
723.93	325.48
724.26	324.24
724.59	323.02
724.92	321.79
725.25	320.98
725.59	319.29
725.92	318.19
726.25	317.31
726.58	316.10
726.91	314.60
727.24	314.29
727.57	313.00
727.91	311.14
728.24	309.83
728.57	308.43
728.90	307.76
729.23	306.24
729.56	305.90
729.89	304.86
730.22	304.02
730.55	302.95
730.89	301.67
731.22	300.48
731.55	299.36
731.88	298.62
732.21	297.14
732.54	296.45
732.87	295.19
733.20	294.19
733.53	293.38
733.86	292.79
734.19	291.29
734.52	290.79
734.85	291.74
735.18	290.45
735.51	289.93
735.84	289.43
736.17	289.17
736.50	287.19
736.83	288.57
737.16	287.60
737.49	286.95
737.82	286.19
738.15	285.71
738.48	284.79
738.81	283.69
739.14	282.79
739.47	281.83
739.80	281.07
740.13	280.48
740.46	279.36
740.79	278.10
741.12	277.43
741.45	275.76
741.78	273.74
742.11	273.79
742.44	273.05
742.77	272.17
743.10	271.24
743.43	270.71
743.75	267.98
744.08	269.93
744.41	269.02
744.74	268.19
745.07	267.07
745.40	266.64
745.73	266.95
746.06	266.26
746.39	265.71
746.71	264.93
747.04	264.05
747.37	263.31
747.70	263.05
748.03	262.33
748.36	262.52
748.68	261.90
749.01	260.55
749.34	259.71
749.67	259.17
750.00	258.88
750.33	259.69
750.65	259.19
750.98	256.02
751.31	255.86
751.64	255.50
751.97	256.62
752.29	256.00
752.62	254.52
752.95	254.02
753.28	253.45
753.60	252.81
753.93	252.86
754.26	252.79
754.59	251.69
754.91	251.24
755.24	250.48
755.57	250.29
755.90	250.00
756.22	249.45
756.55	248.64
756.88	247.69
757.20	245.88
757.53	245.00
757.86	244.48
758.19	244.17
758.51	243.64
758.84	241.93
759.17	241.29
759.49	240.95
759.82	241.36
760.15	241.43
760.47	241.17
760.80	240.17
761.13	239.88
761.45	239.83
761.78	239.40
762.11	239.33
762.43	238.71
762.76	238.64
763.08	238.48
763.41	238.62
763.74	238.48
764.06	238.38
764.39	238.00
764.71	238.10
765.04	237.40
765.37	236.83
765.69	236.40
766.02	236.43
766.34	235.86
766.67	234.93
767.00	234.74
767.32	235.55
767.65	236.50
767.97	236.00
768.30	235.74
768.62	235.29
768.95	234.60
769.27	234.21
769.60	234.12
769.92	233.62
770.25	232.74
770.57	232.29
770.90	231.71
771.22	231.48
771.55	231.12
771.87	231.21
772.20	231.29
772.52	232.69
772.85	235.05
773.17	235.38
773.50	235.02
773.82	234.40
774.15	233.14
774.47	231.71
774.80	231.50
775.12	231.31
775.45	231.29
775.77	231.43
776.09	231.60
776.42	231.26
776.74	231.60
777.07	231.52
777.39	231.52
777.72	231.21
778.04	231.24
778.36	230.93
778.69	230.81
779.01	230.45
779.33	228.67
779.66	226.19
779.98	225.83
780.31	225.83
780.63	226.64
780.95	227.07
781.28	226.98
781.60	226.43
781.92	226.26
782.25	226.12
782.57	226.00
782.89	225.45
783.22	225.40
783.54	224.95
783.86	224.98
784.19	224.50
784.51	225.26
784.83	224.95
785.16	224.79
785.48	224.74
785.80	224.81
786.12	224.74
786.45	224.36
786.77	224.14
787.09	223.88
787.42	222.88
787.74	222.79
788.06	222.98
788.38	222.98
788.71	222.69
789.03	222.79
789.35	222.83
789.67	222.60
789.99	222.52
790.32	222.19
790.64	222.38
790.96	224.21
791.28	223.24
791.61	223.02
791.93	223.00
792.25	222.90
792.57	224.24
792.89	224.07
793.21	224.21
793.54	224.17
793.86	224.00
794.18	224.17
794.50	223.64
794.82	223.40
795.14	223.71
795.47	224.05
795.79	224.07
796.11	223.38
796.43	223.33
796.75	223.02
797.07	222.88
797.39	222.48
797.71	220.74
798.04	221.00
798.36	221.07
798.68	221.05
799.00	221.02
799.32	219.83
799.64	220.12
799.96	219.93
800.28	219.88
800.60	219.76
800.92	219.67
801.24	219.50
801.56	219.67
801.89	219.50
802.21	219.40
802.53	218.90
802.85	219.60
803.17	220.76
803.49	220.45
803.81	220.52
804.13	220.57
804.45	220.31
804.77	220.36
805.09	220.31
805.41	220.14
805.73	219.38
806.05	218.93
806.37	218.48
806.69	218.24
807.01	218.48
807.33	218.64
807.65	218.00
807.97	219.05
808.28	218.69
808.60	218.29
808.92	218.19
809.24	219.50
809.56	219.10
809.88	218.05
810.20	218.24
810.52	218.52
810.84	218.17
811.16	218.21
811.48	217.95
811.80	218.71
812.12	218.36
812.43	219.00
812.75	219.21
813.07	219.14
813.39	219.17
813.71	218.71
814.03	218.57
814.35	218.71
814.67	217.67
814.98	217.38
815.30	217.69
815.62	217.26
815.94	215.95
816.26	215.83
816.58	215.62
816.89	215.81
817.21	215.24
817.53	215.38
817.85	215.67
818.17	215.76
818.48	214.88
818.80	215.38
819.12	215.36
819.44	215.10
819.76	214.95
820.07	215.10
820.39	215.00
820.71	215.14
821.03	215.14
821.34	214.95
821.66	215.52
821.98	215.69
822.30	215.64
822.61	216.71
822.93	216.60
823.25	216.43
823.57	216.10
823.88	216.67
824.20	216.55
824.52	216.52
824.83	216.21
825.15	216.05
825.47	216.21
825.79	216.14
826.10	216.02
826.42	215.86
826.74	216.00
827.05	216.07
827.37	215.93
827.69	215.88
828.00	215.93
828.32	215.50
828.64	215.21
828.95	216.55
829.27	215.98
829.58	215.86
829.90	216.26
830.22	216.43
830.53	215.81
830.85	215.69
831.17	215.21
831.48	215.33
831.80	215.57
832.11	215.36
832.43	215.19
832.75	215.05
833.06	216.33
833.38	215.69
833.69	215.38
834.01	215.64
834.32	215.50
834.64	215.52
834.96	215.57
835.27	215.26
835.59	214.26
835.90	213.88
836.22	213.76
836.53	213.38
836.85	213.10
837.16	215.07
837.48	215.26
837.79	216.00
838.11	215.98
838.42	215.71
838.74	215.69
839.05	215.33
839.37	215.26
839.68	213.90
840.00	214.05
840.31	214.43
840.63	214.14
840.94	213.83
841.26	213.55
841.57	213.60
841.88	213.88
842.20	213.64
842.51	213.29
842.83	213.57
843.14	215.31
843.46	215.55
843.77	214.52
844.08	214.12
844.40	213.33
844.71	213.26
845.03	213.07
845.34	213.02
845.65	213.02
845.97	213.38
846.28	213.52
846.60	213.50
846.91	213.14
847.22	212.74
847.54	213.60
847.85	213.64
848.16	213.43
848.48	212.98
848.79	213.88
849.10	214.21
849.42	214.38
849.73	212.62
850.04	212.36
850.36	211.69
850.67	212.21
850.98	212.33
851.30	212.43
851.61	212.60
851.92	212.50
852.23	213.10
852.55	213.07
852.86	213.10
853.17	213.19
853.49	213.64
853.80	214.29
854.11	214.21
854.42	214.64
854.74	214.45
855.05	214.88
855.36	213.74
855.67	213.86
855.99	213.76
856.30	216.21
856.61	216.19
856.92	216.31
857.23	216.24
857.55	216.14
857.86	215.98
858.17	216.07
858.48	215.93
858.79	215.50
859.11	215.52
859.42	215.52
859.73	215.50
860.04	215.55
860.35	214.88
860.66	214.48
860.98	214.26
861.29	214.74
861.60	214.45
861.91	215.05
862.22	214.74
862.53	214.40
862.84	211.86
863.16	212.40
863.47	211.81
863.78	211.71
864.09	211.71
864.40	211.88
864.71	211.98
865.02	212.00
865.33	211.76
865.64	211.48
865.95	211.43
866.27	212.79
866.58	212.45
866.89	212.88
867.20	212.62
867.51	212.36
867.82	212.05
868.13	212.57
868.44	212.21
868.75	212.45
869.06	212.67
869.37	212.93
869.68	212.24
869.99	212.64
870.30	212.62
870.61	212.90
870.92	212.52
871.23	212.36
871.54	212.71
871.85	213.38
872.16	213.55
872.47	213.52
872.78	212.26
873.09	212.69
873.40	212.43
873.71	212.60
874.02	212.62
874.33	212.62
874.64	212.24
874.95	212.48
875.26	212.14
875.56	212.14
875.87	212.10
876.18	212.12
876.49	214.10
876.80	214.14
877.11	213.55
877.42	213.67
877.73	213.81
878.04	213.45
878.35	213.24
878.66	213.33
878.96	213.24
879.27	213.02
879.58	212.62
879.89	212.33
880.20	212.93
880.51	213.12
880.82	213.05
881.12	213.21
881.43	212.79
881.74	212.60
882.05	212.31
882.36	212.21
882.67	212.36
882.97	210.26
883.28	209.98
883.59	210.02
883.90	210.31
884.21	210.43
884.51	210.31
884.82	210.05
885.13	209.95
885.44	209.83
885.74	209.95
886.05	209.83
886.36	210.12
886.67	209.31
886.98	210.24
887.28	210.43
887.59	210.29
887.90	210.40
888.20	210.45
888.51	211.00
888.82	210.55
889.13	210.71
889.43	212.36
889.74	211.98
890.05	212.10
890.35	211.93
890.66	211.74
890.97	211.60
891.28	211.50
891.58	211.60
891.89	211.52
892.20	211.24
892.50	211.10
892.81	211.05
893.12	211.00
893.42	209.83
893.73	209.98
894.04	210.05
894.34	210.19
894.65	210.12
894.95	209.74
895.26	210.21
895.57	211.12
895.87	209.26
896.18	209.86
896.48	209.95
896.79	209.88
897.10	210.10
897.40	210.24
897.71	210.81
898.01	210.64
898.32	210.93
898.63	210.83
898.93	210.93
899.24	211.05
899.54	211.21
899.85	211.33
900.15	211.05
900.46	210.90
900.76	211.29
901.07	211.33
901.38	211.43
901.68	211.74
901.99	210.52
902.29	210.81
902.60	210.60
902.90	210.48
903.21	210.36
903.51	210.36
903.82	210.86
904.12	210.40
904.43	210.50
904.73	210.43
905.03	210.67
905.34	212.74
905.64	212.33
905.95	212.17
906.25	212.14
906.56	212.14
906.86	212.48
907.17	211.98
907.47	212.10
907.77	211.79
908.08	211.31
908.38	211.88
908.69	211.60
908.99	212.05
909.30	212.21
909.60	212.71
909.90	212.79
910.21	212.02
910.51	211.86
910.81	211.90
911.12	212.10
911.42	212.12
911.73	210.00
912.03	210.40
912.33	210.86
912.64	210.83
912.94	210.83
913.24	210.31
913.55	210.26
913.85	210.12
914.15	210.62
914.46	210.95
914.76	210.45
915.06	210.55
915.37	210.26
915.67	210.12
915.97	209.74
916.27	209.29
916.58	209.55
916.88	209.67
917.18	209.60
917.49	211.17
917.79	211.24
918.09	211.74
918.39	212.12
918.70	212.02
919.00	212.02
919.30	212.83
919.60	212.90
919.91	212.60
920.21	212.86
920.51	212.50
920.81	212.17
921.12	212.40
921.42	212.38
921.72	212.40
922.02	212.62
922.32	213.05
922.63	213.21
922.93	214.33
923.23	214.24
923.53	213.95
923.83	212.40
924.13	212.64
924.44	212.50
924.74	212.98
925.04	213.33
925.34	213.43
925.64	212.71
925.94	212.55
926.24	213.86
926.55	213.55
926.85	213.69
927.15	213.62
927.45	213.76
927.75	213.98
928.05	214.05
928.35	213.86
928.65	214.10
928.95	214.29
929.26	213.40
929.56	213.98
929.86	214.40
930.16	214.40
930.46	214.07
930.76	214.24
931.06	213.12
931.36	212.95
931.66	213.33
931.96	213.62
932.26	213.88
932.56	213.07
932.86	213.17
933.16	213.48
933.46	213.57
933.76	213.24
934.06	213.71
934.36	214.50
934.66	214.55
934.96	214.31
935.26	214.31
935.56	214.48
935.86	213.76
936.16	213.33
936.46	213.02
936.76	212.86
937.06	212.38
937.36	212.55
937.66	212.36
937.96	212.12
938.26	211.62
938.56	211.57
938.86	211.83
939.16	212.31
939.46	212.29
939.76	212.33
940.06	212.26
940.35	211.38
940.65	210.33
940.95	210.38
941.25	209.79
941.55	209.48
941.85	209.60
942.15	210.19
942.45	210.79
942.75	210.93
943.04	211.17
943.34	211.62
943.64	211.38
943.94	211.24
944.24	211.50
944.54	211.74
944.84	211.55
945.13	211.26
945.43	211.02
945.73	210.86
946.03	210.60
946.33	210.40
946.62	210.52
946.92	210.36
947.22	210.38
947.52	210.67
947.82	211.12
948.11	210.88
948.41	210.36
948.71	209.86
949.01	209.88
949.31	209.55
949.60	209.24
949.90	209.62
950.20	209.57
950.50	209.29
950.79	208.95
951.09	209.33
951.39	209.33
951.69	209.36
951.98	209.67
952.28	209.86
952.58	209.95
952.87	210.07
953.17	210.57
953.47	210.52
953.76	210.38
954.06	210.00
954.36	209.67
954.66	209.79
954.95	210.43
955.25	210.50
955.55	211.07
955.84	211.07
956.14	211.17
956.44	211.19
956.73	210.95
957.03	211.24
957.32	211.26
957.62	211.02
957.92	211.33
958.21	211.24
958.51	213.62
958.81	214.12
959.10	214.17
959.40	214.60
959.69	214.64
959.99	215.12
960.29	215.10
960.58	215.21
960.88	216.02
961.17	215.60
961.47	215.81
961.76	215.21
962.06	215.45
962.36	215.17
962.65	215.29
962.95	215.29
963.24	215.17
963.54	215.29
963.83	215.48
964.13	215.17
964.42	214.55
964.72	212.83
965.01	212.57
965.31	212.60
965.60	212.10
965.90	213.29
966.19	212.74
966.49	212.83
966.78	212.71
967.08	212.40
967.37	212.43
967.67	211.93
967.96	212.50
968.26	212.43
968.55	212.86
968.85	212.74
969.14	212.69
969.43	212.64
969.73	212.29
970.02	212.31
970.32	212.38
970.61	212.43
970.91	211.98
971.20	211.81
971.49	211.67
971.79	211.83
972.08	210.45
972.38	210.64
972.67	210.62
972.96	210.76
973.26	210.26
973.55	210.98
973.85	211.19
974.14	210.90
974.43	211.07
974.73	210.86
975.02	210.79
975.31	210.74
975.61	210.79
975.90	210.76
976.19	210.45
976.49	210.55
976.78	210.86
977.07	210.67
977.37	210.88
977.66	210.98
977.95	210.69
978.24	210.83
978.54	211.45
978.83	211.17
979.12	211.14
979.42	211.31
979.71	210.69
980.00	210.57
980.29	210.57
980.59	210.21
980.88	210.48
981.17	210.40
981.46	210.64
981.76	210.64
982.05	211.29
982.34	211.45
982.63	211.40
982.93	211.33
983.22	212.12
983.51	212.10
983.80	212.33
984.09	212.62
984.39	212.50
984.68	211.93
984.97	212.17
985.26	211.90
985.55	212.10
985.85	211.86
986.14	212.14
986.43	212.40
986.72	212.48
987.01	212.02
987.30	211.95
987.59	211.74
987.89	211.74
988.18	211.24
988.47	211.12
988.76	210.95
989.05	210.76
989.34	210.19
989.63	210.71
989.92	210.57
990.22	210.31
990.51	210.24
990.80	210.21
991.09	210.31
991.38	210.48
991.67	210.21
991.96	210.19
992.25	210.17
992.54	209.90
992.83	209.83
993.12	209.57
993.41	210.12
993.70	210.98
993.99	211.21
994.28	211.36
994.58	211.67
994.87	211.36
995.16	211.38
995.45	211.43
995.74	210.69
996.03	211.12
996.32	211.48
996.61	212.02
996.90	212.02
997.19	212.05
997.48	212.19
997.77	211.95
998.06	212.02
998.34	211.79
998.63	211.81
998.92	211.93
999.21	212.36
999.50	212.55
999.79	211.81
1000.08	211.86
1000.37	211.93
1000.66	211.50
1000.95	212.43
1001.24	212.57
1001.53	212.69
1001.82	212.52
1002.11	211.95
1002.40	212.05
1002.68	212.52
1002.97	213.88
1003.26	213.60
1003.55	213.33
1003.84	213.67
1004.13	214.36
1004.42	214.40
1004.71	214.50
1004.99	214.14
1005.28	214.48
1005.57	213.93
1005.86	213.86
1006.15	213.60
1006.44	213.19
1006.72	213.48
1007.01	212.71
1007.30	212.60
1007.59	212.40
1007.88	212.64
1008.17	212.88
1008.45	212.33
1008.74	211.60
1009.03	210.60
1009.32	210.60
1009.60	210.45
1009.89	210.12
1010.18	209.14
1010.47	208.88
1010.76	208.76
1011.04	208.88
1011.33	209.02
1011.62	209.21
1011.91	209.29
1012.19	209.38
1012.48	209.43
1012.77	209.43
1013.05	210.60
1013.34	210.43
1013.63	210.26
1013.92	210.48
1014.20	210.21
1014.49	210.40
1014.78	210.57
1015.06	209.98
1015.35	209.88
1015.64	210.21
1015.92	210.33
1016.21	210.64
1016.50	210.86
1016.78	211.19
1017.07	211.43
1017.36	211.12
1017.64	210.69
1017.93	210.81
1018.22	210.57
1018.50	210.62
1018.79	210.71
1019.08	209.52
1019.36	209.86
1019.65	209.81
1019.93	210.05
1020.22	210.33
1020.51	211.33
1020.79	210.95
1021.08	206.00
1021.36	208.00
1021.65	213.00
1021.94	207.50
1022.22	211.50
1022.51	207.50
1022.79	218.00
1023.08	214.00
1023.36	233.50
1023.65	206.00
>>>>>End Processed Spectral Data<<<<<
