SpectraSuite Data File
++++++++++++++++++++++++++++++++++++
Date: Tue Apr 02 18:41:35 EDT 2013
User: group
Dark Spectrum Present: No
Reference Spectrum Present: No
Number of Sampled Component Spectra: 1
Spectrometers: USB2E7196
Integration Time (usec): 580000 (USB2E7196)
Spectra Averaged: 2 (USB2E7196)
Boxcar Smoothing: 10 (USB2E7196)
Correct for Electrical Dark: No (USB2E7196)
Strobe/Lamp Enabled: No (USB2E7196)
Correct for Detector Non-linearity: No (USB2E7196)
Correct for Stray Light: No (USB2E7196)
Number of Pixels in Processed Spectrum: 2048
>>>>>Begin Processed Spectral Data<<<<<
339.09	0.00
339.48	193.50
339.86	194.50
340.24	194.00
340.63	197.00
341.01	230.50
341.39	198.50
341.78	206.00
342.16	209.00
342.54	202.50
342.93	196.17
343.31	205.86
343.69	206.38
344.07	207.10
344.46	207.93
344.84	208.50
345.22	207.21
345.60	207.55
345.99	207.86
346.37	207.88
346.75	208.05
347.13	208.14
347.52	208.36
347.90	209.17
348.28	209.38
348.66	209.76
349.05	209.05
349.43	209.64
349.81	209.67
350.19	210.00
350.57	210.05
350.96	210.26
351.34	210.86
351.72	211.12
352.10	211.19
352.48	211.14
352.87	211.19
353.25	211.52
353.63	211.64
354.01	211.40
354.39	211.62
354.77	211.95
355.15	212.67
355.54	212.67
355.92	212.19
356.30	212.43
356.68	213.83
357.06	214.02
357.44	213.71
357.82	213.93
358.20	214.90
358.58	215.07
358.97	215.29
359.35	215.55
359.73	215.81
360.11	215.64
360.49	215.81
360.87	215.95
361.25	216.05
361.63	216.88
362.01	217.17
362.39	216.90
362.77	217.14
363.15	216.83
363.53	216.98
363.91	217.14
364.29	217.07
364.67	215.14
365.05	215.43
365.43	215.74
365.81	216.05
366.19	216.31
366.57	217.21
366.95	217.17
367.33	216.74
367.71	216.74
368.09	217.33
368.47	217.45
368.85	217.36
369.23	217.93
369.61	217.29
369.99	218.07
370.37	218.45
370.75	219.24
371.13	218.83
371.51	218.40
371.89	218.57
372.27	218.62
372.65	218.86
373.03	218.83
373.41	218.79
373.78	218.55
374.16	217.40
374.54	216.55
374.92	216.31
375.30	216.38
375.68	216.14
376.06	216.29
376.44	216.02
376.82	216.14
377.19	215.90
377.57	215.55
377.95	214.71
378.33	214.62
378.71	213.36
379.09	213.55
379.47	213.76
379.84	213.55
380.22	213.50
380.60	213.00
380.98	213.10
381.36	213.00
381.73	212.69
382.11	213.26
382.49	213.29
382.87	213.17
383.25	212.98
383.62	215.36
384.00	214.69
384.38	214.74
384.76	215.17
385.13	216.02
385.51	216.26
385.89	215.86
386.27	215.86
386.64	216.31
387.02	216.07
387.40	216.00
387.78	216.12
388.15	216.00
388.53	216.07
388.91	215.93
389.29	215.36
389.66	215.67
390.04	215.10
390.42	215.50
390.79	215.50
391.17	215.48
391.55	213.24
391.92	213.12
392.30	213.31
392.68	212.81
393.05	212.50
393.43	212.69
393.81	213.10
394.18	212.64
394.56	212.71
394.94	213.48
395.31	213.40
395.69	213.95
396.06	214.50
396.44	214.69
396.82	214.52
397.19	216.10
397.57	215.90
397.95	216.43
398.32	215.88
398.70	216.17
399.07	216.74
399.45	216.76
399.82	217.02
400.20	216.93
400.58	217.00
400.95	216.21
401.33	216.55
401.70	218.00
402.08	218.26
402.45	218.00
402.83	218.26
403.20	218.43
403.58	218.19
403.95	218.60
404.33	218.98
404.71	219.17
405.08	220.07
405.46	220.48
405.83	220.62
406.21	220.93
406.58	221.43
406.96	221.76
407.33	222.33
407.70	223.05
408.08	224.86
408.45	225.57
408.83	226.60
409.20	227.10
409.58	226.52
409.95	227.81
410.33	229.05
410.70	229.43
411.08	230.50
411.45	231.76
411.82	232.57
412.20	234.14
412.57	236.81
412.95	236.36
413.32	238.21
413.69	239.69
414.07	241.60
414.44	243.45
414.82	245.48
415.19	247.98
415.56	250.29
415.94	251.76
416.31	254.88
416.68	257.67
417.06	261.17
417.43	264.90
417.81	268.21
418.18	271.69
418.55	275.60
418.93	279.76
419.30	283.98
419.67	288.60
420.04	292.93
420.42	297.29
420.79	304.88
421.16	310.50
421.54	317.71
421.91	323.81
422.28	330.14
422.66	336.83
423.03	344.57
423.40	351.55
423.77	358.93
424.15	366.05
424.52	373.83
424.89	382.29
425.26	390.33
425.64	398.02
426.01	407.14
426.38	416.05
426.75	426.00
427.13	435.50
427.50	445.19
427.87	455.86
428.24	465.81
428.61	474.00
428.99	485.52
429.36	496.10
429.73	508.12
430.10	519.79
430.47	532.21
430.85	542.90
431.22	556.26
431.59	571.24
431.96	584.38
432.33	598.81
432.70	612.76
433.08	629.07
433.45	644.90
433.82	659.79
434.19	677.19
434.56	694.48
434.93	710.12
435.30	726.81
435.68	744.93
436.05	762.64
436.42	779.88
436.79	796.24
437.16	813.81
437.53	831.67
437.90	849.43
438.27	866.95
438.64	885.74
439.01	902.86
439.38	916.93
439.75	932.17
440.13	949.64
440.50	965.52
440.87	978.83
441.24	992.69
441.61	1007.81
441.98	1019.10
442.35	1031.26
442.72	1044.86
443.09	1058.45
443.46	1065.81
443.83	1071.50
444.20	1077.29
444.57	1082.79
444.94	1086.24
445.31	1090.74
445.68	1096.67
446.05	1097.98
446.42	1096.43
446.79	1094.93
447.16	1092.74
447.53	1091.52
447.90	1084.67
448.27	1078.48
448.64	1070.07
449.01	1064.19
449.37	1053.52
449.74	1042.45
450.11	1030.71
450.48	1015.95
450.85	999.33
451.22	986.60
451.59	974.19
451.96	962.17
452.33	947.02
452.70	932.55
453.07	914.00
453.43	894.12
453.80	877.55
454.17	862.10
454.54	846.52
454.91	830.83
455.28	813.81
455.65	799.00
456.02	786.76
456.38	773.60
456.75	757.12
457.12	742.69
457.49	729.07
457.86	714.12
458.23	703.81
458.59	692.14
458.96	680.07
459.33	668.79
459.70	657.93
460.07	648.40
460.43	638.40
460.80	629.74
461.17	622.57
461.54	614.43
461.91	605.88
462.27	597.17
462.64	589.86
463.01	583.12
463.38	575.83
463.74	565.48
464.11	558.19
464.48	552.31
464.85	546.50
465.21	542.31
465.58	537.57
465.95	530.60
466.32	525.40
466.68	519.67
467.05	514.90
467.42	509.67
467.78	505.00
468.15	499.81
468.52	496.12
468.88	490.26
469.25	484.93
469.62	481.69
469.98	478.14
470.35	474.21
470.72	470.21
471.08	465.64
471.45	462.52
471.82	459.69
472.18	456.26
472.55	453.57
472.92	449.79
473.28	446.74
473.65	444.00
474.02	441.67
474.38	439.76
474.75	437.71
475.11	435.29
475.48	433.55
475.85	432.12
476.21	430.00
476.58	428.88
476.94	427.81
477.31	426.10
477.67	424.43
478.04	423.12
478.41	422.45
478.77	424.10
479.14	422.90
479.50	422.14
479.87	421.60
480.23	420.67
480.60	419.88
480.96	419.45
481.33	420.17
481.69	419.71
482.06	419.71
482.42	420.05
482.79	420.38
483.15	420.40
483.52	421.43
483.88	421.98
484.25	422.55
484.61	423.43
484.98	423.90
485.34	426.05
485.71	427.83
486.07	429.26
486.44	428.86
486.80	430.79
487.17	432.21
487.53	434.98
487.90	437.43
488.26	440.74
488.62	443.79
488.99	445.67
489.35	448.29
489.72	451.24
490.08	453.79
490.44	456.60
490.81	460.02
491.17	462.71
491.54	466.43
491.90	470.02
492.26	473.50
492.63	477.76
492.99	480.60
493.36	484.86
493.72	489.17
494.08	493.45
494.45	498.12
494.81	502.79
495.17	507.00
495.54	512.67
495.90	516.95
496.26	522.10
496.63	527.38
496.99	533.10
497.35	538.50
497.72	544.45
498.08	550.48
498.44	556.50
498.80	563.24
499.17	569.36
499.53	575.52
499.89	582.88
500.26	589.43
500.62	596.90
500.98	604.07
501.34	610.88
501.71	618.69
502.07	625.90
502.43	633.79
502.79	640.74
503.16	647.24
503.52	654.71
503.88	661.45
504.24	669.00
504.60	676.31
504.97	684.21
505.33	692.17
505.69	700.86
506.05	708.88
506.41	716.79
506.78	724.79
507.14	732.45
507.50	740.05
507.86	748.10
508.22	755.98
508.59	763.38
508.95	771.33
509.31	780.19
509.67	788.21
510.03	795.88
510.39	803.76
510.75	812.40
511.12	820.43
511.48	828.52
511.84	836.57
512.20	844.57
512.56	852.31
512.92	860.45
513.28	867.93
513.64	875.36
514.00	882.45
514.37	889.64
514.73	897.07
515.09	904.79
515.45	912.21
515.81	919.60
516.17	926.48
516.53	933.40
516.89	938.62
517.25	945.40
517.61	953.12
517.97	959.90
518.33	966.21
518.69	973.05
519.05	980.14
519.41	986.36
519.77	994.00
520.13	1000.36
520.49	1005.71
520.85	1011.62
521.21	1018.95
521.57	1025.38
521.93	1031.26
522.29	1037.24
522.65	1042.45
523.01	1047.98
523.37	1053.24
523.73	1058.71
524.09	1064.45
524.45	1069.79
524.81	1074.71
525.17	1079.48
525.53	1084.02
525.89	1088.60
526.25	1094.12
526.61	1098.17
526.97	1102.81
527.33	1106.95
527.68	1113.52
528.04	1117.62
528.40	1121.48
528.76	1124.62
529.12	1128.52
529.48	1133.79
529.84	1138.33
530.20	1143.00
530.56	1147.86
530.91	1153.17
531.27	1157.74
531.63	1162.64
531.99	1167.21
532.35	1171.12
532.71	1174.93
533.07	1180.19
533.42	1186.67
533.78	1190.40
534.14	1195.19
534.50	1199.86
534.86	1204.93
535.21	1207.33
535.57	1213.12
535.93	1217.48
536.29	1223.31
536.65	1228.31
537.00	1231.60
537.36	1236.05
537.72	1239.33
538.08	1243.02
538.44	1245.93
538.79	1250.12
539.15	1253.00
539.51	1256.55
539.87	1260.79
540.22	1264.33
540.58	1268.10
540.94	1269.88
541.29	1273.05
541.65	1275.69
542.01	1278.69
542.37	1280.93
542.72	1283.29
543.08	1284.83
543.44	1288.90
543.79	1290.31
544.15	1293.76
544.51	1297.29
544.87	1300.71
545.22	1304.88
545.58	1307.98
545.94	1310.81
546.29	1313.64
546.65	1316.93
547.01	1320.02
547.36	1323.14
547.72	1326.31
548.07	1329.45
548.43	1332.62
548.79	1335.71
549.14	1339.02
549.50	1343.24
549.86	1345.36
550.21	1348.60
550.57	1352.60
550.92	1355.60
551.28	1359.33
551.64	1361.90
551.99	1365.67
552.35	1368.83
552.70	1371.12
553.06	1374.88
553.41	1378.62
553.77	1382.83
554.13	1386.67
554.48	1391.79
554.84	1396.76
555.19	1401.62
555.55	1407.12
555.90	1411.36
556.26	1415.45
556.61	1419.71
556.97	1422.76
557.32	1427.21
557.68	1431.71
558.03	1436.69
558.39	1440.38
558.74	1444.14
559.10	1448.52
559.45	1452.48
559.81	1456.69
560.16	1461.64
560.52	1465.60
560.87	1470.48
561.23	1474.36
561.58	1480.07
561.94	1483.71
562.29	1487.79
562.64	1492.24
563.00	1495.48
563.35	1500.12
563.71	1505.98
564.06	1511.95
564.42	1516.60
564.77	1523.21
565.12	1529.33
565.48	1535.69
565.83	1542.26
566.19	1548.52
566.54	1554.33
566.89	1559.10
567.25	1565.05
567.60	1572.43
567.96	1579.48
568.31	1586.05
568.66	1592.95
569.02	1597.55
569.37	1602.62
569.72	1608.21
570.08	1612.98
570.43	1617.60
570.78	1623.60
571.14	1628.83
571.49	1632.33
571.84	1638.02
572.20	1641.88
572.55	1646.74
572.90	1649.67
573.26	1653.62
573.61	1657.12
573.96	1661.00
574.31	1666.38
574.67	1670.64
575.02	1673.79
575.37	1675.79
575.72	1678.62
576.08	1682.31
576.43	1685.98
576.78	1689.40
577.13	1692.07
577.49	1695.50
577.84	1699.83
578.19	1702.93
578.54	1706.38
578.90	1711.14
579.25	1714.67
579.60	1717.95
579.95	1719.83
580.30	1723.79
580.66	1727.38
581.01	1730.76
581.36	1733.38
581.71	1735.98
582.06	1740.05
582.42	1742.62
582.77	1745.69
583.12	1748.07
583.47	1750.00
583.82	1752.00
584.17	1755.64
584.53	1759.14
584.88	1761.52
585.23	1763.45
585.58	1765.57
585.93	1766.48
586.28	1767.69
586.63	1770.17
586.98	1771.45
587.34	1775.26
587.69	1776.17
588.04	1777.19
588.39	1779.55
588.74	1780.76
589.09	1781.93
589.44	1781.48
589.79	1783.21
590.14	1784.69
590.49	1786.38
590.84	1786.45
591.19	1788.52
591.54	1789.10
591.89	1788.62
592.25	1791.29
592.60	1792.76
592.95	1793.00
593.30	1794.33
593.65	1795.79
594.00	1794.57
594.35	1801.00
594.70	1800.14
595.05	1801.36
595.40	1801.50
595.75	1801.52
596.10	1802.29
596.45	1803.76
596.80	1804.74
597.15	1804.02
597.50	1804.05
597.85	1804.57
598.19	1805.69
598.54	1805.57
598.89	1805.38
599.24	1806.10
599.59	1804.19
599.94	1802.71
600.29	1802.00
600.64	1801.14
600.99	1800.10
601.34	1801.67
601.69	1795.79
602.04	1794.67
602.39	1792.45
602.74	1791.69
603.08	1790.29
603.43	1789.74
603.78	1787.52
604.13	1785.60
604.48	1784.95
604.83	1783.83
605.18	1782.36
605.53	1780.00
605.87	1777.57
606.22	1776.02
606.57	1773.55
606.92	1772.19
607.27	1770.93
607.62	1770.67
607.96	1769.86
608.31	1768.62
608.66	1766.38
609.01	1763.74
609.36	1762.86
609.70	1761.33
610.05	1758.33
610.40	1756.33
610.75	1753.33
611.10	1751.74
611.44	1748.07
611.79	1744.52
612.14	1741.88
612.49	1738.38
612.83	1735.57
613.18	1732.26
613.53	1728.52
613.88	1724.83
614.22	1720.64
614.57	1716.57
614.92	1711.36
615.27	1706.38
615.61	1700.43
615.96	1694.76
616.31	1690.67
616.65	1686.29
617.00	1682.74
617.35	1678.98
617.70	1674.31
618.04	1669.90
618.39	1664.26
618.74	1660.14
619.08	1655.74
619.43	1650.19
619.78	1645.29
620.12	1640.17
620.47	1636.12
620.82	1629.95
621.16	1625.10
621.51	1620.93
621.85	1615.62
622.20	1611.69
622.55	1606.29
622.89	1602.33
623.24	1598.69
623.59	1593.24
623.93	1588.21
624.28	1582.52
624.62	1579.45
624.97	1575.43
625.32	1570.21
625.66	1565.52
626.01	1560.79
626.35	1556.55
626.70	1552.36
627.04	1548.36
627.39	1544.07
627.73	1539.74
628.08	1536.79
628.43	1532.33
628.77	1526.93
629.12	1523.26
629.46	1518.57
629.81	1514.93
630.15	1510.76
630.50	1505.17
630.84	1500.38
631.19	1494.52
631.53	1489.36
631.88	1481.45
632.22	1474.95
632.57	1470.43
632.91	1464.81
633.26	1460.64
633.60	1453.93
633.95	1448.36
634.29	1441.71
634.64	1436.50
634.98	1430.02
635.32	1425.48
635.67	1421.17
636.01	1415.76
636.36	1409.12
636.70	1404.02
637.05	1398.57
637.39	1392.76
637.73	1387.76
638.08	1383.62
638.42	1378.02
638.77	1373.10
639.11	1368.69
639.45	1363.50
639.80	1357.00
640.14	1351.88
640.49	1345.12
640.83	1339.83
641.17	1335.10
641.52	1329.38
641.86	1323.76
642.20	1319.43
642.55	1311.76
642.89	1305.29
643.23	1299.71
643.58	1295.71
643.92	1287.71
644.26	1281.48
644.61	1275.36
644.95	1268.71
645.29	1261.45
645.64	1255.83
645.98	1248.52
646.32	1242.19
646.66	1235.29
647.01	1229.12
647.35	1223.21
647.69	1217.19
648.04	1211.62
648.38	1205.21
648.72	1199.40
649.06	1193.14
649.41	1185.38
649.75	1178.98
650.09	1172.79
650.43	1165.45
650.78	1157.10
651.12	1150.69
651.46	1143.10
651.80	1136.67
652.14	1130.69
652.49	1124.71
652.83	1117.79
653.17	1111.24
653.51	1104.36
653.85	1098.50
654.20	1091.93
654.54	1084.26
654.88	1076.74
655.22	1070.19
655.56	1062.21
655.90	1055.07
656.25	1047.98
656.59	1041.95
656.93	1036.52
657.27	1030.31
657.61	1024.00
657.95	1018.76
658.29	1012.83
658.64	1007.93
658.98	1001.71
659.32	994.52
659.66	988.33
660.00	982.43
660.34	976.69
660.68	970.14
661.02	963.19
661.36	957.24
661.70	951.57
662.05	946.07
662.39	940.00
662.73	934.98
663.07	930.36
663.41	923.95
663.75	917.48
664.09	911.14
664.43	904.17
664.77	898.62
665.11	891.90
665.45	886.36
665.79	879.88
666.13	873.29
666.47	867.76
666.81	862.05
667.15	856.50
667.49	851.64
667.83	847.50
668.17	842.24
668.51	836.74
668.85	831.36
669.19	827.10
669.53	820.67
669.87	814.48
670.21	808.26
670.55	803.07
670.89	798.43
671.23	792.90
671.57	788.17
671.91	782.98
672.25	778.45
672.58	774.10
672.92	768.62
673.26	763.71
673.60	758.69
673.94	753.52
674.28	748.24
674.62	743.07
674.96	737.12
675.30	733.02
675.64	728.10
675.97	723.17
676.31	717.67
676.65	713.43
676.99	710.24
677.33	705.38
677.67	701.50
678.01	696.62
678.34	692.45
678.68	688.12
679.02	683.33
679.36	678.10
679.70	672.38
680.04	668.00
680.37	663.31
680.71	659.00
681.05	654.93
681.39	650.31
681.73	645.45
682.06	640.86
682.40	635.83
682.74	632.12
683.08	628.81
683.42	624.38
683.75	620.02
684.09	614.74
684.43	610.60
684.77	605.69
685.10	601.17
685.44	596.71
685.78	591.90
686.12	588.07
686.45	583.83
686.79	579.76
687.13	576.19
687.46	572.62
687.80	569.00
688.14	564.86
688.48	561.33
688.81	557.55
689.15	554.74
689.49	551.36
689.82	547.31
690.16	542.50
690.50	538.76
690.83	534.81
691.17	530.29
691.51	526.52
691.84	523.31
692.18	519.60
692.52	515.81
692.85	512.93
693.19	509.83
693.52	506.45
693.86	503.00
694.20	499.50
694.53	496.07
694.87	491.98
695.21	487.98
695.54	484.33
695.88	480.55
696.21	476.17
696.55	472.64
696.88	469.38
697.22	465.83
697.56	462.45
697.89	459.21
698.23	456.90
698.56	453.60
698.90	450.52
699.23	447.45
699.57	444.90
699.90	441.50
700.24	438.33
700.58	435.52
700.91	432.79
701.25	431.64
701.58	429.12
701.92	427.33
702.25	424.90
702.59	422.29
702.92	420.17
703.26	418.10
703.59	415.55
703.93	414.93
704.26	413.19
704.60	411.05
704.93	408.64
705.26	405.93
705.60	404.24
705.93	401.17
706.27	399.52
706.60	397.36
706.94	396.02
707.27	393.36
707.61	391.45
707.94	389.33
708.27	385.12
708.61	382.57
708.94	380.05
709.28	377.86
709.61	375.93
709.94	374.00
710.28	371.64
710.61	369.64
710.95	365.45
711.28	364.64
711.61	362.52
711.95	361.29
712.28	359.67
712.61	357.50
712.95	357.12
713.28	355.69
713.61	353.40
713.95	350.81
714.28	349.45
714.61	347.45
714.95	345.81
715.28	344.17
715.61	342.79
715.95	341.38
716.28	339.93
716.61	338.50
716.95	336.17
717.28	334.62
717.61	333.05
717.94	331.95
718.28	328.64
718.61	327.14
718.94	325.21
719.27	323.40
719.61	321.98
719.94	319.95
720.27	317.69
720.60	316.05
720.94	314.88
721.27	313.43
721.60	312.64
721.93	311.24
722.27	310.60
722.60	309.33
722.93	307.79
723.26	306.93
723.59	305.19
723.93	304.71
724.26	304.29
724.59	302.98
724.92	301.67
725.25	301.48
725.59	300.52
725.92	299.81
726.25	299.00
726.58	297.93
726.91	296.83
727.24	296.19
727.57	295.38
727.91	294.21
728.24	293.43
728.57	291.93
728.90	291.36
729.23	289.62
729.56	289.60
729.89	288.79
730.22	287.57
730.55	287.00
730.89	286.17
731.22	284.83
731.55	284.05
731.88	283.24
732.21	282.07
732.54	281.29
732.87	280.31
733.20	279.55
733.53	278.98
733.86	278.40
734.19	277.33
734.52	276.98
734.85	277.71
735.18	276.74
735.51	277.00
735.84	276.21
736.17	276.26
736.50	274.79
736.83	276.29
737.16	275.67
737.49	275.05
737.82	274.14
738.15	273.71
738.48	273.12
738.81	272.31
739.14	271.26
739.47	270.38
739.80	269.79
740.13	269.50
740.46	268.21
740.79	267.29
741.12	266.74
741.45	265.88
741.78	263.93
742.11	263.93
742.44	262.67
742.77	262.60
743.10	261.60
743.43	260.79
743.75	258.17
744.08	260.12
744.41	259.17
744.74	258.43
745.07	257.69
745.40	257.40
745.73	257.95
746.06	257.67
746.39	257.19
746.71	256.52
747.04	255.71
747.37	255.48
747.70	255.40
748.03	255.07
748.36	254.95
748.68	254.57
749.01	253.33
749.34	253.05
749.67	252.24
750.00	252.33
750.33	253.38
750.65	253.17
750.98	250.21
751.31	249.93
751.64	249.74
751.97	250.26
752.29	249.64
752.62	248.21
752.95	247.57
753.28	247.14
753.60	246.69
753.93	247.00
754.26	246.79
754.59	245.45
754.91	244.86
755.24	244.26
755.57	244.00
755.90	243.74
756.22	242.95
756.55	242.52
756.88	241.43
757.20	239.83
757.53	238.79
757.86	238.55
758.19	238.48
758.51	238.17
758.84	236.83
759.17	236.62
759.49	236.36
759.82	237.19
760.15	237.17
760.47	236.95
760.80	236.05
761.13	235.83
761.45	235.76
761.78	235.48
762.11	235.12
762.43	234.71
762.76	234.21
763.08	234.21
763.41	233.88
763.74	233.95
764.06	233.60
764.39	233.43
764.71	233.12
765.04	232.64
765.37	232.02
765.69	231.60
766.02	230.98
766.34	230.69
766.67	229.67
767.00	229.69
767.32	230.71
767.65	231.79
767.97	231.69
768.30	231.69
768.62	231.64
768.95	231.52
769.27	230.95
769.60	231.40
769.92	231.10
770.25	230.55
770.57	230.00
770.90	229.81
771.22	229.62
771.55	229.62
771.87	229.64
772.20	229.64
772.52	231.67
772.85	234.38
773.17	234.33
773.50	233.98
773.82	233.36
774.15	231.98
774.47	230.29
774.80	229.86
775.12	229.67
775.45	229.38
775.77	229.14
776.09	229.43
776.42	229.10
776.74	229.50
777.07	229.55
777.39	229.60
777.72	229.31
778.04	229.36
778.36	228.71
778.69	228.62
779.01	228.67
779.33	226.48
779.66	223.71
779.98	223.55
780.31	223.64
780.63	224.55
780.95	225.05
781.28	225.10
781.60	224.88
781.92	224.93
782.25	224.79
782.57	224.71
782.89	224.24
783.22	223.81
783.54	223.29
783.86	222.95
784.19	222.76
784.51	223.40
784.83	222.95
785.16	223.05
785.48	222.88
785.80	222.74
786.12	222.86
786.45	222.81
786.77	222.95
787.09	222.62
787.42	221.88
787.74	221.67
788.06	221.67
788.38	221.57
788.71	220.93
789.03	220.95
789.35	221.00
789.67	220.93
789.99	221.45
790.32	221.12
790.64	221.62
790.96	223.31
791.28	222.55
791.61	222.74
791.93	222.76
792.25	222.67
792.57	224.14
792.89	223.67
793.21	223.69
793.54	223.40
793.86	223.19
794.18	223.14
794.50	222.52
794.82	222.26
795.14	222.29
795.47	222.86
795.79	222.86
796.11	222.62
796.43	222.31
796.75	222.02
797.07	222.12
797.39	221.86
797.71	220.31
798.04	220.26
798.36	220.07
798.68	219.93
799.00	220.07
799.32	218.81
799.64	219.17
799.96	219.26
800.28	219.52
800.60	219.57
800.92	219.74
801.24	219.60
801.56	219.79
801.89	219.76
802.21	219.88
802.53	219.43
802.85	219.81
803.17	220.67
803.49	220.33
803.81	220.19
804.13	220.00
804.45	219.69
804.77	219.64
805.09	219.62
805.41	219.64
805.73	219.05
806.05	218.64
806.37	218.62
806.69	218.55
807.01	218.12
807.33	218.10
807.65	217.29
807.97	218.31
808.28	218.05
808.60	217.76
808.92	217.71
809.24	218.98
809.56	218.57
809.88	217.93
810.20	218.00
810.52	218.29
810.84	217.86
811.16	217.74
811.48	217.81
811.80	218.67
812.12	218.43
812.43	219.00
812.75	219.10
813.07	219.00
813.39	219.02
813.71	218.90
814.03	218.71
814.35	218.83
814.67	218.00
814.98	217.88
815.30	217.90
815.62	217.38
815.94	215.98
816.26	215.64
816.58	215.38
816.89	215.24
817.21	214.95
817.53	215.40
817.85	215.40
818.17	215.29
818.48	214.38
818.80	214.83
819.12	214.40
819.44	214.02
819.76	213.57
820.07	213.43
820.39	213.52
820.71	213.67
821.03	213.69
821.34	213.55
821.66	213.81
821.98	214.26
822.30	214.26
822.61	215.40
822.93	215.48
823.25	215.50
823.57	215.57
823.88	215.71
824.20	215.50
824.52	215.79
824.83	215.62
825.15	215.31
825.47	215.07
825.79	215.33
826.10	215.36
826.42	215.19
826.74	215.29
827.05	215.07
827.37	215.24
827.69	215.14
828.00	215.26
828.32	215.10
828.64	214.36
828.95	215.17
829.27	214.60
829.58	214.64
829.90	214.95
830.22	215.24
830.53	214.71
830.85	214.50
831.17	214.07
831.48	214.26
831.80	214.50
832.11	214.21
832.43	213.90
832.75	213.95
833.06	215.36
833.38	214.74
833.69	214.69
834.01	214.62
834.32	214.43
834.64	214.05
834.96	214.17
835.27	214.29
835.59	213.83
835.90	213.64
836.22	213.60
836.53	213.00
836.85	212.60
837.16	215.02
837.48	215.12
837.79	215.64
838.11	215.71
838.42	215.71
838.74	216.14
839.05	216.12
839.37	216.17
839.68	214.95
840.00	215.00
840.31	215.31
840.63	215.48
840.94	215.19
841.26	215.26
841.57	215.19
841.88	215.60
842.20	215.00
842.51	214.48
842.83	214.62
843.14	216.57
843.46	216.40
843.77	215.12
844.08	214.93
844.40	214.40
844.71	214.07
845.03	213.67
845.34	213.38
845.65	213.19
845.97	212.93
846.28	212.81
846.60	213.02
846.91	212.64
847.22	212.14
847.54	212.90
847.85	212.74
848.16	212.52
848.48	212.17
848.79	213.10
849.10	213.69
849.42	213.62
849.73	211.86
850.04	211.95
850.36	211.02
850.67	211.55
850.98	211.64
851.30	211.90
851.61	212.21
851.92	212.38
852.23	212.93
852.55	213.43
852.86	213.43
853.17	213.52
853.49	214.19
853.80	214.95
854.11	214.88
854.42	215.38
854.74	215.14
855.05	215.29
855.36	214.24
855.67	214.00
855.99	214.05
856.30	216.31
856.61	216.26
856.92	216.55
857.23	216.33
857.55	216.17
857.86	216.00
858.17	216.31
858.48	215.95
858.79	215.55
859.11	215.43
859.42	215.64
859.73	215.48
860.04	215.24
860.35	214.40
860.66	213.83
860.98	213.55
861.29	213.88
861.60	213.71
861.91	214.52
862.22	214.29
862.53	214.12
862.84	211.88
863.16	212.79
863.47	212.43
863.78	212.43
864.09	212.43
864.40	212.71
864.71	212.45
865.02	212.67
865.33	212.36
865.64	212.05
865.95	212.02
866.27	213.40
866.58	213.02
866.89	213.55
867.20	213.60
867.51	213.40
867.82	213.45
868.13	214.02
868.44	213.17
868.75	213.81
869.06	213.74
869.37	213.71
869.68	212.67
869.99	213.14
870.30	213.17
870.61	213.55
870.92	213.26
871.23	213.02
871.54	213.24
871.85	213.98
872.16	214.29
872.47	214.07
872.78	212.74
873.09	213.14
873.40	212.76
873.71	213.02
874.02	213.07
874.33	212.74
874.64	212.10
874.95	212.55
875.26	211.98
875.56	212.05
875.87	212.02
876.18	212.12
876.49	213.98
876.80	213.76
877.11	213.31
877.42	213.24
877.73	213.64
878.04	213.19
878.35	213.05
878.66	213.05
878.96	213.00
879.27	212.83
879.58	212.50
879.89	212.57
880.20	213.10
880.51	213.29
880.82	213.31
881.12	213.81
881.43	213.45
881.74	213.36
882.05	213.38
882.36	213.81
882.67	213.69
882.97	211.50
883.28	211.57
883.59	211.52
883.90	211.93
884.21	212.24
884.51	212.29
884.82	211.90
885.13	211.81
885.44	212.05
885.74	212.33
886.05	212.31
886.36	212.26
886.67	211.48
886.98	212.40
887.28	212.52
887.59	212.31
887.90	212.40
888.20	212.24
888.51	212.38
888.82	211.90
889.13	212.21
889.43	213.76
889.74	213.40
890.05	213.64
890.35	213.36
890.66	212.83
890.97	212.88
891.28	212.83
891.58	212.93
891.89	212.55
892.20	212.31
892.50	212.36
892.81	212.24
893.12	212.31
893.42	211.29
893.73	211.55
894.04	211.55
894.34	211.71
894.65	211.81
894.95	211.50
895.26	211.69
895.57	212.86
895.87	211.02
896.18	211.64
896.48	211.69
896.79	211.45
897.10	211.74
897.40	211.60
897.71	211.93
898.01	211.60
898.32	212.02
898.63	211.71
898.93	211.81
899.24	211.50
899.54	211.45
899.85	211.33
900.15	211.31
900.46	211.24
900.76	211.40
901.07	211.21
901.38	211.38
901.68	211.50
901.99	210.19
902.29	210.55
902.60	210.40
902.90	210.05
903.21	210.17
903.51	210.12
903.82	210.71
904.12	210.79
904.43	210.88
904.73	210.64
905.03	210.83
905.34	212.74
905.64	213.02
905.95	213.02
906.25	213.19
906.56	212.86
906.86	212.88
907.17	212.62
907.47	213.02
907.77	212.86
908.08	212.45
908.38	212.62
908.69	212.69
908.99	212.88
909.30	213.10
909.60	212.95
909.90	212.98
910.21	212.19
910.51	211.88
910.81	212.02
911.12	212.21
911.42	212.52
911.73	210.40
912.03	210.45
912.33	210.86
912.64	210.67
912.94	210.71
913.24	210.43
913.55	210.43
913.85	210.10
914.15	210.43
914.46	210.52
914.76	210.45
915.06	210.31
915.37	210.00
915.67	210.02
915.97	210.17
916.27	209.71
916.58	210.17
916.88	210.24
917.18	210.36
917.49	211.79
917.79	211.52
918.09	211.74
918.39	212.40
918.70	212.21
919.00	212.48
919.30	213.43
919.60	213.38
919.91	213.17
920.21	213.50
920.51	213.07
920.81	213.24
921.12	213.52
921.42	213.43
921.72	213.36
922.02	213.55
922.32	213.95
922.63	214.07
922.93	215.02
923.23	214.98
923.53	214.50
923.83	213.00
924.13	213.45
924.44	213.52
924.74	213.74
925.04	214.29
925.34	214.21
925.64	213.38
925.94	213.60
926.24	214.52
926.55	214.31
926.85	214.79
927.15	214.83
927.45	214.90
927.75	214.88
928.05	215.00
928.35	214.69
928.65	214.95
928.95	214.95
929.26	214.02
929.56	214.40
929.86	214.90
930.16	214.83
930.46	214.55
930.76	214.74
931.06	213.71
931.36	213.29
931.66	213.40
931.96	213.62
932.26	213.76
932.56	213.21
932.86	213.45
933.16	213.40
933.46	213.19
933.76	212.81
934.06	213.40
934.36	214.43
934.66	214.36
934.96	213.93
935.26	214.31
935.56	214.62
935.86	214.00
936.16	213.57
936.46	213.52
936.76	213.33
937.06	212.71
937.36	213.10
937.66	212.93
937.96	212.67
938.26	212.21
938.56	212.00
938.86	212.00
939.16	212.31
939.46	212.50
939.76	212.71
940.06	212.69
940.35	211.93
940.65	210.45
940.95	210.69
941.25	210.33
941.55	209.81
941.85	209.67
942.15	210.43
942.45	211.10
942.75	211.07
943.04	211.14
943.34	211.79
943.64	211.57
943.94	211.43
944.24	211.62
944.54	211.81
944.84	211.81
945.13	211.60
945.43	211.26
945.73	210.95
946.03	210.60
946.33	210.40
946.62	210.55
946.92	210.81
947.22	210.90
947.52	210.90
947.82	211.38
948.11	210.83
948.41	210.29
948.71	209.62
949.01	209.83
949.31	209.62
949.60	209.45
949.90	209.57
950.20	209.62
950.50	209.57
950.79	209.33
951.09	209.67
951.39	209.64
951.69	209.31
951.98	209.64
952.28	209.88
952.58	209.74
952.87	209.79
953.17	210.07
953.47	210.05
953.76	210.07
954.06	209.67
954.36	209.71
954.66	209.52
954.95	210.10
955.25	210.17
955.55	210.43
955.84	209.86
956.14	210.12
956.44	210.10
956.73	210.00
957.03	210.19
957.32	209.86
957.62	209.71
957.92	210.40
958.21	210.31
958.51	212.52
958.81	213.02
959.10	213.29
959.40	213.76
959.69	213.74
959.99	214.17
960.29	214.29
960.58	214.45
960.88	215.38
961.17	215.24
961.47	215.45
961.76	215.43
962.06	215.98
962.36	215.69
962.65	216.02
962.95	215.98
963.24	215.79
963.54	215.95
963.83	216.26
964.13	215.90
964.42	215.40
964.72	213.83
965.01	213.86
965.31	213.62
965.60	212.93
965.90	214.02
966.19	213.48
966.49	213.55
966.78	213.31
967.08	213.26
967.37	213.36
967.67	212.83
967.96	213.12
968.26	213.24
968.55	213.40
968.85	213.14
969.14	213.24
969.43	213.26
969.73	213.14
970.02	212.90
970.32	212.86
970.61	212.95
970.91	212.48
971.20	212.02
971.49	212.00
971.79	212.29
972.08	210.90
972.38	211.21
972.67	211.05
972.96	211.45
973.26	210.74
973.55	211.29
973.85	211.45
974.14	211.21
974.43	211.26
974.73	210.98
975.02	210.93
975.31	210.95
975.61	210.98
975.90	210.86
976.19	210.67
976.49	210.88
976.78	210.88
977.07	210.57
977.37	210.81
977.66	210.62
977.95	210.40
978.24	210.67
978.54	211.24
978.83	211.19
979.12	211.00
979.42	211.12
979.71	210.52
980.00	210.67
980.29	210.74
980.59	210.29
980.88	210.86
981.17	210.74
981.46	210.71
981.76	210.74
982.05	211.33
982.34	211.57
982.63	211.43
982.93	211.69
983.22	212.40
983.51	212.36
983.80	212.81
984.09	212.98
984.39	212.79
984.68	212.43
984.97	212.43
985.26	212.24
985.55	212.33
985.85	212.10
986.14	212.14
986.43	212.60
986.72	212.43
987.01	211.60
987.30	211.67
987.59	211.43
987.89	211.62
988.18	211.02
988.47	211.05
988.76	210.69
989.05	210.52
989.34	210.21
989.63	211.00
989.92	210.88
990.22	210.62
990.51	210.45
990.80	210.24
991.09	210.64
991.38	210.79
991.67	210.69
991.96	210.48
992.25	210.52
992.54	210.07
992.83	210.50
993.12	210.52
993.41	210.74
993.70	211.62
993.99	212.07
994.28	212.21
994.58	212.33
994.87	212.52
995.16	212.31
995.45	212.17
995.74	211.33
996.03	211.48
996.32	211.88
996.61	212.40
996.90	212.29
997.19	212.19
997.48	212.45
997.77	212.31
998.06	212.64
998.34	212.38
998.63	212.40
998.92	212.07
999.21	212.55
999.50	212.69
999.79	212.07
1000.08	211.86
1000.37	211.98
1000.66	211.83
1000.95	212.36
1001.24	212.45
1001.53	212.67
1001.82	212.43
1002.11	212.10
1002.40	212.31
1002.68	212.67
1002.97	214.14
1003.26	213.81
1003.55	213.31
1003.84	213.29
1004.13	213.62
1004.42	213.67
1004.71	213.52
1004.99	213.62
1005.28	214.00
1005.57	213.69
1005.86	213.40
1006.15	213.14
1006.44	212.74
1006.72	213.07
1007.01	212.52
1007.30	212.55
1007.59	212.29
1007.88	212.33
1008.17	212.31
1008.45	211.76
1008.74	211.10
1009.03	210.12
1009.32	210.17
1009.60	210.31
1009.89	210.31
1010.18	209.67
1010.47	209.57
1010.76	209.71
1011.04	209.60
1011.33	209.83
1011.62	210.05
1011.91	210.12
1012.19	210.14
1012.48	210.33
1012.77	210.17
1013.05	211.26
1013.34	211.26
1013.63	211.26
1013.92	211.48
1014.20	211.40
1014.49	211.36
1014.78	211.55
1015.06	210.90
1015.35	210.83
1015.64	211.17
1015.92	211.52
1016.21	211.67
1016.50	211.60
1016.78	211.71
1017.07	211.86
1017.36	211.43
1017.64	211.05
1017.93	211.21
1018.22	211.17
1018.50	211.40
1018.79	211.29
1019.08	210.14
1019.36	210.40
1019.65	210.29
1019.93	210.62
1020.22	210.93
1020.51	212.33
1020.79	211.86
1021.08	209.50
1021.36	214.00
1021.65	210.50
1021.94	207.00
1022.22	214.00
1022.51	208.50
1022.79	216.00
1023.08	213.50
1023.36	238.00
1023.65	202.50
>>>>>End Processed Spectral Data<<<<<
