SpectraSuite Data File
++++++++++++++++++++++++++++++++++++
Date: Tue Apr 02 18:43:01 EDT 2013
User: group
Dark Spectrum Present: No
Reference Spectrum Present: No
Number of Sampled Component Spectra: 1
Spectrometers: USB2E7196
Integration Time (usec): 580000 (USB2E7196)
Spectra Averaged: 2 (USB2E7196)
Boxcar Smoothing: 10 (USB2E7196)
Correct for Electrical Dark: No (USB2E7196)
Strobe/Lamp Enabled: No (USB2E7196)
Correct for Detector Non-linearity: No (USB2E7196)
Correct for Stray Light: No (USB2E7196)
Number of Pixels in Processed Spectrum: 2048
>>>>>Begin Processed Spectral Data<<<<<
339.09	0.00
339.48	190.00
339.86	196.50
340.24	195.00
340.63	196.50
341.01	233.00
341.39	201.50
341.78	207.50
342.16	212.50
342.54	207.00
342.93	198.36
343.31	208.07
343.69	208.88
344.07	209.38
344.46	210.12
344.84	210.90
345.22	209.71
345.60	209.93
345.99	209.98
346.37	209.69
346.75	209.79
347.13	209.76
347.52	209.88
347.90	210.55
348.28	210.52
348.66	210.98
349.05	210.36
349.43	210.52
349.81	210.62
350.19	210.67
350.57	210.86
350.96	211.02
351.34	211.45
351.72	211.69
352.10	211.81
352.48	211.52
352.87	211.14
353.25	211.14
353.63	211.36
354.01	211.40
354.39	211.64
354.77	211.71
355.15	212.24
355.54	211.93
355.92	211.43
356.30	211.31
356.68	212.76
357.06	212.88
357.44	212.69
357.82	212.52
358.20	213.33
358.58	213.43
358.97	213.67
359.35	213.95
359.73	214.02
360.11	213.98
360.49	214.10
360.87	214.36
361.25	214.83
361.63	215.57
362.01	215.71
362.39	215.69
362.77	215.83
363.15	215.88
363.53	216.07
363.91	215.98
364.29	215.88
364.67	213.83
365.05	213.88
365.43	214.02
365.81	214.43
366.19	214.43
366.57	215.17
366.95	214.74
367.33	214.19
367.71	214.40
368.09	214.86
368.47	215.19
368.85	215.07
369.23	215.38
369.61	214.57
369.99	215.24
370.37	215.43
370.75	216.38
371.13	215.86
371.51	215.57
371.89	215.71
372.27	216.21
372.65	216.10
373.03	216.02
373.41	215.83
373.78	215.81
374.16	215.21
374.54	214.60
374.92	214.55
375.30	214.79
375.68	214.40
376.06	214.40
376.44	214.07
376.82	214.21
377.19	214.05
377.57	213.88
377.95	213.21
378.33	213.05
378.71	211.83
379.09	212.26
379.47	212.55
379.84	212.55
380.22	212.33
380.60	212.29
380.98	212.31
381.36	212.24
381.73	211.79
382.11	212.07
382.49	211.93
382.87	211.74
383.25	211.76
383.62	214.10
384.00	213.81
384.38	214.10
384.76	214.43
385.13	215.24
385.51	215.52
385.89	215.33
386.27	215.40
386.64	215.71
387.02	215.50
387.40	215.50
387.78	215.71
388.15	215.74
388.53	215.69
388.91	215.74
389.29	216.02
389.66	216.24
390.04	215.93
390.42	216.60
390.79	216.86
391.17	216.79
391.55	214.60
391.92	214.38
392.30	214.52
392.68	214.19
393.05	213.93
393.43	213.88
393.81	214.12
394.18	213.95
394.56	214.05
394.94	214.69
395.31	214.38
395.69	214.93
396.06	215.02
396.44	215.24
396.82	215.02
397.19	215.90
397.57	215.95
397.95	216.10
398.32	215.43
398.70	215.62
399.07	215.79
399.45	215.71
399.82	216.05
400.20	215.71
400.58	215.83
400.95	215.05
401.33	215.50
401.70	216.76
402.08	216.93
402.45	216.98
402.83	217.14
403.20	217.45
403.58	217.14
403.95	217.76
404.33	218.29
404.71	218.62
405.08	219.81
405.46	219.98
405.83	220.36
406.21	220.83
406.58	221.14
406.96	221.57
407.33	222.10
407.70	222.67
408.08	224.93
408.45	225.81
408.83	226.81
409.20	227.45
409.58	227.05
409.95	228.31
410.33	229.14
410.70	229.55
411.08	230.81
411.45	231.86
411.82	232.50
412.20	233.98
412.57	236.31
412.95	236.05
413.32	237.81
413.69	239.26
414.07	240.81
414.44	242.64
414.82	244.57
415.19	247.17
415.56	249.36
415.94	250.55
416.31	253.19
416.68	256.10
417.06	259.24
417.43	262.83
417.81	266.19
418.18	270.05
418.55	273.95
418.93	277.67
419.30	281.95
419.67	286.74
420.04	291.19
420.42	295.55
420.79	302.60
421.16	308.52
421.54	315.43
421.91	321.86
422.28	328.21
422.66	335.17
423.03	342.79
423.40	349.90
423.77	357.10
424.15	364.33
424.52	371.81
424.89	380.36
425.26	387.95
425.64	395.36
426.01	403.48
426.38	412.33
426.75	422.07
427.13	431.52
427.50	441.10
427.87	451.05
428.24	461.02
428.61	469.24
428.99	480.31
429.36	490.88
429.73	502.31
430.10	513.81
430.47	525.07
430.85	535.74
431.22	548.19
431.59	562.76
431.96	575.48
432.33	589.93
432.70	603.83
433.08	620.24
433.45	635.19
433.82	650.57
434.19	667.31
434.56	683.83
434.93	699.50
435.30	715.12
435.68	733.19
436.05	750.55
436.42	767.83
436.79	783.45
437.16	800.83
437.53	818.50
437.90	835.62
438.27	854.17
438.64	872.10
439.01	889.48
439.38	903.69
439.75	918.62
440.13	934.83
440.50	949.76
440.87	961.93
441.24	976.26
441.61	991.12
441.98	1001.76
442.35	1014.07
442.72	1027.40
443.09	1041.00
443.46	1048.31
443.83	1053.38
444.20	1058.12
444.57	1064.21
444.94	1067.12
445.31	1071.43
445.68	1077.81
446.05	1078.98
446.42	1078.19
446.79	1076.38
447.16	1074.69
447.53	1073.60
447.90	1066.98
448.27	1061.10
448.64	1053.21
449.01	1046.95
449.37	1035.83
449.74	1025.40
450.11	1013.86
450.48	998.71
450.85	982.64
451.22	970.17
451.59	958.21
451.96	946.81
452.33	931.36
452.70	917.07
453.07	899.21
453.43	879.48
453.80	862.71
454.17	846.74
454.54	831.83
454.91	815.57
455.28	799.17
455.65	784.71
456.02	773.02
456.38	760.07
456.75	743.90
457.12	730.31
457.49	717.43
457.86	703.05
458.23	692.83
458.59	681.14
458.96	668.95
459.33	658.02
459.70	647.14
460.07	638.71
460.43	628.83
460.80	620.02
461.17	612.74
461.54	604.52
461.91	596.17
462.27	587.48
462.64	579.79
463.01	572.90
463.38	566.33
463.74	555.57
464.11	549.05
464.48	543.29
464.85	537.36
465.21	533.00
465.58	528.19
465.95	521.62
466.32	516.64
466.68	511.52
467.05	506.98
467.42	501.95
467.78	496.38
468.15	491.81
468.52	488.24
468.88	482.48
469.25	477.67
469.62	474.71
469.98	471.10
470.35	468.02
470.72	464.12
471.08	459.55
471.45	456.76
471.82	453.95
472.18	450.76
472.55	447.86
472.92	444.17
473.28	441.40
473.65	438.71
474.02	436.10
474.38	433.88
474.75	431.67
475.11	429.48
475.48	428.05
475.85	426.40
476.21	424.33
476.58	423.00
476.94	421.88
477.31	420.36
477.67	419.02
478.04	417.60
478.41	417.21
478.77	418.76
479.14	417.57
479.50	416.86
479.87	416.71
480.23	416.33
480.60	415.81
480.96	415.52
481.33	416.33
481.69	416.45
482.06	416.52
482.42	416.88
482.79	417.50
483.15	417.76
483.52	418.74
483.88	418.98
484.25	419.64
484.61	420.55
484.98	421.19
485.34	422.76
485.71	424.40
486.07	425.52
486.44	424.95
486.80	426.69
487.17	428.17
487.53	430.31
487.90	432.26
488.26	435.24
488.62	438.21
488.99	439.98
489.35	442.79
489.72	445.14
490.08	447.50
490.44	450.29
490.81	453.81
491.17	456.67
491.54	460.79
491.90	464.55
492.26	468.19
492.63	472.14
492.99	475.52
493.36	479.45
493.72	483.74
494.08	488.19
494.45	493.00
494.81	497.95
495.17	502.36
495.54	508.12
495.90	512.40
496.26	517.05
496.63	522.38
496.99	527.57
497.35	533.81
497.72	540.14
498.08	546.26
498.44	552.57
498.80	559.19
499.17	564.93
499.53	570.95
499.89	577.57
500.26	584.19
500.62	591.40
500.98	598.60
501.34	605.26
501.71	612.83
502.07	619.88
502.43	626.33
502.79	633.38
503.16	640.14
503.52	647.10
503.88	653.90
504.24	661.26
504.60	668.83
504.97	676.14
505.33	683.12
505.69	690.93
506.05	698.14
506.41	705.64
506.78	713.48
507.14	721.00
507.50	728.69
507.86	736.12
508.22	743.81
508.59	751.10
508.95	759.83
509.31	768.31
509.67	776.05
510.03	784.38
510.39	791.74
510.75	799.62
511.12	808.79
511.48	816.93
511.84	824.40
512.20	831.79
512.56	839.69
512.92	848.36
513.28	855.48
513.64	863.38
514.00	870.26
514.37	878.24
514.73	886.33
515.09	893.74
515.45	900.62
515.81	907.40
516.17	914.83
516.53	920.38
516.89	925.81
517.25	932.45
517.61	939.48
517.97	946.31
518.33	952.60
518.69	958.86
519.05	965.48
519.41	972.05
519.77	979.64
520.13	985.33
520.49	989.90
520.85	995.86
521.21	1001.93
521.57	1008.26
521.93	1012.62
522.29	1018.02
522.65	1022.86
523.01	1029.40
523.37	1034.45
523.73	1039.29
524.09	1044.93
524.45	1050.69
524.81	1055.17
525.17	1060.17
525.53	1064.67
525.89	1069.45
526.25	1073.76
526.61	1077.40
526.97	1082.19
527.33	1086.19
527.68	1092.55
528.04	1097.64
528.40	1101.81
528.76	1105.67
529.12	1109.43
529.48	1115.19
529.84	1119.14
530.20	1124.02
530.56	1128.17
530.91	1132.64
531.27	1136.86
531.63	1141.88
531.99	1145.50
532.35	1150.26
532.71	1153.50
533.07	1158.29
533.42	1164.81
533.78	1169.05
534.14	1174.31
534.50	1177.74
534.86	1181.86
535.21	1184.55
535.57	1189.29
535.93	1193.24
536.29	1198.19
536.65	1202.76
537.00	1205.43
537.36	1209.17
537.72	1212.88
538.08	1216.40
538.44	1220.07
538.79	1224.07
539.15	1227.14
539.51	1230.88
539.87	1234.79
540.22	1237.98
540.58	1241.64
540.94	1242.29
541.29	1245.38
541.65	1247.19
542.01	1251.74
542.37	1254.19
542.72	1256.57
543.08	1258.76
543.44	1261.48
543.79	1262.02
544.15	1265.33
544.51	1269.43
544.87	1272.36
545.22	1275.60
545.58	1278.48
545.94	1280.83
546.29	1283.48
546.65	1285.67
547.01	1288.14
547.36	1290.52
547.72	1293.64
548.07	1295.98
548.43	1299.24
548.79	1301.19
549.14	1304.33
549.50	1307.05
549.86	1309.38
550.21	1312.57
550.57	1315.50
550.92	1318.33
551.28	1322.21
551.64	1324.95
551.99	1326.90
552.35	1330.38
552.70	1333.05
553.06	1336.14
553.41	1339.62
553.77	1344.26
554.13	1348.05
554.48	1351.95
554.84	1356.29
555.19	1360.74
555.55	1365.71
555.90	1369.86
556.26	1374.10
556.61	1378.79
556.97	1381.71
557.32	1386.31
557.68	1389.81
558.03	1393.88
558.39	1398.26
558.74	1402.62
559.10	1406.33
559.45	1411.36
559.81	1415.79
560.16	1419.36
560.52	1423.79
560.87	1428.45
561.23	1431.10
561.58	1436.79
561.94	1440.74
562.29	1444.50
562.64	1448.86
563.00	1452.90
563.35	1457.62
563.71	1463.00
564.06	1467.50
564.42	1472.74
564.77	1477.98
565.12	1483.71
565.48	1491.36
565.83	1497.40
566.19	1502.83
566.54	1508.29
566.89	1513.26
567.25	1518.43
567.60	1525.71
567.96	1533.60
568.31	1540.60
568.66	1546.64
569.02	1550.38
569.37	1556.21
569.72	1561.60
570.08	1567.69
570.43	1572.64
570.78	1577.55
571.14	1583.31
571.49	1588.57
571.84	1594.38
572.20	1598.88
572.55	1603.48
572.90	1605.76
573.26	1609.62
573.61	1613.67
573.96	1618.02
574.31	1622.29
574.67	1627.24
575.02	1630.36
575.37	1632.24
575.72	1635.10
576.08	1639.29
576.43	1643.33
576.78	1647.12
577.13	1651.21
577.49	1655.02
577.84	1659.17
578.19	1663.43
578.54	1667.21
578.90	1671.26
579.25	1673.55
579.60	1677.00
579.95	1680.29
580.30	1684.14
580.66	1687.98
581.01	1691.76
581.36	1695.05
581.71	1698.74
582.06	1702.26
582.42	1706.24
582.77	1708.81
583.12	1710.83
583.47	1714.00
583.82	1718.07
584.17	1720.76
584.53	1725.38
584.88	1727.67
585.23	1730.86
585.58	1732.02
585.93	1732.95
586.28	1735.36
586.63	1738.48
586.98	1741.43
587.34	1744.74
587.69	1746.74
588.04	1749.43
588.39	1752.62
588.74	1753.81
589.09	1755.60
589.44	1756.07
589.79	1757.83
590.14	1759.38
590.49	1761.12
590.84	1762.10
591.19	1763.74
591.54	1764.79
591.89	1764.71
592.25	1767.64
592.60	1767.67
592.95	1770.36
593.30	1772.57
593.65	1772.90
594.00	1773.07
594.35	1779.95
594.70	1779.60
595.05	1780.71
595.40	1780.67
595.75	1779.50
596.10	1781.88
596.45	1782.83
596.80	1784.67
597.15	1784.52
597.50	1785.48
597.85	1787.93
598.19	1789.02
598.54	1788.64
598.89	1788.93
599.24	1789.00
599.59	1786.98
599.94	1786.90
600.29	1786.38
600.64	1786.52
600.99	1786.88
601.34	1787.76
601.69	1781.24
602.04	1781.57
602.39	1781.74
602.74	1782.14
603.08	1782.17
603.43	1782.24
603.78	1782.05
604.13	1780.60
604.48	1780.33
604.83	1780.38
605.18	1780.05
605.53	1779.02
605.87	1777.88
606.22	1777.45
606.57	1776.17
606.92	1774.86
607.27	1775.60
607.62	1775.26
607.96	1774.52
608.31	1774.19
608.66	1772.07
609.01	1770.40
609.36	1768.95
609.70	1765.74
610.05	1763.90
610.40	1762.86
610.75	1760.14
611.10	1758.21
611.44	1756.02
611.79	1753.64
612.14	1750.62
612.49	1746.62
612.83	1743.69
613.18	1740.98
613.53	1737.86
613.88	1734.55
614.22	1731.95
614.57	1727.36
614.92	1723.12
615.27	1718.62
615.61	1714.07
615.96	1711.24
616.31	1707.86
616.65	1704.83
617.00	1702.40
617.35	1698.26
617.70	1694.05
618.04	1689.52
618.39	1684.81
618.74	1681.29
619.08	1677.14
619.43	1673.48
619.78	1669.38
620.12	1665.76
620.47	1663.07
620.82	1658.55
621.16	1654.21
621.51	1651.05
621.85	1646.31
622.20	1641.93
622.55	1637.45
622.89	1633.55
623.24	1629.83
623.59	1625.74
623.93	1621.36
624.28	1616.95
624.62	1615.02
624.97	1612.57
625.32	1608.52
625.66	1604.31
626.01	1599.71
626.35	1595.40
626.70	1591.86
627.04	1588.95
627.39	1585.00
627.73	1580.86
628.08	1578.00
628.43	1574.05
628.77	1569.38
629.12	1565.98
629.46	1562.95
629.81	1558.12
630.15	1553.48
630.50	1548.43
630.84	1543.88
631.19	1539.17
631.53	1534.40
631.88	1527.10
632.22	1520.19
632.57	1515.71
632.91	1510.83
633.26	1506.95
633.60	1502.10
633.95	1496.24
634.29	1489.79
634.64	1485.12
634.98	1479.07
635.32	1474.98
635.67	1471.02
636.01	1466.57
636.36	1460.93
636.70	1455.60
637.05	1451.55
637.39	1447.17
637.73	1443.00
638.08	1438.86
638.42	1433.69
638.77	1429.40
639.11	1424.83
639.45	1420.07
639.80	1414.81
640.14	1409.76
640.49	1403.38
640.83	1397.64
641.17	1393.17
641.52	1387.74
641.86	1382.00
642.20	1378.05
642.55	1371.17
642.89	1365.14
643.23	1359.00
643.58	1354.79
643.92	1348.76
644.26	1342.76
644.61	1336.88
644.95	1330.21
645.29	1322.95
645.64	1317.98
645.98	1311.45
646.32	1306.21
646.66	1299.71
647.01	1293.62
647.35	1288.07
647.69	1282.69
648.04	1277.81
648.38	1271.48
648.72	1265.93
649.06	1259.43
649.41	1251.93
649.75	1245.48
650.09	1238.95
650.43	1232.31
650.78	1225.17
651.12	1218.33
651.46	1212.02
651.80	1205.33
652.14	1199.64
652.49	1194.50
652.83	1186.40
653.17	1179.21
653.51	1171.21
653.85	1164.90
654.20	1158.40
654.54	1150.71
654.88	1143.81
655.22	1137.60
655.56	1130.12
655.90	1123.45
656.25	1116.71
656.59	1110.43
656.93	1104.26
657.27	1098.81
657.61	1092.31
657.95	1086.05
658.29	1079.76
658.64	1073.93
658.98	1067.26
659.32	1060.21
659.66	1053.19
660.00	1047.62
660.34	1041.67
660.68	1036.26
661.02	1029.79
661.36	1023.57
661.70	1017.71
662.05	1011.45
662.39	1004.71
662.73	999.76
663.07	995.36
663.41	989.98
663.75	983.05
664.09	977.26
664.43	970.29
664.77	964.50
665.11	958.12
665.45	952.43
665.79	946.50
666.13	940.48
666.47	934.21
666.81	928.31
667.15	921.88
667.49	916.60
667.83	911.17
668.17	905.90
668.51	900.40
668.85	895.60
669.19	891.43
669.53	884.95
669.87	878.33
670.21	871.02
670.55	865.12
670.89	860.43
671.23	854.45
671.57	849.55
671.91	843.86
672.25	838.33
672.58	833.24
672.92	827.29
673.26	822.19
673.60	816.83
673.94	812.14
674.28	807.62
674.62	802.45
674.96	797.05
675.30	792.31
675.64	786.90
675.97	781.07
676.31	774.81
676.65	770.12
676.99	766.48
677.33	761.64
677.67	757.36
678.01	752.02
678.34	747.43
678.68	742.40
679.02	737.07
679.36	731.95
679.70	727.05
680.04	722.21
680.37	717.17
680.71	712.40
681.05	707.45
681.39	702.76
681.73	697.83
682.06	693.31
682.40	688.50
682.74	683.86
683.08	680.14
683.42	675.31
683.75	671.00
684.09	665.38
684.43	660.52
684.77	655.12
685.10	650.86
685.44	646.36
685.78	641.79
686.12	637.79
686.45	633.52
686.79	628.95
687.13	625.45
687.46	621.31
687.80	617.69
688.14	613.36
688.48	609.29
688.81	605.45
689.15	601.50
689.49	596.90
689.82	592.81
690.16	587.93
690.50	584.12
690.83	579.83
691.17	575.26
691.51	571.57
691.84	567.31
692.18	563.17
692.52	559.26
692.85	555.60
693.19	552.62
693.52	548.69
693.86	544.14
694.20	539.64
694.53	536.12
694.87	532.05
695.21	527.86
695.54	523.81
695.88	519.62
696.21	514.86
696.55	511.45
696.88	507.81
697.22	504.38
697.56	501.24
697.89	497.93
698.23	495.05
698.56	491.29
698.90	488.24
699.23	484.83
699.57	481.24
699.90	477.31
700.24	473.33
700.58	470.60
700.91	468.12
701.25	466.83
701.58	464.45
701.92	462.21
702.25	459.33
702.59	456.12
702.92	453.69
703.26	451.40
703.59	448.69
703.93	447.71
704.26	445.38
704.60	442.43
704.93	439.38
705.26	436.60
705.60	434.38
705.93	431.50
706.27	429.45
706.60	427.12
706.94	425.69
707.27	422.79
707.61	419.90
707.94	417.17
708.27	413.12
708.61	409.90
708.94	406.76
709.28	404.57
709.61	402.29
709.94	399.71
710.28	397.52
710.61	395.00
710.95	391.00
711.28	389.74
711.61	387.31
711.95	385.74
712.28	383.24
712.61	380.93
712.95	379.88
713.28	378.29
713.61	376.10
713.95	373.17
714.28	371.36
714.61	369.67
714.95	367.69
715.28	365.52
715.61	363.38
715.95	361.55
716.28	359.36
716.61	357.74
716.95	355.81
717.28	353.86
717.61	352.36
717.94	350.76
718.28	347.67
718.61	345.79
718.94	343.55
719.27	341.71
719.61	340.10
719.94	338.05
720.27	335.40
720.60	333.81
720.94	332.62
721.27	330.98
721.60	329.71
721.93	328.29
722.27	327.67
722.60	326.67
722.93	325.26
723.26	324.26
723.59	322.60
723.93	321.26
724.26	320.17
724.59	318.60
724.92	317.29
725.25	316.52
725.59	315.17
725.92	314.31
726.25	313.52
726.58	312.36
726.91	310.90
727.24	310.17
727.57	309.10
727.91	307.50
728.24	306.81
728.57	305.33
728.90	304.36
729.23	302.40
729.56	301.95
729.89	300.79
730.22	299.55
730.55	298.64
730.89	297.62
731.22	296.50
731.55	295.48
731.88	294.83
732.21	293.60
732.54	292.81
732.87	291.79
733.20	290.67
733.53	289.74
733.86	288.90
734.19	287.79
734.52	287.29
734.85	287.86
735.18	286.48
735.51	286.26
735.84	285.86
736.17	285.81
736.50	284.02
736.83	285.67
737.16	284.86
737.49	284.19
737.82	283.50
738.15	282.71
738.48	282.10
738.81	280.93
739.14	279.98
739.47	279.00
739.80	278.19
740.13	277.71
740.46	276.67
740.79	275.83
741.12	274.88
741.45	273.79
741.78	271.79
742.11	271.93
742.44	271.14
742.77	270.29
743.10	269.02
743.43	268.45
743.75	265.62
744.08	267.71
744.41	266.83
744.74	265.93
745.07	265.29
745.40	265.02
745.73	265.21
746.06	264.31
746.39	264.38
746.71	263.48
747.04	262.69
747.37	262.14
747.70	262.10
748.03	261.81
748.36	261.52
748.68	260.88
749.01	259.50
749.34	258.64
749.67	258.17
750.00	257.98
750.33	258.81
750.65	258.60
750.98	255.57
751.31	255.10
751.64	254.48
751.97	255.10
752.29	254.48
752.62	253.17
752.95	252.64
753.28	251.71
753.60	251.52
753.93	251.60
754.26	251.29
754.59	249.95
754.91	249.14
755.24	248.57
755.57	248.24
755.90	247.98
756.22	247.43
756.55	246.76
756.88	245.88
757.20	244.14
757.53	242.90
757.86	242.48
758.19	242.24
758.51	242.00
758.84	240.43
759.17	239.57
759.49	239.17
759.82	240.07
760.15	240.00
760.47	239.60
760.80	238.64
761.13	238.69
761.45	238.40
761.78	238.24
762.11	237.98
762.43	237.62
762.76	237.00
763.08	237.00
763.41	236.83
763.74	236.74
764.06	236.62
764.39	236.57
764.71	236.21
765.04	235.83
765.37	235.71
765.69	235.45
766.02	235.38
766.34	235.05
766.67	233.67
767.00	233.52
767.32	234.26
767.65	235.38
767.97	234.81
768.30	234.76
768.62	234.38
768.95	233.71
769.27	233.38
769.60	233.67
769.92	233.12
770.25	232.38
770.57	231.67
770.90	231.29
771.22	230.71
771.55	230.48
771.87	230.21
772.20	229.88
772.52	231.31
772.85	233.45
773.17	233.31
773.50	233.02
773.82	232.48
774.15	231.43
774.47	229.95
774.80	229.76
775.12	229.48
775.45	229.31
775.77	229.29
776.09	229.36
776.42	229.02
776.74	229.40
777.07	229.48
777.39	229.81
777.72	229.55
778.04	229.83
778.36	229.62
778.69	229.55
779.01	229.76
779.33	227.76
779.66	225.38
779.98	225.36
780.31	225.48
780.63	226.45
780.95	226.69
781.28	226.43
781.60	226.00
781.92	226.05
782.25	226.02
782.57	225.86
782.89	225.33
783.22	225.05
783.54	224.33
783.86	224.40
784.19	223.93
784.51	224.55
784.83	224.12
785.16	224.02
785.48	223.93
785.80	223.79
786.12	224.07
786.45	223.98
786.77	223.86
787.09	223.69
787.42	222.55
787.74	222.21
788.06	222.24
788.38	222.26
788.71	221.81
789.03	221.86
789.35	222.05
789.67	221.98
789.99	221.98
790.32	221.83
790.64	222.10
790.96	223.86
791.28	223.12
791.61	222.81
791.93	222.74
792.25	222.79
792.57	223.88
792.89	223.31
793.21	223.36
793.54	222.98
793.86	222.64
794.18	222.86
794.50	222.69
794.82	222.88
795.14	223.00
795.47	223.31
795.79	222.98
796.11	222.57
796.43	222.55
796.75	222.83
797.07	223.00
797.39	222.57
797.71	221.00
798.04	220.95
798.36	221.33
798.68	221.26
799.00	221.10
799.32	219.79
799.64	220.26
799.96	220.02
800.28	220.57
800.60	220.69
800.92	220.64
801.24	220.33
801.56	220.24
801.89	220.07
802.21	220.19
802.53	220.05
802.85	220.38
803.17	221.45
803.49	220.81
803.81	220.50
804.13	220.33
804.45	220.10
804.77	220.19
805.09	220.07
805.41	219.98
805.73	219.74
806.05	219.33
806.37	219.33
806.69	219.21
807.01	218.79
807.33	218.74
807.65	218.05
807.97	218.74
808.28	218.52
808.60	218.52
808.92	218.29
809.24	219.62
809.56	219.33
809.88	218.14
810.20	218.38
810.52	218.79
810.84	218.55
811.16	218.29
811.48	218.00
811.80	218.79
812.12	218.88
812.43	219.10
812.75	219.55
813.07	219.07
813.39	219.29
813.71	219.12
814.03	219.02
814.35	219.12
814.67	218.43
814.98	218.02
815.30	217.83
815.62	217.33
815.94	215.93
816.26	215.90
816.58	215.74
816.89	215.86
817.21	215.55
817.53	215.69
817.85	215.83
818.17	215.88
818.48	214.81
818.80	215.00
819.12	214.60
819.44	214.14
819.76	213.95
820.07	213.93
820.39	213.95
820.71	214.07
821.03	214.07
821.34	213.90
821.66	214.45
821.98	214.74
822.30	214.76
822.61	216.02
822.93	215.79
823.25	215.74
823.57	215.52
823.88	216.00
824.20	215.81
824.52	215.95
824.83	215.64
825.15	215.57
825.47	215.31
825.79	215.69
826.10	215.31
826.42	215.12
826.74	215.38
827.05	215.24
827.37	215.43
827.69	215.45
828.00	215.60
828.32	215.52
828.64	215.14
828.95	216.43
829.27	215.86
829.58	215.98
829.90	216.38
830.22	216.64
830.53	215.74
830.85	215.69
831.17	215.48
831.48	215.71
831.80	215.86
832.11	215.67
832.43	215.36
832.75	215.50
833.06	216.64
833.38	215.79
833.69	215.93
834.01	215.83
834.32	215.76
834.64	215.57
834.96	215.74
835.27	215.76
835.59	215.02
835.90	214.38
836.22	214.38
836.53	213.83
836.85	213.29
837.16	215.48
837.48	215.50
837.79	215.93
838.11	216.10
838.42	216.02
838.74	216.43
839.05	216.12
839.37	216.00
839.68	214.74
840.00	214.95
840.31	215.05
840.63	214.79
840.94	214.60
841.26	214.57
841.57	214.40
841.88	214.55
842.20	214.19
842.51	214.12
842.83	214.29
843.14	216.26
843.46	216.45
843.77	215.29
844.08	215.43
844.40	214.76
844.71	214.55
845.03	214.45
845.34	214.45
845.65	214.60
845.97	214.67
846.28	215.14
846.60	215.29
846.91	215.05
847.22	215.05
847.54	215.64
847.85	215.57
848.16	215.26
848.48	214.98
848.79	215.76
849.10	216.00
849.42	215.79
849.73	213.98
850.04	213.86
850.36	213.14
850.67	213.33
850.98	213.50
851.30	213.57
851.61	213.71
851.92	213.45
852.23	214.12
852.55	214.36
852.86	214.29
853.17	214.40
853.49	214.98
853.80	215.43
854.11	215.33
854.42	215.69
854.74	215.60
855.05	215.64
855.36	214.64
855.67	214.64
855.99	214.81
856.30	217.21
856.61	217.10
856.92	217.05
857.23	217.10
857.55	217.00
857.86	216.95
858.17	217.05
858.48	216.90
858.79	216.40
859.11	216.55
859.42	216.33
859.73	216.02
860.04	215.67
860.35	215.00
860.66	214.55
860.98	214.38
861.29	214.52
861.60	214.33
861.91	214.83
862.22	214.52
862.53	214.26
862.84	211.86
863.16	212.33
863.47	212.05
863.78	211.71
864.09	211.74
864.40	211.93
864.71	211.86
865.02	212.00
865.33	211.88
865.64	211.57
865.95	211.60
866.27	212.83
866.58	212.67
866.89	213.02
867.20	213.02
867.51	212.98
867.82	213.00
868.13	213.81
868.44	213.38
868.75	213.88
869.06	213.83
869.37	213.81
869.68	213.29
869.99	213.67
870.30	213.62
870.61	213.88
870.92	213.40
871.23	213.29
871.54	213.55
871.85	214.19
872.16	214.33
872.47	214.29
872.78	213.05
873.09	213.21
873.40	212.88
873.71	212.88
874.02	212.90
874.33	212.69
874.64	212.07
874.95	212.45
875.26	211.93
875.56	211.83
875.87	212.10
876.18	212.14
876.49	214.14
876.80	214.19
877.11	213.57
877.42	213.83
877.73	214.05
878.04	213.81
878.35	213.50
878.66	213.45
878.96	213.26
879.27	213.40
879.58	213.33
879.89	213.29
880.20	213.88
880.51	213.64
880.82	213.57
881.12	213.81
881.43	213.29
881.74	213.12
882.05	213.24
882.36	213.24
882.67	213.38
882.97	211.26
883.28	210.95
883.59	211.19
883.90	211.36
884.21	211.62
884.51	211.29
884.82	210.95
885.13	210.93
885.44	210.93
885.74	211.14
886.05	210.69
886.36	210.86
886.67	209.98
886.98	211.14
887.28	211.45
887.59	211.31
887.90	211.48
888.20	211.36
888.51	211.50
888.82	211.12
889.13	211.43
889.43	213.10
889.74	213.12
890.05	212.88
890.35	212.55
890.66	212.33
890.97	212.45
891.28	212.29
891.58	212.43
891.89	212.50
892.20	212.07
892.50	212.05
892.81	211.95
893.12	211.90
893.42	210.79
893.73	210.71
894.04	210.86
894.34	211.17
894.65	211.31
894.95	210.95
895.26	211.21
895.57	211.81
895.87	209.93
896.18	210.38
896.48	210.64
896.79	210.71
897.10	210.90
897.40	210.83
897.71	211.19
898.01	210.98
898.32	211.26
898.63	211.31
898.93	211.76
899.24	211.81
899.54	211.98
899.85	212.07
900.15	211.90
900.46	211.83
900.76	211.95
901.07	211.98
901.38	212.31
901.68	212.45
901.99	211.55
902.29	211.71
902.60	211.76
902.90	211.69
903.21	211.57
903.51	211.26
903.82	211.71
904.12	211.79
904.43	211.83
904.73	211.71
905.03	211.69
905.34	213.43
905.64	213.36
905.95	213.36
906.25	213.19
906.56	213.21
906.86	213.24
907.17	213.02
907.47	213.17
907.77	212.93
908.08	212.50
908.38	212.64
908.69	212.83
908.99	212.95
909.30	213.17
909.60	213.29
909.90	213.60
910.21	213.19
910.51	212.69
910.81	212.93
911.12	213.14
911.42	213.14
911.73	211.12
912.03	211.26
912.33	211.60
912.64	211.81
912.94	211.69
913.24	211.50
913.55	211.24
913.85	211.02
914.15	211.57
914.46	211.81
914.76	211.40
915.06	211.02
915.37	210.60
915.67	210.45
915.97	210.67
916.27	210.02
916.58	209.90
916.88	209.86
917.18	209.60
917.49	210.86
917.79	210.86
918.09	211.21
918.39	211.57
918.70	211.48
919.00	211.50
919.30	212.62
919.60	212.29
919.91	212.19
920.21	212.43
920.51	211.67
920.81	211.48
921.12	212.10
921.42	212.12
921.72	212.38
922.02	212.43
922.32	212.57
922.63	212.67
922.93	213.71
923.23	213.98
923.53	213.71
923.83	212.36
924.13	212.36
924.44	212.29
924.74	212.57
925.04	213.17
925.34	212.98
925.64	212.17
925.94	212.52
926.24	213.55
926.55	213.38
926.85	213.88
927.15	213.93
927.45	214.00
927.75	214.24
928.05	214.02
928.35	213.88
928.65	214.10
928.95	214.40
929.26	213.79
929.56	213.98
929.86	214.29
930.16	213.90
930.46	213.83
930.76	213.86
931.06	213.07
931.36	212.29
931.66	212.64
931.96	212.67
932.26	212.57
932.56	211.69
932.86	211.93
933.16	212.12
933.46	212.00
933.76	211.55
934.06	211.83
934.36	212.57
934.66	212.69
934.96	212.40
935.26	212.48
935.56	212.57
935.86	212.31
936.16	211.88
936.46	211.86
936.76	211.88
937.06	211.69
937.36	211.79
937.66	212.05
937.96	211.93
938.26	211.55
938.56	211.60
938.86	211.95
939.16	212.36
939.46	212.33
939.76	212.43
940.06	212.21
940.35	211.86
940.65	210.76
940.95	210.74
941.25	210.26
941.55	209.98
941.85	210.02
942.15	210.48
942.45	211.29
942.75	211.14
943.04	211.31
943.34	211.74
943.64	211.74
943.94	211.38
944.24	211.55
944.54	211.95
944.84	211.81
945.13	211.50
945.43	211.14
945.73	211.12
946.03	211.10
946.33	211.17
946.62	211.10
946.92	211.29
947.22	211.38
947.52	211.64
947.82	211.86
948.11	211.40
948.41	210.95
948.71	210.48
949.01	210.93
949.31	210.64
949.60	210.52
949.90	210.64
950.20	210.67
950.50	210.52
950.79	210.12
951.09	210.57
951.39	210.71
951.69	210.17
951.98	210.26
952.28	210.38
952.58	210.24
952.87	210.00
953.17	210.19
953.47	210.00
953.76	210.02
954.06	209.67
954.36	209.43
954.66	209.31
954.95	209.98
955.25	209.93
955.55	210.21
955.84	209.79
956.14	209.83
956.44	209.86
956.73	209.67
957.03	209.71
957.32	209.57
957.62	209.38
957.92	209.90
958.21	209.86
958.51	212.17
958.81	212.52
959.10	213.00
959.40	213.60
959.69	213.67
959.99	213.95
960.29	214.05
960.58	214.12
960.88	215.07
961.17	214.55
961.47	214.83
961.76	214.55
962.06	215.02
962.36	214.74
962.65	214.98
962.95	214.90
963.24	214.98
963.54	214.83
963.83	214.88
964.13	214.88
964.42	214.36
964.72	212.69
965.01	212.69
965.31	212.52
965.60	211.81
965.90	213.48
966.19	212.95
966.49	213.05
966.78	213.19
967.08	212.93
967.37	213.17
967.67	212.81
967.96	213.43
968.26	213.29
968.55	213.67
968.85	213.40
969.14	213.33
969.43	213.33
969.73	213.50
970.02	213.31
970.32	213.12
970.61	212.98
970.91	212.19
971.20	211.98
971.49	211.81
971.79	212.07
972.08	210.36
972.38	210.33
972.67	210.21
972.96	210.31
973.26	210.02
973.55	210.29
973.85	210.33
974.14	209.90
974.43	210.10
974.73	209.79
975.02	209.86
975.31	210.00
975.61	209.83
975.90	209.48
976.19	209.45
976.49	209.52
976.78	209.93
977.07	210.05
977.37	210.17
977.66	210.43
977.95	210.19
978.24	210.17
978.54	210.71
978.83	210.50
979.12	210.43
979.42	210.52
979.71	210.29
980.00	210.05
980.29	210.19
980.59	209.81
980.88	210.31
981.17	210.05
981.46	210.02
981.76	209.98
982.05	210.79
982.34	211.05
982.63	211.33
982.93	211.19
983.22	211.86
983.51	211.76
983.80	212.07
984.09	212.24
984.39	212.19
984.68	211.95
984.97	212.05
985.26	212.00
985.55	212.07
985.85	211.57
986.14	211.90
986.43	212.10
986.72	211.98
987.01	211.52
987.30	211.62
987.59	211.52
987.89	211.81
988.18	210.95
988.47	210.67
988.76	210.40
989.05	210.38
989.34	209.71
989.63	210.38
989.92	210.00
990.22	209.83
990.51	209.88
990.80	209.90
991.09	210.14
991.38	210.31
991.67	210.02
991.96	209.98
992.25	210.19
992.54	209.62
992.83	209.76
993.12	209.83
993.41	210.14
993.70	210.79
993.99	211.00
994.28	211.45
994.58	211.57
994.87	211.45
995.16	211.33
995.45	211.33
995.74	210.71
996.03	211.05
996.32	211.43
996.61	211.90
996.90	211.55
997.19	211.45
997.48	211.45
997.77	211.24
998.06	211.24
998.34	210.93
998.63	211.10
998.92	211.19
999.21	211.21
999.50	211.36
999.79	210.71
1000.08	210.60
1000.37	210.43
1000.66	210.26
1000.95	210.95
1001.24	211.14
1001.53	211.43
1001.82	211.17
1002.11	210.48
1002.40	210.79
1002.68	211.02
1002.97	212.64
1003.26	212.62
1003.55	212.36
1003.84	212.74
1004.13	213.55
1004.42	213.40
1004.71	213.52
1004.99	213.17
1005.28	213.64
1005.57	213.40
1005.86	213.52
1006.15	213.36
1006.44	213.10
1006.72	213.48
1007.01	212.74
1007.30	212.74
1007.59	212.55
1007.88	212.62
1008.17	212.95
1008.45	212.50
1008.74	211.67
1009.03	210.64
1009.32	210.50
1009.60	210.38
1009.89	210.05
1010.18	209.29
1010.47	209.21
1010.76	208.93
1011.04	208.95
1011.33	208.93
1011.62	209.24
1011.91	209.19
1012.19	209.38
1012.48	209.55
1012.77	209.52
1013.05	210.57
1013.34	210.67
1013.63	210.36
1013.92	210.40
1014.20	210.17
1014.49	210.21
1014.78	210.55
1015.06	209.88
1015.35	209.88
1015.64	210.33
1015.92	210.71
1016.21	210.74
1016.50	210.93
1016.78	211.43
1017.07	211.48
1017.36	211.10
1017.64	210.57
1017.93	210.74
1018.22	210.62
1018.50	210.50
1018.79	210.38
1019.08	209.50
1019.36	209.52
1019.65	209.52
1019.93	210.05
1020.22	210.43
1020.51	211.10
1020.79	210.79
1021.08	209.00
1021.36	207.00
1021.65	210.00
1021.94	211.00
1022.22	212.50
1022.51	205.50
1022.79	217.50
1023.08	213.50
1023.36	229.00
1023.65	204.50
>>>>>End Processed Spectral Data<<<<<
