SpectraSuite Data File
++++++++++++++++++++++++++++++++++++
Date: Tue Apr 02 18:39:53 EDT 2013
User: group
Dark Spectrum Present: No
Reference Spectrum Present: No
Number of Sampled Component Spectra: 1
Spectrometers: USB2E7196
Integration Time (usec): 580000 (USB2E7196)
Spectra Averaged: 2 (USB2E7196)
Boxcar Smoothing: 10 (USB2E7196)
Correct for Electrical Dark: No (USB2E7196)
Strobe/Lamp Enabled: No (USB2E7196)
Correct for Detector Non-linearity: No (USB2E7196)
Correct for Stray Light: No (USB2E7196)
Number of Pixels in Processed Spectrum: 2048
>>>>>Begin Processed Spectral Data<<<<<
339.09	0.00
339.48	194.00
339.86	194.50
340.24	193.00
340.63	196.50
341.01	228.50
341.39	201.50
341.78	204.50
342.16	208.00
342.54	204.50
342.93	196.40
343.31	206.24
343.69	206.98
344.07	207.50
344.46	208.48
344.84	209.12
345.22	208.38
345.60	208.95
345.99	209.43
346.37	209.52
346.75	209.69
347.13	209.79
347.52	210.40
347.90	211.48
348.28	211.64
348.66	212.38
349.05	211.86
349.43	212.12
349.81	212.43
350.19	212.48
350.57	212.90
350.96	213.31
351.34	213.76
351.72	213.86
352.10	214.07
352.48	213.93
352.87	213.86
353.25	213.86
353.63	213.86
354.01	213.74
354.39	214.00
354.77	214.10
355.15	214.90
355.54	214.79
355.92	214.00
356.30	214.14
356.68	215.33
357.06	215.83
357.44	215.57
357.82	215.26
358.20	216.38
358.58	216.31
358.97	216.24
359.35	216.33
359.73	216.74
360.11	216.88
360.49	217.10
360.87	217.36
361.25	217.55
361.63	218.10
362.01	218.33
362.39	218.14
362.77	218.43
363.15	218.19
363.53	217.95
363.91	218.26
364.29	218.17
364.67	216.24
365.05	216.05
365.43	216.38
365.81	216.74
366.19	216.74
366.57	217.40
366.95	217.19
367.33	217.05
367.71	216.67
368.09	217.05
368.47	217.10
368.85	217.02
369.23	217.38
369.61	216.62
369.99	217.02
370.37	217.24
370.75	218.10
371.13	217.69
371.51	217.62
371.89	217.60
372.27	217.83
372.65	218.05
373.03	218.10
373.41	217.86
373.78	217.90
374.16	216.79
374.54	216.02
374.92	216.07
375.30	215.79
375.68	215.76
376.06	215.55
376.44	215.10
376.82	215.07
377.19	214.90
377.57	215.00
377.95	214.38
378.33	214.26
378.71	213.17
379.09	213.26
379.47	213.50
379.84	213.38
380.22	213.10
380.60	212.50
380.98	212.21
381.36	212.36
381.73	212.00
382.11	212.33
382.49	212.40
382.87	211.93
383.25	211.90
383.62	214.40
384.00	214.19
384.38	214.36
384.76	215.00
385.13	215.74
385.51	215.71
385.89	215.33
386.27	215.45
386.64	215.74
387.02	215.67
387.40	215.38
387.78	215.40
388.15	215.60
388.53	215.67
388.91	215.88
389.29	215.50
389.66	215.95
390.04	215.86
390.42	216.33
390.79	216.81
391.17	216.83
391.55	214.57
391.92	214.64
392.30	215.14
392.68	214.55
393.05	214.17
393.43	214.05
393.81	214.40
394.18	214.10
394.56	214.26
394.94	214.88
395.31	214.76
395.69	215.43
396.06	215.55
396.44	215.74
396.82	215.52
397.19	216.69
397.57	216.40
397.95	216.76
398.32	216.24
398.70	216.40
399.07	217.10
399.45	216.88
399.82	216.79
400.20	216.43
400.58	216.24
400.95	215.57
401.33	216.05
401.70	217.64
402.08	217.57
402.45	217.31
402.83	217.45
403.20	217.69
403.58	217.52
403.95	217.90
404.33	218.43
404.71	218.76
405.08	220.12
405.46	220.60
405.83	220.95
406.21	221.38
406.58	221.86
406.96	222.10
407.33	222.88
407.70	223.83
408.08	226.12
408.45	227.26
408.83	228.45
409.20	229.02
409.58	228.60
409.95	230.00
410.33	231.14
410.70	231.62
411.08	233.02
411.45	234.07
411.82	235.29
412.20	236.86
412.57	239.38
412.95	238.86
413.32	240.29
413.69	241.86
414.07	243.48
414.44	245.21
414.82	247.33
415.19	249.81
415.56	252.21
415.94	253.52
416.31	256.45
416.68	259.62
417.06	263.07
417.43	266.76
417.81	270.43
418.18	274.40
418.55	278.64
418.93	282.81
419.30	287.69
419.67	292.21
420.04	297.10
420.42	301.81
420.79	309.62
421.16	315.83
421.54	323.17
421.91	329.86
422.28	336.52
422.66	343.88
423.03	352.29
423.40	359.79
423.77	367.62
424.15	375.40
424.52	383.81
424.89	393.10
425.26	401.57
425.64	409.90
426.01	418.69
426.38	427.88
426.75	438.33
427.13	448.40
427.50	458.98
427.87	469.26
428.24	480.07
428.61	489.62
428.99	502.33
429.36	513.81
429.73	525.90
430.10	538.05
430.47	550.90
430.85	562.31
431.22	575.62
431.59	591.36
431.96	605.19
432.33	620.21
432.70	635.60
433.08	652.93
433.45	669.62
433.82	686.60
434.19	705.29
434.56	723.67
434.93	740.38
435.30	757.57
435.68	776.98
436.05	795.88
436.42	813.81
436.79	830.55
437.16	849.05
437.53	869.05
437.90	889.10
438.27	908.48
438.64	928.57
439.01	947.83
439.38	963.67
439.75	979.52
440.13	997.88
440.50	1013.93
440.87	1027.76
441.24	1042.31
441.61	1058.76
441.98	1070.21
442.35	1082.90
442.72	1097.12
443.09	1112.14
443.46	1120.33
443.83	1126.26
444.20	1132.14
444.57	1138.57
444.94	1142.05
445.31	1146.40
445.68	1152.24
446.05	1153.02
446.42	1151.14
446.79	1148.67
447.16	1146.07
447.53	1146.26
447.90	1139.14
448.27	1132.60
448.64	1123.21
449.01	1116.40
449.37	1103.10
449.74	1091.76
450.11	1079.00
450.48	1062.60
450.85	1045.00
451.22	1031.10
451.59	1017.86
451.96	1004.79
452.33	987.83
452.70	972.40
453.07	953.02
453.43	931.79
453.80	914.60
454.17	897.71
454.54	881.36
454.91	863.55
455.28	845.10
455.65	828.79
456.02	816.31
456.38	802.95
456.75	786.14
457.12	772.31
457.49	758.38
457.86	743.29
458.23	732.69
458.59	719.74
458.96	707.26
459.33	695.55
459.70	684.07
460.07	674.83
460.43	664.57
460.80	655.12
461.17	647.17
461.54	637.43
461.91	628.43
462.27	619.71
462.64	612.10
463.01	603.98
463.38	597.02
463.74	585.26
464.11	577.45
464.48	571.48
464.85	564.69
465.21	559.62
465.58	554.50
465.95	547.17
466.32	541.50
466.68	535.55
467.05	530.17
467.42	524.76
467.78	519.02
468.15	513.40
468.52	509.64
468.88	503.31
469.25	498.76
469.62	495.50
469.98	491.36
470.35	487.79
470.72	483.79
471.08	478.86
471.45	475.93
471.82	473.21
472.18	468.62
472.55	465.62
472.92	461.74
473.28	458.21
473.65	455.50
474.02	452.93
474.38	450.83
474.75	448.69
475.11	445.98
475.48	444.29
475.85	442.55
476.21	440.48
476.58	439.12
476.94	437.64
477.31	435.79
477.67	434.38
478.04	432.90
478.41	432.21
478.77	433.07
479.14	431.81
479.50	430.86
479.87	431.19
480.23	430.86
480.60	430.24
480.96	429.95
481.33	430.33
481.69	430.29
482.06	430.26
482.42	430.71
482.79	431.38
483.15	432.10
483.52	433.29
483.88	433.74
484.25	434.43
484.61	435.43
484.98	436.74
485.34	438.40
485.71	440.14
486.07	441.83
486.44	442.19
486.80	444.24
487.17	445.98
487.53	448.31
487.90	450.67
488.26	454.26
488.62	457.17
488.99	459.52
489.35	462.71
489.72	465.69
490.08	468.57
490.44	471.29
490.81	474.64
491.17	477.64
491.54	481.12
491.90	485.52
492.26	489.26
492.63	493.05
492.99	496.93
493.36	501.52
493.72	506.24
494.08	510.83
494.45	516.17
494.81	521.33
495.17	525.98
495.54	531.52
495.90	536.38
496.26	541.71
496.63	547.79
496.99	553.67
497.35	559.90
497.72	566.67
498.08	573.60
498.44	580.40
498.80	587.12
499.17	594.31
499.53	601.26
499.89	608.83
500.26	616.05
500.62	623.50
500.98	631.19
501.34	638.52
501.71	646.57
502.07	653.93
502.43	661.79
502.79	669.88
503.16	678.12
503.52	686.07
503.88	694.55
504.24	702.62
504.60	711.05
504.97	719.88
505.33	728.21
505.69	737.76
506.05	746.74
506.41	755.95
506.78	764.17
507.14	771.95
507.50	780.21
507.86	789.43
508.22	798.62
508.59	806.52
508.95	815.60
509.31	825.26
509.67	833.55
510.03	842.76
510.39	851.48
510.75	859.88
511.12	868.98
511.48	877.71
511.84	886.07
512.20	895.02
512.56	903.43
512.92	911.43
513.28	919.52
513.64	927.43
514.00	935.45
514.37	943.81
514.73	952.40
515.09	962.10
515.45	970.31
515.81	978.19
516.17	986.00
516.53	993.74
516.89	1000.38
517.25	1008.74
517.61	1016.88
517.97	1024.88
518.33	1032.55
518.69	1040.12
519.05	1047.86
519.41	1055.86
519.77	1064.43
520.13	1071.76
520.49	1078.90
520.85	1085.95
521.21	1093.86
521.57	1101.31
521.93	1107.67
522.29	1114.76
522.65	1119.62
523.01	1126.05
523.37	1132.10
523.73	1139.55
524.09	1145.36
524.45	1152.10
524.81	1158.50
525.17	1164.21
525.53	1169.81
525.89	1175.60
526.25	1181.64
526.61	1186.98
526.97	1192.93
527.33	1197.67
527.68	1205.10
528.04	1211.26
528.40	1216.45
528.76	1221.50
529.12	1227.40
529.48	1234.26
529.84	1239.69
530.20	1246.43
530.56	1251.71
530.91	1258.07
531.27	1263.48
531.63	1270.02
531.99	1274.69
532.35	1280.10
532.71	1285.14
533.07	1291.52
533.42	1299.12
533.78	1304.36
534.14	1310.40
534.50	1315.90
534.86	1321.64
535.21	1325.24
535.57	1330.52
535.93	1335.36
536.29	1341.43
536.65	1346.52
537.00	1351.36
537.36	1357.21
537.72	1362.33
538.08	1367.83
538.44	1371.48
538.79	1376.40
539.15	1380.69
539.51	1386.05
539.87	1390.48
540.22	1395.02
540.58	1399.17
540.94	1401.36
541.29	1405.24
541.65	1408.69
542.01	1412.36
542.37	1416.14
542.72	1419.98
543.08	1423.12
543.44	1427.40
543.79	1429.50
544.15	1433.26
544.51	1437.43
544.87	1440.74
545.22	1444.88
545.58	1448.17
545.94	1452.52
546.29	1456.55
546.65	1460.26
547.01	1463.83
547.36	1467.67
547.72	1471.76
548.07	1475.07
548.43	1478.38
548.79	1482.55
549.14	1486.02
549.50	1490.62
549.86	1493.29
550.21	1496.64
550.57	1501.36
550.92	1504.64
551.28	1508.81
551.64	1511.81
551.99	1514.62
552.35	1518.79
552.70	1521.67
553.06	1525.76
553.41	1528.95
553.77	1533.88
554.13	1538.24
554.48	1543.50
554.84	1547.83
555.19	1551.95
555.55	1557.50
555.90	1562.17
556.26	1565.98
556.61	1570.62
556.97	1573.36
557.32	1578.00
557.68	1582.10
558.03	1586.33
558.39	1591.36
558.74	1595.81
559.10	1600.86
559.45	1606.14
559.81	1610.24
560.16	1614.05
560.52	1618.26
560.87	1623.86
561.23	1627.52
561.58	1633.40
561.94	1636.40
562.29	1640.17
562.64	1644.74
563.00	1648.05
563.35	1652.60
563.71	1657.93
564.06	1662.69
564.42	1668.00
564.77	1673.26
565.12	1679.83
565.48	1686.57
565.83	1691.88
566.19	1697.29
566.54	1702.05
566.89	1707.40
567.25	1713.55
567.60	1719.64
567.96	1726.64
568.31	1732.02
568.66	1736.14
569.02	1738.57
569.37	1743.17
569.72	1748.76
570.08	1752.48
570.43	1755.76
570.78	1760.90
571.14	1764.48
571.49	1768.62
571.84	1773.05
572.20	1776.05
572.55	1778.95
572.90	1780.26
573.26	1783.33
573.61	1784.95
573.96	1787.60
574.31	1789.38
574.67	1790.98
575.02	1793.31
575.37	1793.29
575.72	1794.67
576.08	1798.19
576.43	1799.74
576.78	1801.62
577.13	1802.43
577.49	1804.38
577.84	1808.10
578.19	1809.90
578.54	1812.57
578.90	1814.48
579.25	1815.36
579.60	1816.81
579.95	1817.88
580.30	1819.33
580.66	1821.33
581.01	1823.88
581.36	1824.45
581.71	1826.36
582.06	1828.19
582.42	1829.26
582.77	1830.26
583.12	1831.17
583.47	1830.83
583.82	1832.29
584.17	1833.29
584.53	1835.00
584.88	1835.38
585.23	1835.05
585.58	1834.48
585.93	1833.00
586.28	1833.36
586.63	1834.02
586.98	1834.40
587.34	1834.98
587.69	1833.74
588.04	1831.55
588.39	1830.79
588.74	1829.64
589.09	1828.55
589.44	1825.93
589.79	1824.33
590.14	1823.88
590.49	1822.12
590.84	1821.02
591.19	1820.00
591.54	1818.69
591.89	1816.52
592.25	1817.48
592.60	1815.76
592.95	1814.71
593.30	1813.64
593.65	1811.40
594.00	1808.19
594.35	1812.00
594.70	1808.19
595.05	1806.55
595.40	1804.64
595.75	1802.79
596.10	1801.90
596.45	1799.50
596.80	1798.40
597.15	1797.36
597.50	1794.69
597.85	1793.52
598.19	1791.31
598.54	1789.10
598.89	1786.74
599.24	1784.95
599.59	1780.48
599.94	1777.19
600.29	1773.74
600.64	1771.60
600.99	1769.05
601.34	1767.60
601.69	1759.10
602.04	1757.10
602.39	1754.62
602.74	1753.10
603.08	1750.21
603.43	1748.36
603.78	1745.50
604.13	1742.90
604.48	1739.50
604.83	1736.83
605.18	1733.79
605.53	1730.17
605.87	1726.38
606.22	1723.02
606.57	1719.50
606.92	1716.71
607.27	1714.76
607.62	1712.12
607.96	1709.81
608.31	1707.07
608.66	1703.64
609.01	1699.45
609.36	1695.69
609.70	1691.31
610.05	1686.33
610.40	1682.95
610.75	1677.93
611.10	1674.55
611.44	1669.36
611.79	1664.71
612.14	1659.98
612.49	1654.00
612.83	1650.02
613.18	1644.95
613.53	1640.45
613.88	1634.98
614.22	1628.50
614.57	1622.17
614.92	1617.10
615.27	1610.74
615.61	1603.64
615.96	1597.88
616.31	1592.60
616.65	1587.48
617.00	1583.05
617.35	1578.29
617.70	1572.07
618.04	1566.26
618.39	1559.36
618.74	1553.36
619.08	1547.33
619.43	1542.29
619.78	1537.40
620.12	1531.67
620.47	1526.60
620.82	1519.98
621.16	1513.69
621.51	1509.38
621.85	1503.19
622.20	1496.33
622.55	1489.64
622.89	1484.74
623.24	1478.60
623.59	1472.60
623.93	1466.40
624.28	1460.40
624.62	1456.71
624.97	1452.05
625.32	1446.50
625.66	1441.26
626.01	1435.71
626.35	1430.38
626.70	1424.62
627.04	1418.95
627.39	1412.50
627.73	1408.02
628.08	1403.50
628.43	1398.60
628.77	1392.60
629.12	1387.95
629.46	1383.31
629.81	1377.45
630.15	1371.14
630.50	1365.14
630.84	1359.00
631.19	1353.02
631.53	1346.67
631.88	1337.64
632.22	1330.05
632.57	1324.02
632.91	1316.95
633.26	1311.12
633.60	1304.98
633.95	1298.00
634.29	1291.88
634.64	1286.33
634.98	1278.81
635.32	1273.14
635.67	1267.71
636.01	1262.02
636.36	1255.05
636.70	1248.83
637.05	1243.07
637.39	1237.55
637.73	1231.88
638.08	1226.83
638.42	1221.29
638.77	1215.86
639.11	1210.17
639.45	1204.17
639.80	1198.38
640.14	1193.33
640.49	1187.24
640.83	1180.74
641.17	1175.07
641.52	1168.64
641.86	1161.74
642.20	1156.29
642.55	1148.64
642.89	1141.60
643.23	1134.74
643.58	1129.55
643.92	1122.88
644.26	1116.29
644.61	1109.62
644.95	1102.64
645.29	1095.71
645.64	1089.69
645.98	1082.79
646.32	1076.43
646.66	1069.83
647.01	1062.93
647.35	1056.62
647.69	1049.88
648.04	1043.79
648.38	1037.40
648.72	1030.69
649.06	1023.98
649.41	1016.64
649.75	1009.79
650.09	1003.21
650.43	996.12
650.78	988.79
651.12	981.79
651.46	975.79
651.80	969.33
652.14	963.90
652.49	958.67
652.83	951.98
653.17	945.71
653.51	939.07
653.85	932.64
654.20	926.17
654.54	919.00
654.88	912.86
655.22	906.95
655.56	899.95
655.90	893.90
656.25	888.29
656.59	882.50
656.93	877.24
657.27	871.83
657.61	866.17
657.95	860.81
658.29	854.95
658.64	849.12
658.98	842.88
659.32	836.31
659.66	829.57
660.00	824.10
660.34	818.29
660.68	812.62
661.02	806.71
661.36	800.83
661.70	795.74
662.05	790.60
662.39	784.81
662.73	780.57
663.07	776.64
663.41	771.17
663.75	765.93
664.09	760.45
664.43	754.69
664.77	749.29
665.11	743.50
665.45	738.57
665.79	734.00
666.13	728.93
666.47	724.55
666.81	719.05
667.15	713.29
667.49	708.57
667.83	704.64
668.17	700.12
668.51	695.76
668.85	691.43
669.19	687.52
669.53	682.33
669.87	676.76
670.21	670.88
670.55	666.10
670.89	662.38
671.23	657.62
671.57	652.95
671.91	648.64
672.25	644.17
672.58	640.24
672.92	634.71
673.26	630.14
673.60	625.05
673.94	621.33
674.28	617.45
674.62	613.50
674.96	608.67
675.30	604.93
675.64	600.36
675.97	596.07
676.31	590.55
676.65	586.67
676.99	583.64
677.33	579.69
677.67	576.07
678.01	571.19
678.34	567.24
678.68	564.12
679.02	560.17
679.36	556.50
679.70	552.57
680.04	549.14
680.37	546.02
680.71	542.38
681.05	539.07
681.39	535.40
681.73	531.38
682.06	527.48
682.40	523.67
682.74	520.45
683.08	517.74
683.42	514.50
683.75	511.07
684.09	506.76
684.43	503.05
684.77	499.31
685.10	495.93
685.44	492.79
685.78	488.64
686.12	485.67
686.45	482.60
686.79	479.36
687.13	476.52
687.46	472.95
687.80	470.60
688.14	467.07
688.48	464.14
688.81	461.19
689.15	458.98
689.49	455.64
689.82	452.88
690.16	448.83
690.50	446.14
690.83	443.05
691.17	440.21
691.51	437.45
691.84	434.95
692.18	431.86
692.52	429.24
692.85	427.50
693.19	425.90
693.52	423.10
693.86	419.93
694.20	417.05
694.53	414.43
694.87	411.14
695.21	408.50
695.54	406.24
695.88	403.19
696.21	399.83
696.55	397.88
696.88	395.14
697.22	392.81
697.56	390.48
697.89	388.12
698.23	386.17
698.56	384.00
698.90	382.00
699.23	379.90
699.57	377.67
699.90	374.76
700.24	371.31
700.58	369.38
700.91	367.90
701.25	367.69
701.58	366.48
701.92	365.33
702.25	363.50
702.59	361.17
702.92	359.90
703.26	358.17
703.59	356.24
703.93	356.74
704.26	355.19
704.60	353.74
704.93	351.81
705.26	349.76
705.60	348.76
705.93	346.48
706.27	345.64
706.60	344.43
706.94	344.02
707.27	342.60
707.61	341.19
707.94	339.43
708.27	336.14
708.61	334.14
708.94	332.38
709.28	331.12
709.61	329.71
709.94	328.31
710.28	326.95
710.61	325.81
710.95	321.86
711.28	321.81
711.61	320.38
711.95	319.69
712.28	318.57
712.61	317.00
712.95	317.14
713.28	316.50
713.61	315.02
713.95	312.88
714.28	312.12
714.61	310.60
714.95	309.19
715.28	307.86
715.61	306.48
715.95	305.31
716.28	303.93
716.61	302.76
716.95	301.31
717.28	300.19
717.61	298.79
717.94	297.98
718.28	295.38
718.61	294.10
718.94	292.43
719.27	290.98
719.61	289.93
719.94	288.12
720.27	286.07
720.60	284.67
720.94	283.55
721.27	282.33
721.60	281.86
721.93	280.95
722.27	280.69
722.60	280.38
722.93	279.07
723.26	278.29
723.59	277.38
723.93	276.71
724.26	275.90
724.59	275.07
724.92	274.74
725.25	274.81
725.59	274.21
725.92	273.88
726.25	273.50
726.58	272.86
726.91	272.19
727.24	271.88
727.57	271.43
727.91	270.60
728.24	270.00
728.57	268.95
728.90	268.50
729.23	267.07
729.56	267.43
729.89	266.86
730.22	266.33
730.55	265.64
730.89	265.12
731.22	264.55
731.55	264.14
731.88	263.43
732.21	262.52
732.54	261.62
732.87	261.24
733.20	260.69
733.53	260.14
733.86	259.67
734.19	258.79
734.52	258.57
734.85	259.55
735.18	259.00
735.51	259.26
735.84	259.02
736.17	259.52
736.50	257.71
736.83	259.79
737.16	259.17
737.49	258.64
737.82	257.95
738.15	257.93
738.48	257.29
738.81	256.55
739.14	255.48
739.47	255.12
739.80	254.67
740.13	254.52
740.46	253.57
740.79	252.79
741.12	252.38
741.45	251.67
741.78	250.17
742.11	250.00
742.44	248.95
742.77	248.67
743.10	247.76
743.43	247.38
743.75	244.88
744.08	247.36
744.41	247.26
744.74	247.12
745.07	246.43
745.40	246.38
745.73	247.02
746.06	246.95
746.39	246.93
746.71	246.50
747.04	245.67
747.37	245.60
747.70	245.86
748.03	245.48
748.36	245.21
748.68	244.81
749.01	243.88
749.34	243.52
749.67	243.40
750.00	243.43
750.33	244.62
750.65	244.60
750.98	241.62
751.31	241.45
751.64	241.02
751.97	241.95
752.29	241.33
752.62	240.29
752.95	239.81
753.28	239.14
753.60	238.43
753.93	239.07
754.26	238.98
754.59	237.98
754.91	237.71
755.24	237.52
755.57	237.12
755.90	237.19
756.22	236.88
756.55	236.10
756.88	235.52
757.20	233.98
757.53	233.14
757.86	232.74
758.19	232.50
758.51	232.29
758.84	230.81
759.17	230.67
759.49	230.62
759.82	231.33
760.15	231.31
760.47	231.45
760.80	230.24
761.13	230.21
761.45	230.07
761.78	229.79
762.11	229.38
762.43	229.31
762.76	229.02
763.08	229.19
763.41	229.19
763.74	228.90
764.06	228.86
764.39	228.79
764.71	228.60
765.04	227.98
765.37	227.67
765.69	227.71
766.02	227.38
766.34	226.98
766.67	226.24
767.00	226.57
767.32	227.21
767.65	228.55
767.97	228.14
768.30	228.00
768.62	227.76
768.95	227.67
769.27	227.45
769.60	227.64
769.92	227.14
770.25	226.52
770.57	226.21
770.90	226.21
771.22	225.76
771.55	225.76
771.87	225.90
772.20	225.86
772.52	227.29
772.85	229.79
773.17	229.52
773.50	229.31
773.82	228.74
774.15	227.64
774.47	226.19
774.80	226.00
775.12	225.95
775.45	225.76
775.77	225.55
776.09	225.64
776.42	225.43
776.74	225.95
777.07	225.95
777.39	225.95
777.72	225.19
778.04	225.69
778.36	225.71
778.69	225.69
779.01	225.57
779.33	223.64
779.66	221.29
779.98	221.29
780.31	221.17
780.63	221.83
780.95	222.21
781.28	222.26
781.60	221.98
781.92	221.90
782.25	222.12
782.57	222.05
782.89	221.55
783.22	221.21
783.54	220.50
783.86	220.62
784.19	220.29
784.51	220.64
784.83	219.88
785.16	219.48
785.48	219.24
785.80	219.24
786.12	219.38
786.45	219.50
786.77	219.55
787.09	219.62
787.42	218.83
787.74	218.81
788.06	218.67
788.38	218.57
788.71	218.26
789.03	218.10
789.35	218.36
789.67	218.12
789.99	218.26
790.32	218.10
790.64	218.48
790.96	220.26
791.28	219.93
791.61	220.17
791.93	220.48
792.25	220.33
792.57	221.64
792.89	221.14
793.21	220.86
793.54	220.60
793.86	220.31
794.18	220.48
794.50	219.88
794.82	220.07
795.14	220.52
795.47	220.90
795.79	221.10
796.11	220.57
796.43	220.40
796.75	220.64
797.07	220.81
797.39	220.60
797.71	219.26
798.04	219.29
798.36	219.19
798.68	218.69
799.00	219.12
799.32	217.95
799.64	218.45
799.96	218.64
800.28	219.05
800.60	218.88
800.92	218.67
801.24	218.64
801.56	218.67
801.89	218.40
802.21	218.43
802.53	217.67
802.85	218.17
803.17	219.40
803.49	218.81
803.81	218.57
804.13	218.36
804.45	217.90
804.77	218.10
805.09	218.05
805.41	217.86
805.73	217.26
806.05	216.86
806.37	216.79
806.69	216.38
807.01	216.14
807.33	216.29
807.65	215.79
807.97	217.00
808.28	216.67
808.60	216.40
808.92	216.19
809.24	217.74
809.56	217.17
809.88	216.36
810.20	216.26
810.52	216.57
810.84	216.29
811.16	216.26
811.48	216.00
811.80	216.98
812.12	217.24
812.43	217.71
812.75	218.00
813.07	217.83
813.39	217.90
813.71	217.57
814.03	217.43
814.35	217.67
814.67	216.64
814.98	216.40
815.30	216.38
815.62	215.90
815.94	214.57
816.26	214.90
816.58	214.57
816.89	215.05
817.21	214.88
817.53	214.76
817.85	214.79
818.17	214.69
818.48	213.52
818.80	213.88
819.12	213.50
819.44	212.98
819.76	212.64
820.07	212.76
820.39	212.86
820.71	212.98
821.03	212.98
821.34	212.79
821.66	213.43
821.98	213.67
822.30	213.69
822.61	214.98
822.93	214.69
823.25	214.45
823.57	214.24
823.88	214.50
824.20	214.69
824.52	215.05
824.83	215.17
825.15	215.17
825.47	215.00
825.79	215.07
826.10	215.21
826.42	215.24
826.74	215.52
827.05	215.33
827.37	215.40
827.69	215.29
828.00	215.40
828.32	215.07
828.64	215.00
828.95	216.07
829.27	215.38
829.58	215.29
829.90	215.98
830.22	216.05
830.53	215.38
830.85	215.12
831.17	214.69
831.48	214.71
831.80	215.02
832.11	214.88
832.43	214.81
832.75	214.62
833.06	215.88
833.38	215.29
833.69	215.21
834.01	215.19
834.32	215.02
834.64	214.86
834.96	214.93
835.27	214.83
835.59	213.93
835.90	213.50
836.22	213.62
836.53	213.10
836.85	212.76
837.16	215.00
837.48	215.24
837.79	215.76
838.11	215.86
838.42	215.81
838.74	216.05
839.05	215.83
839.37	215.98
839.68	214.86
840.00	214.71
840.31	215.17
840.63	215.02
840.94	214.95
841.26	214.74
841.57	214.71
841.88	214.79
842.20	214.98
842.51	214.81
842.83	215.07
843.14	216.79
843.46	216.67
843.77	215.50
844.08	215.40
844.40	214.86
844.71	214.60
845.03	214.40
845.34	214.31
845.65	214.29
845.97	214.29
846.28	214.14
846.60	214.21
846.91	213.90
847.22	213.90
847.54	214.21
847.85	214.48
848.16	214.21
848.48	213.86
848.79	214.55
849.10	214.83
849.42	214.74
849.73	213.12
850.04	213.17
850.36	212.55
850.67	213.00
850.98	213.12
851.30	213.31
851.61	213.14
851.92	213.00
852.23	213.76
852.55	213.86
852.86	213.90
853.17	214.14
853.49	214.33
853.80	214.60
854.11	214.81
854.42	215.21
854.74	215.14
855.05	215.33
855.36	214.29
855.67	214.26
855.99	214.17
856.30	216.33
856.61	216.24
856.92	216.24
857.23	216.12
857.55	215.76
857.86	215.50
858.17	215.93
858.48	215.55
858.79	215.02
859.11	215.00
859.42	214.81
859.73	214.55
860.04	214.55
860.35	214.14
860.66	213.62
860.98	213.19
861.29	213.45
861.60	213.69
861.91	214.43
862.22	214.21
862.53	214.00
862.84	211.79
863.16	212.40
863.47	212.00
863.78	211.69
864.09	212.17
864.40	212.36
864.71	212.21
865.02	212.69
865.33	212.36
865.64	212.19
865.95	212.40
866.27	213.45
866.58	213.26
866.89	213.50
867.20	213.40
867.51	213.36
867.82	213.19
868.13	213.43
868.44	212.62
868.75	213.02
869.06	213.38
869.37	213.48
869.68	212.98
869.99	213.33
870.30	213.43
870.61	213.31
870.92	212.90
871.23	212.67
871.54	212.81
871.85	213.12
872.16	213.26
872.47	212.93
872.78	212.02
873.09	212.38
873.40	212.02
873.71	212.21
874.02	212.02
874.33	211.74
874.64	211.21
874.95	211.62
875.26	211.07
875.56	210.57
875.87	210.71
876.18	210.52
876.49	212.38
876.80	212.14
877.11	211.76
877.42	211.90
877.73	212.00
878.04	211.71
878.35	212.00
878.66	212.14
878.96	212.33
879.27	212.29
879.58	212.10
879.89	212.21
880.20	212.64
880.51	212.74
880.82	212.76
881.12	212.83
881.43	212.43
881.74	212.14
882.05	212.29
882.36	212.21
882.67	212.45
882.97	210.55
883.28	210.50
883.59	210.62
883.90	210.76
884.21	211.00
884.51	210.88
884.82	210.33
885.13	210.26
885.44	210.29
885.74	210.29
886.05	210.24
886.36	210.29
886.67	209.74
886.98	210.88
887.28	211.40
887.59	211.43
887.90	211.74
888.20	211.79
888.51	212.19
888.82	211.76
889.13	212.00
889.43	213.43
889.74	213.38
890.05	213.36
890.35	213.24
890.66	212.93
890.97	212.81
891.28	212.71
891.58	212.60
891.89	212.69
892.20	212.31
892.50	212.05
892.81	211.74
893.12	211.81
893.42	210.83
893.73	210.69
894.04	210.62
894.34	210.40
894.65	210.60
894.95	210.21
895.26	210.48
895.57	211.31
895.87	209.48
896.18	209.74
896.48	209.88
896.79	209.90
897.10	210.21
897.40	210.19
897.71	210.45
898.01	210.48
898.32	210.81
898.63	210.93
898.93	210.90
899.24	211.19
899.54	211.00
899.85	210.69
900.15	210.50
900.46	210.50
900.76	210.79
901.07	210.67
901.38	210.86
901.68	210.81
901.99	209.60
902.29	209.88
902.60	209.93
902.90	209.76
903.21	209.90
903.51	209.81
903.82	210.64
904.12	210.86
904.43	210.83
904.73	210.43
905.03	210.64
905.34	212.64
905.64	212.36
905.95	212.50
906.25	212.62
906.56	212.55
906.86	212.60
907.17	212.57
907.47	212.79
907.77	212.55
908.08	212.38
908.38	212.71
908.69	212.98
908.99	213.07
909.30	213.21
909.60	213.10
909.90	213.05
910.21	212.10
910.51	211.64
910.81	211.83
911.12	212.07
911.42	212.05
911.73	210.21
912.03	210.45
912.33	210.95
912.64	210.93
912.94	210.86
913.24	210.67
913.55	210.33
913.85	210.21
914.15	210.60
914.46	211.02
914.76	210.88
915.06	210.62
915.37	210.36
915.67	210.19
915.97	210.29
916.27	210.10
916.58	210.33
916.88	210.29
917.18	210.14
917.49	211.48
917.79	211.55
918.09	211.93
918.39	212.52
918.70	212.24
919.00	212.38
919.30	213.29
919.60	213.12
919.91	213.14
920.21	213.38
920.51	212.95
920.81	212.76
921.12	212.86
921.42	212.88
921.72	212.95
922.02	213.07
922.32	213.38
922.63	213.55
922.93	214.50
923.23	214.81
923.53	214.52
923.83	212.95
924.13	213.05
924.44	212.71
924.74	212.95
925.04	213.45
925.34	213.52
925.64	212.98
925.94	213.05
926.24	214.17
926.55	213.90
926.85	214.29
927.15	214.21
927.45	214.33
927.75	214.19
928.05	214.50
928.35	214.38
928.65	214.64
928.95	214.67
929.26	213.71
929.56	214.05
929.86	214.55
930.16	214.48
930.46	214.26
930.76	214.43
931.06	213.45
931.36	212.74
931.66	212.86
931.96	212.86
932.26	213.17
932.56	212.38
932.86	212.60
933.16	212.67
933.46	212.55
933.76	212.29
934.06	212.93
934.36	213.52
934.66	213.57
934.96	213.38
935.26	213.71
935.56	214.14
935.86	213.64
936.16	213.24
936.46	213.19
936.76	213.24
937.06	212.88
937.36	213.02
937.66	213.38
937.96	213.29
938.26	212.93
938.56	212.57
938.86	212.64
939.16	212.98
939.46	213.17
939.76	213.33
940.06	213.60
940.35	212.81
940.65	211.74
940.95	211.81
941.25	211.40
941.55	210.95
941.85	210.79
942.15	211.21
942.45	211.81
942.75	211.83
943.04	211.83
943.34	212.38
943.64	212.19
943.94	211.90
944.24	211.83
944.54	212.31
944.84	212.45
945.13	212.14
945.43	211.81
945.73	211.57
946.03	211.29
946.33	210.74
946.62	210.71
946.92	210.48
947.22	210.62
947.52	210.74
947.82	211.07
948.11	211.00
948.41	210.52
948.71	210.00
949.01	210.24
949.31	210.24
949.60	210.02
949.90	210.14
950.20	210.02
950.50	210.14
950.79	209.69
951.09	209.95
951.39	209.93
951.69	209.71
951.98	210.00
952.28	210.24
952.58	210.29
952.87	210.50
953.17	210.98
953.47	210.76
953.76	210.71
954.06	210.26
954.36	209.98
954.66	209.86
954.95	210.55
955.25	210.62
955.55	210.83
955.84	210.50
956.14	211.10
956.44	211.02
956.73	210.71
957.03	210.71
957.32	210.69
957.62	210.69
957.92	211.29
958.21	211.17
958.51	213.74
958.81	214.24
959.10	214.60
959.40	214.90
959.69	215.10
959.99	215.19
960.29	215.33
960.58	215.26
960.88	216.19
961.17	215.83
961.47	216.07
961.76	215.81
962.06	216.29
962.36	215.95
962.65	216.14
962.95	216.31
963.24	216.33
963.54	216.19
963.83	216.50
964.13	216.10
964.42	215.57
964.72	213.57
965.01	213.38
965.31	213.12
965.60	212.69
965.90	213.98
966.19	213.64
966.49	213.67
966.78	213.50
967.08	213.36
967.37	213.31
967.67	212.71
967.96	212.95
968.26	212.81
968.55	212.98
968.85	213.02
969.14	213.02
969.43	212.81
969.73	212.71
970.02	212.33
970.32	212.19
970.61	211.93
970.91	211.36
971.20	211.19
971.49	210.98
971.79	211.36
972.08	209.76
972.38	209.98
972.67	209.98
972.96	210.52
973.26	209.95
973.55	210.74
973.85	210.64
974.14	210.67
974.43	210.74
974.73	210.29
975.02	210.14
975.31	210.17
975.61	210.26
975.90	210.21
976.19	210.24
976.49	210.40
976.78	210.76
977.07	210.64
977.37	210.67
977.66	211.05
977.95	210.81
978.24	210.95
978.54	211.36
978.83	211.19
979.12	210.90
979.42	210.93
979.71	210.29
980.00	210.50
980.29	210.31
980.59	210.07
980.88	210.79
981.17	210.81
981.46	210.57
981.76	210.52
982.05	211.19
982.34	211.21
982.63	211.24
982.93	211.36
983.22	212.02
983.51	212.26
983.80	212.38
984.09	212.55
984.39	212.67
984.68	212.29
984.97	212.40
985.26	212.45
985.55	212.69
985.85	212.36
986.14	212.79
986.43	213.17
986.72	212.88
987.01	212.14
987.30	212.26
987.59	212.26
987.89	212.40
988.18	211.83
988.47	211.74
988.76	211.48
989.05	211.14
989.34	210.76
989.63	211.21
989.92	210.90
990.22	210.62
990.51	210.31
990.80	210.21
991.09	210.02
991.38	210.29
991.67	209.90
991.96	209.67
992.25	209.31
992.54	208.86
992.83	209.02
993.12	209.14
993.41	209.14
993.70	210.05
993.99	210.50
994.28	210.76
994.58	211.05
994.87	211.05
995.16	211.31
995.45	211.21
995.74	210.31
996.03	210.64
996.32	210.98
996.61	211.79
996.90	211.93
997.19	212.24
997.48	212.12
997.77	212.07
998.06	212.24
998.34	212.26
998.63	212.38
998.92	212.33
999.21	212.62
999.50	212.67
999.79	211.83
1000.08	211.79
1000.37	211.69
1000.66	211.52
1000.95	212.19
1001.24	212.29
1001.53	212.62
1001.82	212.67
1002.11	212.29
1002.40	212.55
1002.68	212.81
1002.97	213.90
1003.26	213.45
1003.55	213.26
1003.84	213.57
1004.13	214.14
1004.42	214.10
1004.71	214.07
1004.99	213.88
1005.28	214.36
1005.57	214.19
1005.86	214.12
1006.15	213.79
1006.44	213.43
1006.72	213.60
1007.01	212.98
1007.30	213.05
1007.59	212.74
1007.88	212.71
1008.17	212.76
1008.45	212.12
1008.74	211.12
1009.03	210.31
1009.32	210.36
1009.60	210.45
1009.89	210.10
1010.18	209.33
1010.47	209.31
1010.76	209.29
1011.04	209.64
1011.33	209.33
1011.62	209.60
1011.91	209.90
1012.19	209.90
1012.48	210.24
1012.77	210.17
1013.05	211.26
1013.34	211.05
1013.63	211.05
1013.92	211.19
1014.20	211.05
1014.49	211.38
1014.78	211.60
1015.06	210.98
1015.35	211.07
1015.64	211.21
1015.92	211.60
1016.21	211.81
1016.50	211.76
1016.78	211.83
1017.07	211.74
1017.36	211.55
1017.64	211.00
1017.93	211.07
1018.22	211.21
1018.50	210.88
1018.79	210.81
1019.08	209.79
1019.36	209.98
1019.65	209.71
1019.93	210.31
1020.22	210.48
1020.51	211.29
1020.79	211.05
1021.08	212.00
1021.36	205.00
1021.65	210.00
1021.94	209.50
1022.22	213.00
1022.51	206.00
1022.79	220.50
1023.08	211.00
1023.36	233.50
1023.65	205.00
>>>>>End Processed Spectral Data<<<<<
