SpectraSuite Data File
++++++++++++++++++++++++++++++++++++
Date: Tue Apr 02 18:38:03 EDT 2013
User: group
Dark Spectrum Present: No
Reference Spectrum Present: No
Number of Sampled Component Spectra: 1
Spectrometers: USB2E7196
Integration Time (usec): 580000 (USB2E7196)
Spectra Averaged: 2 (USB2E7196)
Boxcar Smoothing: 10 (USB2E7196)
Correct for Electrical Dark: No (USB2E7196)
Strobe/Lamp Enabled: No (USB2E7196)
Correct for Detector Non-linearity: No (USB2E7196)
Correct for Stray Light: No (USB2E7196)
Number of Pixels in Processed Spectrum: 2048
>>>>>Begin Processed Spectral Data<<<<<
339.09	0.00
339.48	190.50
339.86	196.50
340.24	197.50
340.63	196.50
341.01	232.00
341.39	203.00
341.78	208.00
342.16	206.00
342.54	208.00
342.93	198.12
343.31	207.95
343.69	208.79
344.07	209.21
344.46	210.00
344.84	210.45
345.22	209.33
345.60	209.71
345.99	209.81
346.37	210.02
346.75	209.90
347.13	210.07
347.52	210.21
347.90	211.17
348.28	211.02
348.66	211.50
349.05	210.93
349.43	211.00
349.81	211.17
350.19	211.17
350.57	211.52
350.96	211.74
351.34	212.24
351.72	212.26
352.10	212.26
352.48	212.05
352.87	212.29
353.25	212.36
353.63	212.19
354.01	212.14
354.39	212.24
354.77	212.14
355.15	212.86
355.54	212.74
355.92	211.93
356.30	212.36
356.68	213.57
357.06	213.90
357.44	213.88
357.82	213.69
358.20	214.57
358.58	214.40
358.97	214.24
359.35	214.52
359.73	214.83
360.11	214.95
360.49	214.95
360.87	215.02
361.25	215.19
361.63	216.12
362.01	216.29
362.39	216.24
362.77	216.69
363.15	216.29
363.53	216.26
363.91	216.52
364.29	216.45
364.67	214.52
365.05	214.29
365.43	214.36
365.81	214.62
366.19	214.93
366.57	215.62
366.95	215.57
367.33	215.00
367.71	215.12
368.09	215.55
368.47	215.50
368.85	215.40
369.23	215.86
369.61	215.12
369.99	215.86
370.37	216.05
370.75	216.98
371.13	216.69
371.51	216.48
371.89	216.67
372.27	216.81
372.65	216.98
373.03	217.05
373.41	217.00
373.78	217.05
374.16	216.07
374.54	215.36
374.92	215.38
375.30	215.52
375.68	215.12
376.06	215.31
376.44	215.33
376.82	215.48
377.19	215.31
377.57	215.17
377.95	214.26
378.33	213.90
378.71	212.88
379.09	213.14
379.47	213.31
379.84	213.05
380.22	212.86
380.60	212.38
380.98	212.33
381.36	212.19
381.73	211.93
382.11	212.50
382.49	212.67
382.87	212.21
383.25	212.26
383.62	214.95
384.00	214.67
384.38	214.60
384.76	215.05
385.13	215.98
385.51	216.00
385.89	215.93
386.27	216.14
386.64	216.38
387.02	216.19
387.40	216.00
387.78	216.02
388.15	215.88
388.53	215.81
388.91	215.79
389.29	215.76
389.66	215.98
390.04	215.40
390.42	215.79
390.79	216.24
391.17	216.14
391.55	213.60
391.92	213.40
392.30	213.69
392.68	213.19
393.05	212.74
393.43	212.81
393.81	213.02
394.18	212.81
394.56	213.00
394.94	213.52
395.31	213.64
395.69	214.40
396.06	214.74
396.44	215.02
396.82	215.00
397.19	216.24
397.57	216.05
397.95	216.50
398.32	215.95
398.70	216.24
399.07	216.48
399.45	216.45
399.82	216.45
400.20	216.50
400.58	216.43
400.95	215.52
401.33	215.95
401.70	217.38
402.08	217.62
402.45	217.45
402.83	217.88
403.20	217.98
403.58	217.83
403.95	218.57
404.33	219.02
404.71	219.45
405.08	220.50
405.46	220.86
405.83	221.17
406.21	221.79
406.58	222.24
406.96	222.83
407.33	223.76
407.70	224.71
408.08	226.69
408.45	227.67
408.83	229.14
409.20	229.74
409.58	229.36
409.95	230.57
410.33	231.67
410.70	232.24
411.08	233.60
411.45	234.88
411.82	235.45
412.20	237.12
412.57	239.79
412.95	239.64
413.32	241.55
413.69	243.19
414.07	245.24
414.44	247.40
414.82	249.45
415.19	252.10
415.56	254.71
415.94	256.64
416.31	260.10
416.68	263.31
417.06	267.02
417.43	271.21
417.81	275.43
418.18	279.90
418.55	284.33
418.93	288.98
419.30	293.93
419.67	299.26
420.04	304.71
420.42	309.74
420.79	317.67
421.16	324.21
421.54	332.12
421.91	338.62
422.28	345.48
422.66	353.55
423.03	362.10
423.40	370.02
423.77	378.21
424.15	386.31
424.52	395.12
424.89	405.21
425.26	414.17
425.64	423.19
426.01	432.45
426.38	442.62
426.75	453.48
427.13	464.71
427.50	476.05
427.87	487.81
428.24	499.60
428.61	510.14
428.99	523.31
429.36	535.79
429.73	549.76
430.10	563.76
430.47	577.64
430.85	590.71
431.22	605.64
431.59	622.79
431.96	638.64
432.33	655.36
432.70	671.31
433.08	690.67
433.45	709.12
433.82	728.02
434.19	748.57
434.56	768.90
434.93	786.98
435.30	806.17
435.68	827.52
436.05	847.71
436.42	868.07
436.79	887.57
437.16	909.05
437.53	931.02
437.90	952.24
438.27	973.19
438.64	995.48
439.01	1016.64
439.38	1034.17
439.75	1052.05
440.13	1072.71
440.50	1091.95
440.87	1108.17
441.24	1124.43
441.61	1141.67
441.98	1155.17
442.35	1169.67
442.72	1185.98
443.09	1202.19
443.46	1211.26
443.83	1218.33
444.20	1223.88
444.57	1230.90
444.94	1234.36
445.31	1238.36
445.68	1244.62
446.05	1246.93
446.42	1245.17
446.79	1243.95
447.16	1241.38
447.53	1240.17
447.90	1232.74
448.27	1225.74
448.64	1215.07
449.01	1207.38
449.37	1194.40
449.74	1181.24
450.11	1167.40
450.48	1149.86
450.85	1130.98
451.22	1115.95
451.59	1101.93
451.96	1089.05
452.33	1070.55
452.70	1053.62
453.07	1032.95
453.43	1010.24
453.80	990.62
454.17	971.83
454.54	952.60
454.91	933.55
455.28	913.83
455.65	896.14
456.02	881.76
456.38	866.38
456.75	847.88
457.12	831.95
457.49	816.67
457.86	799.98
458.23	787.64
458.59	774.14
458.96	759.83
459.33	746.71
459.70	733.69
460.07	723.60
460.43	712.14
460.80	702.40
461.17	694.00
461.54	683.60
461.91	673.88
462.27	664.36
462.64	655.83
463.01	646.90
463.38	638.95
463.74	626.67
464.11	618.74
464.48	611.71
464.85	604.40
465.21	598.79
465.58	593.31
465.95	585.83
466.32	579.67
466.68	573.74
467.05	567.62
467.42	561.33
467.78	555.45
468.15	549.60
468.52	544.62
468.88	537.48
469.25	532.36
469.62	528.93
469.98	524.52
470.35	520.43
470.72	516.57
471.08	511.10
471.45	507.55
471.82	504.40
472.18	500.64
472.55	498.07
472.92	493.81
473.28	490.33
473.65	487.19
474.02	483.86
474.38	481.26
474.75	479.71
475.11	477.36
475.48	475.64
475.85	473.76
476.21	471.90
476.58	471.05
476.94	470.07
477.31	468.29
477.67	466.76
478.04	465.48
478.41	464.95
478.77	466.33
479.14	465.12
479.50	464.40
479.87	464.26
480.23	463.48
480.60	464.02
480.96	463.98
481.33	464.50
481.69	464.88
482.06	465.33
482.42	465.26
482.79	466.00
483.15	466.33
483.52	467.52
483.88	468.24
484.25	469.12
484.61	470.31
484.98	471.62
485.34	474.07
485.71	476.55
486.07	478.24
486.44	478.40
486.80	480.76
487.17	483.14
487.53	486.12
487.90	489.50
488.26	492.86
488.62	496.48
488.99	499.21
489.35	503.00
489.72	506.40
490.08	510.33
490.44	513.45
490.81	517.64
491.17	521.57
491.54	527.12
491.90	532.19
492.26	537.14
492.63	542.21
492.99	546.33
493.36	551.17
493.72	557.00
494.08	562.98
494.45	569.33
494.81	575.93
495.17	582.02
495.54	588.79
495.90	595.24
496.26	602.00
496.63	609.26
496.99	616.17
497.35	624.02
497.72	631.52
498.08	639.79
498.44	648.07
498.80	656.98
499.17	664.17
499.53	672.00
499.89	680.52
500.26	688.62
500.62	698.26
500.98	707.36
501.34	716.38
501.71	725.79
502.07	734.69
502.43	743.12
502.79	752.12
503.16	760.90
503.52	769.83
503.88	778.57
504.24	787.98
504.60	797.90
504.97	808.02
505.33	818.07
505.69	829.26
506.05	838.60
506.41	848.19
506.78	858.38
507.14	868.67
507.50	878.74
507.86	889.33
508.22	898.50
508.59	908.71
508.95	918.60
509.31	929.90
509.67	940.43
510.03	951.19
510.39	961.31
510.75	971.93
511.12	982.43
511.48	992.95
511.84	1003.29
512.20	1013.33
512.56	1022.81
512.92	1032.74
513.28	1042.07
513.64	1051.98
514.00	1061.55
514.37	1070.95
514.73	1079.95
515.09	1089.55
515.45	1099.36
515.81	1109.62
516.17	1118.45
516.53	1127.40
516.89	1134.83
517.25	1143.33
517.61	1152.38
517.97	1160.98
518.33	1168.62
518.69	1177.10
519.05	1185.57
519.41	1193.67
519.77	1202.40
520.13	1209.55
520.49	1216.62
520.85	1223.48
521.21	1231.88
521.57	1238.52
521.93	1244.86
522.29	1252.62
522.65	1258.52
523.01	1265.17
523.37	1271.14
523.73	1278.79
524.09	1285.21
524.45	1290.64
524.81	1295.45
525.17	1301.00
525.53	1305.52
525.89	1311.07
526.25	1316.14
526.61	1320.36
526.97	1324.83
527.33	1328.05
527.68	1334.71
528.04	1339.71
528.40	1343.81
528.76	1347.19
529.12	1351.95
529.48	1357.33
529.84	1360.86
530.20	1365.67
530.56	1369.33
530.91	1372.71
531.27	1376.38
531.63	1379.98
531.99	1383.17
532.35	1386.83
532.71	1389.02
533.07	1393.79
533.42	1399.21
533.78	1402.38
534.14	1406.14
534.50	1408.90
534.86	1413.07
535.21	1414.45
535.57	1417.45
535.93	1420.83
536.29	1425.17
536.65	1427.95
537.00	1430.02
537.36	1432.26
537.72	1434.45
538.08	1436.24
538.44	1438.07
538.79	1438.90
539.15	1440.17
539.51	1443.67
539.87	1445.95
540.22	1448.26
540.58	1449.12
540.94	1448.95
541.29	1450.81
541.65	1450.69
542.01	1452.67
542.37	1452.60
542.72	1452.93
543.08	1452.55
543.44	1452.67
543.79	1450.52
544.15	1451.05
544.51	1451.07
544.87	1451.60
545.22	1451.40
545.58	1450.57
545.94	1449.79
546.29	1449.69
546.65	1449.05
547.01	1447.62
547.36	1447.07
547.72	1446.52
548.07	1445.55
548.43	1443.74
548.79	1441.90
549.14	1440.88
549.50	1439.57
549.86	1438.21
550.21	1436.71
550.57	1436.45
550.92	1435.17
551.28	1434.64
551.64	1432.33
551.99	1430.67
552.35	1428.07
552.70	1426.52
553.06	1426.57
553.41	1425.98
553.77	1425.45
554.13	1424.50
554.48	1423.40
554.84	1422.29
555.19	1421.17
555.55	1421.40
555.90	1419.88
556.26	1418.21
556.61	1417.81
556.97	1415.71
557.32	1414.60
557.68	1413.76
558.03	1411.93
558.39	1410.83
558.74	1409.48
559.10	1409.21
559.45	1408.17
559.81	1407.10
560.16	1404.76
560.52	1402.24
560.87	1401.50
561.23	1398.93
561.58	1398.52
561.94	1396.29
562.29	1394.02
562.64	1392.10
563.00	1388.55
563.35	1387.69
563.71	1386.29
564.06	1384.40
564.42	1382.98
564.77	1382.12
565.12	1381.19
565.48	1381.26
565.83	1379.43
566.19	1377.86
566.54	1375.31
566.89	1373.52
567.25	1373.12
567.60	1373.76
567.96	1374.38
568.31	1373.02
568.66	1371.93
569.02	1368.55
569.37	1367.02
569.72	1365.48
570.08	1363.83
570.43	1362.60
570.78	1360.40
571.14	1358.38
571.49	1356.07
571.84	1354.24
572.20	1351.38
572.55	1349.07
572.90	1344.90
573.26	1342.12
573.61	1339.12
573.96	1336.36
574.31	1333.83
574.67	1330.52
575.02	1325.57
575.37	1320.62
575.72	1316.52
576.08	1313.43
576.43	1310.24
576.78	1306.76
577.13	1303.62
577.49	1299.31
577.84	1296.14
578.19	1292.50
578.54	1289.40
578.90	1286.60
579.25	1282.31
579.60	1278.93
579.95	1274.19
580.30	1271.43
580.66	1268.07
581.01	1263.95
581.36	1260.31
581.71	1256.00
582.06	1252.93
582.42	1249.40
582.77	1244.88
583.12	1241.69
583.47	1236.86
583.82	1233.55
584.17	1229.33
584.53	1226.24
584.88	1222.26
585.23	1218.12
585.58	1213.83
585.93	1208.67
586.28	1204.14
586.63	1201.26
586.98	1196.98
587.34	1193.71
587.69	1188.31
588.04	1183.93
588.39	1179.86
588.74	1174.83
589.09	1171.14
589.44	1164.43
589.79	1160.17
590.14	1156.64
590.49	1151.14
590.84	1146.36
591.19	1141.74
591.54	1137.29
591.89	1132.05
592.25	1130.26
592.60	1125.31
592.95	1122.00
593.30	1118.86
593.65	1114.31
594.00	1108.40
594.35	1109.62
594.70	1104.26
595.05	1100.36
595.40	1095.67
595.75	1091.45
596.10	1087.71
596.45	1083.38
596.80	1080.36
597.15	1075.88
597.50	1071.10
597.85	1067.60
598.19	1063.64
598.54	1059.36
598.89	1055.33
599.24	1051.12
599.59	1045.02
599.94	1040.95
600.29	1036.12
600.64	1031.33
600.99	1027.38
601.34	1024.55
601.69	1014.43
602.04	1010.24
602.39	1005.14
602.74	1001.31
603.08	997.45
603.43	993.83
603.78	989.45
604.13	984.52
604.48	980.26
604.83	976.19
605.18	972.07
605.53	967.81
605.87	963.55
606.22	959.05
606.57	954.74
606.92	949.71
607.27	946.00
607.62	941.62
607.96	937.12
608.31	932.88
608.66	928.33
609.01	924.45
609.36	920.40
609.70	916.95
610.05	912.12
610.40	907.50
610.75	902.79
611.10	898.67
611.44	894.55
611.79	889.98
612.14	885.36
612.49	879.79
612.83	874.67
613.18	869.93
613.53	865.45
613.88	860.57
614.22	856.45
614.57	851.19
614.92	846.36
615.27	841.62
615.61	836.52
615.96	831.74
616.31	826.19
616.65	821.81
617.00	817.33
617.35	812.95
617.70	807.93
618.04	803.69
618.39	798.83
618.74	795.36
619.08	791.48
619.43	787.14
619.78	783.50
620.12	779.98
620.47	775.67
620.82	771.36
621.16	767.29
621.51	764.40
621.85	760.19
622.20	756.14
622.55	751.95
622.89	748.48
623.24	745.14
623.59	741.55
623.93	738.12
624.28	734.50
624.62	732.83
624.97	730.98
625.32	727.02
625.66	723.45
626.01	719.19
626.35	716.02
626.70	712.64
627.04	709.40
627.39	705.79
627.73	703.76
628.08	701.10
628.43	697.21
628.77	692.24
629.12	688.67
629.46	685.50
629.81	682.29
630.15	678.60
630.50	674.40
630.84	671.31
631.19	667.14
631.53	663.38
631.88	658.26
632.22	653.31
632.57	650.33
632.91	646.79
633.26	642.98
633.60	638.76
633.95	634.67
634.29	630.55
634.64	627.60
634.98	623.12
635.32	619.52
635.67	616.93
636.01	614.00
636.36	611.14
636.70	608.69
637.05	605.74
637.39	602.81
637.73	599.60
638.08	597.19
638.42	594.26
638.77	591.57
639.11	588.62
639.45	585.24
639.80	581.45
640.14	578.69
640.49	576.26
640.83	573.38
641.17	571.12
641.52	568.26
641.86	565.60
642.20	563.57
642.55	560.67
642.89	557.79
643.23	554.88
643.58	552.48
643.92	548.40
644.26	545.43
644.61	542.45
644.95	540.00
645.29	536.50
645.64	534.38
645.98	531.07
646.32	528.33
646.66	526.10
647.01	523.57
647.35	520.83
647.69	518.07
648.04	515.62
648.38	513.12
648.72	510.98
649.06	507.69
649.41	504.07
649.75	500.88
650.09	498.40
650.43	495.50
650.78	492.48
651.12	490.29
651.46	487.57
651.80	485.19
652.14	482.17
652.49	480.43
652.83	477.33
653.17	474.93
653.51	472.21
653.85	470.14
654.20	467.60
654.54	464.69
654.88	461.83
655.22	460.36
655.56	457.67
655.90	455.29
656.25	453.19
656.59	451.07
656.93	449.62
657.27	447.69
657.61	445.38
657.95	443.64
658.29	441.19
658.64	439.62
658.98	436.90
659.32	434.93
659.66	432.12
660.00	430.57
660.34	428.62
660.68	426.71
661.02	424.50
661.36	422.79
661.70	421.05
662.05	419.31
662.39	416.76
662.73	415.45
663.07	414.26
663.41	412.33
663.75	410.33
664.09	408.40
664.43	405.86
664.77	404.57
665.11	402.21
665.45	400.60
665.79	399.24
666.13	397.83
666.47	396.17
666.81	394.62
667.15	392.31
667.49	391.07
667.83	389.76
668.17	388.19
668.51	386.55
668.85	385.07
669.19	384.57
669.53	382.45
669.87	380.50
670.21	378.60
670.55	377.07
670.89	376.40
671.23	374.71
671.57	373.36
671.91	371.86
672.25	370.67
672.58	370.21
672.92	368.10
673.26	366.69
673.60	365.33
673.94	363.83
674.28	362.57
674.62	361.12
674.96	359.67
675.30	358.62
675.64	356.95
675.97	356.05
676.31	354.05
676.65	352.90
676.99	352.57
677.33	350.71
677.67	349.62
678.01	347.79
678.34	346.71
678.68	346.02
679.02	344.60
679.36	343.33
679.70	341.21
680.04	340.24
680.37	339.07
680.71	337.71
681.05	336.67
681.39	335.88
681.73	334.36
682.06	332.98
682.40	331.74
682.74	331.00
683.08	330.48
683.42	329.14
683.75	328.48
684.09	326.60
684.43	325.88
684.77	324.26
685.10	323.24
685.44	322.07
685.78	320.86
686.12	319.90
686.45	318.64
686.79	317.62
687.13	316.69
687.46	315.52
687.80	314.95
688.14	313.90
688.48	312.93
688.81	312.43
689.15	312.19
689.49	310.76
689.82	309.86
690.16	307.86
690.50	306.88
690.83	305.83
691.17	304.64
691.51	303.83
691.84	303.71
692.18	302.57
692.52	301.74
692.85	300.83
693.19	300.67
693.52	299.74
693.86	298.81
694.20	297.88
694.53	297.33
694.87	296.57
695.21	295.57
695.54	294.64
695.88	293.50
696.21	291.52
696.55	290.86
696.88	289.98
697.22	289.05
697.56	288.52
697.89	287.33
698.23	287.14
698.56	285.98
698.90	285.36
699.23	284.69
699.57	283.86
699.90	282.83
700.24	281.33
700.58	280.79
700.91	280.52
701.25	281.33
701.58	281.12
701.92	280.69
702.25	280.26
702.59	279.38
702.92	278.74
703.26	278.52
703.59	278.05
703.93	279.55
704.26	279.24
704.60	278.76
704.93	278.14
705.26	277.14
705.60	276.95
705.93	275.57
706.27	275.57
706.60	275.62
706.94	276.12
707.27	275.21
707.61	274.60
707.94	273.69
708.27	271.38
708.61	270.14
708.94	269.24
709.28	268.64
709.61	267.64
709.94	267.33
710.28	266.90
710.61	266.40
710.95	263.62
711.28	264.76
711.61	264.07
711.95	263.95
712.28	263.19
712.61	262.50
712.95	263.10
713.28	263.02
713.61	261.62
713.95	260.29
714.28	260.07
714.61	259.69
714.95	259.24
715.28	258.52
715.61	258.02
715.95	257.83
716.28	256.83
716.61	257.24
716.95	256.40
717.28	255.81
717.61	255.24
717.94	254.83
718.28	252.60
718.61	252.10
718.94	251.50
719.27	250.88
719.61	250.60
719.94	249.81
720.27	248.50
720.60	248.31
720.94	247.83
721.27	247.79
721.60	247.52
721.93	247.05
722.27	247.52
722.60	247.48
722.93	246.93
723.26	246.93
723.59	246.00
723.93	245.98
724.26	245.71
724.59	245.29
724.92	245.21
725.25	245.45
725.59	245.43
725.92	245.48
726.25	245.64
726.58	245.31
726.91	244.93
727.24	245.07
727.57	244.52
727.91	243.88
728.24	243.74
728.57	243.36
728.90	243.40
729.23	242.40
729.56	243.24
729.89	242.90
730.22	242.43
730.55	242.21
730.89	241.98
731.22	241.69
731.55	241.29
731.88	241.17
732.21	240.60
732.54	239.74
732.87	239.31
733.20	239.14
733.53	238.95
733.86	238.90
734.19	238.40
734.52	238.81
734.85	240.14
735.18	239.50
735.51	240.00
735.84	239.76
736.17	240.21
736.50	238.81
736.83	240.81
737.16	240.95
737.49	241.02
737.82	240.74
738.15	240.93
738.48	240.62
738.81	240.12
739.14	239.57
739.47	239.50
739.80	239.00
740.13	238.98
740.46	238.52
740.79	237.93
741.12	237.60
741.45	236.88
741.78	235.67
742.11	236.29
742.44	235.40
742.77	235.71
743.10	235.02
743.43	234.95
743.75	232.83
744.08	235.07
744.41	234.67
744.74	234.05
745.07	233.31
745.40	233.79
745.73	234.45
746.06	234.52
746.39	234.69
746.71	234.60
747.04	233.95
747.37	233.71
747.70	234.12
748.03	233.95
748.36	234.36
748.68	233.95
749.01	232.90
749.34	232.79
749.67	232.21
750.00	232.64
750.33	233.69
750.65	233.55
750.98	230.79
751.31	230.71
751.64	230.95
751.97	232.02
752.29	231.52
752.62	230.45
752.95	230.19
753.28	230.05
753.60	229.83
753.93	230.07
754.26	230.05
754.59	229.00
754.91	228.79
755.24	228.50
755.57	228.36
755.90	228.17
756.22	227.86
756.55	227.81
756.88	227.29
757.20	225.71
757.53	224.98
757.86	225.19
758.19	225.02
758.51	224.71
758.84	223.60
759.17	223.48
759.49	223.64
759.82	224.38
760.15	223.93
760.47	223.86
760.80	223.48
761.13	223.69
761.45	223.79
761.78	223.71
762.11	223.50
762.43	223.31
762.76	223.21
763.08	223.31
763.41	223.17
763.74	222.86
764.06	222.95
764.39	222.95
764.71	222.69
765.04	222.45
765.37	222.33
765.69	222.12
766.02	221.95
766.34	221.48
766.67	220.81
767.00	221.26
767.32	222.21
767.65	223.21
767.97	222.93
768.30	223.02
768.62	223.07
768.95	222.79
769.27	222.90
769.60	223.21
769.92	222.93
770.25	222.40
770.57	222.14
770.90	221.98
771.22	221.95
771.55	222.02
771.87	221.98
772.20	221.83
772.52	223.55
772.85	225.74
773.17	225.76
773.50	225.60
773.82	225.36
774.15	224.24
774.47	223.19
774.80	222.86
775.12	222.74
775.45	222.60
775.77	222.60
776.09	222.69
776.42	222.60
776.74	223.33
777.07	223.19
777.39	223.38
777.72	223.00
778.04	223.17
778.36	222.86
778.69	223.12
779.01	223.29
779.33	221.45
779.66	219.29
779.98	219.07
780.31	218.95
780.63	219.43
780.95	219.71
781.28	219.31
781.60	219.26
781.92	219.02
782.25	218.81
782.57	218.81
782.89	218.43
783.22	218.24
783.54	217.40
783.86	217.76
784.19	217.69
784.51	218.50
784.83	218.07
785.16	218.19
785.48	218.02
785.80	217.90
786.12	218.12
786.45	218.12
786.77	218.24
787.09	218.17
787.42	217.64
787.74	217.83
788.06	217.93
788.38	217.76
788.71	217.81
789.03	218.24
789.35	218.43
789.67	218.14
789.99	218.14
790.32	217.88
790.64	218.21
790.96	219.69
791.28	218.81
791.61	218.90
791.93	218.88
792.25	218.64
792.57	219.98
792.89	219.48
793.21	219.48
793.54	219.40
793.86	219.40
794.18	219.38
794.50	218.86
794.82	218.95
795.14	219.43
795.47	219.64
795.79	219.60
796.11	219.29
796.43	219.36
796.75	219.52
797.07	219.90
797.39	219.45
797.71	217.95
798.04	218.19
798.36	218.29
798.68	218.19
799.00	218.43
799.32	217.33
799.64	217.79
799.96	217.69
800.28	217.90
800.60	217.69
800.92	218.12
801.24	218.05
801.56	218.29
801.89	217.83
802.21	217.98
802.53	217.55
802.85	217.86
803.17	218.88
803.49	218.40
803.81	218.24
804.13	217.95
804.45	217.98
804.77	218.17
805.09	217.95
805.41	217.79
805.73	217.48
806.05	217.36
806.37	217.10
806.69	216.74
807.01	216.57
807.33	216.48
807.65	215.60
807.97	216.57
808.28	216.10
808.60	216.26
808.92	215.86
809.24	217.43
809.56	217.17
809.88	216.33
810.20	216.52
810.52	216.79
810.84	216.48
811.16	216.19
811.48	215.93
811.80	216.81
812.12	216.76
812.43	217.12
812.75	217.24
813.07	217.05
813.39	217.45
813.71	217.19
814.03	217.29
814.35	217.26
814.67	216.33
814.98	216.10
815.30	216.00
815.62	215.71
815.94	213.90
816.26	213.98
816.58	213.55
816.89	213.60
817.21	213.10
817.53	213.36
817.85	213.29
818.17	213.26
818.48	212.36
818.80	212.55
819.12	212.40
819.44	211.86
819.76	211.76
820.07	211.67
820.39	212.00
820.71	211.95
821.03	212.07
821.34	211.81
821.66	212.33
821.98	212.60
822.30	212.52
822.61	213.90
822.93	213.40
823.25	213.43
823.57	213.26
823.88	213.74
824.20	213.62
824.52	213.98
824.83	213.98
825.15	213.86
825.47	213.98
825.79	214.00
826.10	213.88
826.42	213.83
826.74	213.93
827.05	213.67
827.37	213.88
827.69	213.55
828.00	213.83
828.32	213.60
828.64	213.31
828.95	214.55
829.27	213.93
829.58	214.17
829.90	214.43
830.22	214.50
830.53	214.07
830.85	214.00
831.17	213.55
831.48	213.43
831.80	213.43
832.11	213.45
832.43	213.14
832.75	213.17
833.06	214.24
833.38	213.81
833.69	213.79
834.01	213.64
834.32	213.95
834.64	213.88
834.96	214.02
835.27	213.90
835.59	213.36
835.90	212.81
836.22	212.81
836.53	212.67
836.85	212.45
837.16	214.52
837.48	214.62
837.79	215.45
838.11	215.55
838.42	215.55
838.74	215.60
839.05	215.43
839.37	215.48
839.68	214.26
840.00	214.26
840.31	214.60
840.63	214.50
840.94	214.29
841.26	213.95
841.57	213.86
841.88	214.21
842.20	213.71
842.51	213.74
842.83	213.64
843.14	215.33
843.46	215.62
843.77	214.52
844.08	214.38
844.40	213.67
844.71	213.60
845.03	213.45
845.34	213.07
845.65	213.19
845.97	213.45
846.28	213.76
846.60	213.81
846.91	213.21
847.22	213.31
847.54	213.79
847.85	213.98
848.16	213.79
848.48	213.36
848.79	214.26
849.10	214.33
849.42	214.62
849.73	212.62
850.04	212.57
850.36	211.81
850.67	212.45
850.98	212.48
851.30	212.55
851.61	212.62
851.92	212.86
852.23	213.55
852.55	213.45
852.86	213.50
853.17	213.74
853.49	214.43
853.80	214.76
854.11	214.81
854.42	215.02
854.74	215.10
855.05	215.17
855.36	213.98
855.67	214.36
855.99	214.29
856.30	216.93
856.61	216.64
856.92	216.81
857.23	216.60
857.55	216.55
857.86	216.36
858.17	216.76
858.48	216.50
858.79	216.24
859.11	216.40
859.42	216.19
859.73	215.81
860.04	215.64
860.35	214.95
860.66	214.38
860.98	214.38
861.29	214.55
861.60	214.48
861.91	215.21
862.22	214.48
862.53	214.07
862.84	211.64
863.16	212.40
863.47	211.95
863.78	211.55
864.09	211.64
864.40	211.93
864.71	212.07
865.02	212.33
865.33	211.86
865.64	211.48
865.95	211.57
866.27	213.05
866.58	212.69
866.89	212.95
867.20	212.95
867.51	212.62
867.82	212.55
868.13	213.14
868.44	212.48
868.75	213.10
869.06	213.48
869.37	213.69
869.68	212.93
869.99	213.33
870.30	213.64
870.61	213.71
870.92	213.24
871.23	212.79
871.54	212.86
871.85	213.29
872.16	213.57
872.47	213.31
872.78	212.10
873.09	212.38
873.40	212.43
873.71	212.64
874.02	212.81
874.33	212.62
874.64	212.17
874.95	212.69
875.26	212.36
875.56	212.05
875.87	211.83
876.18	211.71
876.49	213.64
876.80	213.43
877.11	212.93
877.42	213.24
877.73	213.31
878.04	213.10
878.35	213.43
878.66	213.55
878.96	213.55
879.27	213.43
879.58	213.29
879.89	213.19
880.20	213.52
880.51	213.29
880.82	213.19
881.12	213.36
881.43	212.95
881.74	212.45
882.05	212.55
882.36	212.76
882.67	213.19
882.97	211.05
883.28	211.12
883.59	211.24
883.90	211.33
884.21	211.55
884.51	211.29
884.82	210.76
885.13	210.86
885.44	210.93
885.74	211.02
886.05	211.07
886.36	210.98
886.67	210.43
886.98	211.40
887.28	211.67
887.59	211.55
887.90	211.55
888.20	211.71
888.51	211.95
888.82	211.64
889.13	211.55
889.43	213.26
889.74	213.00
890.05	213.07
890.35	212.90
890.66	212.69
890.97	212.57
891.28	212.29
891.58	212.14
891.89	212.26
892.20	212.05
892.50	211.83
892.81	211.74
893.12	211.64
893.42	210.86
893.73	210.95
894.04	210.86
894.34	211.07
894.65	210.93
894.95	210.83
895.26	210.95
895.57	212.14
895.87	210.33
896.18	210.79
896.48	210.86
896.79	210.69
897.10	210.88
897.40	211.12
897.71	211.36
898.01	211.33
898.32	211.45
898.63	211.38
898.93	211.64
899.24	211.52
899.54	211.55
899.85	211.48
900.15	211.52
900.46	211.52
900.76	211.57
901.07	211.79
901.38	211.83
901.68	212.19
901.99	211.00
902.29	210.93
902.60	210.71
902.90	210.55
903.21	210.52
903.51	210.31
903.82	210.74
904.12	211.12
904.43	211.17
904.73	211.05
905.03	211.17
905.34	213.19
905.64	213.33
905.95	213.36
906.25	213.19
906.56	213.12
906.86	213.24
907.17	213.31
907.47	213.48
907.77	213.29
908.08	212.90
908.38	213.07
908.69	213.33
908.99	213.74
909.30	213.88
909.60	214.24
909.90	214.38
910.21	213.76
910.51	213.10
910.81	213.14
911.12	213.29
911.42	213.19
911.73	210.88
912.03	211.07
912.33	211.64
912.64	211.71
912.94	211.43
913.24	210.90
913.55	210.50
913.85	210.29
914.15	210.71
914.46	211.02
914.76	210.62
915.06	210.64
915.37	210.43
915.67	210.43
915.97	210.24
916.27	209.74
916.58	209.69
916.88	209.69
917.18	209.45
917.49	210.90
917.79	211.19
918.09	211.57
918.39	211.81
918.70	211.50
919.00	211.60
919.30	212.36
919.60	212.43
919.91	212.29
920.21	212.36
920.51	211.90
920.81	211.52
921.12	211.93
921.42	211.86
921.72	211.93
922.02	212.00
922.32	212.36
922.63	212.52
922.93	213.69
923.23	213.86
923.53	213.74
923.83	212.33
924.13	212.17
924.44	212.24
924.74	212.76
925.04	213.12
925.34	213.19
925.64	212.43
925.94	212.71
926.24	213.88
926.55	213.55
926.85	213.88
927.15	214.05
927.45	214.00
927.75	213.79
928.05	213.60
928.35	213.57
928.65	213.95
928.95	214.14
929.26	213.48
929.56	213.69
929.86	213.83
930.16	213.60
930.46	213.62
930.76	213.60
931.06	212.60
931.36	212.26
931.66	212.50
931.96	212.79
932.26	212.79
932.56	211.95
932.86	212.10
933.16	211.93
933.46	211.69
933.76	211.67
934.06	212.33
934.36	213.00
934.66	212.90
934.96	212.57
935.26	212.67
935.56	212.83
935.86	212.57
936.16	212.62
936.46	212.45
936.76	212.45
937.06	212.12
937.36	212.48
937.66	212.48
937.96	212.43
938.26	212.26
938.56	212.19
938.86	212.57
939.16	213.14
939.46	213.40
939.76	213.57
940.06	213.33
940.35	212.69
940.65	211.76
940.95	212.00
941.25	211.45
941.55	211.24
941.85	210.95
942.15	211.38
942.45	211.57
942.75	211.64
943.04	211.62
943.34	212.17
943.64	211.83
943.94	211.43
944.24	211.45
944.54	211.33
944.84	211.29
945.13	210.95
945.43	210.71
945.73	210.48
946.03	210.40
946.33	210.50
946.62	210.55
946.92	210.55
947.22	210.71
947.52	210.86
947.82	211.26
948.11	211.19
948.41	210.81
948.71	210.33
949.01	210.45
949.31	210.38
949.60	210.05
949.90	210.26
950.20	210.33
950.50	210.21
950.79	210.10
951.09	210.24
951.39	210.14
951.69	209.88
951.98	210.48
952.28	210.31
952.58	210.26
952.87	210.07
953.17	210.48
953.47	210.07
953.76	210.05
954.06	209.76
954.36	209.69
954.66	209.55
954.95	210.36
955.25	210.60
955.55	210.62
955.84	210.38
956.14	210.74
956.44	210.64
956.73	210.19
957.03	210.26
957.32	210.29
957.62	210.29
957.92	210.76
958.21	210.38
958.51	213.12
958.81	213.07
959.10	213.50
959.40	214.00
959.69	214.14
959.99	214.55
960.29	214.36
960.58	214.02
960.88	214.67
961.17	214.12
961.47	214.12
961.76	214.10
962.06	214.40
962.36	214.10
962.65	214.21
962.95	214.52
963.24	214.62
963.54	214.79
963.83	214.76
964.13	214.74
964.42	214.19
964.72	212.26
965.01	212.38
965.31	211.93
965.60	211.43
965.90	212.64
966.19	212.10
966.49	212.12
966.78	212.62
967.08	212.52
967.37	212.81
967.67	212.79
967.96	213.19
968.26	213.17
968.55	213.48
968.85	213.55
969.14	213.50
969.43	213.48
969.73	213.17
970.02	213.10
970.32	212.95
970.61	213.12
970.91	212.62
971.20	212.38
971.49	212.38
971.79	212.38
972.08	211.07
972.38	211.40
972.67	211.31
972.96	211.14
973.26	210.67
973.55	211.05
973.85	210.67
974.14	210.55
974.43	210.62
974.73	210.26
975.02	210.19
975.31	210.21
975.61	210.21
975.90	210.19
976.19	210.10
976.49	210.00
976.78	210.33
977.07	210.10
977.37	210.26
977.66	210.60
977.95	210.52
978.24	210.79
978.54	211.21
978.83	211.10
979.12	211.02
979.42	211.07
979.71	210.88
980.00	210.98
980.29	210.76
980.59	210.50
980.88	210.90
981.17	210.76
981.46	210.90
981.76	210.83
982.05	211.38
982.34	211.33
982.63	211.45
982.93	211.48
983.22	212.26
983.51	212.29
983.80	212.52
984.09	212.74
984.39	212.64
984.68	212.21
984.97	212.29
985.26	212.21
985.55	212.76
985.85	212.12
986.14	212.55
986.43	213.05
986.72	212.86
987.01	212.38
987.30	212.60
987.59	212.36
987.89	212.45
988.18	211.95
988.47	212.21
988.76	212.12
989.05	211.69
989.34	211.24
989.63	211.79
989.92	211.31
990.22	211.02
990.51	210.67
990.80	210.40
991.09	210.64
991.38	210.88
991.67	210.45
991.96	210.31
992.25	210.05
992.54	209.62
992.83	209.74
993.12	209.69
993.41	210.00
993.70	210.79
993.99	211.07
994.28	211.17
994.58	211.24
994.87	211.14
995.16	211.05
995.45	210.95
995.74	210.02
996.03	210.50
996.32	210.83
996.61	211.50
996.90	211.71
997.19	211.79
997.48	211.93
997.77	211.67
998.06	211.88
998.34	211.86
998.63	211.83
998.92	211.98
999.21	212.17
999.50	212.02
999.79	211.50
1000.08	211.36
1000.37	211.50
1000.66	211.31
1000.95	211.69
1001.24	211.93
1001.53	212.31
1001.82	212.43
1002.11	211.86
1002.40	212.24
1002.68	212.55
1002.97	213.71
1003.26	213.40
1003.55	212.90
1003.84	213.26
1004.13	214.10
1004.42	213.90
1004.71	213.83
1004.99	213.50
1005.28	214.00
1005.57	213.74
1005.86	213.48
1006.15	213.29
1006.44	213.14
1006.72	213.29
1007.01	212.81
1007.30	212.69
1007.59	212.52
1007.88	212.45
1008.17	212.57
1008.45	211.83
1008.74	210.95
1009.03	210.26
1009.32	210.43
1009.60	210.48
1009.89	210.17
1010.18	209.26
1010.47	209.38
1010.76	209.26
1011.04	209.52
1011.33	209.38
1011.62	209.69
1011.91	209.81
1012.19	209.81
1012.48	209.81
1012.77	209.55
1013.05	210.74
1013.34	210.93
1013.63	210.60
1013.92	210.88
1014.20	210.90
1014.49	211.07
1014.78	211.36
1015.06	210.57
1015.35	210.55
1015.64	210.86
1015.92	211.26
1016.21	211.45
1016.50	211.45
1016.78	211.83
1017.07	211.90
1017.36	211.88
1017.64	211.50
1017.93	211.64
1018.22	211.69
1018.50	211.74
1018.79	211.83
1019.08	210.83
1019.36	210.88
1019.65	210.95
1019.93	211.45
1020.22	211.71
1020.51	212.57
1020.79	212.36
1021.08	209.00
1021.36	211.50
1021.65	209.00
1021.94	211.00
1022.22	212.00
1022.51	210.00
1022.79	221.00
1023.08	213.50
1023.36	231.50
1023.65	207.50
>>>>>End Processed Spectral Data<<<<<
