SpectraSuite Data File
++++++++++++++++++++++++++++++++++++
Date: Tue Apr 02 18:42:55 EDT 2013
User: group
Dark Spectrum Present: No
Reference Spectrum Present: No
Number of Sampled Component Spectra: 1
Spectrometers: USB2E7196
Integration Time (usec): 580000 (USB2E7196)
Spectra Averaged: 2 (USB2E7196)
Boxcar Smoothing: 10 (USB2E7196)
Correct for Electrical Dark: No (USB2E7196)
Strobe/Lamp Enabled: No (USB2E7196)
Correct for Detector Non-linearity: No (USB2E7196)
Correct for Stray Light: No (USB2E7196)
Number of Pixels in Processed Spectrum: 2048
>>>>>Begin Processed Spectral Data<<<<<
339.09	0.00
339.48	189.50
339.86	192.50
340.24	196.00
340.63	199.50
341.01	227.00
341.39	200.00
341.78	207.00
342.16	212.00
342.54	204.50
342.93	196.64
343.31	206.40
343.69	207.17
344.07	207.52
344.46	208.33
344.84	208.67
345.22	207.62
345.60	208.07
345.99	208.19
346.37	208.02
346.75	207.93
347.13	207.76
347.52	207.90
347.90	208.62
348.28	208.48
348.66	208.95
349.05	208.57
349.43	208.64
349.81	208.69
350.19	208.57
350.57	208.71
350.96	209.05
351.34	209.43
351.72	209.48
352.10	209.71
352.48	209.36
352.87	209.60
353.25	209.83
353.63	209.81
354.01	209.81
354.39	210.00
354.77	210.14
355.15	210.93
355.54	210.76
355.92	210.40
356.30	210.57
356.68	211.76
357.06	211.57
357.44	211.33
357.82	211.43
358.20	212.48
358.58	212.57
358.97	212.62
359.35	213.24
359.73	213.62
360.11	213.76
360.49	214.14
360.87	214.07
361.25	214.26
361.63	215.07
362.01	215.24
362.39	215.02
362.77	215.38
363.15	215.33
363.53	215.45
363.91	215.52
364.29	215.57
364.67	213.71
365.05	214.26
365.43	214.71
365.81	214.86
366.19	215.10
366.57	216.07
366.95	216.17
367.33	215.55
367.71	215.76
368.09	216.17
368.47	216.29
368.85	216.21
369.23	216.79
369.61	216.05
369.99	217.02
370.37	217.48
370.75	218.62
371.13	218.33
371.51	218.43
371.89	218.50
372.27	218.83
372.65	219.12
373.03	219.14
373.41	218.90
373.78	218.93
374.16	218.00
374.54	217.43
374.92	217.40
375.30	217.57
375.68	217.31
376.06	217.48
376.44	217.14
376.82	217.57
377.19	217.31
377.57	217.36
377.95	216.43
378.33	216.38
378.71	215.24
379.09	215.71
379.47	215.74
379.84	215.76
380.22	215.40
380.60	215.24
380.98	214.90
381.36	214.81
381.73	214.50
382.11	214.67
382.49	214.67
382.87	214.43
383.25	214.31
383.62	216.64
384.00	216.26
384.38	216.55
384.76	216.90
385.13	217.81
385.51	217.81
385.89	217.38
386.27	217.14
386.64	217.21
387.02	216.71
387.40	216.69
387.78	216.64
388.15	217.00
388.53	216.79
388.91	216.95
389.29	216.90
389.66	217.14
390.04	216.95
390.42	217.33
390.79	217.29
391.17	217.17
391.55	214.74
391.92	214.79
392.30	214.76
392.68	214.17
393.05	213.93
393.43	213.86
393.81	214.10
394.18	214.00
394.56	214.12
394.94	214.62
395.31	214.17
395.69	214.86
396.06	214.79
396.44	214.95
396.82	214.64
397.19	215.74
397.57	215.67
397.95	216.07
398.32	215.12
398.70	215.33
399.07	215.74
399.45	215.79
399.82	215.76
400.20	215.43
400.58	215.43
400.95	214.62
401.33	215.17
401.70	216.79
402.08	216.93
402.45	216.93
402.83	217.26
403.20	217.62
403.58	217.19
403.95	217.64
404.33	218.21
404.71	218.48
405.08	219.69
405.46	220.05
405.83	220.10
406.21	220.57
406.58	221.00
406.96	221.17
407.33	222.05
407.70	222.69
408.08	225.07
408.45	225.95
408.83	227.07
409.20	227.24
409.58	226.62
409.95	227.69
410.33	228.48
410.70	228.83
411.08	230.07
411.45	231.29
411.82	232.10
412.20	233.55
412.57	236.17
412.95	235.69
413.32	237.50
413.69	238.95
414.07	240.69
414.44	242.50
414.82	244.52
415.19	246.55
415.56	248.79
415.94	249.95
416.31	252.95
416.68	255.81
417.06	259.26
417.43	262.88
417.81	266.50
418.18	270.26
418.55	273.81
418.93	277.88
419.30	281.88
419.67	286.43
420.04	290.81
420.42	294.95
420.79	302.36
421.16	308.12
421.54	315.33
421.91	321.48
422.28	327.57
422.66	334.26
423.03	342.26
423.40	349.48
423.77	356.90
424.15	363.67
424.52	371.12
424.89	379.74
425.26	387.43
425.64	395.07
426.01	403.21
426.38	412.71
426.75	422.45
427.13	431.67
427.50	441.62
427.87	451.57
428.24	461.31
428.61	469.52
428.99	480.40
429.36	490.69
429.73	502.17
430.10	514.00
430.47	525.98
430.85	536.17
431.22	548.36
431.59	562.90
431.96	575.57
432.33	589.40
432.70	602.86
433.08	619.12
433.45	634.40
433.82	650.07
434.19	666.71
434.56	683.57
434.93	699.10
435.30	714.90
435.68	732.40
436.05	750.33
436.42	767.86
436.79	783.76
437.16	801.60
437.53	819.71
437.90	837.67
438.27	855.45
438.64	873.81
439.01	891.14
439.38	905.86
439.75	921.38
440.13	938.14
440.50	954.21
440.87	966.71
441.24	980.14
441.61	994.60
441.98	1005.38
442.35	1017.52
442.72	1030.88
443.09	1044.48
443.46	1052.21
443.83	1057.48
444.20	1061.81
444.57	1067.90
444.94	1070.21
445.31	1073.67
445.68	1079.33
446.05	1080.62
446.42	1079.62
446.79	1078.52
447.16	1076.43
447.53	1075.12
447.90	1069.52
448.27	1063.21
448.64	1054.62
449.01	1048.21
449.37	1037.07
449.74	1026.48
450.11	1014.93
450.48	999.95
450.85	983.67
451.22	971.64
451.59	958.83
451.96	947.17
452.33	931.26
452.70	917.17
453.07	900.05
453.43	880.17
453.80	863.43
454.17	847.24
454.54	831.52
454.91	814.52
455.28	798.29
455.65	782.88
456.02	770.93
456.38	758.60
456.75	742.74
457.12	729.67
457.49	717.24
457.86	702.93
458.23	693.79
458.59	682.19
458.96	669.60
459.33	659.29
459.70	648.81
460.07	640.69
460.43	631.57
460.80	623.00
461.17	615.81
461.54	607.48
461.91	599.64
462.27	591.26
462.64	584.43
463.01	577.14
463.38	570.43
463.74	559.74
464.11	553.05
464.48	547.71
464.85	541.05
465.21	535.88
465.58	530.67
465.95	523.60
466.32	518.71
466.68	513.36
467.05	508.19
467.42	503.48
467.78	498.14
468.15	492.93
468.52	489.05
468.88	483.19
469.25	478.24
469.62	474.93
469.98	471.05
470.35	467.14
470.72	463.67
471.08	459.29
471.45	456.31
471.82	453.31
472.18	449.69
472.55	447.67
472.92	443.90
473.28	440.88
473.65	437.76
474.02	434.83
474.38	432.79
474.75	430.88
475.11	428.10
475.48	426.64
475.85	424.81
476.21	422.62
476.58	421.38
476.94	420.48
477.31	418.88
477.67	417.88
478.04	417.12
478.41	415.88
478.77	417.12
479.14	416.50
479.50	415.93
479.87	415.79
480.23	415.21
480.60	414.88
480.96	414.86
481.33	416.00
481.69	415.86
482.06	416.19
482.42	416.64
482.79	417.14
483.15	417.17
483.52	418.21
483.88	418.74
484.25	419.48
484.61	420.81
484.98	421.93
485.34	423.36
485.71	424.64
486.07	426.17
486.44	425.45
486.80	426.93
487.17	428.31
487.53	430.48
487.90	432.57
488.26	435.57
488.62	437.90
488.99	439.57
489.35	442.31
489.72	444.60
490.08	447.26
490.44	450.00
490.81	453.57
491.17	456.26
491.54	459.62
491.90	463.43
492.26	466.40
492.63	470.00
492.99	473.62
493.36	478.00
493.72	482.38
494.08	487.17
494.45	491.86
494.81	496.74
495.17	500.90
495.54	506.00
495.90	510.24
496.26	515.62
496.63	521.05
496.99	526.57
497.35	532.52
497.72	538.43
498.08	544.02
498.44	549.86
498.80	556.24
499.17	562.95
499.53	569.07
499.89	576.02
500.26	582.48
500.62	588.98
500.98	596.05
501.34	603.29
501.71	610.62
502.07	617.52
502.43	624.64
502.79	632.10
503.16	639.02
503.52	646.98
503.88	654.10
504.24	661.43
504.60	669.43
504.97	676.90
505.33	684.38
505.69	693.31
506.05	700.86
506.41	708.86
506.78	716.64
507.14	724.02
507.50	732.24
507.86	740.29
508.22	748.21
508.59	755.33
508.95	762.40
509.31	771.07
509.67	779.19
510.03	786.81
510.39	794.14
510.75	801.71
511.12	808.95
511.48	817.12
511.84	824.98
512.20	832.48
512.56	840.40
512.92	848.12
513.28	855.31
513.64	863.19
514.00	870.29
514.37	877.10
514.73	885.24
515.09	892.69
515.45	899.86
515.81	907.21
516.17	913.90
516.53	920.76
516.89	925.83
517.25	932.21
517.61	939.64
517.97	946.29
518.33	952.88
518.69	959.45
519.05	965.62
519.41	971.71
519.77	978.88
520.13	984.60
520.49	990.40
520.85	995.79
521.21	1002.33
521.57	1009.05
521.93	1014.43
522.29	1019.76
522.65	1024.31
523.01	1030.10
523.37	1035.00
523.73	1040.76
524.09	1046.60
524.45	1051.79
524.81	1056.83
525.17	1061.60
525.53	1067.21
525.89	1072.43
526.25	1077.93
526.61	1081.55
526.97	1085.67
527.33	1089.64
527.68	1095.69
528.04	1100.07
528.40	1104.26
528.76	1107.86
529.12	1112.02
529.48	1117.40
529.84	1120.79
530.20	1125.64
530.56	1129.93
530.91	1135.05
531.27	1139.43
531.63	1143.71
531.99	1148.21
532.35	1152.76
532.71	1156.90
533.07	1161.29
533.42	1167.40
533.78	1171.43
534.14	1176.33
534.50	1180.79
534.86	1185.26
535.21	1187.88
535.57	1192.83
535.93	1197.05
536.29	1201.95
536.65	1206.10
537.00	1209.26
537.36	1213.88
537.72	1217.17
538.08	1221.00
538.44	1223.36
538.79	1226.69
539.15	1229.69
539.51	1233.55
539.87	1236.81
540.22	1240.05
540.58	1243.24
540.94	1244.76
541.29	1247.21
541.65	1250.26
542.01	1253.79
542.37	1255.90
542.72	1258.12
543.08	1260.29
543.44	1263.29
543.79	1264.43
544.15	1266.90
544.51	1270.67
544.87	1273.69
545.22	1276.95
545.58	1278.98
545.94	1281.74
546.29	1285.21
546.65	1287.81
547.01	1289.98
547.36	1292.40
547.72	1294.26
548.07	1296.71
548.43	1298.69
548.79	1300.90
549.14	1303.19
549.50	1305.76
549.86	1308.24
550.21	1311.48
550.57	1314.69
550.92	1317.43
551.28	1321.52
551.64	1324.26
551.99	1326.57
552.35	1328.69
552.70	1330.95
553.06	1334.45
553.41	1337.93
553.77	1341.31
554.13	1344.90
554.48	1349.29
554.84	1353.76
555.19	1358.07
555.55	1363.17
555.90	1367.19
556.26	1370.60
556.61	1373.79
556.97	1377.36
557.32	1381.00
557.68	1384.95
558.03	1388.00
558.39	1391.71
558.74	1394.90
559.10	1399.07
559.45	1403.12
559.81	1407.83
560.16	1411.88
560.52	1416.07
560.87	1420.88
561.23	1423.95
561.58	1429.79
561.94	1433.62
562.29	1436.52
562.64	1441.45
563.00	1445.43
563.35	1450.02
563.71	1456.10
564.06	1462.19
564.42	1467.71
564.77	1474.12
565.12	1479.90
565.48	1487.76
565.83	1494.14
566.19	1500.55
566.54	1505.76
566.89	1511.17
567.25	1516.90
567.60	1524.86
567.96	1533.07
568.31	1540.26
568.66	1547.52
569.02	1552.67
569.37	1557.86
569.72	1563.76
570.08	1569.67
570.43	1574.50
570.78	1581.14
571.14	1586.29
571.49	1591.86
571.84	1597.88
572.20	1601.90
572.55	1607.00
572.90	1610.05
573.26	1614.36
573.61	1617.81
573.96	1623.45
574.31	1627.98
574.67	1632.79
575.02	1635.38
575.37	1636.86
575.72	1639.07
576.08	1642.74
576.43	1646.60
576.78	1650.29
577.13	1655.07
577.49	1657.74
577.84	1661.29
578.19	1664.33
578.54	1668.45
578.90	1672.74
579.25	1675.14
579.60	1679.00
579.95	1681.62
580.30	1685.14
580.66	1689.38
581.01	1692.93
581.36	1695.07
581.71	1698.64
582.06	1702.31
582.42	1706.74
582.77	1709.55
583.12	1712.64
583.47	1715.40
583.82	1717.64
584.17	1720.10
584.53	1723.05
584.88	1725.98
585.23	1729.74
585.58	1731.38
585.93	1732.81
586.28	1734.88
586.63	1737.45
586.98	1739.81
587.34	1743.31
587.69	1745.52
588.04	1746.67
588.39	1749.69
588.74	1750.52
589.09	1752.48
589.44	1752.88
589.79	1753.19
590.14	1755.64
590.49	1757.07
590.84	1758.38
591.19	1759.50
591.54	1762.45
591.89	1763.55
592.25	1766.36
592.60	1766.10
592.95	1769.26
593.30	1771.07
593.65	1771.07
594.00	1770.88
594.35	1778.02
594.70	1778.02
595.05	1779.24
595.40	1780.31
595.75	1780.33
596.10	1782.55
596.45	1783.29
596.80	1784.45
597.15	1785.48
597.50	1785.24
597.85	1786.79
598.19	1786.57
598.54	1786.93
598.89	1786.38
599.24	1787.17
599.59	1786.48
599.94	1787.24
600.29	1786.52
600.64	1786.69
600.99	1787.31
601.34	1789.40
601.69	1782.88
602.04	1782.95
602.39	1781.88
602.74	1782.98
603.08	1782.24
603.43	1782.00
603.78	1781.60
604.13	1781.02
604.48	1781.60
604.83	1781.45
605.18	1780.81
605.53	1780.83
605.87	1780.02
606.22	1779.17
606.57	1777.10
606.92	1775.31
607.27	1774.76
607.62	1773.83
607.96	1773.00
608.31	1771.98
608.66	1770.19
609.01	1768.17
609.36	1767.00
609.70	1765.60
610.05	1762.02
610.40	1760.00
610.75	1757.50
611.10	1755.36
611.44	1752.64
611.79	1749.14
612.14	1746.57
612.49	1742.88
612.83	1740.00
613.18	1737.07
613.53	1734.21
613.88	1731.64
614.22	1728.64
614.57	1724.07
614.92	1719.45
615.27	1715.81
615.61	1711.79
615.96	1708.31
616.31	1705.05
616.65	1701.90
617.00	1698.88
617.35	1695.98
617.70	1693.90
618.04	1690.40
618.39	1686.19
618.74	1682.26
619.08	1678.19
619.43	1674.83
619.78	1671.76
620.12	1668.02
620.47	1664.31
620.82	1660.74
621.16	1655.29
621.51	1652.19
621.85	1648.76
622.20	1645.00
622.55	1639.76
622.89	1635.95
623.24	1631.95
623.59	1628.40
623.93	1623.38
624.28	1618.95
624.62	1616.17
624.97	1612.50
625.32	1607.69
625.66	1603.83
626.01	1599.57
626.35	1596.07
626.70	1591.50
627.04	1587.74
627.39	1582.93
627.73	1579.10
628.08	1575.07
628.43	1571.74
628.77	1567.12
629.12	1562.40
629.46	1558.64
629.81	1555.48
630.15	1550.57
630.50	1545.00
630.84	1540.07
631.19	1535.24
631.53	1530.31
631.88	1522.26
632.22	1515.05
632.57	1510.79
632.91	1505.31
633.26	1500.81
633.60	1495.48
633.95	1490.64
634.29	1483.95
634.64	1479.33
634.98	1473.50
635.32	1468.93
635.67	1464.81
636.01	1459.79
636.36	1454.71
636.70	1449.81
637.05	1444.95
637.39	1440.48
637.73	1436.50
638.08	1432.43
638.42	1427.45
638.77	1422.93
639.11	1419.36
639.45	1414.50
639.80	1409.17
640.14	1404.02
640.49	1398.76
640.83	1393.10
641.17	1387.64
641.52	1383.21
641.86	1377.95
642.20	1374.50
642.55	1367.93
642.89	1361.52
643.23	1355.62
643.58	1351.17
643.92	1344.69
644.26	1338.00
644.61	1332.21
644.95	1325.57
645.29	1318.12
645.64	1312.33
645.98	1306.17
646.32	1300.26
646.66	1294.19
647.01	1287.33
647.35	1281.69
647.69	1275.00
648.04	1269.76
648.38	1263.57
648.72	1257.48
649.06	1251.57
649.41	1243.90
649.75	1237.60
650.09	1231.45
650.43	1225.12
650.78	1217.64
651.12	1211.17
651.46	1205.36
651.80	1198.29
652.14	1191.81
652.49	1186.29
652.83	1179.79
653.17	1172.02
653.51	1164.83
653.85	1159.29
654.20	1153.98
654.54	1146.67
654.88	1140.64
655.22	1134.88
655.56	1127.64
655.90	1120.69
656.25	1114.10
656.59	1108.10
656.93	1101.55
657.27	1095.50
657.61	1088.64
657.95	1082.76
658.29	1076.95
658.64	1071.19
658.98	1064.79
659.32	1058.17
659.66	1051.57
660.00	1045.55
660.34	1039.60
660.68	1034.48
661.02	1027.57
661.36	1020.21
661.70	1014.74
662.05	1008.33
662.39	1001.40
662.73	996.71
663.07	991.21
663.41	985.10
663.75	978.90
664.09	973.57
664.43	967.17
664.77	961.81
665.11	955.55
665.45	949.57
665.79	942.62
666.13	936.50
666.47	930.95
666.81	924.79
667.15	918.98
667.49	914.21
667.83	908.40
668.17	903.00
668.51	897.69
668.85	891.67
669.19	887.45
669.53	880.74
669.87	874.26
670.21	868.38
670.55	862.83
670.89	857.60
671.23	851.48
671.57	845.62
671.91	839.71
672.25	834.10
672.58	829.05
672.92	823.45
673.26	818.57
673.60	813.14
673.94	808.33
674.28	802.71
674.62	797.17
674.96	791.21
675.30	785.83
675.64	780.74
675.97	775.62
676.31	769.62
676.65	764.24
676.99	760.29
677.33	755.29
677.67	750.12
678.01	744.24
678.34	739.83
678.68	735.93
679.02	730.81
679.36	726.12
679.70	720.88
680.04	716.19
680.37	711.31
680.71	706.57
681.05	702.24
681.39	697.79
681.73	693.07
682.06	688.55
682.40	684.14
682.74	679.69
683.08	676.12
683.42	671.26
683.75	667.36
684.09	662.24
684.43	657.45
684.77	652.95
685.10	649.07
685.44	644.86
685.78	639.88
686.12	635.74
686.45	631.14
686.79	626.31
687.13	622.60
687.46	618.14
687.80	614.64
688.14	609.62
688.48	605.40
688.81	600.74
689.15	597.17
689.49	592.79
689.82	588.81
690.16	583.83
690.50	580.00
690.83	576.24
691.17	571.36
691.51	567.38
691.84	563.48
692.18	559.45
692.52	555.14
692.85	551.69
693.19	548.50
693.52	545.05
693.86	541.19
694.20	537.33
694.53	534.02
694.87	529.40
695.21	525.88
695.54	521.88
695.88	517.93
696.21	513.48
696.55	510.00
696.88	506.45
697.22	502.83
697.56	499.55
697.89	495.64
698.23	493.07
698.56	489.67
698.90	486.55
699.23	482.60
699.57	479.55
699.90	476.24
700.24	472.55
700.58	469.00
700.91	466.17
701.25	464.64
701.58	461.81
701.92	459.45
702.25	456.26
702.59	453.17
702.92	450.90
703.26	448.14
703.59	445.19
703.93	444.02
704.26	441.60
704.60	438.64
704.93	435.90
705.26	432.90
705.60	430.79
705.93	427.43
706.27	425.57
706.60	423.29
706.94	421.38
707.27	418.31
707.61	416.24
707.94	413.76
708.27	409.48
708.61	406.57
708.94	403.76
709.28	401.74
709.61	399.90
709.94	397.74
710.28	395.60
710.61	393.38
710.95	389.26
711.28	388.57
711.61	386.38
711.95	384.67
712.28	382.21
712.61	379.98
712.95	379.29
713.28	378.31
713.61	375.93
713.95	373.36
714.28	371.88
714.61	369.48
714.95	367.43
715.28	365.55
715.61	363.57
715.95	361.69
716.28	359.88
716.61	358.00
716.95	355.86
717.28	353.90
717.61	352.00
717.94	350.62
718.28	347.19
718.61	345.45
718.94	343.55
719.27	341.62
719.61	339.74
719.94	337.19
720.27	334.14
720.60	332.50
720.94	330.69
721.27	329.24
721.60	328.29
721.93	327.12
722.27	326.43
722.60	325.14
722.93	323.79
723.26	322.48
723.59	320.98
723.93	319.57
724.26	318.60
724.59	317.21
724.92	315.90
725.25	315.24
725.59	314.33
725.92	313.19
726.25	312.52
726.58	311.57
726.91	310.40
727.24	309.71
727.57	308.57
727.91	307.33
728.24	306.38
728.57	304.81
728.90	303.93
729.23	302.21
729.56	302.05
729.89	300.88
730.22	299.76
730.55	298.88
730.89	298.24
731.22	296.93
731.55	296.00
731.88	295.12
732.21	293.79
732.54	292.57
732.87	291.62
733.20	290.64
733.53	289.69
733.86	289.07
734.19	287.98
734.52	287.21
734.85	287.88
735.18	286.83
735.51	286.90
735.84	285.95
736.17	285.76
736.50	284.14
736.83	285.71
737.16	284.71
737.49	283.93
737.82	282.95
738.15	282.52
738.48	281.86
738.81	280.83
739.14	279.83
739.47	278.90
739.80	277.98
740.13	277.43
740.46	276.52
740.79	275.19
741.12	274.62
741.45	273.60
741.78	271.79
742.11	271.45
742.44	270.12
742.77	269.83
743.10	268.83
743.43	267.81
743.75	264.79
744.08	266.83
744.41	266.02
744.74	265.36
745.07	264.14
745.40	263.69
745.73	263.95
746.06	263.64
746.39	263.48
746.71	262.90
747.04	262.10
747.37	261.33
747.70	261.31
748.03	260.76
748.36	260.52
748.68	259.83
749.01	258.83
749.34	258.31
749.67	257.55
750.00	257.31
750.33	258.55
750.65	258.36
750.98	255.19
751.31	254.76
751.64	254.21
751.97	255.14
752.29	254.76
752.62	253.50
752.95	252.60
753.28	251.79
753.60	251.50
753.93	251.45
754.26	251.10
754.59	250.14
754.91	249.60
755.24	249.10
755.57	248.50
755.90	247.98
756.22	247.26
756.55	246.71
756.88	245.71
757.20	243.86
757.53	243.02
757.86	242.86
758.19	242.67
758.51	242.33
758.84	240.88
759.17	240.17
759.49	239.71
759.82	240.55
760.15	240.60
760.47	240.14
760.80	239.33
761.13	239.57
761.45	239.10
761.78	238.74
762.11	238.19
762.43	237.98
762.76	237.69
763.08	237.55
763.41	237.45
763.74	237.26
764.06	236.93
764.39	236.76
764.71	236.29
765.04	235.79
765.37	235.45
765.69	235.12
766.02	234.69
766.34	234.45
766.67	233.38
767.00	233.40
767.32	234.31
767.65	235.14
767.97	234.83
768.30	234.88
768.62	234.62
768.95	234.57
769.27	234.10
769.60	234.21
769.92	233.95
770.25	233.45
770.57	233.12
770.90	232.69
771.22	232.24
771.55	232.10
771.87	231.98
772.20	231.67
772.52	233.17
772.85	235.71
773.17	235.50
773.50	235.19
773.82	234.43
774.15	233.02
774.47	231.52
774.80	230.95
775.12	230.83
775.45	230.62
775.77	230.29
776.09	230.17
776.42	229.88
776.74	230.43
777.07	229.93
777.39	229.69
777.72	229.62
778.04	229.74
778.36	229.48
778.69	229.31
779.01	229.33
779.33	227.40
779.66	224.71
779.98	224.26
780.31	224.26
780.63	224.88
780.95	225.12
781.28	225.31
781.60	225.12
781.92	224.95
782.25	224.81
782.57	224.48
782.89	224.21
783.22	224.00
783.54	223.29
783.86	223.36
784.19	223.21
784.51	223.95
784.83	223.52
785.16	223.31
785.48	223.00
785.80	222.90
786.12	223.07
786.45	223.00
786.77	223.21
787.09	223.05
787.42	222.50
787.74	222.38
788.06	222.02
788.38	221.62
788.71	221.17
789.03	221.00
789.35	221.43
789.67	221.10
789.99	221.05
790.32	220.62
790.64	220.76
790.96	222.17
791.28	221.24
791.61	221.00
791.93	220.98
792.25	221.12
792.57	222.33
792.89	221.74
793.21	221.69
793.54	221.48
793.86	221.26
794.18	221.14
794.50	220.76
794.82	220.95
795.14	221.31
795.47	221.98
795.79	222.12
796.11	221.60
796.43	221.60
796.75	221.55
797.07	221.67
797.39	221.29
797.71	219.88
798.04	219.71
798.36	219.88
798.68	219.98
799.00	219.74
799.32	218.64
799.64	219.00
799.96	218.95
800.28	219.36
800.60	219.12
800.92	219.19
801.24	219.05
801.56	219.14
801.89	219.00
802.21	218.76
802.53	218.36
802.85	218.57
803.17	219.50
803.49	219.19
803.81	218.95
804.13	219.17
804.45	218.93
804.77	219.05
805.09	218.98
805.41	218.62
805.73	218.29
806.05	217.88
806.37	217.76
806.69	217.43
807.01	217.02
807.33	217.10
807.65	216.40
807.97	217.50
808.28	217.07
808.60	217.07
808.92	216.64
809.24	218.05
809.56	217.95
809.88	217.29
810.20	217.14
810.52	217.69
810.84	217.17
811.16	217.17
811.48	217.00
811.80	218.02
812.12	218.12
812.43	218.64
812.75	219.02
813.07	218.79
813.39	219.31
813.71	219.07
814.03	219.05
814.35	219.24
814.67	218.26
814.98	218.26
815.30	218.02
815.62	217.76
815.94	216.17
816.26	216.07
816.58	215.62
816.89	216.02
817.21	215.74
817.53	215.81
817.85	215.67
818.17	215.83
818.48	214.79
818.80	215.10
819.12	214.90
819.44	214.38
819.76	214.02
820.07	213.76
820.39	213.93
820.71	214.02
821.03	213.90
821.34	213.69
821.66	214.21
821.98	214.62
822.30	214.71
822.61	216.07
822.93	216.12
823.25	216.17
823.57	215.76
823.88	216.14
824.20	216.19
824.52	216.64
824.83	216.43
825.15	216.31
825.47	216.21
825.79	216.07
826.10	215.98
826.42	216.21
826.74	216.36
827.05	215.90
827.37	215.79
827.69	215.57
828.00	215.74
828.32	215.33
828.64	214.88
828.95	215.93
829.27	215.26
829.58	215.24
829.90	215.52
830.22	215.86
830.53	215.12
830.85	214.81
831.17	214.38
831.48	214.31
831.80	214.38
832.11	214.14
832.43	213.69
832.75	213.60
833.06	214.74
833.38	214.21
833.69	214.36
834.01	214.64
834.32	214.74
834.64	214.60
834.96	214.60
835.27	214.57
835.59	213.95
835.90	213.36
836.22	213.02
836.53	212.69
836.85	212.29
837.16	214.38
837.48	214.64
837.79	215.10
838.11	215.26
838.42	215.33
838.74	215.43
839.05	215.71
839.37	215.76
839.68	214.50
840.00	214.36
840.31	214.81
840.63	214.62
840.94	214.26
841.26	214.07
841.57	214.29
841.88	214.62
842.20	214.07
842.51	213.95
842.83	214.00
843.14	215.95
843.46	216.43
843.77	215.31
844.08	215.21
844.40	214.76
844.71	214.43
845.03	214.38
845.34	214.31
845.65	214.29
845.97	214.17
846.28	214.55
846.60	214.57
846.91	214.12
847.22	214.12
847.54	214.69
847.85	214.55
848.16	214.26
848.48	213.98
848.79	214.90
849.10	215.21
849.42	215.14
849.73	213.14
850.04	212.64
850.36	211.83
850.67	212.26
850.98	212.36
851.30	212.67
851.61	212.52
851.92	212.74
852.23	213.19
852.55	213.43
852.86	213.33
853.17	213.86
853.49	214.50
853.80	214.86
854.11	215.10
854.42	215.52
854.74	215.24
855.05	215.02
855.36	213.88
855.67	214.07
855.99	214.24
856.30	216.79
856.61	216.74
856.92	216.98
857.23	216.74
857.55	216.52
857.86	216.48
858.17	216.62
858.48	216.21
858.79	215.93
859.11	216.05
859.42	215.74
859.73	215.31
860.04	214.93
860.35	214.31
860.66	213.60
860.98	213.57
861.29	213.93
861.60	214.00
861.91	214.50
862.22	214.00
862.53	213.69
862.84	211.31
863.16	211.95
863.47	211.38
863.78	211.31
864.09	211.43
864.40	211.60
864.71	211.71
865.02	212.07
865.33	211.71
865.64	211.45
865.95	211.60
866.27	212.95
866.58	212.93
866.89	213.07
867.20	213.14
867.51	212.86
867.82	212.88
868.13	213.64
868.44	213.45
868.75	214.05
869.06	214.45
869.37	214.71
869.68	214.17
869.99	214.52
870.30	214.74
870.61	214.83
870.92	214.45
871.23	214.38
871.54	214.48
871.85	214.98
872.16	215.12
872.47	214.93
872.78	213.74
873.09	213.98
873.40	213.98
873.71	214.05
874.02	214.14
874.33	213.62
874.64	212.98
874.95	213.29
875.26	212.76
875.56	212.55
875.87	212.24
876.18	212.07
876.49	214.02
876.80	213.81
877.11	213.48
877.42	213.76
877.73	213.64
878.04	213.36
878.35	213.36
878.66	213.48
878.96	213.36
879.27	213.31
879.58	213.07
879.89	212.81
880.20	213.38
880.51	213.33
880.82	213.69
881.12	213.86
881.43	213.40
881.74	213.33
882.05	213.43
882.36	213.62
882.67	213.81
882.97	211.74
883.28	211.62
883.59	211.55
883.90	211.71
884.21	212.05
884.51	211.76
884.82	211.31
885.13	211.21
885.44	211.38
885.74	211.45
886.05	211.29
886.36	211.52
886.67	211.07
886.98	211.83
887.28	211.86
887.59	211.79
887.90	211.90
888.20	211.95
888.51	212.07
888.82	211.81
889.13	211.90
889.43	213.57
889.74	213.50
890.05	213.45
890.35	213.29
890.66	212.95
890.97	212.86
891.28	212.93
891.58	213.05
891.89	213.07
892.20	212.76
892.50	212.67
892.81	212.57
893.12	212.45
893.42	211.83
893.73	211.86
894.04	211.86
894.34	211.88
894.65	211.71
894.95	211.50
895.26	211.50
895.57	212.57
895.87	210.76
896.18	211.26
896.48	211.38
896.79	211.10
897.10	211.33
897.40	211.52
897.71	212.12
898.01	211.93
898.32	211.95
898.63	211.98
898.93	212.02
899.24	211.95
899.54	211.76
899.85	211.76
900.15	211.81
900.46	211.67
900.76	211.95
901.07	211.90
901.38	212.05
901.68	212.21
901.99	211.07
902.29	211.29
902.60	211.19
902.90	211.21
903.21	211.36
903.51	211.24
903.82	211.76
904.12	211.48
904.43	211.64
904.73	211.67
905.03	211.81
905.34	213.86
905.64	213.81
905.95	213.95
906.25	213.76
906.56	213.71
906.86	213.98
907.17	213.83
907.47	214.14
907.77	213.93
908.08	213.71
908.38	213.83
908.69	214.10
908.99	214.31
909.30	214.38
909.60	214.45
909.90	214.67
910.21	214.02
910.51	213.81
910.81	213.71
911.12	214.10
911.42	213.98
911.73	211.69
912.03	211.76
912.33	212.17
912.64	212.05
912.94	211.93
913.24	211.50
913.55	211.26
913.85	211.02
914.15	211.19
914.46	211.55
914.76	211.21
915.06	210.86
915.37	210.29
915.67	210.24
915.97	210.26
916.27	209.79
916.58	210.02
916.88	209.69
917.18	209.62
917.49	210.62
917.79	210.67
918.09	211.21
918.39	211.81
918.70	211.76
919.00	211.62
919.30	212.40
919.60	212.45
919.91	212.36
920.21	212.45
920.51	212.19
920.81	211.83
921.12	212.40
921.42	212.50
921.72	212.71
922.02	212.74
922.32	212.79
922.63	212.69
922.93	213.69
923.23	214.00
923.53	213.69
923.83	212.69
924.13	212.88
924.44	212.88
924.74	213.19
925.04	213.43
925.34	213.74
925.64	212.98
925.94	213.24
926.24	214.40
926.55	214.14
926.85	214.52
927.15	214.55
927.45	214.45
927.75	214.45
928.05	214.57
928.35	214.38
928.65	214.95
928.95	215.43
929.26	214.60
929.56	214.88
929.86	215.19
930.16	214.90
930.46	214.79
930.76	214.79
931.06	213.74
931.36	213.26
931.66	213.67
931.96	213.86
932.26	213.71
932.56	212.81
932.86	213.12
933.16	213.05
933.46	213.07
933.76	212.64
934.06	213.17
934.36	214.02
934.66	214.19
934.96	213.74
935.26	213.60
935.56	213.60
935.86	212.95
936.16	212.71
936.46	212.64
936.76	212.64
937.06	212.50
937.36	212.57
937.66	212.64
937.96	212.10
938.26	211.74
938.56	211.52
938.86	211.45
939.16	211.76
939.46	211.90
939.76	211.81
940.06	211.93
940.35	211.29
940.65	210.02
940.95	210.10
941.25	209.55
941.55	209.26
941.85	209.31
942.15	210.10
942.45	210.50
942.75	210.24
943.04	210.31
943.34	210.57
943.64	210.52
943.94	210.26
944.24	210.62
944.54	210.86
944.84	210.86
945.13	210.62
945.43	210.33
945.73	210.33
946.03	210.29
946.33	210.24
946.62	210.14
946.92	210.10
947.22	210.36
947.52	210.57
947.82	211.02
948.11	210.93
948.41	210.38
948.71	209.98
949.01	210.14
949.31	209.98
949.60	209.81
949.90	210.14
950.20	210.05
950.50	210.12
950.79	209.83
951.09	209.93
951.39	209.98
951.69	209.86
951.98	210.21
952.28	210.48
952.58	210.38
952.87	210.60
953.17	210.86
953.47	210.40
953.76	210.43
954.06	209.95
954.36	209.55
954.66	209.50
954.95	210.02
955.25	210.17
955.55	210.43
955.84	210.07
956.14	210.21
956.44	210.60
956.73	210.24
957.03	210.60
957.32	210.71
957.62	210.81
957.92	211.17
958.21	210.93
958.51	213.33
958.81	213.60
959.10	213.52
959.40	214.02
959.69	214.10
959.99	214.40
960.29	214.48
960.58	214.50
960.88	215.33
961.17	215.10
961.47	215.38
961.76	215.17
962.06	215.64
962.36	215.31
962.65	215.48
962.95	215.60
963.24	215.26
963.54	215.43
963.83	215.55
964.13	215.52
964.42	214.88
964.72	213.19
965.01	213.36
965.31	213.38
965.60	212.60
965.90	214.00
966.19	213.52
966.49	213.79
966.78	213.67
967.08	213.62
967.37	213.69
967.67	213.10
967.96	213.36
968.26	213.19
968.55	213.64
968.85	213.24
969.14	213.24
969.43	213.19
969.73	213.02
970.02	212.76
970.32	212.45
970.61	212.71
970.91	211.98
971.20	211.50
971.49	211.31
971.79	211.90
972.08	210.48
972.38	210.69
972.67	210.36
972.96	210.83
973.26	210.14
973.55	210.69
973.85	210.71
974.14	210.45
974.43	210.71
974.73	210.19
975.02	210.00
975.31	210.02
975.61	210.12
975.90	209.93
976.19	209.86
976.49	210.19
976.78	210.29
977.07	210.24
977.37	210.62
977.66	210.81
977.95	210.62
978.24	210.76
978.54	211.21
978.83	211.21
979.12	211.07
979.42	211.19
979.71	210.93
980.00	211.19
980.29	211.33
980.59	210.81
980.88	211.33
981.17	211.38
981.46	211.29
981.76	211.40
982.05	212.12
982.34	212.43
982.63	212.24
982.93	212.10
983.22	212.71
983.51	212.48
983.80	212.76
984.09	212.62
984.39	212.40
984.68	211.93
984.97	212.10
985.26	211.95
985.55	212.36
985.85	211.79
986.14	211.86
986.43	212.12
986.72	212.26
987.01	211.67
987.30	211.67
987.59	211.52
987.89	211.50
988.18	210.64
988.47	210.55
988.76	210.62
989.05	210.60
989.34	210.36
989.63	211.00
989.92	210.95
990.22	210.88
990.51	210.90
990.80	211.00
991.09	210.88
991.38	211.14
991.67	210.83
991.96	210.81
992.25	210.81
992.54	210.40
992.83	210.29
993.12	210.45
993.41	210.64
993.70	211.31
993.99	211.57
994.28	212.14
994.58	212.26
994.87	212.17
995.16	212.00
995.45	211.67
995.74	210.79
996.03	210.86
996.32	211.19
996.61	211.67
996.90	211.57
997.19	211.81
997.48	211.69
997.77	211.40
998.06	211.60
998.34	211.33
998.63	211.31
998.92	211.45
999.21	211.64
999.50	211.71
999.79	211.10
1000.08	211.24
1000.37	211.10
1000.66	210.93
1000.95	211.33
1001.24	211.50
1001.53	211.74
1001.82	211.62
1002.11	211.24
1002.40	211.62
1002.68	211.95
1002.97	213.19
1003.26	212.83
1003.55	212.60
1003.84	212.74
1004.13	213.52
1004.42	213.50
1004.71	213.64
1004.99	213.26
1005.28	213.71
1005.57	213.57
1005.86	213.62
1006.15	213.24
1006.44	212.88
1006.72	213.24
1007.01	212.71
1007.30	212.67
1007.59	212.52
1007.88	212.55
1008.17	212.48
1008.45	211.74
1008.74	211.02
1009.03	210.38
1009.32	210.36
1009.60	210.45
1009.89	210.33
1010.18	209.29
1010.47	209.21
1010.76	208.90
1011.04	209.33
1011.33	209.38
1011.62	209.62
1011.91	209.29
1012.19	209.45
1012.48	209.57
1012.77	209.33
1013.05	210.26
1013.34	210.26
1013.63	210.12
1013.92	210.52
1014.20	210.60
1014.49	210.67
1014.78	210.69
1015.06	209.98
1015.35	210.10
1015.64	210.31
1015.92	210.55
1016.21	210.74
1016.50	210.93
1016.78	211.55
1017.07	211.26
1017.36	210.71
1017.64	210.50
1017.93	211.05
1018.22	210.88
1018.50	210.95
1018.79	210.86
1019.08	209.93
1019.36	210.21
1019.65	210.14
1019.93	210.62
1020.22	211.02
1020.51	212.24
1020.79	212.05
1021.08	210.00
1021.36	208.50
1021.65	209.00
1021.94	209.00
1022.22	214.00
1022.51	208.00
1022.79	221.00
1023.08	217.00
1023.36	236.00
1023.65	204.50
>>>>>End Processed Spectral Data<<<<<
