SpectraSuite Data File
++++++++++++++++++++++++++++++++++++
Date: Tue Apr 02 18:45:44 EDT 2013
User: group
Dark Spectrum Present: No
Reference Spectrum Present: No
Number of Sampled Component Spectra: 1
Spectrometers: USB2E7196
Integration Time (usec): 580000 (USB2E7196)
Spectra Averaged: 2 (USB2E7196)
Boxcar Smoothing: 10 (USB2E7196)
Correct for Electrical Dark: No (USB2E7196)
Strobe/Lamp Enabled: No (USB2E7196)
Correct for Detector Non-linearity: No (USB2E7196)
Correct for Stray Light: No (USB2E7196)
Number of Pixels in Processed Spectrum: 2048
>>>>>Begin Processed Spectral Data<<<<<
339.09	0.00
339.48	192.50
339.86	193.50
340.24	196.50
340.63	193.50
341.01	229.50
341.39	198.50
341.78	205.50
342.16	210.50
342.54	206.50
342.93	197.02
343.31	206.69
343.69	207.31
344.07	207.88
344.46	208.74
344.84	209.48
345.22	208.33
345.60	208.88
345.99	208.95
346.37	208.76
346.75	208.88
347.13	208.76
347.52	208.90
347.90	209.52
348.28	209.55
348.66	210.05
349.05	209.55
349.43	210.14
349.81	210.62
350.19	210.69
350.57	210.64
350.96	211.07
351.34	211.50
351.72	211.64
352.10	211.88
352.48	211.57
352.87	211.45
353.25	211.48
353.63	211.29
354.01	211.45
354.39	211.71
354.77	211.71
355.15	212.45
355.54	212.36
355.92	211.95
356.30	212.10
356.68	213.36
357.06	213.60
357.44	213.17
357.82	212.88
358.20	213.86
358.58	214.07
358.97	214.10
359.35	214.60
359.73	214.88
360.11	214.74
360.49	214.79
360.87	214.86
361.25	215.17
361.63	215.90
362.01	216.00
362.39	215.95
362.77	216.26
363.15	216.02
363.53	215.93
363.91	215.71
364.29	215.60
364.67	213.76
365.05	213.55
365.43	213.90
365.81	214.38
366.19	214.52
366.57	215.17
366.95	215.21
367.33	214.69
367.71	214.83
368.09	215.60
368.47	216.00
368.85	216.12
369.23	216.74
369.61	215.98
369.99	216.62
370.37	217.07
370.75	218.12
371.13	217.76
371.51	217.67
371.89	218.24
372.27	218.12
372.65	218.26
373.03	218.74
373.41	218.55
373.78	218.31
374.16	217.07
374.54	216.52
374.92	216.36
375.30	216.29
375.68	216.05
376.06	215.86
376.44	215.50
376.82	215.71
377.19	215.52
377.57	215.69
377.95	215.02
378.33	214.50
378.71	212.98
379.09	213.21
379.47	213.55
379.84	213.29
380.22	213.26
380.60	213.00
380.98	212.67
381.36	212.40
381.73	212.17
382.11	212.52
382.49	212.55
382.87	212.17
383.25	212.29
383.62	214.62
384.00	214.31
384.38	214.45
384.76	214.79
385.13	215.38
385.51	215.48
385.89	215.40
386.27	215.52
386.64	215.98
387.02	215.74
387.40	215.48
387.78	215.74
388.15	215.88
388.53	215.83
388.91	215.93
389.29	215.93
389.66	216.07
390.04	215.95
390.42	216.00
390.79	216.19
391.17	216.24
391.55	213.88
391.92	213.86
392.30	213.93
392.68	213.24
393.05	213.05
393.43	213.05
393.81	213.12
394.18	212.98
394.56	213.02
394.94	213.55
395.31	213.36
395.69	213.95
396.06	214.26
396.44	214.31
396.82	213.98
397.19	215.17
397.57	215.17
397.95	215.48
398.32	215.10
398.70	215.12
399.07	215.48
399.45	215.24
399.82	215.10
400.20	214.81
400.58	214.83
400.95	214.17
401.33	214.57
401.70	215.93
402.08	216.14
402.45	216.19
402.83	216.71
403.20	217.19
403.58	216.74
403.95	217.17
404.33	217.67
404.71	218.29
405.08	219.43
405.46	219.67
405.83	220.14
406.21	220.57
406.58	221.31
406.96	221.40
407.33	222.14
407.70	223.07
408.08	225.24
408.45	226.24
408.83	227.26
409.20	227.62
409.58	227.21
409.95	228.31
410.33	229.36
410.70	229.45
411.08	230.64
411.45	231.83
411.82	232.62
412.20	234.07
412.57	236.31
412.95	235.83
413.32	237.71
413.69	239.02
414.07	240.93
414.44	242.62
414.82	244.43
415.19	247.12
415.56	249.31
415.94	250.71
416.31	253.50
416.68	256.24
417.06	259.60
417.43	263.29
417.81	266.55
418.18	270.00
418.55	273.69
418.93	277.40
419.30	281.48
419.67	285.83
420.04	290.24
420.42	294.36
420.79	301.55
421.16	306.76
421.54	313.55
421.91	319.60
422.28	325.64
422.66	332.10
423.03	339.55
423.40	346.19
423.77	353.29
424.15	360.21
424.52	367.90
424.89	376.07
425.26	383.79
425.64	391.40
426.01	399.90
426.38	408.88
426.75	418.45
427.13	427.64
427.50	437.19
427.87	447.17
428.24	456.88
428.61	465.33
428.99	477.00
429.36	487.55
429.73	498.74
430.10	509.81
430.47	521.71
430.85	531.88
431.22	544.02
431.59	558.79
431.96	571.71
432.33	585.55
432.70	599.07
433.08	614.50
433.45	629.48
433.82	644.21
434.19	661.00
434.56	677.24
434.93	693.02
435.30	708.60
435.68	726.45
436.05	744.33
436.42	760.98
436.79	776.26
437.16	792.83
437.53	810.67
437.90	828.83
438.27	846.79
438.64	865.14
439.01	882.71
439.38	896.21
439.75	910.50
440.13	926.69
440.50	942.31
440.87	955.31
441.24	968.48
441.61	982.57
441.98	993.50
442.35	1005.33
442.72	1018.38
443.09	1031.93
443.46	1039.26
443.83	1043.74
444.20	1048.98
444.57	1054.36
444.94	1057.74
445.31	1061.14
445.68	1066.64
446.05	1067.71
446.42	1066.43
446.79	1065.05
447.16	1063.40
447.53	1062.74
447.90	1056.88
448.27	1050.36
448.64	1041.29
449.01	1035.17
449.37	1024.57
449.74	1013.67
450.11	1002.60
450.48	987.26
450.85	971.52
451.22	958.86
451.59	947.33
451.96	935.40
452.33	920.76
452.70	906.90
453.07	889.57
453.43	870.19
453.80	853.81
454.17	838.29
454.54	823.12
454.91	806.64
455.28	790.67
455.65	776.17
456.02	765.55
456.38	753.48
456.75	738.74
457.12	725.67
457.49	712.71
457.86	698.86
458.23	689.74
458.59	678.40
458.96	666.50
459.33	655.74
459.70	645.21
460.07	637.24
460.43	627.69
460.80	619.62
461.17	612.45
461.54	604.52
461.91	596.71
462.27	588.43
462.64	581.48
463.01	574.02
463.38	567.50
463.74	556.38
464.11	549.88
464.48	543.69
464.85	537.57
465.21	533.69
465.58	528.64
465.95	521.67
466.32	516.38
466.68	511.40
467.05	506.57
467.42	501.43
467.78	495.83
468.15	490.93
468.52	487.17
468.88	481.43
469.25	476.43
469.62	472.90
469.98	468.98
470.35	465.50
470.72	462.07
471.08	457.29
471.45	454.88
471.82	452.19
472.18	449.10
472.55	446.69
472.92	442.52
473.28	439.24
473.65	436.55
474.02	434.12
474.38	431.76
474.75	429.90
475.11	428.02
475.48	426.19
475.85	424.67
476.21	422.50
476.58	421.50
476.94	420.67
477.31	419.19
477.67	417.69
478.04	416.71
478.41	415.81
478.77	417.17
479.14	415.74
479.50	414.76
479.87	414.33
480.23	414.07
480.60	413.83
480.96	413.83
481.33	414.50
481.69	414.31
482.06	414.62
482.42	414.81
482.79	415.12
483.15	415.52
483.52	416.24
483.88	416.52
484.25	416.69
484.61	417.40
484.98	417.90
485.34	420.36
485.71	422.00
486.07	423.40
486.44	422.93
486.80	424.55
487.17	426.33
487.53	428.64
487.90	430.74
488.26	433.95
488.62	436.95
488.99	438.83
489.35	441.74
489.72	444.12
490.08	446.88
490.44	449.60
490.81	452.88
491.17	455.93
491.54	460.07
491.90	464.14
492.26	467.83
492.63	471.81
492.99	474.55
493.36	478.02
493.72	482.64
494.08	487.10
494.45	491.83
494.81	496.60
495.17	501.02
495.54	505.79
495.90	510.21
496.26	514.93
496.63	520.29
496.99	525.81
497.35	531.67
497.72	537.57
498.08	543.19
498.44	548.93
498.80	555.36
499.17	561.17
499.53	567.14
499.89	573.95
500.26	580.83
500.62	588.02
500.98	595.67
501.34	602.31
501.71	609.71
502.07	616.86
502.43	624.05
502.79	630.93
503.16	638.12
503.52	645.17
503.88	652.64
504.24	660.24
504.60	667.93
504.97	676.00
505.33	683.38
505.69	692.12
506.05	699.93
506.41	707.29
506.78	714.90
507.14	722.31
507.50	729.79
507.86	737.60
508.22	745.48
508.59	752.83
508.95	760.69
509.31	769.29
509.67	777.48
510.03	785.17
510.39	793.21
510.75	801.57
511.12	809.19
511.48	816.71
511.84	824.88
512.20	831.95
512.56	839.33
512.92	847.21
513.28	854.52
513.64	862.33
514.00	870.07
514.37	877.29
514.73	885.26
515.09	892.55
515.45	899.71
515.81	906.14
516.17	912.95
516.53	919.62
516.89	925.10
517.25	931.79
517.61	939.00
517.97	944.90
518.33	950.52
518.69	957.38
519.05	964.07
519.41	969.31
519.77	976.57
520.13	982.07
520.49	987.21
520.85	992.74
521.21	998.95
521.57	1004.69
521.93	1010.21
522.29	1015.95
522.65	1021.12
523.01	1026.48
523.37	1031.79
523.73	1036.69
524.09	1041.60
524.45	1046.55
524.81	1050.86
525.17	1055.02
525.53	1059.98
525.89	1064.86
526.25	1069.10
526.61	1073.10
526.97	1077.57
527.33	1081.52
527.68	1087.69
528.04	1092.26
528.40	1096.43
528.76	1100.31
529.12	1104.17
529.48	1108.83
529.84	1112.86
530.20	1116.93
530.56	1121.02
530.91	1125.52
531.27	1130.71
531.63	1135.24
531.99	1139.36
532.35	1142.67
532.71	1146.74
533.07	1151.00
533.42	1157.19
533.78	1161.95
534.14	1166.50
534.50	1170.67
534.86	1175.00
535.21	1176.98
535.57	1181.71
535.93	1185.52
536.29	1190.10
536.65	1193.86
537.00	1197.17
537.36	1200.10
537.72	1204.05
538.08	1208.26
538.44	1210.88
538.79	1214.29
539.15	1217.45
539.51	1220.93
539.87	1224.48
540.22	1228.14
540.58	1231.55
540.94	1233.12
541.29	1235.48
541.65	1237.52
542.01	1240.40
542.37	1242.02
542.72	1244.24
543.08	1245.90
543.44	1248.93
543.79	1250.21
544.15	1252.88
544.51	1256.79
544.87	1259.14
545.22	1261.52
545.58	1263.19
545.94	1265.60
546.29	1267.83
546.65	1270.45
547.01	1272.29
547.36	1275.71
547.72	1277.79
548.07	1280.05
548.43	1282.26
548.79	1284.26
549.14	1286.79
549.50	1289.90
549.86	1291.69
550.21	1294.98
550.57	1298.50
550.92	1300.64
551.28	1304.60
551.64	1307.62
551.99	1309.40
552.35	1312.90
552.70	1315.33
553.06	1318.69
553.41	1322.45
553.77	1326.76
554.13	1330.07
554.48	1334.74
554.84	1339.24
555.19	1343.43
555.55	1348.76
555.90	1352.74
556.26	1357.17
556.61	1361.29
556.97	1364.31
557.32	1369.48
557.68	1373.26
558.03	1376.40
558.39	1380.60
558.74	1383.55
559.10	1387.76
559.45	1392.55
559.81	1396.52
560.16	1401.17
560.52	1404.55
560.87	1409.48
561.23	1411.62
561.58	1417.38
561.94	1420.40
562.29	1423.40
562.64	1427.62
563.00	1430.67
563.35	1434.74
563.71	1439.67
564.06	1444.71
564.42	1449.95
564.77	1455.31
565.12	1461.00
565.48	1468.62
565.83	1473.93
566.19	1479.93
566.54	1485.02
566.89	1489.67
567.25	1496.62
567.60	1503.62
567.96	1511.74
568.31	1517.83
568.66	1525.33
569.02	1529.02
569.37	1534.62
569.72	1540.07
570.08	1545.45
570.43	1550.43
570.78	1556.26
571.14	1561.40
571.49	1566.52
571.84	1572.14
572.20	1576.62
572.55	1581.88
572.90	1584.48
573.26	1588.67
573.61	1593.05
573.96	1597.36
574.31	1601.93
574.67	1604.86
575.02	1607.83
575.37	1610.02
575.72	1612.60
576.08	1615.48
576.43	1619.93
576.78	1623.60
577.13	1627.05
577.49	1629.81
577.84	1633.45
578.19	1637.02
578.54	1640.74
578.90	1644.83
579.25	1648.07
579.60	1651.02
579.95	1653.45
580.30	1656.76
580.66	1661.12
581.01	1664.38
581.36	1667.60
581.71	1670.93
582.06	1675.67
582.42	1679.45
582.77	1682.43
583.12	1686.14
583.47	1690.05
583.82	1693.67
584.17	1697.07
584.53	1701.83
584.88	1705.38
585.23	1709.67
585.58	1712.81
585.93	1715.69
586.28	1718.02
586.63	1721.31
586.98	1725.10
587.34	1729.19
587.69	1732.07
588.04	1734.64
588.39	1736.90
588.74	1738.81
589.09	1741.43
589.44	1741.36
589.79	1743.00
590.14	1744.76
590.49	1746.95
590.84	1747.79
591.19	1749.14
591.54	1751.69
591.89	1751.62
592.25	1755.05
592.60	1756.00
592.95	1757.60
593.30	1759.50
593.65	1761.29
594.00	1761.02
594.35	1767.31
594.70	1766.76
595.05	1768.38
595.40	1768.74
595.75	1769.29
596.10	1770.98
596.45	1772.19
596.80	1774.43
597.15	1776.12
597.50	1776.48
597.85	1777.81
598.19	1778.67
598.54	1779.00
598.89	1779.00
599.24	1780.81
599.59	1780.17
599.94	1780.31
600.29	1780.26
600.64	1780.12
600.99	1779.69
601.34	1781.14
601.69	1775.81
602.04	1775.88
602.39	1775.24
602.74	1775.79
603.08	1775.71
603.43	1776.19
603.78	1774.43
604.13	1774.17
604.48	1772.74
604.83	1773.62
605.18	1771.98
605.53	1771.60
605.87	1770.43
606.22	1769.62
606.57	1767.79
606.92	1765.93
607.27	1764.71
607.62	1764.29
607.96	1763.98
608.31	1764.38
608.66	1763.83
609.01	1762.26
609.36	1761.90
609.70	1761.38
610.05	1759.26
610.40	1757.76
610.75	1755.02
611.10	1754.40
611.44	1752.02
611.79	1750.55
612.14	1748.10
612.49	1745.40
612.83	1743.31
613.18	1741.21
613.53	1738.07
613.88	1735.00
614.22	1732.26
614.57	1728.17
614.92	1724.69
615.27	1720.60
615.61	1715.05
615.96	1710.50
616.31	1707.93
616.65	1705.90
617.00	1702.02
617.35	1699.67
617.70	1697.05
618.04	1693.60
618.39	1689.90
618.74	1686.81
619.08	1682.95
619.43	1680.38
619.78	1677.79
620.12	1673.79
620.47	1670.38
620.82	1667.21
621.16	1663.26
621.51	1660.02
621.85	1656.93
622.20	1652.95
622.55	1648.90
622.89	1647.21
623.24	1644.79
623.59	1641.17
623.93	1636.71
624.28	1632.57
624.62	1629.29
624.97	1626.14
625.32	1622.81
625.66	1619.43
626.01	1614.90
626.35	1611.33
626.70	1606.48
627.04	1602.71
627.39	1599.29
627.73	1596.29
628.08	1593.43
628.43	1590.17
628.77	1585.95
629.12	1582.74
629.46	1578.76
629.81	1575.14
630.15	1569.24
630.50	1563.52
630.84	1558.24
631.19	1552.48
631.53	1548.02
631.88	1541.05
632.22	1534.86
632.57	1530.57
632.91	1525.55
633.26	1521.83
633.60	1516.21
633.95	1511.52
634.29	1506.31
634.64	1502.57
634.98	1497.10
635.32	1492.64
635.67	1488.74
636.01	1485.10
636.36	1480.17
636.70	1476.33
637.05	1472.12
637.39	1468.07
637.73	1464.00
638.08	1460.02
638.42	1456.12
638.77	1452.40
639.11	1448.17
639.45	1444.36
639.80	1439.14
640.14	1434.36
640.49	1428.86
640.83	1424.48
641.17	1419.64
641.52	1414.64
641.86	1407.86
642.20	1403.48
642.55	1397.55
642.89	1391.69
643.23	1385.67
643.58	1381.05
643.92	1374.38
644.26	1368.36
644.61	1364.00
644.95	1358.86
645.29	1352.86
645.64	1347.71
645.98	1341.43
646.32	1337.19
646.66	1330.57
647.01	1324.81
647.35	1318.52
647.69	1312.50
648.04	1307.12
648.38	1301.76
648.72	1296.62
649.06	1291.19
649.41	1284.57
649.75	1277.95
650.09	1271.98
650.43	1266.40
650.78	1260.45
651.12	1254.52
651.46	1248.81
651.80	1241.62
652.14	1235.31
652.49	1229.62
652.83	1223.88
653.17	1217.62
653.51	1211.26
653.85	1206.26
654.20	1199.48
654.54	1193.81
654.88	1188.02
655.22	1182.10
655.56	1175.86
655.90	1169.45
656.25	1163.12
656.59	1157.45
656.93	1152.74
657.27	1147.83
657.61	1141.21
657.95	1135.12
658.29	1129.69
658.64	1123.67
658.98	1117.40
659.32	1110.93
659.66	1104.64
660.00	1097.95
660.34	1091.95
660.68	1085.83
661.02	1078.95
661.36	1073.74
661.70	1067.62
662.05	1061.29
662.39	1055.02
662.73	1049.83
663.07	1044.60
663.41	1038.55
663.75	1032.31
664.09	1025.88
664.43	1019.60
664.77	1014.48
665.11	1008.31
665.45	1002.45
665.79	996.60
666.13	991.26
666.47	985.90
666.81	980.12
667.15	973.93
667.49	968.69
667.83	963.57
668.17	957.95
668.51	952.36
668.85	947.52
669.19	943.29
669.53	937.76
669.87	931.21
670.21	925.02
670.55	919.79
670.89	915.14
671.23	909.69
671.57	904.02
671.91	898.33
672.25	893.48
672.58	888.50
672.92	882.45
673.26	877.10
673.60	871.52
673.94	866.55
674.28	861.79
674.62	856.71
674.96	851.29
675.30	846.31
675.64	841.12
675.97	835.71
676.31	830.02
676.65	824.98
676.99	821.19
677.33	816.07
677.67	811.29
678.01	805.64
678.34	800.52
678.68	796.21
679.02	790.90
679.36	785.17
679.70	779.95
680.04	775.81
680.37	770.93
680.71	766.21
681.05	761.36
681.39	756.79
681.73	751.52
682.06	746.93
682.40	742.60
682.74	738.64
683.08	734.69
683.42	729.69
683.75	725.21
684.09	719.00
684.43	714.31
684.77	709.81
685.10	705.60
685.44	701.00
685.78	695.86
686.12	691.00
686.45	686.48
686.79	681.74
687.13	677.38
687.46	673.12
687.80	669.14
688.14	664.93
688.48	660.55
688.81	656.07
689.15	651.52
689.49	646.40
689.82	641.31
690.16	635.90
690.50	631.05
690.83	626.31
691.17	622.29
691.51	617.95
691.84	613.86
692.18	609.10
692.52	605.33
692.85	601.60
693.19	598.83
693.52	594.81
693.86	590.33
694.20	586.00
694.53	581.79
694.87	576.88
695.21	572.07
695.54	567.86
695.88	563.67
696.21	559.02
696.55	555.31
696.88	551.33
697.22	547.31
697.56	544.69
697.89	540.93
698.23	537.74
698.56	534.24
698.90	530.60
699.23	526.93
699.57	522.64
699.90	518.19
700.24	513.69
700.58	510.55
700.91	507.43
701.25	505.57
701.58	503.19
701.92	500.95
702.25	498.19
702.59	494.79
702.92	491.62
703.26	488.79
703.59	485.57
703.93	484.55
704.26	481.81
704.60	477.79
704.93	474.57
705.26	470.71
705.60	467.98
705.93	464.45
706.27	461.86
706.60	459.52
706.94	457.55
707.27	454.38
707.61	451.50
707.94	448.60
708.27	444.36
708.61	440.62
708.94	437.74
709.28	435.50
709.61	432.64
709.94	430.50
710.28	427.33
710.61	425.02
710.95	419.95
711.28	418.93
711.61	416.90
711.95	414.83
712.28	412.62
712.61	409.95
712.95	408.69
713.28	407.05
713.61	404.45
713.95	401.71
714.28	399.90
714.61	397.14
714.95	394.81
715.28	392.26
715.61	389.86
715.95	387.38
716.28	384.71
716.61	382.88
716.95	380.14
717.28	378.36
717.61	376.02
717.94	374.40
718.28	370.71
718.61	368.50
718.94	366.40
719.27	364.45
719.61	362.55
719.94	359.81
720.27	357.00
720.60	354.88
720.94	353.00
721.27	351.33
721.60	350.14
721.93	348.43
722.27	347.55
722.60	346.33
722.93	344.67
723.26	343.26
723.59	341.52
723.93	340.57
724.26	339.50
724.59	338.24
724.92	337.02
725.25	336.48
725.59	335.12
725.92	334.02
726.25	332.60
726.58	331.40
726.91	330.26
727.24	329.21
727.57	328.24
727.91	326.60
728.24	325.52
728.57	324.02
728.90	323.00
729.23	321.10
729.56	320.45
729.89	319.12
730.22	317.62
730.55	316.38
730.89	315.02
731.22	313.55
731.55	312.07
731.88	310.93
732.21	309.05
732.54	308.00
732.87	306.71
733.20	305.86
733.53	304.48
733.86	303.67
734.19	302.17
734.52	301.19
734.85	301.50
735.18	299.90
735.51	299.79
735.84	298.69
736.17	298.31
736.50	296.57
736.83	297.95
737.16	296.83
737.49	295.95
737.82	294.76
738.15	294.07
738.48	293.43
738.81	292.57
739.14	291.55
739.47	290.45
739.80	289.62
740.13	288.88
740.46	287.98
740.79	286.64
741.12	286.14
741.45	285.00
741.78	283.17
742.11	283.14
742.44	281.40
742.77	280.95
743.10	279.62
743.43	278.69
743.75	275.81
744.08	277.81
744.41	276.90
744.74	276.45
745.07	275.24
745.40	274.55
745.73	274.55
746.06	273.88
746.39	273.33
746.71	272.40
747.04	271.45
747.37	270.76
747.70	270.45
748.03	269.79
748.36	269.48
748.68	268.67
749.01	267.26
749.34	267.02
749.67	266.45
750.00	266.29
750.33	267.21
750.65	266.88
750.98	263.79
751.31	263.36
751.64	262.69
751.97	263.43
752.29	262.88
752.62	261.45
752.95	260.90
753.28	259.98
753.60	259.43
753.93	259.38
754.26	259.17
754.59	258.05
754.91	257.05
755.24	256.29
755.57	255.88
755.90	255.33
756.22	254.40
756.55	253.40
756.88	252.36
757.20	250.55
757.53	249.33
757.86	249.05
758.19	248.67
758.51	248.19
758.84	246.33
759.17	245.67
759.49	245.52
759.82	246.07
760.15	246.10
760.47	245.40
760.80	244.21
761.13	243.98
761.45	243.48
761.78	243.17
762.11	243.10
762.43	242.60
762.76	242.29
763.08	242.10
763.41	242.05
763.74	241.74
764.06	241.19
764.39	241.00
764.71	240.64
765.04	240.10
765.37	239.19
765.69	239.17
766.02	238.98
766.34	238.07
766.67	236.74
767.00	236.74
767.32	237.67
767.65	238.71
767.97	238.19
768.30	237.90
768.62	237.76
768.95	237.00
769.27	236.83
769.60	236.62
769.92	236.19
770.25	235.57
770.57	235.00
770.90	234.86
771.22	234.24
771.55	233.79
771.87	233.71
772.20	233.81
772.52	235.33
772.85	237.50
773.17	237.57
773.50	237.52
773.82	236.88
774.15	235.60
774.47	234.07
774.80	233.40
775.12	233.31
775.45	233.26
775.77	233.57
776.09	233.55
776.42	233.43
776.74	233.81
777.07	233.57
777.39	233.76
777.72	233.36
778.04	233.55
778.36	233.38
778.69	233.07
779.01	233.05
779.33	230.86
779.66	228.29
779.98	227.76
780.31	227.50
780.63	228.24
780.95	228.38
781.28	228.40
781.60	228.17
781.92	227.90
782.25	227.55
782.57	227.07
782.89	226.57
783.22	226.26
783.54	225.69
783.86	225.81
784.19	225.40
784.51	226.14
784.83	225.81
785.16	225.64
785.48	225.55
785.80	225.29
786.12	225.50
786.45	225.52
786.77	225.76
787.09	225.48
787.42	224.50
787.74	224.52
788.06	224.40
788.38	224.26
788.71	224.21
789.03	224.33
789.35	224.52
789.67	223.98
789.99	224.02
790.32	223.71
790.64	223.86
790.96	225.64
791.28	224.50
791.61	224.43
791.93	224.45
792.25	224.31
792.57	225.69
792.89	225.07
793.21	225.12
793.54	224.67
793.86	224.48
794.18	224.67
794.50	224.05
794.82	224.02
795.14	224.24
795.47	224.62
795.79	224.50
796.11	224.00
796.43	223.88
796.75	223.74
797.07	223.83
797.39	223.67
797.71	222.07
798.04	222.31
798.36	222.26
798.68	222.07
799.00	222.12
799.32	221.29
799.64	221.79
799.96	221.57
800.28	221.81
800.60	221.60
800.92	221.31
801.24	221.29
801.56	221.31
801.89	221.24
802.21	221.29
802.53	220.88
802.85	221.33
803.17	222.55
803.49	222.14
803.81	221.98
804.13	221.71
804.45	221.55
804.77	221.62
805.09	221.52
805.41	221.31
805.73	220.67
806.05	219.98
806.37	219.79
806.69	219.60
807.01	219.24
807.33	219.31
807.65	218.76
807.97	219.79
808.28	219.57
808.60	219.36
808.92	218.83
809.24	219.98
809.56	219.57
809.88	218.62
810.20	218.76
810.52	218.95
810.84	218.33
811.16	218.12
811.48	217.71
811.80	218.67
812.12	218.86
812.43	219.38
812.75	219.38
813.07	219.10
813.39	219.17
813.71	219.12
814.03	218.93
814.35	219.00
814.67	217.98
814.98	217.64
815.30	217.71
815.62	217.31
815.94	215.86
816.26	215.83
816.58	215.50
816.89	215.60
817.21	215.00
817.53	215.36
817.85	215.21
818.17	215.29
818.48	214.29
818.80	214.40
819.12	214.17
819.44	213.81
819.76	213.60
820.07	213.60
820.39	213.93
820.71	214.14
821.03	214.12
821.34	213.93
821.66	214.12
821.98	214.48
822.30	214.48
822.61	215.76
822.93	215.31
823.25	215.36
823.57	214.95
823.88	215.40
824.20	215.45
824.52	215.83
824.83	215.83
825.15	215.55
825.47	215.50
825.79	215.62
826.10	215.57
826.42	215.69
826.74	215.79
827.05	215.36
827.37	215.52
827.69	215.50
828.00	215.71
828.32	215.83
828.64	215.38
828.95	216.57
829.27	216.05
829.58	216.14
829.90	216.31
830.22	216.74
830.53	216.26
830.85	215.93
831.17	215.55
831.48	215.55
831.80	215.64
832.11	215.31
832.43	215.12
832.75	215.31
833.06	216.57
833.38	215.95
833.69	215.90
834.01	215.88
834.32	215.95
834.64	215.67
834.96	215.67
835.27	215.55
835.59	214.76
835.90	214.12
836.22	213.98
836.53	213.64
836.85	213.31
837.16	215.31
837.48	215.36
837.79	215.76
838.11	215.71
838.42	215.71
838.74	216.00
839.05	215.76
839.37	215.50
839.68	213.98
840.00	213.86
840.31	214.21
840.63	213.74
840.94	213.45
841.26	213.33
841.57	213.24
841.88	213.26
842.20	213.07
842.51	213.10
842.83	213.14
843.14	215.12
843.46	215.12
843.77	214.26
844.08	214.14
844.40	213.74
844.71	213.64
845.03	213.36
845.34	213.00
845.65	212.93
845.97	213.05
846.28	213.12
846.60	213.19
846.91	212.79
847.22	212.79
847.54	213.26
847.85	213.57
848.16	213.24
848.48	213.31
848.79	213.90
849.10	214.12
849.42	214.29
849.73	212.12
850.04	212.19
850.36	211.29
850.67	211.76
850.98	211.52
851.30	211.76
851.61	211.76
851.92	211.95
852.23	212.57
852.55	212.62
852.86	212.86
853.17	213.19
853.49	213.55
853.80	213.93
854.11	214.29
854.42	214.31
854.74	214.29
855.05	214.10
855.36	213.05
855.67	213.14
855.99	213.05
856.30	215.57
856.61	215.60
856.92	215.50
857.23	215.43
857.55	215.43
857.86	215.14
858.17	215.52
858.48	215.17
858.79	214.83
859.11	215.10
859.42	214.88
859.73	214.52
860.04	214.48
860.35	214.02
860.66	213.29
860.98	213.24
861.29	213.48
861.60	213.50
861.91	214.17
862.22	213.81
862.53	213.45
862.84	211.10
863.16	211.55
863.47	211.29
863.78	211.00
864.09	211.12
864.40	211.38
864.71	211.48
865.02	211.71
865.33	211.40
865.64	211.00
865.95	211.26
866.27	212.67
866.58	212.48
866.89	212.74
867.20	212.57
867.51	212.33
867.82	212.29
868.13	212.95
868.44	212.48
868.75	212.86
869.06	213.43
869.37	213.79
869.68	212.69
869.99	213.14
870.30	213.12
870.61	213.43
870.92	213.17
871.23	212.71
871.54	213.14
871.85	213.64
872.16	213.95
872.47	213.60
872.78	212.31
873.09	212.57
873.40	212.36
873.71	212.64
874.02	212.67
874.33	212.38
874.64	211.62
874.95	211.90
875.26	211.60
875.56	211.40
875.87	211.19
876.18	211.57
876.49	213.50
876.80	213.67
877.11	213.19
877.42	213.26
877.73	213.60
878.04	213.12
878.35	213.14
878.66	213.14
878.96	212.95
879.27	212.93
879.58	212.90
879.89	213.00
880.20	213.50
880.51	213.64
880.82	213.74
881.12	214.12
881.43	213.81
881.74	213.36
882.05	213.19
882.36	213.36
882.67	213.62
882.97	211.40
883.28	211.21
883.59	211.29
883.90	211.57
884.21	211.64
884.51	211.60
884.82	211.31
885.13	211.29
885.44	211.67
885.74	211.71
886.05	211.57
886.36	211.60
886.67	210.83
886.98	211.64
887.28	211.98
887.59	211.90
887.90	211.93
888.20	212.02
888.51	212.60
888.82	212.26
889.13	212.19
889.43	213.83
889.74	213.83
890.05	213.76
890.35	213.36
890.66	213.24
890.97	213.17
891.28	212.95
891.58	212.86
891.89	212.74
892.20	212.40
892.50	212.05
892.81	211.95
893.12	212.02
893.42	211.14
893.73	211.00
894.04	210.83
894.34	210.98
894.65	211.12
894.95	210.69
895.26	210.79
895.57	211.79
895.87	209.98
896.18	210.00
896.48	210.29
896.79	210.40
897.10	210.76
897.40	210.62
897.71	210.90
898.01	210.83
898.32	211.05
898.63	211.31
898.93	211.69
899.24	211.69
899.54	211.74
899.85	211.57
900.15	211.64
900.46	211.71
900.76	212.00
901.07	211.95
901.38	212.00
901.68	212.40
901.99	211.24
902.29	211.48
902.60	211.52
902.90	211.33
903.21	211.24
903.51	210.88
903.82	211.43
904.12	211.52
904.43	211.52
904.73	211.29
905.03	211.50
905.34	213.19
905.64	213.29
905.95	213.31
906.25	213.38
906.56	213.29
906.86	213.45
907.17	213.19
907.47	213.24
907.77	212.93
908.08	212.40
908.38	212.62
908.69	212.71
908.99	212.98
909.30	213.02
909.60	213.36
909.90	213.71
910.21	213.19
910.51	212.67
910.81	212.79
911.12	212.98
911.42	212.79
911.73	210.79
912.03	210.76
912.33	210.95
912.64	210.90
912.94	210.67
913.24	210.36
913.55	210.29
913.85	210.12
914.15	210.57
914.46	211.19
914.76	211.05
915.06	211.07
915.37	211.10
915.67	210.81
915.97	210.45
916.27	209.98
916.58	210.02
916.88	210.07
917.18	209.98
917.49	211.26
917.79	211.17
918.09	211.55
918.39	212.05
918.70	211.86
919.00	212.05
919.30	213.17
919.60	212.98
919.91	212.74
920.21	212.79
920.51	212.40
920.81	211.83
921.12	212.17
921.42	212.02
921.72	212.10
922.02	212.29
922.32	212.60
922.63	212.69
922.93	213.79
923.23	214.10
923.53	213.98
923.83	212.67
924.13	212.81
924.44	212.67
924.74	213.10
925.04	213.86
925.34	213.74
925.64	212.76
925.94	212.83
926.24	214.12
926.55	214.02
926.85	214.33
927.15	214.31
927.45	214.17
927.75	214.12
928.05	213.83
928.35	213.69
928.65	214.05
928.95	214.05
929.26	213.21
929.56	213.48
929.86	213.60
930.16	213.55
930.46	213.50
930.76	213.74
931.06	212.76
931.36	212.05
931.66	212.19
931.96	212.29
932.26	212.50
932.56	211.67
932.86	212.12
933.16	211.98
933.46	212.00
933.76	211.88
934.06	212.43
934.36	213.10
934.66	212.95
934.96	212.67
935.26	212.71
935.56	213.00
935.86	212.45
936.16	212.12
936.46	212.12
936.76	212.10
937.06	211.71
937.36	211.67
937.66	211.86
937.96	211.79
938.26	211.57
938.56	211.43
938.86	211.43
939.16	211.81
939.46	212.17
939.76	212.31
940.06	212.29
940.35	211.62
940.65	210.71
940.95	211.00
941.25	210.40
941.55	210.26
941.85	210.12
942.15	210.50
942.45	211.43
942.75	211.21
943.04	211.14
943.34	211.55
943.64	211.38
943.94	210.98
944.24	211.21
944.54	211.40
944.84	211.12
945.13	210.69
945.43	210.19
945.73	210.12
946.03	210.00
946.33	209.57
946.62	209.52
946.92	209.48
947.22	209.57
947.52	209.83
947.82	210.14
948.11	209.93
948.41	209.57
948.71	209.05
949.01	209.24
949.31	209.40
949.60	209.29
949.90	209.57
950.20	209.74
950.50	209.48
950.79	209.31
951.09	209.67
951.39	209.74
951.69	209.48
951.98	209.90
952.28	210.19
952.58	210.26
952.87	210.40
953.17	210.64
953.47	210.38
953.76	210.55
954.06	210.29
954.36	210.05
954.66	210.14
954.95	210.52
955.25	210.43
955.55	210.48
955.84	210.29
956.14	210.62
956.44	210.76
956.73	210.62
957.03	210.95
957.32	211.10
957.62	210.93
957.92	211.31
958.21	211.00
958.51	213.33
958.81	213.88
959.10	214.07
959.40	214.57
959.69	214.74
959.99	214.98
960.29	214.90
960.58	215.10
960.88	215.88
961.17	215.71
961.47	216.07
961.76	215.95
962.06	216.21
962.36	215.93
962.65	215.83
962.95	215.88
963.24	215.52
963.54	215.50
963.83	215.71
964.13	215.67
964.42	215.10
964.72	213.21
965.01	213.02
965.31	212.76
965.60	212.43
965.90	213.76
966.19	213.31
966.49	213.55
966.78	213.29
967.08	213.00
967.37	213.05
967.67	212.76
967.96	213.05
968.26	212.79
968.55	212.95
968.85	212.81
969.14	212.83
969.43	212.79
969.73	212.52
970.02	212.57
970.32	212.40
970.61	212.36
970.91	211.67
971.20	211.33
971.49	211.48
971.79	211.45
972.08	210.00
972.38	210.17
972.67	209.90
972.96	210.29
973.26	209.76
973.55	210.19
973.85	210.02
974.14	209.86
974.43	210.24
974.73	210.05
975.02	209.93
975.31	209.83
975.61	209.79
975.90	209.67
976.19	209.50
976.49	209.60
976.78	209.98
977.07	210.19
977.37	210.52
977.66	210.64
977.95	210.36
978.24	210.67
978.54	211.10
978.83	211.10
979.12	211.07
979.42	211.10
979.71	210.64
980.00	210.64
980.29	210.76
980.59	210.21
980.88	210.81
981.17	210.79
981.46	210.83
981.76	210.86
982.05	211.60
982.34	211.62
982.63	211.81
982.93	211.76
983.22	212.19
983.51	211.98
983.80	212.36
984.09	212.74
984.39	212.48
984.68	212.10
984.97	212.17
985.26	211.60
985.55	211.93
985.85	211.83
986.14	212.24
986.43	212.38
986.72	212.29
987.01	211.48
987.30	211.36
987.59	211.29
987.89	211.48
988.18	210.86
988.47	210.64
988.76	210.36
989.05	210.12
989.34	209.76
989.63	210.43
989.92	209.98
990.22	209.67
990.51	209.60
990.80	209.36
991.09	209.57
991.38	210.10
991.67	209.90
991.96	209.64
992.25	209.55
992.54	209.21
992.83	209.48
993.12	209.50
993.41	210.05
993.70	210.90
993.99	211.21
994.28	211.40
994.58	211.88
994.87	211.71
995.16	211.52
995.45	211.17
995.74	210.45
996.03	210.57
996.32	210.86
996.61	211.38
996.90	211.29
997.19	211.10
997.48	211.12
997.77	210.95
998.06	211.00
998.34	210.74
998.63	210.83
998.92	210.76
999.21	211.05
999.50	211.00
999.79	210.21
1000.08	210.26
1000.37	210.57
1000.66	210.29
1000.95	210.88
1001.24	211.02
1001.53	211.52
1001.82	211.43
1002.11	211.31
1002.40	211.55
1002.68	211.67
1002.97	213.40
1003.26	213.43
1003.55	213.10
1003.84	213.36
1004.13	213.74
1004.42	213.71
1004.71	213.67
1004.99	213.62
1005.28	214.21
1005.57	214.10
1005.86	213.93
1006.15	213.71
1006.44	213.29
1006.72	213.55
1007.01	213.05
1007.30	213.33
1007.59	212.98
1007.88	213.02
1008.17	213.05
1008.45	212.45
1008.74	211.74
1009.03	210.69
1009.32	210.57
1009.60	210.60
1009.89	210.40
1010.18	209.79
1010.47	209.60
1010.76	209.55
1011.04	209.52
1011.33	209.36
1011.62	209.33
1011.91	209.60
1012.19	209.64
1012.48	209.64
1012.77	209.55
1013.05	210.43
1013.34	210.40
1013.63	210.38
1013.92	210.69
1014.20	210.48
1014.49	210.76
1014.78	211.21
1015.06	210.43
1015.35	210.17
1015.64	210.48
1015.92	210.64
1016.21	210.79
1016.50	211.05
1016.78	211.26
1017.07	211.36
1017.36	211.00
1017.64	210.93
1017.93	211.17
1018.22	210.98
1018.50	210.88
1018.79	210.83
1019.08	210.02
1019.36	210.14
1019.65	209.69
1019.93	209.95
1020.22	210.17
1020.51	211.19
1020.79	210.76
1021.08	209.00
1021.36	206.50
1021.65	209.00
1021.94	210.00
1022.22	213.50
1022.51	200.00
1022.79	217.50
1023.08	211.50
1023.36	235.00
1023.65	205.00
>>>>>End Processed Spectral Data<<<<<
