SpectraSuite Data File
++++++++++++++++++++++++++++++++++++
Date: Tue Apr 02 18:40:58 EDT 2013
User: group
Dark Spectrum Present: No
Reference Spectrum Present: No
Number of Sampled Component Spectra: 1
Spectrometers: USB2E7196
Integration Time (usec): 580000 (USB2E7196)
Spectra Averaged: 2 (USB2E7196)
Boxcar Smoothing: 10 (USB2E7196)
Correct for Electrical Dark: No (USB2E7196)
Strobe/Lamp Enabled: No (USB2E7196)
Correct for Detector Non-linearity: No (USB2E7196)
Correct for Stray Light: No (USB2E7196)
Number of Pixels in Processed Spectrum: 2048
>>>>>Begin Processed Spectral Data<<<<<
339.09	0.00
339.48	195.00
339.86	198.50
340.24	197.00
340.63	200.50
341.01	234.50
341.39	198.00
341.78	207.00
342.16	208.50
342.54	205.00
342.93	198.10
343.31	208.00
343.69	208.62
344.07	208.88
344.46	209.69
344.84	210.14
345.22	208.90
345.60	209.52
345.99	209.93
346.37	210.02
346.75	210.12
347.13	210.12
347.52	210.29
347.90	211.05
348.28	210.83
348.66	211.43
349.05	210.71
349.43	211.17
349.81	211.24
350.19	211.45
350.57	211.67
350.96	212.05
351.34	212.12
351.72	212.17
352.10	212.50
352.48	212.26
352.87	211.95
353.25	212.17
353.63	212.10
354.01	211.90
354.39	212.00
354.77	212.05
355.15	212.90
355.54	212.81
355.92	212.33
356.30	212.55
356.68	213.95
357.06	214.21
357.44	213.62
357.82	213.64
358.20	214.45
358.58	214.36
358.97	214.19
359.35	214.60
359.73	215.12
360.11	215.14
360.49	215.31
360.87	215.79
361.25	215.93
361.63	216.38
362.01	216.60
362.39	216.50
362.77	216.88
363.15	216.64
363.53	216.55
363.91	216.62
364.29	216.48
364.67	214.45
365.05	214.55
365.43	214.76
365.81	214.90
366.19	215.14
366.57	216.02
366.95	216.07
367.33	215.69
367.71	215.52
368.09	215.90
368.47	215.95
368.85	215.86
369.23	216.24
369.61	215.86
369.99	216.33
370.37	216.69
370.75	217.71
371.13	217.29
371.51	217.07
371.89	217.31
372.27	217.57
372.65	217.79
373.03	217.69
373.41	217.74
373.78	217.57
374.16	216.36
374.54	215.55
374.92	215.26
375.30	215.45
375.68	215.00
376.06	215.00
376.44	214.90
376.82	214.98
377.19	214.67
377.57	214.40
377.95	213.52
378.33	213.38
378.71	211.93
379.09	212.17
379.47	212.62
379.84	212.36
380.22	212.10
380.60	211.83
380.98	211.64
381.36	211.64
381.73	211.55
382.11	212.19
382.49	212.50
382.87	212.38
383.25	212.55
383.62	214.88
384.00	214.50
384.38	214.40
384.76	214.76
385.13	215.69
385.51	215.79
385.89	215.93
386.27	215.90
386.64	216.26
387.02	215.95
387.40	215.60
387.78	215.71
388.15	216.02
388.53	215.95
388.91	216.12
389.29	216.17
389.66	216.45
390.04	216.17
390.42	216.52
390.79	216.62
391.17	216.38
391.55	214.43
391.92	214.40
392.30	214.93
392.68	214.57
393.05	214.31
393.43	214.45
393.81	214.40
394.18	214.24
394.56	214.52
394.94	215.00
395.31	214.83
395.69	215.36
396.06	215.36
396.44	215.50
396.82	215.19
397.19	216.07
397.57	215.81
397.95	216.26
398.32	215.33
398.70	215.71
399.07	216.17
399.45	216.02
399.82	216.02
400.20	215.36
400.58	215.36
400.95	214.45
401.33	214.93
401.70	216.62
402.08	216.93
402.45	216.64
402.83	217.40
403.20	217.62
403.58	217.64
403.95	218.19
404.33	218.60
404.71	219.29
405.08	220.50
405.46	220.93
405.83	221.24
406.21	221.88
406.58	222.10
406.96	222.24
407.33	222.93
407.70	223.76
408.08	226.31
408.45	227.33
408.83	228.81
409.20	229.36
409.58	228.76
409.95	229.90
410.33	230.98
410.70	231.05
411.08	232.76
411.45	233.83
411.82	234.52
412.20	235.86
412.57	238.19
412.95	237.83
413.32	239.74
413.69	241.05
414.07	242.98
414.44	244.90
414.82	247.02
415.19	249.48
415.56	251.90
415.94	253.07
416.31	256.10
416.68	258.86
417.06	262.26
417.43	265.86
417.81	269.33
418.18	273.26
418.55	277.31
418.93	281.31
419.30	285.86
419.67	290.45
420.04	295.26
420.42	299.38
420.79	306.55
421.16	312.55
421.54	319.71
421.91	326.29
422.28	332.79
422.66	339.40
423.03	347.62
423.40	354.74
423.77	362.14
424.15	369.38
424.52	377.14
424.89	386.24
425.26	394.62
425.64	402.43
426.01	411.14
426.38	419.98
426.75	429.57
427.13	438.86
427.50	449.17
427.87	459.67
428.24	470.57
428.61	479.52
428.99	490.81
429.36	501.76
429.73	513.50
430.10	525.57
430.47	538.19
430.85	549.19
431.22	562.14
431.59	577.43
431.96	590.76
432.33	605.19
432.70	619.40
433.08	636.14
433.45	652.00
433.82	667.45
434.19	685.45
434.56	703.55
434.93	720.12
435.30	736.98
435.68	755.26
436.05	773.21
436.42	790.98
436.79	807.74
437.16	825.50
437.53	844.24
437.90	862.31
438.27	880.36
438.64	899.50
439.01	917.88
439.38	932.48
439.75	948.31
440.13	965.43
440.50	981.62
440.87	994.81
441.24	1009.05
441.61	1024.98
441.98	1036.33
442.35	1048.64
442.72	1061.88
443.09	1075.45
443.46	1083.36
443.83	1088.31
444.20	1093.43
444.57	1099.43
444.94	1102.88
445.31	1106.43
445.68	1112.45
446.05	1114.52
446.42	1113.17
446.79	1111.38
447.16	1109.00
447.53	1107.83
447.90	1102.02
448.27	1094.86
448.64	1085.50
449.01	1078.26
449.37	1066.83
449.74	1055.55
450.11	1043.48
450.48	1028.14
450.85	1011.86
451.22	998.95
451.59	986.81
451.96	974.10
452.33	957.48
452.70	942.55
453.07	924.52
453.43	904.45
453.80	886.83
454.17	870.05
454.54	853.83
454.91	837.69
455.28	820.48
455.65	804.88
456.02	793.31
456.38	780.31
456.75	764.45
457.12	750.07
457.49	736.31
457.86	721.17
458.23	711.24
458.59	699.05
458.96	686.12
459.33	674.93
459.70	664.29
460.07	656.19
460.43	646.67
460.80	637.90
461.17	630.07
461.54	621.71
461.91	613.24
462.27	604.36
462.64	596.67
463.01	588.57
463.38	581.76
463.74	570.60
464.11	563.62
464.48	557.76
464.85	551.24
465.21	546.76
465.58	541.62
465.95	534.21
466.32	528.74
466.68	523.38
467.05	517.95
467.42	513.05
467.78	507.52
468.15	502.12
468.52	497.79
468.88	491.71
469.25	486.88
469.62	483.71
469.98	479.98
470.35	476.21
470.72	473.14
471.08	468.33
471.45	465.36
471.82	462.31
472.18	458.81
472.55	456.33
472.92	452.74
473.28	449.81
473.65	447.07
474.02	444.45
474.38	442.67
474.75	440.90
475.11	438.26
475.48	436.40
475.85	434.57
476.21	432.71
476.58	431.74
476.94	430.19
477.31	428.55
477.67	427.31
478.04	425.98
478.41	425.14
478.77	426.81
479.14	425.64
479.50	425.12
479.87	424.71
480.23	424.24
480.60	423.62
480.96	423.40
481.33	424.07
481.69	423.81
482.06	423.90
482.42	424.38
482.79	424.95
483.15	425.43
483.52	426.86
483.88	427.29
484.25	427.69
484.61	428.79
484.98	429.67
485.34	431.55
485.71	433.05
486.07	434.26
486.44	433.55
486.80	435.38
487.17	437.19
487.53	439.40
487.90	441.83
488.26	445.21
488.62	448.52
488.99	450.26
489.35	453.36
489.72	455.83
490.08	458.33
490.44	461.26
490.81	465.00
491.17	467.74
491.54	471.55
491.90	475.48
492.26	479.07
492.63	482.93
492.99	486.48
493.36	491.21
493.72	495.90
494.08	500.02
494.45	505.00
494.81	510.10
495.17	514.71
495.54	519.76
495.90	524.48
496.26	529.17
496.63	535.45
496.99	540.95
497.35	546.95
497.72	553.07
498.08	558.74
498.44	564.55
498.80	571.12
499.17	577.57
499.53	584.02
499.89	591.21
500.26	597.74
500.62	604.38
500.98	611.43
501.34	618.52
501.71	626.64
502.07	633.69
502.43	640.88
502.79	648.33
503.16	655.24
503.52	662.33
503.88	669.52
504.24	676.98
504.60	684.76
504.97	692.45
505.33	700.43
505.69	709.43
506.05	717.24
506.41	724.67
506.78	732.43
507.14	740.60
507.50	748.43
507.86	757.02
508.22	765.17
508.59	773.05
508.95	780.88
509.31	789.50
509.67	797.45
510.03	805.57
510.39	813.48
510.75	821.76
511.12	830.40
511.48	839.07
511.84	847.36
512.20	854.98
512.56	862.86
512.92	871.36
513.28	879.50
513.64	887.67
514.00	896.33
514.37	904.02
514.73	911.50
515.09	920.12
515.45	926.76
515.81	934.81
516.17	942.33
516.53	949.90
516.89	956.67
517.25	963.83
517.61	971.57
517.97	978.90
518.33	986.00
518.69	992.83
519.05	999.83
519.41	1006.45
519.77	1014.71
520.13	1021.48
520.49	1027.31
520.85	1033.21
521.21	1040.38
521.57	1046.24
521.93	1052.26
522.29	1058.57
522.65	1063.40
523.01	1070.07
523.37	1075.21
523.73	1081.21
524.09	1087.05
524.45	1092.21
524.81	1097.86
525.17	1102.21
525.53	1107.81
525.89	1113.38
526.25	1118.74
526.61	1123.21
526.97	1127.98
527.33	1132.33
527.68	1139.21
528.04	1144.00
528.40	1148.21
528.76	1152.52
529.12	1157.36
529.48	1163.02
529.84	1167.21
530.20	1172.64
530.56	1177.48
530.91	1182.50
531.27	1186.81
531.63	1191.29
531.99	1195.74
532.35	1199.86
532.71	1204.64
533.07	1209.74
533.42	1216.21
533.78	1220.43
534.14	1225.64
534.50	1229.50
534.86	1234.10
535.21	1237.29
535.57	1241.69
535.93	1246.19
536.29	1251.26
536.65	1256.29
537.00	1260.38
537.36	1265.19
537.72	1268.60
538.08	1272.74
538.44	1276.64
538.79	1280.90
539.15	1283.90
539.51	1288.90
539.87	1293.62
540.22	1297.64
540.58	1300.55
540.94	1302.67
541.29	1306.38
541.65	1308.67
542.01	1312.86
542.37	1315.76
542.72	1317.86
543.08	1320.90
543.44	1324.21
543.79	1325.74
544.15	1328.83
544.51	1332.93
544.87	1336.60
545.22	1340.52
545.58	1343.71
545.94	1347.52
546.29	1351.12
546.65	1354.90
547.01	1357.45
547.36	1360.38
547.72	1363.88
548.07	1367.74
548.43	1370.17
548.79	1373.29
549.14	1376.88
549.50	1381.55
549.86	1383.98
550.21	1388.43
550.57	1392.57
550.92	1396.40
551.28	1400.88
551.64	1403.57
551.99	1406.10
552.35	1408.52
552.70	1411.83
553.06	1415.52
553.41	1419.10
553.77	1424.36
554.13	1428.79
554.48	1433.19
554.84	1438.05
555.19	1442.26
555.55	1448.12
555.90	1452.93
556.26	1457.33
556.61	1461.90
556.97	1464.21
557.32	1468.98
557.68	1472.48
558.03	1476.00
558.39	1479.79
558.74	1483.50
559.10	1488.31
559.45	1492.62
559.81	1498.29
560.16	1502.07
560.52	1507.43
560.87	1512.24
561.23	1515.21
561.58	1521.52
561.94	1525.19
562.29	1529.40
562.64	1534.31
563.00	1538.24
563.35	1542.95
563.71	1548.05
564.06	1553.71
564.42	1560.02
564.77	1566.17
565.12	1572.38
565.48	1580.12
565.83	1586.79
566.19	1593.26
566.54	1599.12
566.89	1605.24
567.25	1611.45
567.60	1619.83
567.96	1627.40
568.31	1633.29
568.66	1638.95
569.02	1641.86
569.37	1647.29
569.72	1653.14
570.08	1657.74
570.43	1661.60
570.78	1667.60
571.14	1672.71
571.49	1676.79
571.84	1681.24
572.20	1685.83
572.55	1690.67
572.90	1693.74
573.26	1697.62
573.61	1700.83
573.96	1704.93
574.31	1708.67
574.67	1712.05
575.02	1713.93
575.37	1714.93
575.72	1718.14
576.08	1722.10
576.43	1726.26
576.78	1729.67
577.13	1732.17
577.49	1735.83
577.84	1739.26
578.19	1741.26
578.54	1745.38
578.90	1749.36
579.25	1752.00
579.60	1754.38
579.95	1756.07
580.30	1758.50
580.66	1761.57
581.01	1764.57
581.36	1766.48
581.71	1768.71
582.06	1772.48
582.42	1775.29
582.77	1777.93
583.12	1780.14
583.47	1781.69
583.82	1783.71
584.17	1786.33
584.53	1789.14
584.88	1791.17
585.23	1793.90
585.58	1795.95
585.93	1796.57
586.28	1798.00
586.63	1800.33
586.98	1802.55
587.34	1804.76
587.69	1805.98
588.04	1806.02
588.39	1807.48
588.74	1807.60
589.09	1809.40
589.44	1807.79
589.79	1808.45
590.14	1809.36
590.49	1809.33
590.84	1809.88
591.19	1810.98
591.54	1811.12
591.89	1810.90
592.25	1812.60
592.60	1811.81
592.95	1811.95
593.30	1812.12
593.65	1811.36
594.00	1810.10
594.35	1815.00
594.70	1813.88
595.05	1813.57
595.40	1814.10
595.75	1812.64
596.10	1813.05
596.45	1813.02
596.80	1814.19
597.15	1813.93
597.50	1813.21
597.85	1813.19
598.19	1811.69
598.54	1811.31
598.89	1810.64
599.24	1810.10
599.59	1807.48
599.94	1806.57
600.29	1806.33
600.64	1804.79
600.99	1804.43
601.34	1803.81
601.69	1796.02
602.04	1794.79
602.39	1793.98
602.74	1793.07
603.08	1792.05
603.43	1791.45
603.78	1788.45
604.13	1785.90
604.48	1782.64
604.83	1781.48
605.18	1779.50
605.53	1778.19
605.87	1774.60
606.22	1772.29
606.57	1769.12
606.92	1766.83
607.27	1764.88
607.62	1762.12
607.96	1760.81
608.31	1758.31
608.66	1756.76
609.01	1755.14
609.36	1753.64
609.70	1749.98
610.05	1745.40
610.40	1742.45
610.75	1738.29
611.10	1735.36
611.44	1731.10
611.79	1728.26
612.14	1723.64
612.49	1719.14
612.83	1715.48
613.18	1711.55
613.53	1706.95
613.88	1702.52
614.22	1697.21
614.57	1692.00
614.92	1687.07
615.27	1681.14
615.61	1676.00
615.96	1670.62
616.31	1665.52
616.65	1660.45
617.00	1656.00
617.35	1651.93
617.70	1647.50
618.04	1643.36
618.39	1637.62
618.74	1633.29
619.08	1628.17
619.43	1623.40
619.78	1619.02
620.12	1614.19
620.47	1610.05
620.82	1605.14
621.16	1600.14
621.51	1596.81
621.85	1591.12
622.20	1585.81
622.55	1580.98
622.89	1576.07
623.24	1571.36
623.59	1566.40
623.93	1561.69
624.28	1557.36
624.62	1554.33
624.97	1550.17
625.32	1544.62
625.66	1540.93
626.01	1535.81
626.35	1531.74
626.70	1526.90
627.04	1523.71
627.39	1518.29
627.73	1514.12
628.08	1510.67
628.43	1505.90
628.77	1500.36
629.12	1496.38
629.46	1491.74
629.81	1486.88
630.15	1481.43
630.50	1475.24
630.84	1469.81
631.19	1463.60
631.53	1457.38
631.88	1449.50
632.22	1442.88
632.57	1437.43
632.91	1430.88
633.26	1425.38
633.60	1418.86
633.95	1412.33
634.29	1404.71
634.64	1399.36
634.98	1392.69
635.32	1387.24
635.67	1382.02
636.01	1376.55
636.36	1370.60
636.70	1365.81
637.05	1360.48
637.39	1355.40
637.73	1350.76
638.08	1345.95
638.42	1340.76
638.77	1335.45
639.11	1330.45
639.45	1325.31
639.80	1318.93
640.14	1313.74
640.49	1308.12
640.83	1302.10
641.17	1297.10
641.52	1291.19
641.86	1284.55
642.20	1279.38
642.55	1271.93
642.89	1265.52
643.23	1259.26
643.58	1253.86
643.92	1245.93
644.26	1239.29
644.61	1232.31
644.95	1225.31
645.29	1217.52
645.64	1211.83
645.98	1204.79
646.32	1198.10
646.66	1190.36
647.01	1183.86
647.35	1178.07
647.69	1171.79
648.04	1165.88
648.38	1159.33
648.72	1153.74
649.06	1147.48
649.41	1140.33
649.75	1133.38
650.09	1127.31
650.43	1120.36
650.78	1112.24
651.12	1106.24
651.46	1099.24
651.80	1092.88
652.14	1086.00
652.49	1080.79
652.83	1073.71
653.17	1067.71
653.51	1060.74
653.85	1055.05
654.20	1048.86
654.54	1040.43
654.88	1032.76
655.22	1026.90
655.56	1019.90
655.90	1012.43
656.25	1006.05
656.59	999.14
656.93	993.31
657.27	987.69
657.61	980.88
657.95	975.74
658.29	969.36
658.64	964.05
658.98	957.76
659.32	951.48
659.66	944.69
660.00	937.79
660.34	931.31
660.68	925.86
661.02	919.52
661.36	913.33
661.70	908.50
662.05	903.31
662.39	897.10
662.73	891.55
663.07	886.95
663.41	881.19
663.75	875.43
664.09	870.00
664.43	863.67
664.77	858.12
665.11	851.86
665.45	846.36
665.79	840.55
666.13	834.74
666.47	829.33
666.81	823.62
667.15	818.55
667.49	813.33
667.83	808.71
668.17	803.50
668.51	798.43
668.85	792.98
669.19	788.43
669.53	782.45
669.87	776.40
670.21	770.07
670.55	764.50
670.89	760.62
671.23	755.31
671.57	750.19
671.91	745.79
672.25	741.21
672.58	736.83
672.92	731.43
673.26	727.21
673.60	722.26
673.94	718.29
674.28	713.38
674.62	708.90
674.96	703.86
675.30	699.02
675.64	694.86
675.97	690.52
676.31	685.57
676.65	680.88
676.99	677.83
677.33	673.40
677.67	669.67
678.01	664.14
678.34	660.33
678.68	655.86
679.02	651.45
679.36	646.86
679.70	641.60
680.04	637.21
680.37	632.33
680.71	628.19
681.05	623.64
681.39	619.88
681.73	615.52
682.06	610.64
682.40	606.55
682.74	602.52
683.08	598.79
683.42	594.05
683.75	590.55
684.09	585.40
684.43	581.21
684.77	577.12
685.10	573.12
685.44	568.48
685.78	564.36
686.12	560.02
686.45	556.48
686.79	552.71
687.13	549.52
687.46	545.26
687.80	542.14
688.14	538.26
688.48	534.00
688.81	529.93
689.15	527.00
689.49	523.17
689.82	519.57
690.16	515.14
690.50	511.69
690.83	507.48
691.17	504.02
691.51	500.79
691.84	497.21
692.18	493.74
692.52	490.62
692.85	487.52
693.19	485.29
693.52	481.74
693.86	478.76
694.20	474.98
694.53	472.52
694.87	468.74
695.21	465.38
695.54	462.26
695.88	459.05
696.21	455.12
696.55	452.05
696.88	448.52
697.22	445.36
697.56	442.88
697.89	440.14
698.23	437.71
698.56	434.57
698.90	431.83
699.23	429.07
699.57	426.00
699.90	422.90
700.24	419.40
700.58	416.76
700.91	414.36
701.25	413.79
701.58	411.52
701.92	409.71
702.25	407.29
702.59	404.62
702.92	402.57
703.26	400.45
703.59	397.95
703.93	397.50
704.26	395.76
704.60	393.33
704.93	390.88
705.26	388.24
705.60	386.50
705.93	383.93
706.27	382.29
706.60	380.43
706.94	379.19
707.27	377.12
707.61	375.07
707.94	372.64
708.27	368.69
708.61	366.36
708.94	363.79
709.28	362.24
709.61	360.40
709.94	358.67
710.28	356.88
710.61	355.29
710.95	351.64
711.28	350.98
711.61	349.26
711.95	348.31
712.28	346.74
712.61	345.02
712.95	344.43
713.28	343.38
713.61	341.43
713.95	339.29
714.28	337.74
714.61	336.12
714.95	334.74
715.28	332.90
715.61	331.31
715.95	330.12
716.28	328.07
716.61	327.05
716.95	325.14
717.28	323.76
717.61	322.43
717.94	321.02
718.28	318.10
718.61	316.69
718.94	314.74
719.27	313.00
719.61	311.76
719.94	309.90
720.27	307.29
720.60	306.07
720.94	304.81
721.27	303.67
721.60	302.95
721.93	301.71
722.27	301.55
722.60	300.67
722.93	299.24
723.26	298.50
723.59	297.07
723.93	296.52
724.26	295.74
724.59	294.62
724.92	293.88
725.25	293.55
725.59	292.55
725.92	292.24
726.25	291.45
726.58	290.50
726.91	289.90
727.24	289.57
727.57	288.69
727.91	287.31
728.24	286.48
728.57	285.29
728.90	284.79
729.23	283.45
729.56	283.38
729.89	282.79
730.22	281.90
730.55	281.10
730.89	280.24
731.22	279.12
731.55	278.26
731.88	277.71
732.21	276.69
732.54	275.88
732.87	275.02
733.20	274.71
733.53	274.24
733.86	273.43
734.19	272.57
734.52	272.00
734.85	272.69
735.18	271.95
735.51	271.98
735.84	271.40
736.17	271.21
736.50	269.76
736.83	271.48
737.16	270.98
737.49	270.33
737.82	269.62
738.15	269.38
738.48	268.86
738.81	267.90
739.14	267.17
739.47	266.67
739.80	265.95
740.13	265.52
740.46	264.38
740.79	263.31
741.12	262.62
741.45	262.14
741.78	260.76
742.11	260.71
742.44	259.74
742.77	259.40
743.10	258.45
743.43	257.90
743.75	255.24
744.08	257.00
744.41	256.52
744.74	255.90
745.07	254.83
745.40	254.69
745.73	255.12
746.06	254.71
746.39	254.29
746.71	253.21
747.04	252.26
747.37	251.90
747.70	252.07
748.03	251.81
748.36	251.55
748.68	251.12
749.01	249.98
749.34	249.33
749.67	248.76
750.00	248.98
750.33	249.62
750.65	249.48
750.98	246.86
751.31	246.50
751.64	246.21
751.97	247.29
752.29	246.62
752.62	245.31
752.95	244.90
753.28	244.43
753.60	244.55
753.93	244.88
754.26	244.81
754.59	243.62
754.91	243.05
755.24	242.43
755.57	242.05
755.90	241.79
756.22	241.38
756.55	240.83
756.88	239.83
757.20	238.69
757.53	237.60
757.86	236.95
758.19	236.74
758.51	236.38
758.84	234.79
759.17	234.31
759.49	234.21
759.82	234.76
760.15	234.48
760.47	234.24
760.80	233.19
761.13	233.24
761.45	232.93
761.78	232.67
762.11	232.57
762.43	232.12
762.76	231.90
763.08	231.79
763.41	231.57
763.74	231.50
764.06	230.95
764.39	231.00
764.71	231.02
765.04	230.81
765.37	230.55
765.69	230.40
766.02	230.45
766.34	230.21
766.67	229.17
767.00	229.71
767.32	230.45
767.65	231.64
767.97	230.95
768.30	231.14
768.62	230.83
768.95	230.45
769.27	230.48
769.60	230.48
769.92	230.07
770.25	229.62
770.57	229.00
770.90	228.81
771.22	228.29
771.55	228.12
771.87	228.00
772.20	227.67
772.52	229.05
772.85	231.12
773.17	230.93
773.50	230.64
773.82	229.79
774.15	228.83
774.47	227.60
774.80	227.24
775.12	227.36
775.45	227.40
775.77	227.00
776.09	227.02
776.42	227.10
776.74	227.52
777.07	227.40
777.39	227.50
777.72	227.40
778.04	227.69
778.36	227.48
778.69	227.29
779.01	227.29
779.33	225.57
779.66	223.45
779.98	223.24
780.31	223.31
780.63	224.10
780.95	224.02
781.28	223.86
781.60	223.81
781.92	223.26
782.25	223.05
782.57	223.24
782.89	222.83
783.22	222.55
783.54	222.21
783.86	222.21
784.19	221.88
784.51	222.29
784.83	221.74
785.16	221.55
785.48	221.57
785.80	221.76
786.12	221.83
786.45	221.48
786.77	221.48
787.09	221.36
787.42	220.67
787.74	220.81
788.06	220.86
788.38	220.71
788.71	220.62
789.03	220.83
789.35	221.33
789.67	221.07
789.99	221.05
790.32	220.81
790.64	221.05
790.96	222.64
791.28	222.07
791.61	222.10
791.93	222.14
792.25	222.00
792.57	223.31
792.89	222.62
793.21	222.79
793.54	222.60
793.86	222.50
794.18	222.67
794.50	222.00
794.82	221.90
795.14	222.10
795.47	222.36
795.79	222.17
796.11	221.31
796.43	221.31
796.75	221.29
797.07	221.36
797.39	221.07
797.71	219.76
798.04	219.69
798.36	219.93
798.68	219.88
799.00	220.02
799.32	218.88
799.64	219.45
799.96	219.24
800.28	219.43
800.60	219.05
800.92	218.93
801.24	219.07
801.56	219.10
801.89	218.86
802.21	219.14
802.53	218.86
802.85	219.36
803.17	220.12
803.49	219.45
803.81	219.40
804.13	219.43
804.45	219.21
804.77	219.45
805.09	219.21
805.41	218.88
805.73	218.31
806.05	217.69
806.37	217.71
806.69	217.50
807.01	217.40
807.33	217.71
807.65	217.02
807.97	217.76
808.28	217.48
808.60	217.60
808.92	217.21
809.24	218.43
809.56	217.88
809.88	217.17
810.20	217.74
810.52	218.12
810.84	217.81
811.16	217.55
811.48	217.26
811.80	217.90
812.12	217.98
812.43	218.36
812.75	218.60
813.07	218.24
813.39	218.36
813.71	217.93
814.03	217.64
814.35	217.74
814.67	217.05
814.98	216.98
815.30	216.93
815.62	216.38
815.94	215.02
816.26	215.26
816.58	215.05
816.89	215.05
817.21	214.21
817.53	214.24
817.85	214.48
818.17	214.48
818.48	213.86
818.80	214.10
819.12	213.90
819.44	213.50
819.76	213.12
820.07	213.10
820.39	213.19
820.71	213.24
821.03	213.07
821.34	212.98
821.66	213.36
821.98	213.43
822.30	213.62
822.61	214.69
822.93	214.40
823.25	214.36
823.57	214.02
823.88	214.60
824.20	214.83
824.52	214.88
824.83	214.90
825.15	214.52
825.47	214.57
825.79	214.81
826.10	214.79
826.42	214.93
826.74	215.19
827.05	215.12
827.37	215.21
827.69	215.24
828.00	215.21
828.32	215.00
828.64	214.62
828.95	215.60
829.27	215.24
829.58	215.14
829.90	215.76
830.22	216.12
830.53	215.74
830.85	215.12
831.17	214.83
831.48	214.43
831.80	214.60
832.11	214.36
832.43	214.12
832.75	214.12
833.06	215.64
833.38	215.17
833.69	215.10
834.01	215.19
834.32	214.93
834.64	214.81
834.96	214.88
835.27	215.14
835.59	214.50
835.90	214.19
836.22	214.24
836.53	213.38
836.85	212.93
837.16	214.98
837.48	215.07
837.79	215.38
838.11	215.90
838.42	215.98
838.74	216.26
839.05	215.95
839.37	215.88
839.68	214.45
840.00	214.21
840.31	214.69
840.63	214.76
840.94	215.10
841.26	214.86
841.57	214.90
841.88	215.12
842.20	214.79
842.51	214.57
842.83	214.67
843.14	216.60
843.46	216.52
843.77	215.24
844.08	215.29
844.40	214.90
844.71	214.76
845.03	214.26
845.34	214.10
845.65	214.05
845.97	214.12
846.28	214.19
846.60	214.29
846.91	213.71
847.22	213.33
847.54	213.57
847.85	213.74
848.16	213.45
848.48	212.90
848.79	214.02
849.10	214.21
849.42	214.33
849.73	212.55
850.04	212.64
850.36	211.95
850.67	212.45
850.98	212.62
851.30	212.71
851.61	213.05
851.92	212.88
852.23	213.76
852.55	213.76
852.86	213.62
853.17	214.05
853.49	214.60
853.80	215.36
854.11	215.38
854.42	215.86
854.74	215.69
855.05	215.81
855.36	214.43
855.67	214.52
855.99	214.33
856.30	216.98
856.61	216.88
856.92	217.17
857.23	217.00
857.55	216.64
857.86	216.36
858.17	216.79
858.48	216.62
858.79	215.98
859.11	216.36
859.42	216.43
859.73	215.90
860.04	215.86
860.35	214.90
860.66	214.24
860.98	214.05
861.29	214.33
861.60	214.38
861.91	214.95
862.22	214.48
862.53	214.17
862.84	211.67
863.16	212.26
863.47	211.60
863.78	211.40
864.09	211.67
864.40	211.93
864.71	211.98
865.02	212.45
865.33	212.29
865.64	211.76
865.95	211.93
866.27	213.64
866.58	213.33
866.89	213.90
867.20	214.12
867.51	213.62
867.82	213.43
868.13	213.95
868.44	213.67
868.75	214.10
869.06	214.52
869.37	214.62
869.68	213.98
869.99	214.31
870.30	214.38
870.61	214.64
870.92	214.26
871.23	213.86
871.54	214.00
871.85	214.55
872.16	214.93
872.47	214.64
872.78	213.12
873.09	213.29
873.40	212.90
873.71	213.12
874.02	213.33
874.33	213.31
874.64	212.74
874.95	212.86
875.26	212.43
875.56	212.40
875.87	212.33
876.18	212.26
876.49	214.43
876.80	214.21
877.11	213.71
877.42	213.86
877.73	214.07
878.04	213.64
878.35	213.40
878.66	213.48
878.96	213.50
879.27	213.43
879.58	213.36
879.89	213.40
880.20	213.93
880.51	213.88
880.82	213.86
881.12	214.05
881.43	213.74
881.74	213.60
882.05	213.52
882.36	213.55
882.67	214.05
882.97	211.79
883.28	211.88
883.59	211.98
883.90	212.24
884.21	212.33
884.51	212.29
884.82	212.26
885.13	212.10
885.44	211.95
885.74	211.98
886.05	211.93
886.36	211.93
886.67	211.14
886.98	212.31
887.28	212.74
887.59	212.60
887.90	212.69
888.20	212.74
888.51	213.12
888.82	212.67
889.13	212.43
889.43	214.33
889.74	214.24
890.05	214.10
890.35	213.88
890.66	213.48
890.97	213.43
891.28	213.02
891.58	213.12
891.89	213.19
892.20	212.95
892.50	213.00
892.81	212.79
893.12	212.71
893.42	211.64
893.73	211.45
894.04	211.38
894.34	211.33
894.65	211.07
894.95	210.76
895.26	211.10
895.57	211.98
895.87	210.05
896.18	210.36
896.48	210.40
896.79	210.29
897.10	210.79
897.40	210.76
897.71	211.02
898.01	210.81
898.32	211.05
898.63	211.10
898.93	210.98
899.24	211.19
899.54	211.26
899.85	211.05
900.15	210.95
900.46	211.17
900.76	211.55
901.07	211.60
901.38	211.45
901.68	211.74
901.99	210.74
902.29	210.69
902.60	210.31
902.90	210.40
903.21	210.50
903.51	210.38
903.82	210.86
904.12	210.86
904.43	211.00
904.73	210.88
905.03	211.19
905.34	213.36
905.64	213.12
905.95	213.05
906.25	213.26
906.56	213.14
906.86	213.10
907.17	212.90
907.47	213.21
907.77	213.17
908.08	212.79
908.38	212.95
908.69	213.31
908.99	213.79
909.30	213.83
909.60	213.79
909.90	213.55
910.21	213.00
910.51	212.76
910.81	212.83
911.12	213.00
911.42	213.00
911.73	210.88
912.03	211.12
912.33	211.57
912.64	211.60
912.94	211.45
913.24	211.07
913.55	210.79
913.85	210.69
914.15	211.10
914.46	211.17
914.76	211.19
915.06	210.98
915.37	210.69
915.67	210.62
915.97	210.62
916.27	210.45
916.58	210.43
916.88	210.48
917.18	210.31
917.49	211.69
917.79	211.74
918.09	212.14
918.39	212.69
918.70	212.38
919.00	212.36
919.30	213.14
919.60	213.33
919.91	213.43
920.21	213.45
920.51	212.98
920.81	212.90
921.12	213.24
921.42	213.21
921.72	213.48
922.02	213.57
922.32	213.81
922.63	213.88
922.93	215.10
923.23	215.10
923.53	214.93
923.83	213.29
924.13	213.38
924.44	213.21
924.74	213.57
925.04	214.12
925.34	213.88
925.64	213.26
925.94	213.26
926.24	214.36
926.55	214.26
926.85	214.57
927.15	214.71
927.45	214.55
927.75	214.57
928.05	214.52
928.35	214.40
928.65	214.98
928.95	215.07
929.26	214.26
929.56	214.62
929.86	214.93
930.16	214.95
930.46	214.79
930.76	214.57
931.06	213.50
931.36	213.00
931.66	213.40
931.96	213.79
932.26	213.90
932.56	213.05
932.86	213.38
933.16	213.29
933.46	213.00
933.76	212.76
934.06	213.21
934.36	213.71
934.66	213.64
934.96	213.12
935.26	213.33
935.56	213.67
935.86	213.21
936.16	212.86
936.46	212.67
936.76	212.45
937.06	212.36
937.36	212.52
937.66	212.52
937.96	212.36
938.26	211.69
938.56	211.52
938.86	211.71
939.16	211.98
939.46	212.12
939.76	212.43
940.06	212.55
940.35	212.24
940.65	211.33
940.95	211.57
941.25	211.10
941.55	210.81
941.85	210.60
942.15	211.29
942.45	211.88
942.75	211.98
943.04	212.17
943.34	212.43
943.64	212.21
943.94	212.31
944.24	212.38
944.54	212.62
944.84	212.64
945.13	212.26
945.43	211.81
945.73	211.93
946.03	211.67
946.33	211.29
946.62	210.88
946.92	211.12
947.22	211.21
947.52	211.36
947.82	211.81
948.11	211.52
948.41	210.90
948.71	210.57
949.01	210.76
949.31	210.69
949.60	210.81
949.90	211.29
950.20	210.95
950.50	211.05
950.79	210.90
951.09	211.17
951.39	211.21
951.69	211.10
951.98	211.21
952.28	211.55
952.58	211.62
952.87	211.81
953.17	211.95
953.47	211.64
953.76	211.86
954.06	211.33
954.36	211.02
954.66	211.14
954.95	211.60
955.25	211.60
955.55	211.69
955.84	211.21
956.14	211.31
956.44	211.55
956.73	211.10
957.03	211.48
957.32	211.26
957.62	211.05
957.92	211.60
958.21	211.33
958.51	213.45
958.81	213.86
959.10	214.07
959.40	214.52
959.69	214.76
959.99	214.90
960.29	214.90
960.58	214.93
960.88	215.64
961.17	215.19
961.47	215.52
961.76	215.31
962.06	215.69
962.36	215.45
962.65	215.52
962.95	215.76
963.24	215.50
963.54	215.74
963.83	215.88
964.13	215.64
964.42	214.93
964.72	213.33
965.01	213.14
965.31	213.07
965.60	212.36
965.90	213.45
966.19	213.12
966.49	213.31
966.78	213.29
967.08	212.81
967.37	212.95
967.67	212.45
967.96	212.79
968.26	212.60
968.55	212.93
968.85	212.83
969.14	212.95
969.43	212.88
969.73	212.79
970.02	212.83
970.32	212.88
970.61	213.07
970.91	212.24
971.20	211.95
971.49	211.69
971.79	212.12
972.08	210.74
972.38	211.10
972.67	210.90
972.96	211.17
973.26	211.10
973.55	211.71
973.85	211.81
974.14	211.76
974.43	212.10
974.73	211.69
975.02	211.45
975.31	211.21
975.61	211.02
975.90	210.67
976.19	210.43
976.49	210.43
976.78	210.98
977.07	210.98
977.37	211.14
977.66	211.40
977.95	210.95
978.24	211.43
978.54	211.60
978.83	211.67
979.12	211.52
979.42	211.40
979.71	210.76
980.00	210.48
980.29	210.38
980.59	209.90
980.88	210.52
981.17	210.62
981.46	210.93
981.76	211.00
982.05	211.57
982.34	211.71
982.63	211.57
982.93	211.36
983.22	211.95
983.51	211.81
983.80	211.83
984.09	212.31
984.39	211.76
984.68	211.36
984.97	211.26
985.26	211.02
985.55	211.31
985.85	210.98
986.14	211.43
986.43	211.79
986.72	211.62
987.01	210.74
987.30	210.79
987.59	210.29
987.89	210.40
988.18	209.86
988.47	209.71
988.76	209.62
989.05	209.57
989.34	209.29
989.63	210.00
989.92	209.83
990.22	209.24
990.51	209.29
990.80	209.12
991.09	209.29
991.38	209.64
991.67	209.24
991.96	209.29
992.25	209.14
992.54	208.57
992.83	208.57
993.12	208.57
993.41	208.81
993.70	209.74
993.99	210.05
994.28	210.33
994.58	210.93
994.87	210.90
995.16	210.95
995.45	210.76
995.74	210.17
996.03	210.57
996.32	211.14
996.61	211.67
996.90	211.69
997.19	211.81
997.48	211.86
997.77	211.74
998.06	211.90
998.34	211.86
998.63	211.88
998.92	212.12
999.21	212.45
999.50	212.40
999.79	211.62
1000.08	211.62
1000.37	211.79
1000.66	211.24
1000.95	211.64
1001.24	211.67
1001.53	212.00
1001.82	211.98
1002.11	211.55
1002.40	211.57
1002.68	212.02
1002.97	213.48
1003.26	213.14
1003.55	212.90
1003.84	213.19
1004.13	213.71
1004.42	213.45
1004.71	213.60
1004.99	213.38
1005.28	213.95
1005.57	214.00
1005.86	213.93
1006.15	213.76
1006.44	213.33
1006.72	213.79
1007.01	213.48
1007.30	213.26
1007.59	212.98
1007.88	213.07
1008.17	213.05
1008.45	212.71
1008.74	211.79
1009.03	210.98
1009.32	210.93
1009.60	210.93
1009.89	210.74
1010.18	209.95
1010.47	210.10
1010.76	209.79
1011.04	209.69
1011.33	209.62
1011.62	209.71
1011.91	210.00
1012.19	209.93
1012.48	210.14
1012.77	209.79
1013.05	210.67
1013.34	210.95
1013.63	210.88
1013.92	210.81
1014.20	210.71
1014.49	210.88
1014.78	211.12
1015.06	210.36
1015.35	210.31
1015.64	210.64
1015.92	210.93
1016.21	211.14
1016.50	211.21
1016.78	211.71
1017.07	211.90
1017.36	211.40
1017.64	211.00
1017.93	211.12
1018.22	210.98
1018.50	210.83
1018.79	210.86
1019.08	209.88
1019.36	209.67
1019.65	209.64
1019.93	210.19
1020.22	210.52
1020.51	211.60
1020.79	211.43
1021.08	206.00
1021.36	207.50
1021.65	210.00
1021.94	208.50
1022.22	208.00
1022.51	208.50
1022.79	220.00
1023.08	213.00
1023.36	238.00
1023.65	207.50
>>>>>End Processed Spectral Data<<<<<
