SpectraSuite Data File
++++++++++++++++++++++++++++++++++++
Date: Tue Apr 02 18:41:09 EDT 2013
User: group
Dark Spectrum Present: No
Reference Spectrum Present: No
Number of Sampled Component Spectra: 1
Spectrometers: USB2E7196
Integration Time (usec): 580000 (USB2E7196)
Spectra Averaged: 2 (USB2E7196)
Boxcar Smoothing: 10 (USB2E7196)
Correct for Electrical Dark: No (USB2E7196)
Strobe/Lamp Enabled: No (USB2E7196)
Correct for Detector Non-linearity: No (USB2E7196)
Correct for Stray Light: No (USB2E7196)
Number of Pixels in Processed Spectrum: 2048
>>>>>Begin Processed Spectral Data<<<<<
339.09	0.00
339.48	192.00
339.86	194.50
340.24	196.00
340.63	199.50
341.01	231.50
341.39	201.00
341.78	202.00
342.16	212.00
342.54	206.50
342.93	197.40
343.31	207.10
343.69	207.69
344.07	208.19
344.46	208.83
344.84	209.36
345.22	208.00
345.60	208.31
345.99	208.69
346.37	208.62
346.75	208.88
347.13	208.88
347.52	209.02
347.90	209.88
348.28	210.14
348.66	210.62
349.05	209.93
349.43	210.05
349.81	210.07
350.19	209.98
350.57	209.86
350.96	209.98
351.34	210.45
351.72	210.52
352.10	210.69
352.48	210.55
352.87	210.33
353.25	210.52
353.63	210.48
354.01	210.43
354.39	210.64
354.77	210.60
355.15	211.26
355.54	211.19
355.92	210.33
356.30	210.02
356.68	211.17
357.06	211.50
357.44	211.38
357.82	211.52
358.20	212.60
358.58	212.60
358.97	212.60
359.35	212.71
359.73	213.21
360.11	213.38
360.49	213.62
360.87	213.74
361.25	214.12
361.63	214.95
362.01	215.17
362.39	214.67
362.77	214.86
363.15	214.33
363.53	214.29
363.91	214.57
364.29	214.64
364.67	212.76
365.05	212.93
365.43	213.21
365.81	213.43
366.19	213.74
366.57	214.60
366.95	214.64
367.33	214.43
367.71	214.38
368.09	214.71
368.47	214.79
368.85	214.86
369.23	215.26
369.61	214.71
369.99	215.43
370.37	215.95
370.75	217.12
371.13	217.05
371.51	217.00
371.89	217.10
372.27	217.33
372.65	217.64
373.03	217.55
373.41	217.48
373.78	217.48
374.16	216.43
374.54	215.69
374.92	215.48
375.30	215.50
375.68	215.07
376.06	214.98
376.44	214.55
376.82	214.74
377.19	214.69
377.57	214.40
377.95	213.67
378.33	213.55
378.71	212.07
379.09	212.45
379.47	212.71
379.84	212.62
380.22	212.31
380.60	211.98
380.98	211.86
381.36	211.69
381.73	211.26
382.11	211.55
382.49	211.81
382.87	211.76
383.25	211.74
383.62	214.19
384.00	213.90
384.38	214.43
384.76	214.76
385.13	215.29
385.51	215.43
385.89	215.24
386.27	215.38
386.64	215.67
387.02	215.38
387.40	215.12
387.78	215.31
388.15	215.48
388.53	215.60
388.91	215.60
389.29	215.52
389.66	215.74
390.04	215.43
390.42	215.71
390.79	215.93
391.17	215.98
391.55	213.83
391.92	214.05
392.30	214.07
392.68	213.40
393.05	213.29
393.43	213.17
393.81	213.38
394.18	213.02
394.56	213.02
394.94	213.50
395.31	213.38
395.69	213.90
396.06	214.14
396.44	214.21
396.82	214.17
397.19	215.26
397.57	215.19
397.95	215.55
398.32	215.19
398.70	215.31
399.07	215.67
399.45	215.36
399.82	215.12
400.20	214.86
400.58	215.02
400.95	214.17
401.33	214.81
401.70	216.33
402.08	216.45
402.45	216.60
402.83	216.93
403.20	217.21
403.58	217.05
403.95	217.76
404.33	218.26
404.71	218.55
405.08	219.57
405.46	220.14
405.83	220.45
406.21	220.57
406.58	220.90
406.96	221.24
407.33	222.43
407.70	223.07
408.08	225.52
408.45	226.57
408.83	227.88
409.20	228.26
409.58	227.69
409.95	229.14
410.33	230.21
410.70	230.57
411.08	231.67
411.45	232.69
411.82	233.33
412.20	234.86
412.57	237.52
412.95	237.29
413.32	239.05
413.69	240.74
414.07	242.43
414.44	244.60
414.82	246.45
415.19	248.71
415.56	251.17
415.94	252.50
416.31	255.26
416.68	258.05
417.06	261.52
417.43	265.12
417.81	268.48
418.18	272.24
418.55	276.24
418.93	280.76
419.30	285.50
419.67	290.31
420.04	295.10
420.42	299.33
420.79	306.67
421.16	312.38
421.54	319.38
421.91	325.81
422.28	332.19
422.66	339.26
423.03	347.48
423.40	354.88
423.77	362.36
424.15	369.71
424.52	377.71
424.89	386.36
425.26	394.21
425.64	402.33
426.01	411.38
426.38	420.48
426.75	429.93
427.13	439.45
427.50	449.62
427.87	459.43
428.24	469.98
428.61	478.83
428.99	490.24
429.36	501.05
429.73	512.55
430.10	524.14
430.47	536.55
430.85	547.19
431.22	559.86
431.59	574.50
431.96	588.17
432.33	602.07
432.70	616.48
433.08	633.12
433.45	648.67
433.82	663.69
434.19	681.52
434.56	699.33
434.93	715.33
435.30	731.45
435.68	749.88
436.05	767.90
436.42	785.43
436.79	801.86
437.16	820.12
437.53	839.79
437.90	858.64
438.27	876.74
438.64	895.55
439.01	913.48
439.38	927.74
439.75	942.36
440.13	960.86
440.50	976.55
440.87	989.76
441.24	1004.07
441.61	1019.69
441.98	1030.62
442.35	1042.83
442.72	1056.31
443.09	1069.76
443.46	1078.48
443.83	1083.90
444.20	1089.43
444.57	1095.86
444.94	1099.21
445.31	1102.67
445.68	1108.43
446.05	1111.31
446.42	1110.10
446.79	1108.55
447.16	1107.07
447.53	1106.57
447.90	1099.36
448.27	1093.76
448.64	1084.67
449.01	1077.95
449.37	1066.17
449.74	1054.74
450.11	1042.93
450.48	1027.50
450.85	1011.52
451.22	997.95
451.59	985.64
451.96	974.00
452.33	957.79
452.70	942.74
453.07	924.57
453.43	903.62
453.80	885.24
454.17	869.05
454.54	853.40
454.91	836.98
455.28	820.07
455.65	805.00
456.02	792.36
456.38	779.74
456.75	763.45
457.12	749.57
457.49	736.38
457.86	721.69
458.23	711.93
458.59	699.90
458.96	687.17
459.33	675.43
459.70	663.60
460.07	655.10
460.43	645.05
460.80	635.74
461.17	628.81
461.54	620.10
461.91	611.79
462.27	602.83
462.64	595.21
463.01	587.74
463.38	580.79
463.74	569.69
464.11	562.62
464.48	556.52
464.85	549.74
465.21	545.00
465.58	539.74
465.95	532.55
466.32	527.21
466.68	521.86
467.05	516.60
467.42	511.64
467.78	505.81
468.15	500.60
468.52	496.67
468.88	490.64
469.25	485.88
469.62	482.10
469.98	478.17
470.35	474.21
470.72	470.43
471.08	465.43
471.45	462.74
471.82	459.76
472.18	456.24
472.55	454.14
472.92	450.62
473.28	447.67
473.65	444.76
474.02	441.93
474.38	439.83
474.75	438.05
475.11	435.31
475.48	433.79
475.85	432.24
476.21	430.43
476.58	428.95
476.94	427.71
477.31	426.10
477.67	424.93
478.04	423.88
478.41	422.81
478.77	424.60
479.14	423.43
479.50	422.69
479.87	422.40
480.23	421.93
480.60	421.69
480.96	421.21
481.33	422.10
481.69	422.29
482.06	422.19
482.42	422.21
482.79	422.71
483.15	422.83
483.52	423.60
483.88	424.00
484.25	424.48
484.61	425.07
484.98	426.21
485.34	428.17
485.71	429.76
486.07	431.17
486.44	430.26
486.80	431.67
487.17	433.57
487.53	435.86
487.90	437.86
488.26	440.76
488.62	443.48
488.99	445.31
489.35	448.00
489.72	450.98
490.08	453.86
490.44	456.81
490.81	459.90
491.17	462.95
491.54	466.90
491.90	471.14
492.26	474.88
492.63	478.19
492.99	481.62
493.36	485.62
493.72	490.48
494.08	495.19
494.45	500.24
494.81	505.69
495.17	510.40
495.54	516.21
495.90	520.74
496.26	526.36
496.63	531.83
496.99	537.60
497.35	543.38
497.72	549.50
498.08	555.45
498.44	561.95
498.80	569.10
499.17	575.29
499.53	581.17
499.89	588.71
500.26	596.36
500.62	603.00
500.98	610.83
501.34	617.83
501.71	625.79
502.07	632.48
502.43	639.31
502.79	646.40
503.16	653.19
503.52	660.60
503.88	668.07
504.24	675.40
504.60	683.05
504.97	691.31
505.33	699.29
505.69	708.69
506.05	716.76
506.41	724.21
506.78	732.29
507.14	740.45
507.50	747.83
507.86	755.83
508.22	764.74
508.59	772.21
508.95	780.90
509.31	789.36
509.67	797.88
510.03	805.10
510.39	813.64
510.75	822.12
511.12	830.71
511.48	839.33
511.84	847.71
512.20	855.60
512.56	863.26
512.92	870.93
513.28	878.17
513.64	886.05
514.00	893.64
514.37	901.24
514.73	909.05
515.09	917.52
515.45	924.64
515.81	931.48
516.17	938.00
516.53	944.40
516.89	950.62
517.25	957.76
517.61	965.83
517.97	972.93
518.33	979.17
518.69	986.24
519.05	991.88
519.41	998.48
519.77	1006.43
520.13	1012.88
520.49	1019.71
520.85	1025.36
521.21	1032.40
521.57	1039.05
521.93	1044.76
522.29	1051.36
522.65	1056.38
523.01	1062.88
523.37	1068.38
523.73	1075.07
524.09	1080.62
524.45	1085.95
524.81	1091.93
525.17	1096.79
525.53	1101.69
525.89	1107.52
526.25	1112.43
526.61	1117.45
526.97	1122.17
527.33	1126.21
527.68	1132.07
528.04	1136.86
528.40	1141.38
528.76	1145.71
529.12	1149.71
529.48	1155.07
529.84	1159.45
530.20	1164.50
530.56	1168.55
530.91	1173.83
531.27	1178.76
531.63	1183.86
531.99	1188.36
532.35	1192.33
532.71	1197.00
533.07	1201.81
533.42	1209.45
533.78	1213.86
534.14	1219.12
534.50	1224.50
534.86	1229.81
535.21	1233.40
535.57	1238.69
535.93	1243.79
536.29	1248.95
536.65	1253.45
537.00	1256.93
537.36	1261.48
537.72	1265.55
538.08	1270.29
538.44	1273.14
538.79	1276.38
539.15	1279.83
539.51	1284.17
539.87	1288.24
540.22	1292.52
540.58	1297.05
540.94	1298.36
541.29	1301.90
541.65	1304.55
542.01	1307.62
542.37	1310.19
542.72	1313.48
543.08	1315.52
543.44	1319.05
543.79	1320.90
544.15	1324.93
544.51	1329.69
544.87	1332.33
545.22	1335.45
545.58	1338.24
545.94	1342.57
546.29	1345.93
546.65	1348.26
547.01	1350.95
547.36	1354.05
547.72	1356.79
548.07	1359.24
548.43	1361.12
548.79	1364.29
549.14	1367.17
549.50	1370.86
549.86	1373.57
550.21	1376.40
550.57	1379.48
550.92	1381.48
551.28	1385.38
551.64	1388.02
551.99	1390.45
552.35	1393.57
552.70	1396.52
553.06	1400.86
553.41	1404.76
553.77	1410.26
554.13	1414.79
554.48	1420.19
554.84	1424.71
555.19	1429.38
555.55	1435.36
555.90	1439.31
556.26	1443.52
556.61	1448.29
556.97	1451.76
557.32	1456.17
557.68	1461.05
558.03	1466.40
558.39	1470.90
558.74	1474.76
559.10	1479.50
559.45	1484.19
559.81	1489.14
560.16	1494.14
560.52	1497.83
560.87	1502.62
561.23	1505.40
561.58	1512.43
561.94	1516.19
562.29	1521.05
562.64	1525.64
563.00	1528.95
563.35	1534.93
563.71	1540.05
564.06	1545.21
564.42	1550.79
564.77	1557.86
565.12	1564.52
565.48	1570.90
565.83	1577.93
566.19	1583.93
566.54	1589.64
566.89	1595.95
567.25	1603.12
567.60	1610.71
567.96	1618.71
568.31	1624.86
568.66	1632.45
569.02	1636.07
569.37	1641.26
569.72	1646.29
570.08	1650.88
570.43	1655.83
570.78	1660.29
571.14	1665.74
571.49	1670.86
571.84	1676.14
572.20	1679.21
572.55	1683.21
572.90	1686.81
573.26	1690.52
573.61	1693.98
573.96	1698.26
574.31	1701.83
574.67	1704.26
575.02	1706.71
575.37	1708.50
575.72	1710.62
576.08	1712.74
576.43	1715.33
576.78	1718.67
577.13	1722.26
577.49	1725.74
577.84	1729.86
578.19	1734.17
578.54	1738.14
578.90	1741.86
579.25	1744.48
579.60	1746.95
579.95	1749.05
580.30	1751.50
580.66	1754.52
581.01	1757.83
581.36	1760.57
581.71	1762.48
582.06	1766.86
582.42	1770.43
582.77	1772.67
583.12	1775.45
583.47	1777.64
583.82	1780.40
584.17	1782.79
584.53	1784.36
584.88	1786.21
585.23	1788.31
585.58	1789.29
585.93	1790.36
586.28	1792.07
586.63	1794.48
586.98	1797.10
587.34	1799.48
587.69	1800.29
588.04	1801.86
588.39	1803.50
588.74	1803.38
589.09	1804.69
589.44	1802.93
589.79	1803.45
590.14	1805.31
590.49	1805.90
590.84	1806.40
591.19	1807.83
591.54	1808.29
591.89	1809.05
592.25	1812.38
592.60	1811.50
592.95	1812.17
593.30	1812.17
593.65	1811.02
594.00	1809.83
594.35	1815.57
594.70	1813.88
595.05	1814.12
595.40	1812.86
595.75	1811.88
596.10	1812.74
596.45	1812.69
596.80	1813.69
597.15	1813.43
597.50	1811.36
597.85	1811.95
598.19	1811.10
598.54	1810.43
598.89	1808.71
599.24	1808.64
599.59	1805.90
599.94	1804.88
600.29	1803.93
600.64	1802.33
600.99	1802.12
601.34	1801.71
601.69	1794.71
602.04	1793.40
602.39	1792.29
602.74	1792.38
603.08	1791.62
603.43	1791.00
603.78	1788.79
604.13	1787.07
604.48	1784.43
604.83	1784.12
605.18	1781.55
605.53	1779.90
605.87	1777.29
606.22	1776.10
606.57	1773.33
606.92	1770.12
607.27	1768.24
607.62	1766.43
607.96	1764.76
608.31	1763.93
608.66	1761.17
609.01	1758.21
609.36	1756.76
609.70	1753.52
610.05	1749.26
610.40	1746.88
610.75	1743.00
611.10	1740.69
611.44	1736.81
611.79	1733.55
612.14	1729.81
612.49	1725.50
612.83	1722.26
613.18	1718.36
613.53	1714.14
613.88	1709.00
614.22	1704.98
614.57	1700.33
614.92	1695.60
615.27	1690.79
615.61	1684.31
615.96	1679.45
616.31	1674.74
616.65	1670.19
617.00	1666.64
617.35	1662.40
617.70	1656.79
618.04	1651.02
618.39	1645.88
618.74	1641.19
619.08	1635.74
619.43	1630.69
619.78	1626.02
620.12	1621.07
620.47	1617.05
620.82	1612.79
621.16	1608.19
621.51	1605.17
621.85	1599.76
622.20	1594.29
622.55	1588.98
622.89	1584.24
623.24	1579.95
623.59	1574.98
623.93	1569.90
624.28	1564.33
624.62	1561.24
624.97	1557.86
625.32	1554.02
625.66	1549.21
626.01	1544.17
626.35	1539.90
626.70	1534.86
627.04	1531.76
627.39	1526.17
627.73	1522.17
628.08	1517.21
628.43	1512.48
628.77	1506.62
629.12	1502.71
629.46	1498.14
629.81	1493.60
630.15	1488.12
630.50	1482.00
630.84	1476.76
631.19	1471.48
631.53	1465.83
631.88	1457.90
632.22	1450.29
632.57	1444.74
632.91	1439.12
633.26	1433.83
633.60	1427.90
633.95	1421.69
634.29	1413.67
634.64	1409.33
634.98	1402.33
635.32	1397.26
635.67	1393.38
636.01	1387.79
636.36	1381.60
636.70	1376.40
637.05	1370.40
637.39	1365.38
637.73	1360.98
638.08	1356.31
638.42	1351.12
638.77	1346.81
639.11	1341.67
639.45	1337.12
639.80	1330.52
640.14	1324.71
640.49	1318.88
640.83	1312.90
641.17	1307.52
641.52	1302.26
641.86	1295.98
642.20	1291.10
642.55	1284.10
642.89	1276.83
643.23	1269.98
643.58	1264.95
643.92	1257.90
644.26	1251.93
644.61	1245.98
644.95	1238.88
645.29	1231.74
645.64	1225.36
645.98	1218.26
646.32	1212.69
646.66	1205.33
647.01	1199.19
647.35	1193.36
647.69	1187.83
648.04	1181.81
648.38	1175.62
648.72	1169.45
649.06	1162.17
649.41	1153.86
649.75	1146.38
650.09	1139.38
650.43	1132.90
650.78	1125.36
651.12	1118.81
651.46	1112.26
651.80	1105.31
652.14	1098.83
652.49	1092.64
652.83	1085.50
653.17	1078.69
653.51	1071.36
653.85	1065.43
654.20	1058.71
654.54	1051.33
654.88	1043.55
655.22	1037.64
655.56	1030.71
655.90	1024.24
656.25	1018.29
656.59	1012.76
656.93	1007.40
657.27	1002.76
657.61	996.43
657.95	990.17
658.29	984.33
658.64	979.00
658.98	972.62
659.32	966.48
659.66	960.17
660.00	953.98
660.34	947.79
660.68	942.21
661.02	935.76
661.36	929.90
661.70	924.52
662.05	919.24
662.39	913.31
662.73	908.24
663.07	903.67
663.41	897.81
663.75	891.79
664.09	886.31
664.43	878.43
664.77	872.36
665.11	866.43
665.45	860.36
665.79	853.98
666.13	848.05
666.47	841.88
666.81	836.26
667.15	830.64
667.49	825.62
667.83	820.60
668.17	815.43
668.51	810.19
668.85	804.64
669.19	800.00
669.53	793.62
669.87	787.19
670.21	780.88
670.55	775.17
670.89	770.52
671.23	765.31
671.57	761.52
671.91	756.88
672.25	752.12
672.58	748.24
672.92	743.17
673.26	738.50
673.60	734.10
673.94	728.83
674.28	724.05
674.62	719.62
674.96	714.12
675.30	709.71
675.64	705.07
675.97	700.57
676.31	695.38
676.65	690.55
676.99	687.26
677.33	682.26
677.67	678.05
678.01	672.88
678.34	668.31
678.68	663.50
679.02	658.81
679.36	654.19
679.70	649.29
680.04	644.86
680.37	640.48
680.71	636.17
681.05	632.26
681.39	628.10
681.73	623.24
682.06	619.07
682.40	614.14
682.74	610.05
683.08	606.48
683.42	601.55
683.75	598.40
684.09	593.29
684.43	589.57
684.77	585.33
685.10	581.40
685.44	577.40
685.78	573.26
686.12	569.62
686.45	565.71
686.79	561.19
687.13	557.50
687.46	553.69
687.80	550.38
688.14	546.64
688.48	542.98
688.81	539.31
689.15	536.10
689.49	532.50
689.82	528.83
690.16	524.05
690.50	520.81
690.83	516.40
691.17	512.40
691.51	508.50
691.84	504.81
692.18	501.05
692.52	497.81
692.85	494.57
693.19	491.33
693.52	487.98
693.86	484.36
694.20	480.76
694.53	477.36
694.87	473.29
695.21	469.83
695.54	466.69
695.88	462.79
696.21	458.55
696.55	455.36
696.88	452.33
697.22	449.45
697.56	446.38
697.89	443.24
698.23	441.26
698.56	438.05
698.90	435.79
699.23	432.90
699.57	430.12
699.90	427.14
700.24	424.36
700.58	421.71
700.91	419.48
701.25	418.76
701.58	416.64
701.92	414.90
702.25	412.43
702.59	409.36
702.92	407.21
703.26	405.48
703.59	403.24
703.93	402.67
704.26	400.62
704.60	398.79
704.93	396.71
705.26	393.57
705.60	391.93
705.93	388.98
706.27	387.57
706.60	385.57
706.94	384.40
707.27	381.81
707.61	380.10
707.94	378.19
708.27	374.40
708.61	371.81
708.94	369.67
709.28	367.76
709.61	366.02
709.94	364.17
710.28	362.21
710.61	360.48
710.95	356.48
711.28	355.95
711.61	354.07
711.95	352.69
712.28	351.21
712.61	349.21
712.95	348.76
713.28	348.02
713.61	346.02
713.95	343.62
714.28	342.60
714.61	340.60
714.95	338.86
715.28	337.14
715.61	335.71
715.95	334.02
716.28	332.38
716.61	331.33
716.95	329.67
717.28	327.81
717.61	326.24
717.94	324.83
718.28	322.14
718.61	320.45
718.94	318.64
719.27	317.29
719.61	315.98
719.94	314.14
720.27	311.69
720.60	310.31
720.94	308.81
721.27	307.40
721.60	306.67
721.93	305.67
722.27	305.07
722.60	304.14
722.93	302.67
723.26	301.64
723.59	299.98
723.93	299.29
724.26	298.79
724.59	297.43
724.92	296.79
725.25	296.29
725.59	295.36
725.92	294.76
726.25	293.71
726.58	292.76
726.91	291.83
727.24	290.86
727.57	289.79
727.91	288.93
728.24	288.02
728.57	286.79
728.90	286.02
729.23	284.33
729.56	284.31
729.89	283.88
730.22	282.88
730.55	282.19
730.89	281.52
731.22	280.62
731.55	280.05
731.88	279.26
732.21	277.86
732.54	276.95
732.87	275.90
733.20	275.31
733.53	275.02
733.86	274.60
734.19	273.60
734.52	273.48
734.85	274.26
735.18	273.52
735.51	273.48
735.84	272.90
736.17	273.19
736.50	271.48
736.83	273.05
737.16	272.62
737.49	272.26
737.82	271.40
738.15	270.74
738.48	270.14
738.81	269.50
739.14	268.83
739.47	268.07
739.80	267.45
740.13	267.12
740.46	266.05
740.79	265.02
741.12	264.62
741.45	263.67
741.78	261.88
742.11	261.90
742.44	261.05
742.77	260.62
743.10	259.74
743.43	259.00
743.75	256.19
744.08	258.17
744.41	257.38
744.74	256.81
745.07	255.95
745.40	255.81
745.73	256.10
746.06	255.90
746.39	255.81
746.71	255.52
747.04	254.93
747.37	254.45
747.70	254.10
748.03	253.79
748.36	253.52
748.68	252.76
749.01	251.45
749.34	250.64
749.67	250.19
750.00	250.02
750.33	251.26
750.65	251.43
750.98	248.64
751.31	248.31
751.64	248.02
751.97	248.83
752.29	248.26
752.62	246.90
752.95	246.24
753.28	245.76
753.60	244.98
753.93	245.05
754.26	244.79
754.59	243.90
754.91	243.33
755.24	242.90
755.57	242.50
755.90	242.17
756.22	241.71
756.55	241.19
756.88	240.17
757.20	238.50
757.53	237.14
757.86	236.69
758.19	236.76
758.51	236.36
758.84	235.14
759.17	234.79
759.49	234.71
759.82	235.57
760.15	235.31
760.47	235.19
760.80	234.40
761.13	234.19
761.45	233.95
761.78	233.69
762.11	233.52
762.43	233.40
762.76	233.31
763.08	233.31
763.41	232.79
763.74	232.74
764.06	232.52
764.39	232.48
764.71	232.10
765.04	231.55
765.37	231.17
765.69	230.88
766.02	230.57
766.34	230.07
766.67	228.86
767.00	229.21
767.32	230.14
767.65	231.02
767.97	230.90
768.30	230.88
768.62	230.50
768.95	229.95
769.27	229.81
769.60	229.81
769.92	229.24
770.25	228.98
770.57	228.60
770.90	228.38
771.22	228.17
771.55	228.19
771.87	227.93
772.20	227.67
772.52	229.07
772.85	231.12
773.17	231.31
773.50	231.10
773.82	230.36
774.15	229.10
774.47	227.79
774.80	227.48
775.12	227.19
775.45	227.10
775.77	227.17
776.09	227.07
776.42	227.00
776.74	227.69
777.07	227.55
777.39	227.45
777.72	227.02
778.04	227.14
778.36	226.67
778.69	226.76
779.01	226.86
779.33	225.21
779.66	223.05
779.98	222.74
780.31	222.83
780.63	223.52
780.95	223.55
781.28	223.26
781.60	223.17
781.92	223.21
782.25	223.02
782.57	222.93
782.89	222.52
783.22	222.19
783.54	221.74
783.86	221.93
784.19	221.76
784.51	222.40
784.83	221.90
785.16	221.88
785.48	221.40
785.80	221.43
786.12	221.50
786.45	221.43
786.77	221.10
787.09	220.79
787.42	220.05
787.74	220.19
788.06	220.17
788.38	219.81
788.71	219.52
789.03	219.57
789.35	219.69
789.67	219.48
789.99	219.71
790.32	219.29
790.64	219.21
790.96	220.86
791.28	220.12
791.61	220.12
791.93	220.10
792.25	220.43
792.57	221.74
792.89	221.24
793.21	221.24
793.54	221.14
793.86	220.76
794.18	220.76
794.50	220.31
794.82	220.48
795.14	220.74
795.47	221.21
795.79	221.24
796.11	220.83
796.43	220.81
796.75	220.71
797.07	220.81
797.39	220.64
797.71	219.17
798.04	219.26
798.36	219.40
798.68	219.43
799.00	219.43
799.32	218.07
799.64	218.55
799.96	218.24
800.28	218.76
800.60	218.67
800.92	218.81
801.24	218.90
801.56	219.10
801.89	218.79
802.21	218.74
802.53	218.38
802.85	218.57
803.17	219.64
803.49	218.93
803.81	218.67
804.13	218.74
804.45	218.57
804.77	218.71
805.09	218.71
805.41	218.33
805.73	217.83
806.05	217.43
806.37	217.17
806.69	217.24
807.01	216.95
807.33	217.33
807.65	216.62
807.97	217.45
808.28	217.02
808.60	217.10
808.92	216.88
809.24	218.02
809.56	217.83
809.88	216.98
810.20	217.17
810.52	217.69
810.84	217.12
811.16	216.83
811.48	216.69
811.80	217.24
812.12	217.24
812.43	217.74
812.75	218.19
813.07	217.93
813.39	218.17
813.71	217.79
814.03	217.67
814.35	217.64
814.67	216.67
814.98	216.64
815.30	216.57
815.62	216.24
815.94	215.07
816.26	215.14
816.58	214.83
816.89	215.07
817.21	214.60
817.53	214.93
817.85	215.19
818.17	215.10
818.48	214.19
818.80	214.55
819.12	214.26
819.44	213.69
819.76	213.48
820.07	213.21
820.39	213.26
820.71	213.38
821.03	213.33
821.34	213.48
821.66	213.88
821.98	214.07
822.30	213.98
822.61	215.31
822.93	215.07
823.25	215.00
823.57	214.69
823.88	215.07
824.20	215.10
824.52	215.31
824.83	215.43
825.15	215.38
825.47	215.29
825.79	215.14
826.10	215.07
826.42	215.02
826.74	215.05
827.05	215.26
827.37	215.17
827.69	215.14
828.00	215.00
828.32	214.71
828.64	214.48
828.95	215.76
829.27	214.98
829.58	215.19
829.90	215.64
830.22	215.98
830.53	215.36
830.85	215.07
831.17	214.45
831.48	214.55
831.80	214.79
832.11	214.62
832.43	214.45
832.75	214.60
833.06	215.79
833.38	215.45
833.69	215.19
834.01	215.40
834.32	215.45
834.64	215.40
834.96	215.60
835.27	215.67
835.59	214.81
835.90	214.40
836.22	214.12
836.53	213.50
836.85	213.07
837.16	215.21
837.48	215.33
837.79	215.95
838.11	215.81
838.42	215.69
838.74	216.17
839.05	216.00
839.37	215.98
839.68	214.69
840.00	214.67
840.31	214.86
840.63	214.67
840.94	214.48
841.26	214.19
841.57	214.21
841.88	214.60
842.20	214.29
842.51	214.19
842.83	214.29
843.14	216.05
843.46	216.17
843.77	215.00
844.08	214.74
844.40	214.24
844.71	214.07
845.03	213.88
845.34	213.52
845.65	213.60
845.97	213.40
846.28	213.69
846.60	213.83
846.91	213.60
847.22	213.40
847.54	213.86
847.85	214.31
848.16	213.86
848.48	213.29
848.79	214.17
849.10	214.40
849.42	214.45
849.73	212.71
850.04	212.62
850.36	211.98
850.67	212.38
850.98	212.26
851.30	212.43
851.61	212.26
851.92	212.33
852.23	212.98
852.55	213.12
852.86	213.10
853.17	213.33
853.49	213.55
853.80	214.02
854.11	214.17
854.42	214.12
854.74	214.05
855.05	214.10
855.36	213.02
855.67	212.98
855.99	213.07
856.30	215.74
856.61	215.57
856.92	215.64
857.23	215.74
857.55	215.90
857.86	216.02
858.17	216.38
858.48	215.98
858.79	215.67
859.11	215.69
859.42	215.76
859.73	215.40
860.04	215.50
860.35	214.93
860.66	214.45
860.98	214.19
861.29	214.55
861.60	214.48
861.91	215.00
862.22	214.81
862.53	214.55
862.84	211.90
863.16	212.71
863.47	212.38
863.78	212.02
864.09	212.02
864.40	211.90
864.71	212.02
865.02	212.31
865.33	212.02
865.64	211.86
865.95	211.67
866.27	213.00
866.58	212.69
866.89	212.90
867.20	212.79
867.51	212.60
867.82	212.36
868.13	212.98
868.44	212.62
868.75	213.00
869.06	213.07
869.37	213.33
869.68	212.79
869.99	213.14
870.30	213.36
870.61	213.48
870.92	213.10
871.23	212.86
871.54	213.10
871.85	213.71
872.16	213.98
872.47	213.76
872.78	212.45
873.09	212.79
873.40	212.62
873.71	212.71
874.02	213.00
874.33	212.86
874.64	212.52
874.95	212.74
875.26	212.14
875.56	212.17
875.87	212.14
876.18	211.98
876.49	213.93
876.80	213.74
877.11	213.40
877.42	213.60
877.73	213.52
878.04	213.26
878.35	213.24
878.66	213.19
878.96	213.29
879.27	213.24
879.58	213.14
879.89	212.95
880.20	213.67
880.51	213.62
880.82	213.76
881.12	213.57
881.43	213.17
881.74	213.00
882.05	212.76
882.36	212.81
882.67	212.98
882.97	210.81
883.28	210.81
883.59	210.83
883.90	210.95
884.21	211.26
884.51	211.12
884.82	210.67
885.13	210.69
885.44	210.60
885.74	210.69
886.05	210.52
886.36	210.74
886.67	209.93
886.98	210.90
887.28	210.95
887.59	211.00
887.90	211.17
888.20	211.55
888.51	211.93
888.82	211.40
889.13	211.40
889.43	213.05
889.74	213.14
890.05	212.98
890.35	212.76
890.66	212.52
890.97	212.40
891.28	212.14
891.58	212.24
891.89	212.17
892.20	211.88
892.50	211.88
892.81	211.74
893.12	211.93
893.42	210.93
893.73	211.12
894.04	211.29
894.34	211.50
894.65	211.29
894.95	211.12
895.26	211.62
895.57	212.71
895.87	210.76
896.18	210.86
896.48	210.93
896.79	210.88
897.10	211.33
897.40	211.48
897.71	211.81
898.01	211.88
898.32	212.33
898.63	212.45
898.93	212.43
899.24	212.48
899.54	212.33
899.85	212.31
900.15	212.17
900.46	211.95
900.76	211.95
901.07	211.79
901.38	211.79
901.68	211.95
901.99	210.88
902.29	211.12
902.60	210.86
902.90	210.90
903.21	211.17
903.51	210.79
903.82	211.19
904.12	211.10
904.43	211.17
904.73	211.07
905.03	211.24
905.34	213.10
905.64	212.95
905.95	213.05
906.25	213.12
906.56	213.00
906.86	213.17
907.17	212.88
907.47	213.05
907.77	212.74
908.08	212.26
908.38	212.48
908.69	212.83
908.99	213.36
909.30	213.60
909.60	213.52
909.90	213.69
910.21	213.29
910.51	213.10
910.81	213.19
911.12	213.31
911.42	213.36
911.73	211.31
912.03	211.67
912.33	212.10
912.64	212.07
912.94	211.93
913.24	211.76
913.55	211.81
913.85	211.86
914.15	212.43
914.46	212.55
914.76	212.36
915.06	211.98
915.37	211.60
915.67	211.48
915.97	211.45
916.27	211.14
916.58	211.14
916.88	211.21
917.18	210.71
917.49	212.02
917.79	212.12
918.09	212.45
918.39	212.95
918.70	212.71
919.00	212.50
919.30	213.50
919.60	213.26
919.91	213.26
920.21	213.38
920.51	212.88
920.81	213.00
921.12	213.12
921.42	213.14
921.72	213.07
922.02	213.10
922.32	213.43
922.63	213.67
922.93	214.95
923.23	214.86
923.53	214.83
923.83	213.50
924.13	213.50
924.44	213.55
924.74	213.79
925.04	214.31
925.34	214.64
925.64	213.74
925.94	214.00
926.24	214.98
926.55	214.93
926.85	215.52
927.15	215.17
927.45	215.29
927.75	215.38
928.05	215.31
928.35	215.12
928.65	215.62
928.95	215.62
929.26	214.38
929.56	215.05
929.86	215.33
930.16	215.19
930.46	215.14
930.76	215.21
931.06	214.31
931.36	213.64
931.66	213.83
931.96	214.17
932.26	214.19
932.56	213.26
932.86	213.19
933.16	212.86
933.46	213.07
933.76	212.76
934.06	213.26
934.36	214.10
934.66	214.14
934.96	213.33
935.26	213.33
935.56	213.83
935.86	213.07
936.16	212.69
936.46	212.62
936.76	212.21
937.06	211.93
937.36	211.95
937.66	212.05
937.96	211.98
938.26	211.60
938.56	211.64
938.86	211.76
939.16	212.10
939.46	212.43
939.76	212.45
940.06	212.40
940.35	211.76
940.65	210.74
940.95	211.10
941.25	210.98
941.55	210.86
941.85	210.67
942.15	211.40
942.45	212.17
942.75	212.17
943.04	212.48
943.34	212.81
943.64	212.52
943.94	212.26
944.24	212.14
944.54	212.07
944.84	211.76
945.13	211.57
945.43	211.55
945.73	211.24
946.03	211.02
946.33	210.81
946.62	210.69
946.92	210.76
947.22	210.60
947.52	210.64
947.82	210.98
948.11	210.50
948.41	209.83
948.71	209.10
949.01	209.24
949.31	208.86
949.60	208.74
949.90	209.07
950.20	208.88
950.50	209.19
950.79	209.36
951.09	209.79
951.39	209.60
951.69	209.24
951.98	210.00
952.28	210.12
952.58	210.21
952.87	210.24
953.17	210.29
953.47	210.07
953.76	210.26
954.06	209.76
954.36	209.83
954.66	209.74
954.95	210.21
955.25	210.33
955.55	210.79
955.84	210.60
956.14	210.71
956.44	210.90
956.73	210.21
957.03	210.21
957.32	210.10
957.62	210.17
957.92	210.38
958.21	209.83
958.51	212.24
958.81	212.57
959.10	212.76
959.40	213.43
959.69	213.62
959.99	213.69
960.29	213.69
960.58	213.69
960.88	214.71
961.17	214.67
961.47	214.71
961.76	214.33
962.06	214.60
962.36	214.55
962.65	214.71
962.95	214.83
963.24	214.76
963.54	214.76
963.83	214.93
964.13	215.02
964.42	214.62
964.72	213.00
965.01	213.00
965.31	212.86
965.60	212.45
965.90	213.79
966.19	213.38
966.49	213.64
966.78	213.52
967.08	213.19
967.37	213.10
967.67	212.79
967.96	213.29
968.26	213.33
968.55	213.29
968.85	213.24
969.14	213.21
969.43	213.19
969.73	213.05
970.02	212.83
970.32	212.74
970.61	212.62
970.91	212.14
971.20	211.86
971.49	211.71
971.79	211.95
972.08	210.55
972.38	210.64
972.67	210.57
972.96	210.88
973.26	210.62
973.55	211.07
973.85	210.98
974.14	210.88
974.43	210.86
974.73	210.55
975.02	210.40
975.31	210.40
975.61	210.29
975.90	210.26
976.19	210.24
976.49	210.21
976.78	210.43
977.07	210.14
977.37	210.10
977.66	210.48
977.95	210.19
978.24	210.21
978.54	210.52
978.83	210.29
979.12	210.12
979.42	209.93
979.71	209.76
980.00	209.67
980.29	209.71
980.59	209.33
980.88	210.02
981.17	209.98
981.46	210.14
981.76	210.12
982.05	210.67
982.34	210.86
982.63	210.81
982.93	210.95
983.22	211.62
983.51	211.86
983.80	211.98
984.09	212.10
984.39	212.00
984.68	211.86
984.97	211.86
985.26	211.83
985.55	211.90
985.85	211.48
986.14	211.86
986.43	211.93
986.72	211.86
987.01	211.31
987.30	211.31
987.59	211.12
987.89	211.43
988.18	210.79
988.47	210.50
988.76	210.40
989.05	210.02
989.34	209.60
989.63	210.05
989.92	209.86
990.22	209.67
990.51	209.60
990.80	209.48
991.09	209.81
991.38	210.19
991.67	210.10
991.96	210.05
992.25	210.24
992.54	209.90
992.83	209.93
993.12	209.79
993.41	210.26
993.70	211.19
993.99	211.36
994.28	211.62
994.58	212.05
994.87	212.02
995.16	212.02
995.45	212.05
995.74	211.26
996.03	211.50
996.32	211.81
996.61	212.26
996.90	212.24
997.19	212.10
997.48	211.95
997.77	211.83
998.06	211.83
998.34	211.60
998.63	211.88
998.92	211.98
999.21	212.43
999.50	212.26
999.79	211.36
1000.08	211.36
1000.37	211.45
1000.66	211.05
1000.95	211.55
1001.24	211.69
1001.53	211.90
1001.82	211.98
1002.11	211.45
1002.40	211.69
1002.68	211.88
1002.97	213.26
1003.26	213.07
1003.55	212.86
1003.84	213.10
1004.13	213.83
1004.42	213.64
1004.71	213.24
1004.99	213.12
1005.28	213.62
1005.57	213.60
1005.86	213.60
1006.15	213.50
1006.44	213.19
1006.72	213.76
1007.01	213.26
1007.30	213.40
1007.59	213.05
1007.88	213.17
1008.17	213.31
1008.45	212.81
1008.74	212.26
1009.03	211.26
1009.32	211.38
1009.60	211.38
1009.89	211.12
1010.18	210.38
1010.47	210.24
1010.76	210.24
1011.04	210.43
1011.33	210.36
1011.62	210.33
1011.91	210.57
1012.19	210.52
1012.48	210.52
1012.77	210.38
1013.05	211.45
1013.34	211.55
1013.63	211.55
1013.92	211.55
1014.20	211.43
1014.49	211.57
1014.78	211.57
1015.06	211.00
1015.35	210.74
1015.64	210.86
1015.92	211.38
1016.21	211.62
1016.50	211.88
1016.78	212.26
1017.07	212.05
1017.36	211.60
1017.64	211.40
1017.93	211.60
1018.22	211.60
1018.50	211.40
1018.79	211.31
1019.08	210.48
1019.36	210.52
1019.65	210.48
1019.93	210.98
1020.22	211.36
1020.51	212.24
1020.79	212.07
1021.08	212.50
1021.36	204.00
1021.65	212.00
1021.94	213.00
1022.22	214.00
1022.51	208.50
1022.79	220.00
1023.08	214.00
1023.36	232.50
1023.65	204.00
>>>>>End Processed Spectral Data<<<<<
