SpectraSuite Data File
++++++++++++++++++++++++++++++++++++
Date: Tue Apr 02 18:38:23 EDT 2013
User: group
Dark Spectrum Present: No
Reference Spectrum Present: No
Number of Sampled Component Spectra: 1
Spectrometers: USB2E7196
Integration Time (usec): 580000 (USB2E7196)
Spectra Averaged: 2 (USB2E7196)
Boxcar Smoothing: 10 (USB2E7196)
Correct for Electrical Dark: No (USB2E7196)
Strobe/Lamp Enabled: No (USB2E7196)
Correct for Detector Non-linearity: No (USB2E7196)
Correct for Stray Light: No (USB2E7196)
Number of Pixels in Processed Spectrum: 2048
>>>>>Begin Processed Spectral Data<<<<<
339.09	0.00
339.48	195.00
339.86	196.00
340.24	197.00
340.63	196.50
341.01	232.50
341.39	200.00
341.78	205.50
342.16	210.00
342.54	203.00
342.93	196.19
343.31	205.98
343.69	206.48
344.07	206.95
344.46	207.74
344.84	208.38
345.22	207.17
345.60	207.62
345.99	207.90
346.37	207.88
346.75	208.19
347.13	208.45
347.52	208.74
347.90	209.55
348.28	209.62
348.66	210.24
349.05	209.64
349.43	210.00
349.81	210.43
350.19	210.81
350.57	211.12
350.96	211.69
351.34	212.00
351.72	212.10
352.10	212.17
352.48	211.98
352.87	211.98
353.25	212.14
353.63	212.05
354.01	211.76
354.39	212.21
354.77	212.29
355.15	213.05
355.54	212.76
355.92	212.14
356.30	212.26
356.68	213.45
357.06	213.60
357.44	213.52
357.82	213.48
358.20	214.45
358.58	214.52
358.97	214.62
359.35	215.31
359.73	215.88
360.11	216.10
360.49	216.21
360.87	216.24
361.25	216.69
361.63	217.64
362.01	218.14
362.39	217.76
362.77	217.88
363.15	217.69
363.53	217.88
363.91	217.86
364.29	217.88
364.67	216.17
365.05	216.31
365.43	216.43
365.81	216.69
366.19	217.02
366.57	217.83
366.95	217.83
367.33	217.05
367.71	217.05
368.09	217.55
368.47	217.69
368.85	217.69
369.23	218.00
369.61	217.19
369.99	217.86
370.37	218.29
370.75	219.43
371.13	218.88
371.51	218.64
371.89	219.05
372.27	219.36
372.65	219.48
373.03	219.62
373.41	219.60
373.78	219.24
374.16	218.12
374.54	217.33
374.92	217.14
375.30	217.33
375.68	216.95
376.06	216.93
376.44	216.93
376.82	217.14
377.19	217.07
377.57	217.02
377.95	215.98
378.33	215.64
378.71	214.14
379.09	214.55
379.47	214.88
379.84	214.74
380.22	214.45
380.60	214.00
380.98	213.67
381.36	213.48
381.73	213.43
382.11	213.93
382.49	214.02
382.87	213.57
383.25	213.57
383.62	216.00
384.00	215.60
384.38	215.52
384.76	215.93
385.13	216.69
385.51	216.76
385.89	216.76
386.27	216.81
386.64	217.24
387.02	217.14
387.40	216.64
387.78	216.57
388.15	216.55
388.53	216.55
388.91	216.79
389.29	216.74
389.66	216.88
390.04	216.33
390.42	216.62
390.79	216.81
391.17	216.64
391.55	214.00
391.92	214.05
392.30	214.14
392.68	213.55
393.05	213.02
393.43	213.02
393.81	213.07
394.18	212.71
394.56	212.95
394.94	213.14
395.31	212.98
395.69	213.74
396.06	214.24
396.44	214.26
396.82	214.00
397.19	214.98
397.57	214.93
397.95	215.45
398.32	214.93
398.70	215.26
399.07	215.79
399.45	215.90
399.82	215.88
400.20	215.71
400.58	215.74
400.95	215.14
401.33	215.57
401.70	217.38
402.08	217.62
402.45	217.60
402.83	218.36
403.20	218.79
403.58	218.48
403.95	219.05
404.33	219.71
404.71	220.21
405.08	221.55
405.46	221.79
405.83	222.17
406.21	222.60
406.58	223.10
406.96	223.29
407.33	224.10
407.70	224.86
408.08	227.19
408.45	228.26
408.83	229.50
409.20	229.95
409.58	229.52
409.95	231.02
410.33	232.26
410.70	232.38
411.08	233.88
411.45	235.36
411.82	235.98
412.20	237.90
412.57	240.62
412.95	240.45
413.32	242.57
413.69	244.07
414.07	246.10
414.44	248.14
414.82	250.57
415.19	253.64
415.56	256.17
415.94	257.71
416.31	261.14
416.68	264.29
417.06	268.38
417.43	272.50
417.81	276.33
418.18	280.31
418.55	285.12
418.93	289.62
419.30	294.33
419.67	299.43
420.04	304.36
420.42	309.38
420.79	317.33
421.16	323.81
421.54	332.02
421.91	339.10
422.28	346.69
422.66	354.60
423.03	363.12
423.40	371.26
423.77	379.74
424.15	388.40
424.52	397.48
424.89	407.40
425.26	416.57
425.64	425.36
426.01	435.33
426.38	445.67
426.75	457.14
427.13	467.83
427.50	479.02
427.87	491.07
428.24	503.10
428.61	513.07
428.99	526.57
429.36	539.12
429.73	552.71
430.10	565.71
430.47	579.31
430.85	592.52
431.22	607.48
431.59	624.60
431.96	639.21
432.33	655.90
432.70	671.90
433.08	690.98
433.45	709.00
433.82	727.07
434.19	747.10
434.56	766.90
434.93	785.67
435.30	805.31
435.68	825.48
436.05	845.43
436.42	866.62
436.79	885.81
437.16	906.21
437.53	927.71
437.90	949.79
438.27	971.07
438.64	992.67
439.01	1013.19
439.38	1030.40
439.75	1048.14
440.13	1068.38
440.50	1087.79
440.87	1103.33
441.24	1119.88
441.61	1137.12
441.98	1150.86
442.35	1165.52
442.72	1181.40
443.09	1197.24
443.46	1206.95
443.83	1214.14
444.20	1219.83
444.57	1226.67
444.94	1230.55
445.31	1234.62
445.68	1241.10
446.05	1243.52
446.42	1241.79
446.79	1240.02
447.16	1238.02
447.53	1237.21
447.90	1229.83
448.27	1222.26
448.64	1212.00
449.01	1205.02
449.37	1192.45
449.74	1178.86
450.11	1164.79
450.48	1147.55
450.85	1128.45
451.22	1113.48
451.59	1099.12
451.96	1084.71
452.33	1065.88
452.70	1049.67
453.07	1029.21
453.43	1005.83
453.80	985.95
454.17	967.45
454.54	949.14
454.91	929.36
455.28	910.02
455.65	892.55
456.02	878.24
456.38	863.14
456.75	844.02
457.12	827.90
457.49	812.52
457.86	796.26
458.23	784.19
458.59	770.50
458.96	756.33
459.33	743.05
459.70	730.74
460.07	721.19
460.43	709.29
460.80	699.24
461.17	690.60
461.54	680.69
461.91	670.93
462.27	661.52
462.64	653.48
463.01	644.67
463.38	636.19
463.74	623.48
464.11	615.40
464.48	608.33
464.85	600.86
465.21	595.60
465.58	589.57
465.95	581.50
466.32	575.52
466.68	569.19
467.05	563.79
467.42	557.62
467.78	551.21
468.15	545.62
468.52	541.05
468.88	534.50
469.25	528.79
469.62	525.12
469.98	520.50
470.35	516.52
470.72	512.55
471.08	507.26
471.45	504.43
471.82	500.93
472.18	497.36
472.55	494.69
472.92	490.62
473.28	486.83
473.65	483.64
474.02	480.81
474.38	478.95
474.75	476.45
475.11	474.57
475.48	472.88
475.85	470.52
476.21	468.45
476.58	466.93
476.94	465.71
477.31	463.76
477.67	462.69
478.04	461.24
478.41	460.33
478.77	461.69
479.14	460.38
479.50	459.95
479.87	459.81
480.23	459.55
480.60	458.95
480.96	458.60
481.33	459.38
481.69	459.31
482.06	459.14
482.42	459.60
482.79	459.55
483.15	459.98
483.52	461.05
483.88	461.52
484.25	462.69
484.61	463.50
484.98	464.81
485.34	465.95
485.71	467.71
486.07	469.38
486.44	469.40
486.80	471.10
487.17	473.00
487.53	475.79
487.90	478.43
488.26	482.60
488.62	486.29
488.99	488.90
489.35	492.21
489.72	495.95
490.08	499.57
490.44	503.19
490.81	507.10
491.17	510.71
491.54	515.62
491.90	519.83
492.26	524.83
492.63	529.81
492.99	535.26
493.36	540.45
493.72	545.83
494.08	551.93
494.45	558.55
494.81	564.26
495.17	569.90
495.54	576.48
495.90	581.71
496.26	588.40
496.63	595.64
496.99	602.62
497.35	609.86
497.72	617.19
498.08	625.02
498.44	632.62
498.80	641.48
499.17	649.62
499.53	657.52
499.89	666.07
500.26	674.43
500.62	683.12
500.98	692.05
501.34	701.10
501.71	709.98
502.07	718.69
502.43	728.88
502.79	737.93
503.16	747.14
503.52	757.21
503.88	766.29
504.24	776.43
504.60	786.86
504.97	797.67
505.33	807.48
505.69	818.29
506.05	829.00
506.41	838.83
506.78	849.26
507.14	859.45
507.50	869.55
507.86	880.36
508.22	891.10
508.59	901.10
508.95	911.90
509.31	923.83
509.67	934.86
510.03	945.33
510.39	956.81
510.75	967.33
511.12	978.10
511.48	989.05
511.84	999.21
512.20	1009.69
512.56	1020.00
512.92	1031.43
513.28	1041.79
513.64	1052.24
514.00	1063.83
514.37	1074.43
514.73	1086.00
515.09	1098.00
515.45	1107.33
515.81	1117.36
516.17	1128.26
516.53	1138.62
516.89	1147.45
517.25	1158.05
517.61	1168.88
517.97	1178.00
518.33	1188.33
518.69	1198.88
519.05	1208.31
519.41	1218.14
519.77	1229.12
520.13	1238.43
520.49	1247.38
520.85	1256.48
521.21	1266.81
521.57	1275.36
521.93	1283.00
522.29	1292.24
522.65	1299.90
523.01	1309.95
523.37	1318.14
523.73	1326.24
524.09	1333.83
524.45	1341.55
524.81	1348.62
525.17	1355.79
525.53	1364.17
525.89	1371.69
526.25	1378.95
526.61	1386.38
526.97	1393.64
527.33	1399.76
527.68	1408.62
528.04	1415.45
528.40	1423.00
528.76	1428.64
529.12	1435.57
529.48	1443.52
529.84	1449.57
530.20	1455.86
530.56	1461.88
530.91	1467.88
531.27	1474.64
531.63	1481.67
531.99	1487.76
532.35	1493.74
532.71	1500.12
533.07	1507.07
533.42	1514.83
533.78	1520.62
534.14	1526.88
534.50	1532.64
534.86	1539.64
535.21	1542.88
535.57	1549.26
535.93	1553.83
536.29	1560.48
536.65	1565.52
537.00	1570.48
537.36	1574.86
537.72	1579.38
538.08	1584.90
538.44	1589.88
538.79	1594.17
539.15	1598.02
539.51	1602.40
539.87	1607.36
540.22	1611.24
540.58	1614.48
540.94	1617.29
541.29	1620.76
541.65	1623.00
542.01	1627.05
542.37	1629.12
542.72	1632.26
543.08	1633.88
543.44	1637.81
543.79	1638.81
544.15	1641.17
544.51	1644.19
544.87	1646.79
545.22	1649.90
545.58	1651.19
545.94	1653.52
546.29	1656.45
546.65	1658.64
547.01	1659.74
547.36	1661.26
547.72	1662.48
548.07	1663.83
548.43	1664.05
548.79	1664.43
549.14	1666.29
549.50	1666.86
549.86	1666.93
550.21	1667.55
550.57	1668.12
550.92	1667.10
551.28	1668.07
551.64	1668.83
551.99	1669.45
552.35	1669.43
552.70	1668.90
553.06	1669.62
553.41	1669.98
553.77	1670.33
554.13	1670.38
554.48	1672.31
554.84	1673.14
555.19	1673.86
555.55	1675.36
555.90	1676.40
556.26	1677.50
556.61	1677.60
556.97	1677.74
557.32	1678.36
557.68	1678.64
558.03	1679.52
558.39	1681.07
558.74	1681.02
559.10	1680.88
559.45	1680.02
559.81	1680.36
560.16	1680.29
560.52	1680.24
560.87	1680.14
561.23	1678.57
561.58	1679.55
561.94	1678.62
562.29	1676.95
562.64	1676.24
563.00	1674.55
563.35	1673.14
563.71	1672.24
564.06	1671.98
564.42	1671.43
564.77	1671.26
565.12	1670.67
565.48	1670.98
565.83	1670.00
566.19	1670.98
566.54	1669.40
566.89	1668.50
567.25	1668.33
567.60	1669.05
567.96	1669.64
568.31	1669.81
568.66	1669.31
569.02	1667.02
569.37	1666.10
569.72	1665.93
570.08	1664.64
570.43	1663.07
570.78	1661.83
571.14	1659.60
571.49	1658.45
571.84	1656.43
572.20	1654.24
572.55	1653.10
572.90	1650.40
573.26	1648.19
573.61	1644.50
573.96	1642.64
574.31	1640.02
574.67	1637.24
575.02	1633.69
575.37	1629.19
575.72	1625.38
576.08	1622.57
576.43	1619.19
576.78	1615.24
577.13	1611.71
577.49	1608.55
577.84	1604.93
578.19	1601.52
578.54	1600.02
578.90	1596.43
579.25	1592.88
579.60	1587.81
579.95	1583.17
580.30	1579.24
580.66	1575.95
581.01	1572.07
581.36	1568.86
581.71	1564.93
582.06	1561.43
582.42	1556.64
582.77	1552.21
583.12	1547.69
583.47	1542.81
583.82	1538.43
584.17	1534.05
584.53	1530.00
584.88	1524.19
585.23	1520.10
585.58	1514.62
585.93	1508.14
586.28	1502.98
586.63	1498.05
586.98	1494.43
587.34	1490.02
587.69	1484.71
588.04	1479.21
588.39	1473.55
588.74	1467.00
589.09	1462.14
589.44	1455.29
589.79	1450.67
590.14	1445.24
590.49	1438.62
590.84	1433.33
591.19	1428.50
591.54	1423.33
591.89	1416.52
592.25	1413.21
592.60	1407.05
592.95	1402.26
593.30	1396.79
593.65	1390.98
594.00	1384.24
594.35	1383.98
594.70	1377.31
595.05	1371.90
595.40	1364.76
595.75	1359.83
596.10	1354.02
596.45	1347.48
596.80	1343.29
597.15	1337.69
597.50	1330.86
597.85	1326.93
598.19	1321.36
598.54	1315.00
598.89	1309.21
599.24	1304.00
599.59	1296.95
599.94	1291.62
600.29	1285.45
600.64	1280.31
600.99	1275.05
601.34	1270.60
601.69	1259.38
602.04	1253.95
602.39	1247.79
602.74	1242.74
603.08	1235.86
603.43	1231.62
603.78	1226.67
604.13	1220.36
604.48	1213.76
604.83	1208.93
605.18	1202.79
605.53	1196.81
605.87	1191.45
606.22	1186.19
606.57	1180.45
606.92	1174.79
607.27	1168.45
607.62	1163.57
607.96	1158.52
608.31	1153.33
608.66	1147.88
609.01	1142.26
609.36	1137.26
609.70	1131.40
610.05	1125.98
610.40	1121.74
610.75	1115.05
611.10	1109.55
611.44	1102.90
611.79	1097.86
612.14	1092.60
612.49	1086.38
612.83	1080.19
613.18	1074.10
613.53	1068.05
613.88	1062.33
614.22	1055.95
614.57	1050.76
614.92	1044.67
615.27	1038.29
615.61	1031.60
615.96	1025.38
616.31	1019.45
616.65	1014.33
617.00	1008.88
617.35	1003.29
617.70	996.95
618.04	991.60
618.39	985.31
618.74	980.48
619.08	974.69
619.43	969.29
619.78	964.12
620.12	959.55
620.47	954.62
620.82	948.81
621.16	943.69
621.51	939.86
621.85	933.45
622.20	928.12
622.55	922.36
622.89	916.81
623.24	912.29
623.59	907.38
623.93	901.71
624.28	897.00
624.62	893.86
624.97	890.62
625.32	885.83
625.66	880.79
626.01	875.83
626.35	871.00
626.70	866.26
627.04	861.50
627.39	856.45
627.73	851.74
628.08	847.36
628.43	842.26
628.77	836.60
629.12	832.74
629.46	828.10
629.81	823.55
630.15	819.10
630.50	813.64
630.84	808.69
631.19	803.64
631.53	798.26
631.88	790.67
632.22	783.93
632.57	779.02
632.91	774.57
633.26	770.19
633.60	765.29
633.95	760.48
634.29	755.21
634.64	750.40
634.98	745.38
635.32	741.29
635.67	736.69
636.01	732.05
636.36	727.48
636.70	723.40
637.05	718.88
637.39	714.90
637.73	710.81
638.08	706.79
638.42	702.19
638.77	698.57
639.11	695.17
639.45	691.21
639.80	687.02
640.14	682.95
640.49	678.71
640.83	674.26
641.17	669.88
641.52	665.69
641.86	661.95
642.20	659.26
642.55	654.81
642.89	650.55
643.23	646.69
643.58	643.60
643.92	639.00
644.26	635.26
644.61	631.88
644.95	627.52
645.29	623.50
645.64	619.83
645.98	615.64
646.32	612.36
646.66	608.19
647.01	603.93
647.35	600.52
647.69	596.45
648.04	593.45
648.38	590.00
648.72	587.07
649.06	583.50
649.41	578.76
649.75	574.93
650.09	571.83
650.43	568.14
650.78	563.86
651.12	560.21
651.46	556.36
651.80	552.12
652.14	548.60
652.49	545.93
652.83	542.81
653.17	539.38
653.51	535.26
653.85	532.43
654.20	529.60
654.54	526.17
654.88	522.38
655.22	519.60
655.56	516.14
655.90	512.86
656.25	509.33
656.59	506.48
656.93	503.64
657.27	501.02
657.61	497.83
657.95	494.88
658.29	492.24
658.64	490.12
658.98	487.26
659.32	484.50
659.66	481.12
660.00	478.98
660.34	476.38
660.68	474.14
661.02	471.36
661.36	468.36
661.70	465.71
662.05	463.90
662.39	461.24
662.73	459.38
663.07	457.86
663.41	455.76
663.75	452.95
664.09	450.57
664.43	447.52
664.77	445.10
665.11	442.40
665.45	440.12
665.79	438.24
666.13	436.12
666.47	433.76
666.81	431.48
667.15	428.57
667.49	426.62
667.83	425.00
668.17	422.74
668.51	420.98
668.85	419.19
669.19	417.88
669.53	415.24
669.87	412.86
670.21	410.21
670.55	408.31
670.89	407.21
671.23	405.19
671.57	403.57
671.91	402.26
672.25	400.64
672.58	399.31
672.92	396.45
673.26	394.55
673.60	393.14
673.94	391.40
674.28	389.93
674.62	388.43
674.96	386.24
675.30	384.50
675.64	383.00
675.97	381.43
676.31	379.07
676.65	377.40
676.99	376.69
677.33	374.45
677.67	372.74
678.01	370.40
678.34	369.00
678.68	367.88
679.02	366.14
679.36	364.86
679.70	362.90
680.04	361.79
680.37	360.21
680.71	358.50
681.05	357.21
681.39	355.67
681.73	353.86
682.06	352.19
682.40	351.00
682.74	349.81
683.08	348.95
683.42	347.40
683.75	346.60
684.09	344.43
684.43	343.48
684.77	341.74
685.10	340.02
685.44	338.64
685.78	337.02
686.12	335.57
686.45	334.29
686.79	332.81
687.13	331.74
687.46	330.33
687.80	329.69
688.14	328.19
688.48	327.19
688.81	326.21
689.15	325.71
689.49	324.40
689.82	323.31
690.16	321.07
690.50	319.90
690.83	318.52
691.17	317.24
691.51	315.74
691.84	315.26
692.18	314.40
692.52	313.14
692.85	312.26
693.19	312.21
693.52	310.76
693.86	309.60
694.20	308.52
694.53	307.81
694.87	306.45
695.21	305.38
695.54	304.17
695.88	302.86
696.21	301.00
696.55	300.02
696.88	299.02
697.22	298.05
697.56	297.45
697.89	296.45
698.23	295.95
698.56	295.17
698.90	294.45
699.23	293.62
699.57	292.93
699.90	291.81
700.24	289.90
700.58	289.24
700.91	288.81
701.25	289.40
701.58	289.26
701.92	288.79
702.25	288.19
702.59	287.43
702.92	286.88
703.26	286.57
703.59	286.05
703.93	286.86
704.26	286.48
704.60	285.88
704.93	284.95
705.26	283.90
705.60	283.60
705.93	282.38
706.27	282.24
706.60	282.02
706.94	282.33
707.27	281.88
707.61	281.21
707.94	280.33
708.27	278.14
708.61	276.40
708.94	275.83
709.28	275.17
709.61	274.29
709.94	273.62
710.28	273.07
710.61	272.38
710.95	269.79
711.28	270.60
711.61	269.74
711.95	269.64
712.28	268.93
712.61	268.07
712.95	268.64
713.28	268.74
713.61	267.57
713.95	266.02
714.28	265.50
714.61	265.00
714.95	264.43
715.28	263.67
715.61	263.57
715.95	262.98
716.28	261.98
716.61	261.93
716.95	261.31
717.28	260.60
717.61	260.02
717.94	259.79
718.28	257.57
718.61	257.10
718.94	256.26
719.27	255.74
719.61	255.52
719.94	254.33
720.27	252.93
720.60	252.55
720.94	252.19
721.27	251.71
721.60	251.95
721.93	251.50
722.27	251.79
722.60	251.62
722.93	251.07
723.26	251.26
723.59	250.40
723.93	250.36
724.26	250.10
724.59	249.55
724.92	249.31
725.25	249.67
725.59	249.31
725.92	249.17
726.25	248.76
726.58	248.55
726.91	248.05
727.24	247.93
727.57	247.64
727.91	247.10
728.24	247.17
728.57	246.10
728.90	246.14
729.23	245.17
729.56	245.50
729.89	245.43
730.22	244.83
730.55	244.52
730.89	244.19
731.22	243.74
731.55	243.71
731.88	243.33
732.21	242.38
732.54	241.81
732.87	241.48
733.20	241.40
733.53	241.07
733.86	241.05
734.19	240.52
734.52	240.64
734.85	241.93
735.18	241.07
735.51	241.57
735.84	241.21
736.17	241.67
736.50	240.14
736.83	241.81
737.16	241.67
737.49	241.67
737.82	241.24
738.15	241.50
738.48	241.05
738.81	240.64
739.14	240.52
739.47	240.19
739.80	239.98
740.13	239.81
740.46	239.21
740.79	238.62
741.12	238.29
741.45	237.38
741.78	235.98
742.11	236.71
742.44	236.05
742.77	236.29
743.10	235.76
743.43	235.52
743.75	233.07
744.08	235.43
744.41	235.00
744.74	234.79
745.07	233.95
745.40	234.07
745.73	234.83
746.06	234.40
746.39	234.69
746.71	234.31
747.04	234.12
747.37	233.88
747.70	234.05
748.03	234.21
748.36	234.52
748.68	234.45
749.01	233.31
749.34	233.17
749.67	232.95
750.00	233.00
750.33	234.67
750.65	234.81
750.98	232.02
751.31	231.76
751.64	231.57
751.97	232.81
752.29	232.67
752.62	231.38
752.95	231.33
753.28	230.86
753.60	230.60
753.93	230.88
754.26	230.86
754.59	230.19
754.91	229.55
755.24	229.29
755.57	228.95
755.90	228.86
756.22	228.50
756.55	227.83
756.88	227.24
757.20	225.64
757.53	224.98
757.86	225.00
758.19	225.26
758.51	225.12
758.84	223.67
759.17	223.21
759.49	223.29
759.82	224.38
760.15	224.43
760.47	224.24
760.80	223.50
761.13	223.71
761.45	223.40
761.78	223.50
762.11	223.43
762.43	223.19
762.76	223.12
763.08	223.31
763.41	223.38
763.74	223.33
764.06	223.33
764.39	223.38
764.71	223.26
765.04	222.55
765.37	222.50
765.69	222.43
766.02	222.48
766.34	222.38
766.67	221.40
767.00	221.76
767.32	222.71
767.65	223.79
767.97	223.52
768.30	223.71
768.62	223.55
768.95	223.55
769.27	223.40
769.60	223.45
769.92	222.88
770.25	222.45
770.57	221.93
770.90	221.83
771.22	221.40
771.55	221.17
771.87	221.50
772.20	221.26
772.52	222.86
772.85	225.24
773.17	225.19
773.50	224.93
773.82	224.52
774.15	223.76
774.47	222.52
774.80	222.19
775.12	222.00
775.45	221.98
775.77	221.83
776.09	221.86
776.42	222.00
776.74	222.64
777.07	222.52
777.39	222.79
777.72	222.74
778.04	223.12
778.36	223.31
778.69	223.26
779.01	223.60
779.33	221.60
779.66	219.24
779.98	218.86
780.31	218.90
780.63	219.69
780.95	219.93
781.28	219.88
781.60	219.76
781.92	219.81
782.25	219.81
782.57	219.79
782.89	219.52
783.22	219.21
783.54	218.88
783.86	219.02
784.19	218.57
784.51	219.07
784.83	218.67
785.16	218.19
785.48	218.19
785.80	217.95
786.12	218.48
786.45	218.33
786.77	218.50
787.09	218.29
787.42	217.36
787.74	217.33
788.06	217.33
788.38	217.36
788.71	217.21
789.03	217.31
789.35	217.38
789.67	217.31
789.99	217.45
790.32	216.88
790.64	217.05
790.96	219.05
791.28	218.21
791.61	218.29
791.93	218.60
792.25	218.50
792.57	219.93
792.89	219.12
793.21	219.19
793.54	218.93
793.86	218.88
794.18	219.02
794.50	218.67
794.82	218.52
795.14	218.83
795.47	219.31
795.79	219.21
796.11	218.86
796.43	218.86
796.75	218.67
797.07	219.05
797.39	219.12
797.71	217.43
798.04	217.57
798.36	217.67
798.68	217.74
799.00	217.88
799.32	216.71
799.64	217.50
799.96	217.29
800.28	217.74
800.60	217.60
800.92	217.79
801.24	217.50
801.56	217.71
801.89	217.52
802.21	217.52
802.53	217.19
802.85	217.64
803.17	218.50
803.49	218.19
803.81	218.00
804.13	217.76
804.45	217.62
804.77	217.98
805.09	217.88
805.41	217.55
805.73	217.17
806.05	216.60
806.37	216.33
806.69	216.26
807.01	216.24
807.33	216.29
807.65	215.60
807.97	216.36
808.28	216.26
808.60	216.19
808.92	215.86
809.24	217.05
809.56	216.57
809.88	215.81
810.20	216.07
810.52	216.55
810.84	216.29
811.16	215.98
811.48	215.67
811.80	216.33
812.12	216.33
812.43	216.60
812.75	216.98
813.07	216.79
813.39	217.05
813.71	216.62
814.03	216.57
814.35	216.60
814.67	216.07
814.98	215.81
815.30	215.90
815.62	215.52
815.94	214.33
816.26	214.38
816.58	213.98
816.89	213.95
817.21	213.43
817.53	213.50
817.85	213.74
818.17	213.76
818.48	213.24
818.80	213.64
819.12	213.36
819.44	212.93
819.76	212.88
820.07	212.71
820.39	212.57
820.71	212.86
821.03	212.74
821.34	212.60
821.66	212.95
821.98	213.02
822.30	213.12
822.61	214.24
822.93	214.14
823.25	214.38
823.57	214.29
823.88	214.67
824.20	214.79
824.52	215.17
824.83	214.88
825.15	214.83
825.47	214.86
825.79	215.38
826.10	215.24
826.42	215.07
826.74	215.21
827.05	215.38
827.37	215.17
827.69	215.17
828.00	215.29
828.32	215.19
828.64	214.88
828.95	215.81
829.27	215.36
829.58	215.43
829.90	215.67
830.22	215.79
830.53	215.38
830.85	215.14
831.17	214.79
831.48	214.81
831.80	214.50
832.11	214.12
832.43	213.71
832.75	213.88
833.06	215.14
833.38	214.76
833.69	214.90
834.01	215.05
834.32	214.79
834.64	214.50
834.96	214.52
835.27	214.55
835.59	214.00
835.90	213.29
836.22	213.26
836.53	212.71
836.85	212.52
837.16	214.64
837.48	214.79
837.79	215.52
838.11	215.60
838.42	215.90
838.74	216.00
839.05	215.79
839.37	215.76
839.68	214.60
840.00	214.67
840.31	214.88
840.63	214.76
840.94	214.76
841.26	214.64
841.57	214.69
841.88	214.83
842.20	214.50
842.51	214.57
842.83	214.52
843.14	216.38
843.46	216.64
843.77	215.40
844.08	215.02
844.40	214.10
844.71	213.90
845.03	213.62
845.34	213.69
845.65	213.79
845.97	213.76
846.28	213.93
846.60	214.05
846.91	213.64
847.22	213.60
847.54	214.12
847.85	214.33
848.16	214.10
848.48	213.83
848.79	214.67
849.10	215.00
849.42	215.19
849.73	213.50
850.04	213.31
850.36	212.55
850.67	213.12
850.98	213.26
851.30	213.43
851.61	213.31
851.92	213.26
852.23	213.69
852.55	213.62
852.86	213.45
853.17	213.31
853.49	213.71
853.80	214.05
854.11	214.29
854.42	214.67
854.74	214.67
855.05	214.64
855.36	213.57
855.67	213.55
855.99	213.43
856.30	215.67
856.61	215.74
856.92	215.88
857.23	215.86
857.55	215.62
857.86	215.60
858.17	215.88
858.48	215.55
858.79	215.14
859.11	215.62
859.42	215.38
859.73	215.10
860.04	215.02
860.35	214.33
860.66	213.74
860.98	213.48
861.29	213.62
861.60	213.64
861.91	214.26
862.22	214.00
862.53	213.74
862.84	211.55
863.16	212.12
863.47	211.83
863.78	211.83
864.09	211.93
864.40	212.17
864.71	212.26
865.02	212.57
865.33	212.50
865.64	211.95
865.95	212.07
866.27	213.57
866.58	213.38
866.89	213.71
867.20	213.62
867.51	213.29
867.82	213.02
868.13	213.62
868.44	213.19
868.75	213.60
869.06	213.74
869.37	213.93
869.68	213.00
869.99	213.26
870.30	213.02
870.61	213.40
870.92	212.98
871.23	212.86
871.54	213.00
871.85	213.55
872.16	213.98
872.47	213.98
872.78	212.60
873.09	212.88
873.40	212.69
873.71	212.81
874.02	213.02
874.33	212.88
874.64	212.33
874.95	212.67
875.26	212.19
875.56	212.17
875.87	212.14
876.18	212.36
876.49	214.40
876.80	214.33
877.11	214.02
877.42	214.10
877.73	214.00
878.04	213.88
878.35	213.62
878.66	213.50
878.96	213.62
879.27	213.81
879.58	213.55
879.89	213.76
880.20	214.40
880.51	214.43
880.82	214.45
881.12	214.67
881.43	214.19
881.74	214.10
882.05	213.86
882.36	213.90
882.67	213.95
882.97	211.67
883.28	211.45
883.59	211.38
883.90	211.69
884.21	212.07
884.51	211.76
884.82	211.43
885.13	211.48
885.44	211.21
885.74	211.00
886.05	210.74
886.36	210.57
886.67	209.76
886.98	210.52
887.28	210.81
887.59	210.76
887.90	210.98
888.20	210.86
888.51	211.57
888.82	211.19
889.13	211.38
889.43	213.05
889.74	213.24
890.05	213.14
890.35	213.02
890.66	212.67
890.97	212.67
891.28	212.62
891.58	212.57
891.89	212.71
892.20	212.74
892.50	212.76
892.81	212.67
893.12	212.69
893.42	211.76
893.73	211.67
894.04	211.55
894.34	211.60
894.65	211.52
894.95	211.21
895.26	211.33
895.57	212.26
895.87	210.43
896.18	210.52
896.48	210.57
896.79	210.33
897.10	210.74
897.40	210.69
897.71	211.07
898.01	211.00
898.32	211.14
898.63	211.12
898.93	211.26
899.24	211.36
899.54	211.33
899.85	211.48
900.15	211.55
900.46	211.71
900.76	211.86
901.07	211.83
901.38	211.74
901.68	212.12
901.99	210.83
902.29	211.00
902.60	210.98
902.90	211.10
903.21	211.02
903.51	210.83
903.82	211.55
904.12	211.38
904.43	211.57
904.73	211.57
905.03	211.62
905.34	213.55
905.64	213.52
905.95	213.67
906.25	213.71
906.56	213.69
906.86	213.52
907.17	213.38
907.47	213.57
907.77	213.12
908.08	212.69
908.38	212.95
908.69	213.02
908.99	213.26
909.30	213.57
909.60	213.74
909.90	213.79
910.21	212.98
910.51	212.76
910.81	212.86
911.12	213.05
911.42	213.10
911.73	211.02
912.03	211.24
912.33	211.71
912.64	211.62
912.94	211.19
913.24	210.95
913.55	211.00
913.85	210.98
914.15	211.74
914.46	212.00
914.76	211.90
915.06	211.76
915.37	211.52
915.67	211.17
915.97	211.31
916.27	210.86
916.58	211.02
916.88	211.00
917.18	210.57
917.49	211.86
917.79	211.81
918.09	212.24
918.39	212.71
918.70	212.48
919.00	212.48
919.30	213.67
919.60	213.76
919.91	213.50
920.21	213.74
920.51	213.26
920.81	213.21
921.12	213.57
921.42	213.57
921.72	213.64
922.02	213.88
922.32	214.10
922.63	214.31
922.93	215.40
923.23	215.62
923.53	215.55
923.83	214.26
924.13	214.57
924.44	214.45
924.74	214.45
925.04	214.90
925.34	214.81
925.64	213.93
925.94	213.88
926.24	214.90
926.55	214.52
926.85	214.79
927.15	214.62
927.45	214.64
927.75	214.69
928.05	214.76
928.35	214.48
928.65	214.76
928.95	214.95
929.26	214.14
929.56	214.55
929.86	214.86
930.16	214.40
930.46	214.12
930.76	214.17
931.06	213.38
931.36	212.71
931.66	212.88
931.96	213.10
932.26	213.17
932.56	212.38
932.86	212.64
933.16	212.31
933.46	212.21
933.76	211.71
934.06	212.12
934.36	212.86
934.66	212.74
934.96	212.40
935.26	212.45
935.56	212.69
935.86	211.88
936.16	211.45
936.46	211.55
936.76	211.40
937.06	211.07
937.36	211.21
937.66	211.29
937.96	211.24
938.26	211.14
938.56	210.95
938.86	211.00
939.16	211.43
939.46	211.69
939.76	211.62
940.06	211.67
940.35	211.14
940.65	210.00
940.95	210.29
941.25	209.81
941.55	209.55
941.85	209.38
942.15	210.14
942.45	210.79
942.75	210.88
943.04	211.05
943.34	211.48
943.64	211.21
943.94	210.93
944.24	211.12
944.54	210.98
944.84	210.93
945.13	210.50
945.43	209.98
945.73	210.00
946.03	209.86
946.33	209.81
946.62	209.93
946.92	210.07
947.22	210.21
947.52	210.38
947.82	210.57
948.11	210.48
948.41	209.86
948.71	209.26
949.01	209.07
949.31	208.81
949.60	208.76
949.90	209.00
950.20	209.02
950.50	208.88
950.79	208.90
951.09	209.40
951.39	209.48
951.69	209.36
951.98	209.74
952.28	210.21
952.58	210.12
952.87	210.05
953.17	210.31
953.47	209.93
953.76	209.74
954.06	209.38
954.36	209.17
954.66	209.12
954.95	209.60
955.25	209.79
955.55	210.07
955.84	209.67
956.14	209.93
956.44	210.05
956.73	209.71
957.03	209.52
957.32	209.24
957.62	209.19
957.92	209.57
958.21	209.36
958.51	211.79
958.81	211.98
959.10	212.26
959.40	212.74
959.69	213.00
959.99	213.48
960.29	213.31
960.58	213.00
960.88	213.86
961.17	213.57
961.47	214.02
961.76	213.86
962.06	214.31
962.36	214.05
962.65	214.05
962.95	214.26
963.24	214.21
963.54	214.40
963.83	214.57
964.13	214.64
964.42	214.24
964.72	212.00
965.01	212.05
965.31	211.74
965.60	211.26
965.90	212.48
966.19	212.02
966.49	212.60
966.78	212.74
967.08	212.45
967.37	212.79
967.67	212.26
967.96	212.62
968.26	212.31
968.55	212.50
968.85	212.50
969.14	212.50
969.43	212.69
969.73	212.64
970.02	212.62
970.32	212.43
970.61	212.52
970.91	212.26
971.20	211.95
971.49	212.00
971.79	212.29
972.08	210.83
972.38	211.14
972.67	210.81
972.96	211.05
973.26	210.88
973.55	211.40
973.85	211.45
974.14	211.26
974.43	211.57
974.73	211.36
975.02	211.24
975.31	211.10
975.61	210.98
975.90	210.69
976.19	210.62
976.49	210.50
976.78	210.76
977.07	210.69
977.37	211.00
977.66	210.98
977.95	210.62
978.24	210.76
978.54	210.98
978.83	211.07
979.12	210.86
979.42	210.71
979.71	210.21
980.00	210.24
980.29	210.29
980.59	209.90
980.88	210.50
981.17	210.40
981.46	210.57
981.76	210.62
982.05	211.29
982.34	211.43
982.63	211.40
982.93	211.10
983.22	211.74
983.51	211.81
983.80	212.21
984.09	212.43
984.39	212.36
984.68	212.00
984.97	212.19
985.26	212.24
985.55	212.38
985.85	211.88
986.14	212.07
986.43	212.45
986.72	212.17
987.01	211.55
987.30	211.95
987.59	211.74
987.89	211.69
988.18	210.95
988.47	210.86
988.76	210.71
989.05	210.45
989.34	210.10
989.63	210.36
989.92	210.07
990.22	209.64
990.51	209.67
990.80	209.79
991.09	209.83
991.38	210.05
991.67	209.86
991.96	209.81
992.25	209.79
992.54	209.26
992.83	209.69
993.12	209.57
993.41	209.74
993.70	210.74
993.99	211.38
994.28	211.76
994.58	211.88
994.87	211.93
995.16	211.98
995.45	211.81
995.74	211.26
996.03	211.71
996.32	212.10
996.61	212.64
996.90	212.45
997.19	212.31
997.48	212.24
997.77	212.24
998.06	212.52
998.34	212.40
998.63	212.48
998.92	212.38
999.21	212.83
999.50	212.76
999.79	211.90
1000.08	211.71
1000.37	211.71
1000.66	211.60
1000.95	212.07
1001.24	212.40
1001.53	212.52
1001.82	212.52
1002.11	211.64
1002.40	211.88
1002.68	212.07
1002.97	213.81
1003.26	213.57
1003.55	213.36
1003.84	213.60
1004.13	214.45
1004.42	214.36
1004.71	214.33
1004.99	214.17
1005.28	214.86
1005.57	214.64
1005.86	214.55
1006.15	214.31
1006.44	214.12
1006.72	214.29
1007.01	213.79
1007.30	213.69
1007.59	213.50
1007.88	213.67
1008.17	213.98
1008.45	213.48
1008.74	212.48
1009.03	211.24
1009.32	211.12
1009.60	211.19
1009.89	210.88
1010.18	209.64
1010.47	209.45
1010.76	209.24
1011.04	209.33
1011.33	209.12
1011.62	209.29
1011.91	209.48
1012.19	209.55
1012.48	209.55
1012.77	209.38
1013.05	210.55
1013.34	210.52
1013.63	210.33
1013.92	210.45
1014.20	210.45
1014.49	210.74
1014.78	211.12
1015.06	210.52
1015.35	210.62
1015.64	210.83
1015.92	211.10
1016.21	211.45
1016.50	211.43
1016.78	211.88
1017.07	212.00
1017.36	211.38
1017.64	211.02
1017.93	211.24
1018.22	211.05
1018.50	211.10
1018.79	211.05
1019.08	209.95
1019.36	210.10
1019.65	210.19
1019.93	210.48
1020.22	210.71
1020.51	211.52
1020.79	211.24
1021.08	208.00
1021.36	209.00
1021.65	208.00
1021.94	208.50
1022.22	211.50
1022.51	209.00
1022.79	219.00
1023.08	213.50
1023.36	233.00
1023.65	204.50
>>>>>End Processed Spectral Data<<<<<
