SpectraSuite Data File
++++++++++++++++++++++++++++++++++++
Date: Tue Apr 02 18:44:33 EDT 2013
User: group
Dark Spectrum Present: No
Reference Spectrum Present: No
Number of Sampled Component Spectra: 1
Spectrometers: USB2E7196
Integration Time (usec): 580000 (USB2E7196)
Spectra Averaged: 2 (USB2E7196)
Boxcar Smoothing: 10 (USB2E7196)
Correct for Electrical Dark: No (USB2E7196)
Strobe/Lamp Enabled: No (USB2E7196)
Correct for Detector Non-linearity: No (USB2E7196)
Correct for Stray Light: No (USB2E7196)
Number of Pixels in Processed Spectrum: 2048
>>>>>Begin Processed Spectral Data<<<<<
339.09	0.00
339.48	191.00
339.86	198.50
340.24	198.00
340.63	194.00
341.01	232.50
341.39	201.50
341.78	203.50
342.16	213.50
342.54	202.00
342.93	197.60
343.31	207.48
343.69	208.21
344.07	208.64
344.46	209.29
344.84	210.36
345.22	209.17
345.60	209.52
345.99	209.90
346.37	210.02
346.75	210.38
347.13	210.29
347.52	210.02
347.90	210.50
348.28	210.55
348.66	210.83
349.05	210.00
349.43	210.29
349.81	210.45
350.19	210.90
350.57	210.93
350.96	211.33
351.34	211.45
351.72	211.67
352.10	211.93
352.48	211.76
352.87	211.50
353.25	211.60
353.63	211.64
354.01	211.52
354.39	211.36
354.77	211.26
355.15	212.26
355.54	212.40
355.92	211.98
356.30	211.90
356.68	213.36
357.06	214.00
357.44	213.90
357.82	213.90
358.20	214.83
358.58	214.90
358.97	214.98
359.35	215.50
359.73	215.93
360.11	215.79
360.49	216.07
360.87	216.05
361.25	216.31
361.63	217.02
362.01	217.36
362.39	217.38
362.77	217.62
363.15	217.40
363.53	217.76
363.91	217.88
364.29	217.93
364.67	216.00
365.05	215.93
365.43	216.21
365.81	216.69
366.19	216.76
366.57	217.62
366.95	217.55
367.33	216.95
367.71	216.69
368.09	217.05
368.47	217.02
368.85	217.00
369.23	217.40
369.61	216.57
369.99	217.07
370.37	217.19
370.75	218.26
371.13	217.81
371.51	217.33
371.89	217.50
372.27	217.69
372.65	217.83
373.03	217.76
373.41	217.57
373.78	217.38
374.16	216.36
374.54	215.76
374.92	215.55
375.30	215.88
375.68	215.62
376.06	215.64
376.44	215.45
376.82	215.57
377.19	215.52
377.57	215.67
377.95	214.88
378.33	214.74
378.71	213.31
379.09	213.62
379.47	213.76
379.84	213.33
380.22	213.21
380.60	212.90
380.98	212.52
381.36	212.48
381.73	212.21
382.11	212.40
382.49	212.48
382.87	212.10
383.25	211.74
383.62	214.14
384.00	213.60
384.38	213.60
384.76	214.21
385.13	214.90
385.51	214.86
385.89	214.79
386.27	214.98
386.64	215.43
387.02	215.07
387.40	215.05
387.78	215.45
388.15	215.36
388.53	215.24
388.91	215.55
389.29	215.38
389.66	215.57
390.04	215.21
390.42	215.57
390.79	216.05
391.17	216.19
391.55	213.95
391.92	214.19
392.30	214.36
392.68	213.93
393.05	213.64
393.43	213.71
393.81	213.88
394.18	213.48
394.56	213.50
394.94	214.12
395.31	213.93
395.69	214.55
396.06	214.93
396.44	215.00
396.82	214.81
397.19	215.74
397.57	215.50
397.95	216.07
398.32	215.36
398.70	215.38
399.07	215.74
399.45	215.79
399.82	215.86
400.20	215.88
400.58	215.57
400.95	215.00
401.33	215.33
401.70	216.88
402.08	217.19
402.45	217.33
402.83	217.81
403.20	218.29
403.58	217.93
403.95	218.19
404.33	218.74
404.71	219.14
405.08	220.38
405.46	220.79
405.83	221.14
406.21	221.48
406.58	221.98
406.96	222.26
407.33	222.79
407.70	223.45
408.08	225.45
408.45	226.40
408.83	227.17
409.20	227.79
409.58	227.07
409.95	228.07
410.33	229.17
410.70	229.62
411.08	230.71
411.45	231.88
411.82	233.02
412.20	234.52
412.57	236.79
412.95	236.48
413.32	238.36
413.69	239.57
414.07	241.29
414.44	243.12
414.82	245.19
415.19	247.60
415.56	249.62
415.94	250.88
416.31	253.71
416.68	256.52
417.06	259.90
417.43	263.36
417.81	266.93
418.18	270.45
418.55	273.74
418.93	277.57
419.30	281.57
419.67	285.62
420.04	290.17
420.42	294.33
420.79	301.33
421.16	306.45
421.54	313.40
421.91	319.62
422.28	325.48
422.66	331.98
423.03	339.83
423.40	346.62
423.77	353.81
424.15	361.17
424.52	369.07
424.89	377.45
425.26	385.40
425.64	393.02
426.01	401.12
426.38	410.05
426.75	419.93
427.13	429.52
427.50	439.02
427.87	448.90
428.24	458.79
428.61	467.19
428.99	478.62
429.36	488.93
429.73	500.10
430.10	511.55
430.47	523.48
430.85	533.88
431.22	546.57
431.59	562.05
431.96	574.45
432.33	588.40
432.70	602.07
433.08	618.29
433.45	633.24
433.82	649.19
434.19	666.17
434.56	682.19
434.93	697.40
435.30	713.90
435.68	731.74
436.05	748.67
436.42	765.67
436.79	781.40
437.16	798.74
437.53	817.00
437.90	834.86
438.27	852.74
438.64	870.43
439.01	887.55
439.38	900.67
439.75	915.76
440.13	931.81
440.50	947.40
440.87	959.76
441.24	973.14
441.61	986.95
441.98	997.45
442.35	1010.52
442.72	1024.21
443.09	1037.45
443.46	1044.69
443.83	1050.71
444.20	1055.45
444.57	1061.43
444.94	1064.62
445.31	1067.57
445.68	1073.12
446.05	1073.95
446.42	1072.67
446.79	1071.52
447.16	1069.74
447.53	1067.93
447.90	1061.69
448.27	1055.60
448.64	1046.93
449.01	1040.98
449.37	1030.24
449.74	1019.81
450.11	1007.79
450.48	992.86
450.85	976.74
451.22	964.43
451.59	952.17
451.96	940.50
452.33	925.26
452.70	911.17
453.07	894.45
453.43	875.17
453.80	858.79
454.17	843.33
454.54	827.74
454.91	811.31
455.28	795.93
455.65	781.33
456.02	769.43
456.38	756.90
456.75	741.36
457.12	727.71
457.49	715.14
457.86	700.48
458.23	690.45
458.59	678.79
458.96	667.19
459.33	656.64
459.70	646.33
460.07	637.76
460.43	628.14
460.80	619.45
461.17	612.00
461.54	603.88
461.91	595.88
462.27	587.76
462.64	581.17
463.01	573.67
463.38	567.50
463.74	556.74
464.11	550.12
464.48	544.17
464.85	538.12
465.21	533.55
465.58	528.81
465.95	521.67
466.32	516.79
466.68	511.38
467.05	506.12
467.42	501.19
467.78	496.00
468.15	491.05
468.52	487.17
468.88	481.79
469.25	477.31
469.62	474.00
469.98	470.12
470.35	466.45
470.72	463.00
471.08	458.21
471.45	455.40
471.82	452.67
472.18	449.50
472.55	447.14
472.92	443.79
473.28	440.71
473.65	438.12
474.02	435.55
474.38	433.00
474.75	431.10
475.11	428.57
475.48	426.98
475.85	425.50
476.21	423.60
476.58	422.26
476.94	421.05
477.31	419.81
477.67	418.83
478.04	417.33
478.41	416.60
478.77	417.88
479.14	416.69
479.50	416.05
479.87	415.57
480.23	415.50
480.60	414.69
480.96	414.71
481.33	415.93
481.69	415.90
482.06	416.45
482.42	416.88
482.79	417.12
483.15	417.12
483.52	417.76
483.88	418.10
484.25	418.60
484.61	419.21
484.98	420.02
485.34	421.69
485.71	423.52
486.07	424.45
486.44	424.07
486.80	425.98
487.17	427.60
487.53	429.95
487.90	431.48
488.26	434.48
488.62	437.60
488.99	439.14
489.35	441.55
489.72	443.95
490.08	446.74
490.44	449.81
490.81	453.29
491.17	456.36
491.54	459.83
491.90	463.88
492.26	467.86
492.63	471.60
492.99	474.50
493.36	478.50
493.72	483.24
494.08	487.43
494.45	492.48
494.81	497.19
495.17	501.48
495.54	507.10
495.90	511.71
496.26	516.26
496.63	521.43
496.99	527.10
497.35	532.62
497.72	538.60
498.08	544.26
498.44	550.05
498.80	556.57
499.17	562.76
499.53	568.52
499.89	575.29
500.26	582.10
500.62	589.10
500.98	596.31
501.34	602.90
501.71	610.57
502.07	617.05
502.43	623.88
502.79	630.86
503.16	637.48
503.52	644.86
503.88	651.88
504.24	659.67
504.60	667.02
504.97	675.38
505.33	682.62
505.69	691.29
506.05	699.07
506.41	706.33
506.78	714.45
507.14	721.86
507.50	729.52
507.86	737.43
508.22	745.07
508.59	752.38
508.95	760.74
509.31	769.48
509.67	777.29
510.03	785.00
510.39	792.55
510.75	800.29
511.12	807.71
511.48	815.50
511.84	822.83
512.20	830.43
512.56	837.19
512.92	844.93
513.28	852.50
513.64	860.00
514.00	867.24
514.37	874.86
514.73	882.81
515.09	889.83
515.45	896.48
515.81	903.71
516.17	910.19
516.53	915.57
516.89	920.95
517.25	927.40
517.61	934.79
517.97	941.38
518.33	948.12
518.69	955.05
519.05	961.38
519.41	967.45
519.77	974.21
520.13	980.31
520.49	985.57
520.85	990.67
521.21	997.29
521.57	1002.88
521.93	1007.07
522.29	1012.43
522.65	1017.38
523.01	1022.83
523.37	1027.83
523.73	1033.40
524.09	1039.29
524.45	1043.74
524.81	1048.50
525.17	1053.50
525.53	1058.14
525.89	1062.50
526.25	1067.21
526.61	1071.29
526.97	1075.55
527.33	1079.74
527.68	1085.67
528.04	1090.40
528.40	1094.05
528.76	1097.62
529.12	1102.62
529.48	1108.05
529.84	1112.00
530.20	1116.69
530.56	1121.05
530.91	1125.95
531.27	1130.17
531.63	1134.26
531.99	1138.67
532.35	1142.69
532.71	1145.40
533.07	1149.62
533.42	1156.26
533.78	1160.02
534.14	1164.67
534.50	1169.19
534.86	1173.81
535.21	1176.07
535.57	1180.50
535.93	1184.19
536.29	1189.24
536.65	1193.05
537.00	1196.19
537.36	1199.69
537.72	1202.40
538.08	1205.57
538.44	1208.05
538.79	1211.50
539.15	1214.64
539.51	1218.24
539.87	1221.88
540.22	1225.67
540.58	1229.36
540.94	1230.33
541.29	1232.69
541.65	1234.79
542.01	1238.52
542.37	1240.88
542.72	1243.07
543.08	1244.71
543.44	1248.38
543.79	1248.48
544.15	1250.98
544.51	1255.00
544.87	1257.74
545.22	1261.62
545.58	1264.52
545.94	1267.19
546.29	1269.24
546.65	1272.31
547.01	1274.38
547.36	1276.69
547.72	1278.76
548.07	1281.10
548.43	1283.38
548.79	1285.26
549.14	1287.71
549.50	1290.02
549.86	1291.45
550.21	1294.69
550.57	1298.05
550.92	1300.26
551.28	1304.45
551.64	1306.36
551.99	1308.45
552.35	1311.64
552.70	1314.05
553.06	1317.05
553.41	1320.86
553.77	1325.93
554.13	1329.88
554.48	1334.76
554.84	1339.31
555.19	1343.57
555.55	1348.60
555.90	1352.62
556.26	1358.12
556.61	1362.07
556.97	1365.21
557.32	1369.38
557.68	1373.00
558.03	1376.33
558.39	1380.14
558.74	1383.36
559.10	1387.69
559.45	1392.07
559.81	1396.45
560.16	1400.81
560.52	1404.52
560.87	1408.36
561.23	1411.67
561.58	1416.83
561.94	1420.50
562.29	1424.60
562.64	1429.36
563.00	1432.95
563.35	1438.50
563.71	1442.50
564.06	1448.05
564.42	1453.62
564.77	1460.05
565.12	1466.79
565.48	1475.55
565.83	1482.05
566.19	1488.62
566.54	1494.81
566.89	1499.67
567.25	1506.76
567.60	1513.02
567.96	1521.40
568.31	1528.74
568.66	1535.52
569.02	1539.31
569.37	1544.43
569.72	1549.71
570.08	1554.60
570.43	1560.50
570.78	1564.57
571.14	1570.79
571.49	1576.64
571.84	1582.19
572.20	1587.00
572.55	1591.79
572.90	1594.52
573.26	1600.02
573.61	1603.40
573.96	1608.38
574.31	1613.26
574.67	1615.62
575.02	1618.98
575.37	1621.57
575.72	1624.17
576.08	1628.10
576.43	1632.81
576.78	1636.67
577.13	1641.21
577.49	1645.14
577.84	1648.31
578.19	1652.43
578.54	1655.81
578.90	1659.33
579.25	1662.05
579.60	1664.60
579.95	1666.93
580.30	1670.48
580.66	1673.12
581.01	1677.69
581.36	1680.36
581.71	1683.83
582.06	1688.76
582.42	1692.98
582.77	1695.24
583.12	1698.43
583.47	1700.17
583.82	1703.07
584.17	1707.40
584.53	1710.90
584.88	1713.95
585.23	1717.90
585.58	1719.88
585.93	1721.93
586.28	1724.79
586.63	1728.40
586.98	1731.21
587.34	1735.40
587.69	1737.26
588.04	1739.74
588.39	1742.48
588.74	1742.79
589.09	1745.45
589.44	1745.71
589.79	1747.24
590.14	1749.52
590.49	1751.45
590.84	1753.21
591.19	1754.95
591.54	1755.79
591.89	1756.02
592.25	1760.31
592.60	1760.76
592.95	1763.45
593.30	1766.14
593.65	1766.93
594.00	1766.88
594.35	1773.86
594.70	1774.00
595.05	1775.69
595.40	1776.14
595.75	1776.21
596.10	1779.36
596.45	1779.67
596.80	1780.88
597.15	1782.00
597.50	1783.14
597.85	1784.60
598.19	1784.79
598.54	1784.95
598.89	1785.69
599.24	1786.21
599.59	1784.71
599.94	1784.98
600.29	1784.60
600.64	1784.29
600.99	1784.24
601.34	1785.17
601.69	1780.07
602.04	1779.02
602.39	1777.69
602.74	1778.36
603.08	1778.24
603.43	1778.00
603.78	1777.48
604.13	1777.57
604.48	1776.05
604.83	1775.29
605.18	1774.57
605.53	1774.00
605.87	1773.21
606.22	1772.26
606.57	1771.67
606.92	1769.71
607.27	1768.60
607.62	1768.05
607.96	1766.93
608.31	1767.00
608.66	1765.19
609.01	1762.95
609.36	1763.52
609.70	1762.24
610.05	1759.38
610.40	1757.88
610.75	1755.52
611.10	1753.26
611.44	1750.98
611.79	1749.31
612.14	1746.98
612.49	1742.95
612.83	1740.95
613.18	1738.81
613.53	1735.24
613.88	1731.50
614.22	1728.38
614.57	1725.10
614.92	1720.45
615.27	1717.21
615.61	1712.10
615.96	1708.48
616.31	1705.05
616.65	1701.50
617.00	1698.60
617.35	1696.26
617.70	1692.95
618.04	1689.36
618.39	1685.74
618.74	1682.24
619.08	1678.67
619.43	1675.10
619.78	1672.60
620.12	1669.79
620.47	1665.71
620.82	1662.10
621.16	1658.14
621.51	1655.95
621.85	1651.83
622.20	1648.10
622.55	1644.07
622.89	1641.07
623.24	1638.24
623.59	1634.79
623.93	1629.57
624.28	1625.10
624.62	1622.21
624.97	1619.05
625.32	1615.76
625.66	1612.21
626.01	1608.10
626.35	1603.81
626.70	1600.00
627.04	1596.57
627.39	1591.71
627.73	1588.21
628.08	1584.81
628.43	1581.93
628.77	1576.71
629.12	1573.12
629.46	1571.21
629.81	1566.60
630.15	1561.43
630.50	1556.50
630.84	1551.02
631.19	1546.14
631.53	1541.67
631.88	1534.19
632.22	1528.02
632.57	1523.64
632.91	1518.43
633.26	1514.00
633.60	1508.98
633.95	1502.90
634.29	1496.71
634.64	1492.52
634.98	1488.07
635.32	1483.50
635.67	1479.95
636.01	1476.14
636.36	1470.76
636.70	1465.38
637.05	1461.05
637.39	1458.00
637.73	1453.24
638.08	1450.40
638.42	1447.24
638.77	1443.62
639.11	1440.50
639.45	1435.90
639.80	1430.26
640.14	1425.00
640.49	1419.40
640.83	1414.64
641.17	1411.24
641.52	1406.57
641.86	1401.38
642.20	1396.36
642.55	1390.95
642.89	1384.48
643.23	1378.05
643.58	1374.21
643.92	1368.10
644.26	1362.38
644.61	1357.33
644.95	1352.29
645.29	1345.67
645.64	1339.74
645.98	1333.38
646.32	1328.10
646.66	1321.69
647.01	1315.55
647.35	1310.79
647.69	1304.93
648.04	1299.43
648.38	1292.83
648.72	1287.55
649.06	1281.36
649.41	1275.02
649.75	1269.02
650.09	1262.67
650.43	1256.95
650.78	1249.98
651.12	1243.62
651.46	1237.76
651.80	1230.62
652.14	1223.60
652.49	1218.05
652.83	1211.02
653.17	1203.55
653.51	1196.00
653.85	1189.95
654.20	1183.60
654.54	1176.79
654.88	1170.57
655.22	1165.17
655.56	1158.86
655.90	1152.43
656.25	1145.93
656.59	1139.19
656.93	1132.64
657.27	1127.26
657.61	1120.88
657.95	1114.93
658.29	1108.93
658.64	1102.67
658.98	1096.14
659.32	1090.12
659.66	1083.21
660.00	1076.88
660.34	1071.93
660.68	1066.48
661.02	1060.71
661.36	1054.60
661.70	1048.67
662.05	1042.74
662.39	1035.93
662.73	1031.12
663.07	1025.81
663.41	1019.48
663.75	1013.38
664.09	1007.60
664.43	1001.00
664.77	994.93
665.11	988.12
665.45	981.48
665.79	975.12
666.13	968.64
666.47	962.38
666.81	956.60
667.15	950.74
667.49	945.24
667.83	939.40
668.17	934.02
668.51	928.95
668.85	923.57
669.19	918.79
669.53	912.71
669.87	906.48
670.21	900.26
670.55	894.74
670.89	890.17
671.23	884.60
671.57	878.93
671.91	873.86
672.25	869.00
672.58	864.74
672.92	859.19
673.26	854.24
673.60	849.31
673.94	844.95
674.28	840.26
674.62	835.33
674.96	830.21
675.30	824.67
675.64	819.29
675.97	814.21
676.31	808.71
676.65	803.33
676.99	798.67
677.33	793.17
677.67	788.48
678.01	782.74
678.34	778.24
678.68	773.86
679.02	768.45
679.36	763.29
679.70	757.67
680.04	752.81
680.37	748.05
680.71	743.24
681.05	738.36
681.39	733.50
681.73	728.05
682.06	722.95
682.40	718.57
682.74	714.02
683.08	710.10
683.42	704.60
683.75	700.31
684.09	695.14
684.43	690.60
684.77	685.55
685.10	681.12
685.44	676.07
685.78	671.10
686.12	666.71
686.45	662.19
686.79	657.88
687.13	654.19
687.46	649.69
687.80	645.76
688.14	640.90
688.48	637.07
688.81	632.76
689.15	628.93
689.49	624.43
689.82	620.55
690.16	614.69
690.50	610.69
690.83	606.60
691.17	601.67
691.51	597.62
691.84	593.86
692.18	589.52
692.52	585.43
692.85	581.90
693.19	578.81
693.52	575.05
693.86	571.02
694.20	567.02
694.53	563.21
694.87	558.69
695.21	554.33
695.54	549.98
695.88	546.07
696.21	541.43
696.55	537.29
696.88	533.10
697.22	529.52
697.56	525.98
697.89	521.86
698.23	518.81
698.56	515.00
698.90	511.10
699.23	507.57
699.57	503.93
699.90	499.93
700.24	495.79
700.58	492.24
700.91	489.19
701.25	487.10
701.58	484.17
701.92	481.76
702.25	479.19
702.59	475.62
702.92	472.33
703.26	469.48
703.59	466.43
703.93	465.26
704.26	462.64
704.60	459.81
704.93	457.12
705.26	453.93
705.60	451.76
705.93	448.79
706.27	446.21
706.60	443.79
706.94	442.19
707.27	439.10
707.61	436.60
707.94	433.95
708.27	429.90
708.61	426.71
708.94	423.48
709.28	420.95
709.61	418.38
709.94	416.14
710.28	413.76
710.61	411.67
710.95	407.21
711.28	406.33
711.61	404.17
711.95	402.57
712.28	400.24
712.61	397.55
712.95	396.52
713.28	395.14
713.61	392.52
713.95	389.43
714.28	387.71
714.61	385.43
714.95	383.10
715.28	380.48
715.61	378.36
715.95	376.79
716.28	374.24
716.61	372.57
716.95	370.43
717.28	368.45
717.61	366.45
717.94	364.62
718.28	361.36
718.61	359.05
718.94	356.45
719.27	354.74
719.61	352.74
719.94	350.40
720.27	347.33
720.60	345.67
720.94	343.98
721.27	342.19
721.60	341.17
721.93	339.50
722.27	338.90
722.60	337.50
722.93	335.76
723.26	334.45
723.59	332.64
723.93	331.24
724.26	329.71
724.59	328.24
724.92	326.95
725.25	326.33
725.59	325.43
725.92	324.74
726.25	323.45
726.58	322.29
726.91	320.79
727.24	320.10
727.57	318.98
727.91	317.38
728.24	316.29
728.57	314.50
728.90	313.79
729.23	312.14
729.56	311.93
729.89	310.67
730.22	309.62
730.55	308.62
730.89	307.50
731.22	306.50
731.55	305.26
731.88	304.38
732.21	302.83
732.54	301.38
732.87	300.14
733.20	299.31
733.53	298.50
733.86	298.05
734.19	296.69
734.52	296.00
734.85	296.50
735.18	295.26
735.51	295.45
735.84	294.48
736.17	293.76
736.50	291.98
736.83	293.48
737.16	292.64
737.49	291.95
737.82	290.93
738.15	290.38
738.48	289.69
738.81	288.81
739.14	287.55
739.47	286.83
739.80	285.81
740.13	285.26
740.46	284.07
740.79	282.71
741.12	282.02
741.45	281.12
741.78	279.10
742.11	278.95
742.44	277.45
742.77	276.95
743.10	276.07
743.43	275.24
743.75	272.33
744.08	274.17
744.41	273.29
744.74	272.76
745.07	271.69
745.40	271.45
745.73	271.52
746.06	271.19
746.39	270.69
746.71	269.98
747.04	268.86
747.37	268.31
747.70	268.02
748.03	267.64
748.36	267.02
748.68	266.67
749.01	265.64
749.34	265.07
749.67	264.40
750.00	264.29
750.33	265.36
750.65	264.93
750.98	262.00
751.31	261.79
751.64	261.36
751.97	261.90
752.29	261.29
752.62	259.52
752.95	258.76
753.28	257.93
753.60	257.55
753.93	257.62
754.26	257.26
754.59	256.29
754.91	255.45
755.24	255.10
755.57	254.52
755.90	253.90
756.22	253.10
756.55	252.10
756.88	250.95
757.20	248.83
757.53	247.55
757.86	247.14
758.19	246.64
758.51	246.05
758.84	244.62
759.17	243.69
759.49	243.74
759.82	244.24
760.15	244.07
760.47	243.36
760.80	242.17
761.13	242.19
761.45	241.86
761.78	241.48
762.11	240.83
762.43	240.10
762.76	239.55
763.08	239.48
763.41	239.69
763.74	239.45
764.06	239.48
764.39	239.52
764.71	239.00
765.04	238.31
765.37	238.00
765.69	237.52
766.02	237.33
766.34	236.79
766.67	235.83
767.00	235.86
767.32	236.57
767.65	237.69
767.97	237.05
768.30	236.83
768.62	236.62
768.95	236.38
769.27	236.33
769.60	236.62
769.92	236.17
770.25	235.14
770.57	234.69
770.90	234.10
771.22	233.79
771.55	233.57
771.87	233.74
772.20	233.36
772.52	234.81
772.85	236.86
773.17	236.81
773.50	236.62
773.82	236.14
774.15	235.31
774.47	233.74
774.80	233.33
775.12	233.12
775.45	232.81
775.77	232.76
776.09	232.62
776.42	232.26
776.74	232.71
777.07	232.67
777.39	232.48
777.72	232.33
778.04	232.31
778.36	232.00
778.69	231.71
779.01	231.69
779.33	229.93
779.66	227.60
779.98	227.29
780.31	226.90
780.63	227.67
780.95	227.76
781.28	227.74
781.60	227.67
781.92	227.40
782.25	227.31
782.57	227.05
782.89	226.45
783.22	226.12
783.54	225.48
783.86	225.60
784.19	225.48
784.51	225.86
784.83	225.40
785.16	225.12
785.48	224.76
785.80	224.55
786.12	224.74
786.45	224.43
786.77	224.36
787.09	224.14
787.42	223.14
787.74	223.02
788.06	223.02
788.38	222.69
788.71	222.38
789.03	222.40
789.35	222.64
789.67	222.33
789.99	222.48
790.32	222.19
790.64	222.24
790.96	223.83
791.28	222.98
791.61	223.00
791.93	223.14
792.25	223.07
792.57	224.55
792.89	223.81
793.21	223.98
793.54	223.79
793.86	223.57
794.18	223.76
794.50	223.19
794.82	223.26
795.14	223.52
795.47	223.88
795.79	223.90
796.11	223.31
796.43	223.24
796.75	223.12
797.07	223.12
797.39	222.93
797.71	221.31
798.04	221.71
798.36	221.71
798.68	221.43
799.00	221.71
799.32	220.29
799.64	220.83
799.96	221.00
800.28	221.40
800.60	221.26
800.92	221.00
801.24	221.00
801.56	221.02
801.89	220.71
802.21	220.79
802.53	220.21
802.85	220.76
803.17	222.02
803.49	221.67
803.81	221.38
804.13	221.17
804.45	220.95
804.77	220.95
805.09	220.93
805.41	220.74
805.73	220.10
806.05	219.81
806.37	219.48
806.69	219.02
807.01	218.62
807.33	218.76
807.65	218.38
807.97	219.05
808.28	218.48
808.60	218.57
808.92	218.14
809.24	219.62
809.56	218.95
809.88	217.98
810.20	218.02
810.52	218.48
810.84	218.17
811.16	217.81
811.48	217.38
811.80	218.12
812.12	218.14
812.43	218.33
812.75	218.36
813.07	218.12
813.39	218.12
813.71	217.81
814.03	217.69
814.35	217.57
814.67	216.67
814.98	216.76
815.30	216.50
815.62	216.19
815.94	214.52
816.26	214.67
816.58	214.48
816.89	214.57
817.21	214.02
817.53	214.26
817.85	214.33
818.17	214.36
818.48	213.45
818.80	213.76
819.12	213.71
819.44	213.33
819.76	213.19
820.07	213.38
820.39	213.62
820.71	213.76
821.03	213.81
821.34	213.86
821.66	214.14
821.98	214.29
822.30	214.31
822.61	215.83
822.93	215.57
823.25	215.33
823.57	215.17
823.88	215.57
824.20	215.31
824.52	215.88
824.83	215.90
825.15	215.69
825.47	215.62
825.79	215.60
826.10	215.64
826.42	215.74
826.74	216.02
827.05	215.90
827.37	215.83
827.69	215.79
828.00	215.86
828.32	215.50
828.64	215.33
828.95	216.40
829.27	215.76
829.58	215.98
829.90	216.64
830.22	216.67
830.53	216.24
830.85	216.19
831.17	215.64
831.48	215.62
831.80	215.86
832.11	215.79
832.43	215.67
832.75	215.64
833.06	216.90
833.38	215.98
833.69	215.95
834.01	215.95
834.32	216.05
834.64	215.95
834.96	216.10
835.27	216.33
835.59	215.50
835.90	214.79
836.22	214.52
836.53	213.90
836.85	213.90
837.16	215.81
837.48	215.86
837.79	216.52
838.11	216.45
838.42	216.26
838.74	216.40
839.05	216.26
839.37	216.12
839.68	214.76
840.00	214.83
840.31	214.86
840.63	214.74
840.94	214.29
841.26	214.10
841.57	214.02
841.88	214.02
842.20	214.02
842.51	214.05
842.83	214.12
843.14	216.07
843.46	215.98
843.77	214.98
844.08	214.88
844.40	214.43
844.71	214.26
845.03	213.93
845.34	213.62
845.65	213.57
845.97	213.74
846.28	213.74
846.60	213.81
846.91	213.74
847.22	213.71
847.54	214.33
847.85	214.38
848.16	214.29
848.48	213.93
848.79	214.55
849.10	214.81
849.42	215.07
849.73	213.07
850.04	213.14
850.36	212.31
850.67	212.76
850.98	212.74
851.30	213.14
851.61	213.24
851.92	213.45
852.23	214.00
852.55	214.36
852.86	214.48
853.17	214.55
853.49	214.93
853.80	215.48
854.11	215.62
854.42	215.90
854.74	215.69
855.05	215.64
855.36	214.74
855.67	214.83
855.99	214.76
856.30	217.33
856.61	217.29
856.92	217.33
857.23	217.31
857.55	216.90
857.86	216.60
858.17	217.19
858.48	216.71
858.79	216.38
859.11	216.14
859.42	215.98
859.73	215.81
860.04	215.48
860.35	214.83
860.66	214.31
860.98	214.29
861.29	214.38
861.60	214.33
861.91	214.71
862.22	214.10
862.53	213.83
862.84	211.19
863.16	211.64
863.47	211.40
863.78	211.17
864.09	211.38
864.40	211.64
864.71	211.33
865.02	211.64
865.33	211.64
865.64	211.48
865.95	211.62
866.27	212.90
866.58	212.81
866.89	213.14
867.20	213.19
867.51	212.76
867.82	212.71
868.13	213.50
868.44	212.98
868.75	213.62
869.06	213.81
869.37	214.31
869.68	213.50
869.99	213.86
870.30	213.95
870.61	214.19
870.92	213.81
871.23	213.64
871.54	213.83
871.85	214.07
872.16	214.33
872.47	214.19
872.78	213.19
873.09	213.50
873.40	213.26
873.71	213.12
874.02	213.38
874.33	213.21
874.64	212.50
874.95	212.93
875.26	212.31
875.56	212.00
875.87	211.67
876.18	211.74
876.49	213.83
876.80	213.67
877.11	213.29
877.42	213.45
877.73	213.67
878.04	213.48
878.35	213.45
878.66	213.29
878.96	213.17
879.27	213.07
879.58	212.67
879.89	212.55
880.20	213.17
880.51	212.90
880.82	212.90
881.12	213.19
881.43	212.88
881.74	212.86
882.05	213.00
882.36	213.12
882.67	213.19
882.97	210.98
883.28	210.69
883.59	210.71
883.90	210.81
884.21	211.02
884.51	210.86
884.82	210.60
885.13	210.71
885.44	210.83
885.74	210.52
886.05	210.76
886.36	210.71
886.67	210.24
886.98	211.40
887.28	211.83
887.59	211.64
887.90	211.74
888.20	211.67
888.51	212.02
888.82	211.71
889.13	212.12
889.43	213.52
889.74	213.48
890.05	213.33
890.35	213.29
890.66	212.95
890.97	212.83
891.28	212.67
891.58	212.57
891.89	212.45
892.20	212.67
892.50	212.50
892.81	212.21
893.12	212.07
893.42	211.14
893.73	210.95
894.04	211.14
894.34	211.14
894.65	211.29
894.95	210.79
895.26	211.05
895.57	211.79
895.87	209.98
896.18	210.38
896.48	210.60
896.79	210.48
897.10	210.95
897.40	211.10
897.71	211.36
898.01	211.38
898.32	212.00
898.63	212.02
898.93	212.10
899.24	212.33
899.54	212.29
899.85	212.14
900.15	212.07
900.46	212.12
900.76	212.48
901.07	212.36
901.38	212.60
901.68	212.98
901.99	211.83
902.29	212.24
902.60	211.98
902.90	211.71
903.21	211.67
903.51	211.26
903.82	211.62
904.12	211.64
904.43	211.69
904.73	211.31
905.03	211.26
905.34	213.14
905.64	213.07
905.95	213.10
906.25	213.24
906.56	213.19
906.86	213.02
907.17	212.57
907.47	212.62
907.77	212.29
908.08	211.83
908.38	212.14
908.69	212.17
908.99	212.62
909.30	212.90
909.60	212.95
909.90	213.14
910.21	212.62
910.51	212.36
910.81	212.26
911.12	212.31
911.42	212.52
911.73	210.55
912.03	210.64
912.33	211.10
912.64	211.10
912.94	211.17
913.24	210.93
913.55	210.98
913.85	211.00
914.15	211.36
914.46	211.43
914.76	211.10
915.06	211.02
915.37	210.62
915.67	210.36
915.97	210.36
916.27	210.14
916.58	210.26
916.88	210.17
917.18	210.14
917.49	211.36
917.79	211.00
918.09	211.14
918.39	211.81
918.70	211.62
919.00	211.90
919.30	212.83
919.60	212.79
919.91	212.43
920.21	212.50
920.51	212.29
920.81	212.05
921.12	212.43
921.42	212.26
921.72	212.55
922.02	212.71
922.32	213.07
922.63	212.74
922.93	213.83
923.23	214.00
923.53	213.95
923.83	212.83
924.13	213.38
924.44	213.48
924.74	213.69
925.04	214.05
925.34	213.60
925.64	212.79
925.94	212.76
926.24	214.05
926.55	213.79
926.85	214.05
927.15	214.26
927.45	214.19
927.75	214.45
928.05	214.55
928.35	214.55
928.65	214.88
928.95	215.36
929.26	214.36
929.56	214.74
929.86	215.00
930.16	214.74
930.46	214.19
930.76	214.19
931.06	213.38
931.36	212.90
931.66	213.24
931.96	213.36
932.26	213.74
932.56	212.71
932.86	213.02
933.16	212.86
933.46	212.71
933.76	212.48
934.06	212.90
934.36	213.43
934.66	213.12
934.96	212.71
935.26	212.83
935.56	213.12
935.86	212.43
936.16	212.19
936.46	211.95
936.76	212.19
937.06	211.74
937.36	211.74
937.66	211.93
937.96	211.74
938.26	211.26
938.56	211.12
938.86	211.36
939.16	211.67
939.46	212.07
939.76	212.21
940.06	212.29
940.35	211.79
940.65	210.83
940.95	211.29
941.25	210.93
941.55	210.45
941.85	210.40
942.15	211.07
942.45	211.48
942.75	211.60
943.04	211.40
943.34	212.14
943.64	212.02
943.94	211.50
944.24	211.52
944.54	211.90
944.84	211.67
945.13	211.38
945.43	211.31
945.73	211.17
946.03	210.90
946.33	210.60
946.62	210.38
946.92	210.29
947.22	210.31
947.52	210.45
947.82	210.81
948.11	210.69
948.41	210.12
948.71	209.57
949.01	209.55
949.31	209.55
949.60	209.14
949.90	209.45
950.20	209.71
950.50	209.93
950.79	209.67
951.09	210.10
951.39	210.29
951.69	209.93
951.98	210.29
952.28	210.50
952.58	210.62
952.87	210.67
953.17	211.24
953.47	210.98
953.76	211.05
954.06	210.52
954.36	210.40
954.66	210.38
954.95	211.05
955.25	211.48
955.55	211.79
955.84	211.55
956.14	211.55
956.44	211.57
956.73	211.12
957.03	211.31
957.32	211.07
957.62	210.76
957.92	210.98
958.21	210.67
958.51	212.90
958.81	213.05
959.10	213.38
959.40	213.71
959.69	213.69
959.99	213.90
960.29	214.19
960.58	214.17
960.88	215.29
961.17	214.88
961.47	214.88
961.76	214.40
962.06	214.83
962.36	214.48
962.65	214.45
962.95	214.67
963.24	214.24
963.54	214.29
963.83	214.67
964.13	214.69
964.42	214.26
964.72	212.69
965.01	213.07
965.31	212.81
965.60	212.05
965.90	213.69
966.19	213.12
966.49	213.21
966.78	212.98
967.08	212.69
967.37	212.76
967.67	212.50
967.96	213.12
968.26	213.10
968.55	213.74
968.85	213.79
969.14	213.71
969.43	213.83
969.73	213.88
970.02	213.74
970.32	213.64
970.61	213.62
970.91	212.98
971.20	212.36
971.49	212.19
971.79	212.67
972.08	210.86
972.38	211.07
972.67	211.02
972.96	211.50
973.26	210.81
973.55	211.31
973.85	211.10
974.14	210.93
974.43	211.02
974.73	210.74
975.02	210.60
975.31	210.45
975.61	210.48
975.90	210.21
976.19	209.98
976.49	209.86
976.78	209.93
977.07	209.86
977.37	209.98
977.66	210.21
977.95	209.76
978.24	210.12
978.54	210.52
978.83	210.26
979.12	210.07
979.42	210.07
979.71	209.76
980.00	209.95
980.29	209.86
980.59	209.29
980.88	209.83
981.17	209.69
981.46	209.67
981.76	209.76
982.05	210.33
982.34	210.36
982.63	210.50
982.93	210.55
983.22	211.10
983.51	211.17
983.80	211.40
984.09	211.81
984.39	211.64
984.68	211.31
984.97	211.60
985.26	211.69
985.55	211.86
985.85	211.31
986.14	211.48
986.43	211.62
986.72	211.71
987.01	210.95
987.30	211.00
987.59	211.05
987.89	211.12
988.18	210.69
988.47	210.71
988.76	210.71
989.05	210.60
989.34	210.24
989.63	210.79
989.92	210.48
990.22	210.12
990.51	210.17
990.80	210.17
991.09	210.29
991.38	210.26
991.67	210.21
991.96	210.19
992.25	210.26
992.54	210.02
992.83	209.93
993.12	209.88
993.41	210.10
993.70	210.71
993.99	211.14
994.28	211.31
994.58	211.55
994.87	211.21
995.16	211.31
995.45	211.14
995.74	210.57
996.03	210.98
996.32	211.36
996.61	211.76
996.90	211.64
997.19	211.55
997.48	211.48
997.77	211.21
998.06	211.52
998.34	211.19
998.63	211.21
998.92	211.52
999.21	211.90
999.50	212.19
999.79	211.71
1000.08	211.43
1000.37	211.43
1000.66	211.19
1000.95	211.93
1001.24	211.98
1001.53	212.33
1001.82	212.24
1002.11	211.57
1002.40	211.67
1002.68	212.24
1002.97	213.60
1003.26	213.29
1003.55	213.02
1003.84	213.26
1004.13	213.81
1004.42	213.93
1004.71	214.07
1004.99	213.93
1005.28	214.36
1005.57	213.86
1005.86	213.57
1006.15	213.40
1006.44	213.17
1006.72	213.33
1007.01	212.90
1007.30	212.76
1007.59	212.76
1007.88	212.76
1008.17	213.00
1008.45	212.67
1008.74	211.69
1009.03	210.81
1009.32	210.81
1009.60	210.81
1009.89	210.62
1010.18	209.79
1010.47	209.62
1010.76	209.55
1011.04	209.45
1011.33	209.45
1011.62	209.76
1011.91	210.19
1012.19	210.45
1012.48	210.45
1012.77	210.71
1013.05	211.64
1013.34	211.79
1013.63	211.33
1013.92	211.48
1014.20	211.24
1014.49	211.57
1014.78	211.86
1015.06	211.21
1015.35	211.31
1015.64	211.62
1015.92	211.93
1016.21	212.10
1016.50	212.07
1016.78	212.31
1017.07	212.57
1017.36	212.12
1017.64	211.86
1017.93	212.02
1018.22	211.67
1018.50	211.69
1018.79	211.48
1019.08	210.55
1019.36	210.50
1019.65	210.33
1019.93	210.76
1020.22	211.07
1020.51	211.62
1020.79	211.19
1021.08	206.00
1021.36	208.50
1021.65	210.50
1021.94	211.00
1022.22	209.50
1022.51	203.50
1022.79	219.00
1023.08	211.50
1023.36	231.00
1023.65	205.00
>>>>>End Processed Spectral Data<<<<<
