SpectraSuite Data File
++++++++++++++++++++++++++++++++++++
Date: Tue Apr 02 18:39:33 EDT 2013
User: group
Dark Spectrum Present: No
Reference Spectrum Present: No
Number of Sampled Component Spectra: 1
Spectrometers: USB2E7196
Integration Time (usec): 580000 (USB2E7196)
Spectra Averaged: 2 (USB2E7196)
Boxcar Smoothing: 10 (USB2E7196)
Correct for Electrical Dark: No (USB2E7196)
Strobe/Lamp Enabled: No (USB2E7196)
Correct for Detector Non-linearity: No (USB2E7196)
Correct for Stray Light: No (USB2E7196)
Number of Pixels in Processed Spectrum: 2048
>>>>>Begin Processed Spectral Data<<<<<
339.09	0.00
339.48	189.50
339.86	190.00
340.24	196.00
340.63	197.00
341.01	227.00
341.39	197.00
341.78	200.50
342.16	207.50
342.54	203.00
342.93	195.57
343.31	205.21
343.69	206.00
344.07	206.71
344.46	207.55
344.84	208.10
345.22	207.14
345.60	207.95
345.99	208.33
346.37	208.36
346.75	208.67
347.13	208.76
347.52	209.05
347.90	209.64
348.28	209.71
348.66	210.38
349.05	209.93
349.43	210.14
349.81	210.45
350.19	210.74
350.57	211.12
350.96	211.33
351.34	211.95
351.72	212.19
352.10	212.26
352.48	212.05
352.87	212.05
353.25	212.14
353.63	211.95
354.01	212.10
354.39	212.26
354.77	212.48
355.15	213.31
355.54	213.19
355.92	212.95
356.30	213.19
356.68	214.26
357.06	214.55
357.44	214.40
357.82	214.26
358.20	215.38
358.58	215.48
358.97	215.57
359.35	215.81
359.73	216.10
360.11	216.24
360.49	216.40
360.87	216.52
361.25	216.81
361.63	217.50
362.01	217.50
362.39	217.57
362.77	217.69
363.15	217.45
363.53	217.50
363.91	217.71
364.29	217.52
364.67	215.74
365.05	215.76
365.43	215.95
365.81	216.40
366.19	216.40
366.57	217.02
366.95	217.17
367.33	216.79
367.71	216.93
368.09	217.43
368.47	217.52
368.85	217.60
369.23	218.02
369.61	217.33
369.99	218.24
370.37	218.38
370.75	219.45
371.13	219.07
371.51	218.57
371.89	218.36
372.27	218.50
372.65	218.69
373.03	218.71
373.41	218.67
373.78	218.57
374.16	217.40
374.54	216.74
374.92	216.36
375.30	216.26
375.68	215.69
376.06	215.90
376.44	215.60
376.82	215.67
377.19	215.57
377.57	215.55
377.95	214.83
378.33	214.71
378.71	213.24
379.09	213.45
379.47	214.02
379.84	214.00
380.22	213.83
380.60	213.52
380.98	213.40
381.36	213.10
381.73	212.55
382.11	212.90
382.49	213.02
382.87	212.98
383.25	213.02
383.62	215.45
384.00	214.86
384.38	215.10
384.76	215.64
385.13	216.14
385.51	215.98
385.89	215.64
386.27	215.67
386.64	216.10
387.02	215.93
387.40	215.62
387.78	215.76
388.15	215.86
388.53	215.79
388.91	215.79
389.29	215.81
389.66	216.14
390.04	216.07
390.42	216.33
390.79	216.50
391.17	216.57
391.55	214.21
391.92	214.21
392.30	214.29
392.68	213.62
393.05	213.52
393.43	213.86
393.81	214.14
394.18	213.95
394.56	213.79
394.94	214.45
395.31	214.40
395.69	214.90
396.06	215.10
396.44	215.29
396.82	215.12
397.19	216.31
397.57	216.00
397.95	216.21
398.32	215.55
398.70	215.67
399.07	216.05
399.45	216.29
399.82	216.24
400.20	216.19
400.58	216.29
400.95	215.76
401.33	216.19
401.70	217.69
402.08	217.83
402.45	218.00
402.83	218.24
403.20	218.45
403.58	218.33
403.95	218.86
404.33	219.29
404.71	219.57
405.08	220.81
405.46	221.40
405.83	221.69
406.21	222.38
406.58	222.83
406.96	223.14
407.33	223.74
407.70	224.60
408.08	226.81
408.45	227.57
408.83	228.26
409.20	228.67
409.58	228.29
409.95	229.57
410.33	230.83
410.70	231.29
411.08	232.55
411.45	233.74
411.82	234.79
412.20	236.43
412.57	239.29
412.95	238.95
413.32	240.98
413.69	242.52
414.07	244.12
414.44	245.88
414.82	248.10
415.19	250.50
415.56	252.81
415.94	254.24
416.31	257.48
416.68	260.62
417.06	264.19
417.43	267.88
417.81	271.62
418.18	275.33
418.55	279.43
418.93	283.95
419.30	288.29
419.67	293.07
420.04	298.00
420.42	302.52
420.79	310.12
421.16	316.36
421.54	323.98
421.91	330.74
422.28	337.95
422.66	345.36
423.03	354.10
423.40	361.88
423.77	369.48
424.15	377.40
424.52	386.02
424.89	395.43
425.26	403.93
425.64	412.50
426.01	421.60
426.38	431.50
426.75	442.05
427.13	452.57
427.50	463.36
427.87	474.31
428.24	485.29
428.61	495.02
428.99	507.14
429.36	519.19
429.73	531.48
430.10	544.64
430.47	557.10
430.85	568.76
431.22	582.95
431.59	599.60
431.96	613.19
432.33	628.79
432.70	643.76
433.08	661.50
433.45	677.88
433.82	695.33
434.19	714.48
434.56	732.43
434.93	749.69
435.30	766.50
435.68	785.98
436.05	805.31
436.42	823.26
436.79	840.55
437.16	859.14
437.53	879.45
437.90	898.14
438.27	917.88
438.64	938.07
439.01	956.38
439.38	971.86
439.75	988.88
440.13	1007.14
440.50	1024.52
440.87	1038.57
441.24	1053.40
441.61	1069.48
441.98	1081.12
442.35	1094.88
442.72	1108.98
443.09	1123.69
443.46	1132.26
443.83	1137.93
444.20	1144.12
444.57	1151.24
444.94	1154.95
445.31	1158.17
445.68	1164.17
446.05	1165.69
446.42	1163.83
446.79	1162.17
447.16	1159.90
447.53	1158.57
447.90	1151.62
448.27	1144.62
448.64	1135.14
449.01	1128.21
449.37	1115.14
449.74	1102.21
450.11	1088.81
450.48	1072.57
450.85	1055.14
451.22	1040.83
451.59	1027.48
451.96	1014.26
452.33	996.69
452.70	980.60
453.07	962.02
453.43	941.12
453.80	923.05
454.17	905.88
454.54	889.24
454.91	871.10
455.28	853.02
455.65	836.29
456.02	822.98
456.38	808.86
456.75	791.31
457.12	777.00
457.49	763.31
457.86	748.19
458.23	737.26
458.59	724.45
458.96	711.14
459.33	699.26
459.70	687.36
460.07	678.17
460.43	667.60
460.80	657.81
461.17	649.10
461.54	640.02
461.91	631.12
462.27	621.71
462.64	614.17
463.01	606.00
463.38	599.29
463.74	587.62
464.11	580.64
464.48	574.93
464.85	568.00
465.21	563.24
465.58	557.64
465.95	550.43
466.32	545.45
466.68	539.88
467.05	534.64
467.42	529.26
467.78	523.00
468.15	517.43
468.52	513.55
468.88	507.55
469.25	502.52
469.62	498.95
469.98	495.02
470.35	491.29
470.72	487.57
471.08	482.40
471.45	479.67
471.82	476.07
472.18	472.43
472.55	469.69
472.92	465.71
473.28	462.60
473.65	459.50
474.02	456.31
474.38	454.29
474.75	451.86
475.11	449.45
475.48	448.38
475.85	446.60
476.21	444.60
476.58	443.38
476.94	441.60
477.31	439.76
477.67	438.31
478.04	437.07
478.41	436.33
478.77	437.74
479.14	436.31
479.50	436.21
479.87	435.71
480.23	435.40
480.60	434.88
480.96	434.33
481.33	434.98
481.69	435.31
482.06	434.95
482.42	435.64
482.79	436.17
483.15	436.02
483.52	437.14
483.88	437.79
484.25	438.48
484.61	439.52
484.98	440.64
485.34	442.29
485.71	443.93
486.07	445.29
486.44	444.81
486.80	446.55
487.17	447.86
487.53	450.24
487.90	453.12
488.26	456.67
488.62	460.02
488.99	462.24
489.35	465.12
489.72	468.48
490.08	470.95
490.44	474.00
490.81	477.62
491.17	480.86
491.54	484.50
491.90	488.83
492.26	493.07
492.63	497.45
492.99	501.24
493.36	505.74
493.72	510.74
494.08	515.95
494.45	521.76
494.81	527.93
495.17	533.12
495.54	538.36
495.90	543.48
496.26	548.76
496.63	554.76
496.99	560.38
497.35	566.69
497.72	573.43
498.08	580.31
498.44	587.33
498.80	594.40
499.17	601.79
499.53	608.40
499.89	616.14
500.26	623.95
500.62	631.86
500.98	639.67
501.34	647.14
501.71	654.98
502.07	662.76
502.43	670.33
502.79	678.21
503.16	685.71
503.52	693.98
503.88	702.00
504.24	710.90
504.60	719.90
504.97	728.48
505.33	736.90
505.69	746.52
506.05	755.36
506.41	764.31
506.78	773.07
507.14	782.40
507.50	791.07
507.86	799.95
508.22	809.33
508.59	817.64
508.95	827.29
509.31	837.43
509.67	847.14
510.03	856.12
510.39	865.48
510.75	875.19
511.12	883.60
511.48	893.17
511.84	901.57
512.20	910.86
512.56	920.33
512.92	929.83
513.28	937.64
513.64	946.64
514.00	955.55
514.37	964.21
514.73	972.55
515.09	982.40
515.45	990.07
515.81	998.14
516.17	1006.60
516.53	1014.02
516.89	1021.71
517.25	1029.10
517.61	1037.40
517.97	1045.33
518.33	1053.10
518.69	1061.45
519.05	1069.55
519.41	1077.29
519.77	1086.64
520.13	1093.29
520.49	1100.33
520.85	1107.88
521.21	1115.52
521.57	1121.93
521.93	1128.57
522.29	1135.81
522.65	1141.40
523.01	1148.83
523.37	1155.76
523.73	1163.02
524.09	1169.69
524.45	1176.10
524.81	1182.67
525.17	1189.40
525.53	1195.67
525.89	1201.98
526.25	1208.60
526.61	1214.71
526.97	1220.43
527.33	1224.55
527.68	1232.74
528.04	1238.88
528.40	1244.48
528.76	1249.48
529.12	1256.00
529.48	1262.43
529.84	1268.31
530.20	1274.26
530.56	1279.79
530.91	1286.17
531.27	1291.07
531.63	1296.67
531.99	1301.33
532.35	1306.93
532.71	1311.12
533.07	1316.67
533.42	1324.29
533.78	1329.74
534.14	1335.33
534.50	1341.40
534.86	1347.45
535.21	1351.17
535.57	1356.62
535.93	1362.38
536.29	1369.07
536.65	1374.29
537.00	1379.21
537.36	1383.74
537.72	1388.07
538.08	1393.57
538.44	1396.74
538.79	1402.02
539.15	1406.62
539.51	1412.21
539.87	1416.67
540.22	1422.55
540.58	1427.57
540.94	1430.12
541.29	1434.55
541.65	1438.62
542.01	1443.21
542.37	1446.33
542.72	1449.76
543.08	1453.19
543.44	1456.98
543.79	1459.00
544.15	1464.29
544.51	1469.40
544.87	1473.83
545.22	1479.21
545.58	1482.64
545.94	1486.50
546.29	1490.95
546.65	1495.50
547.01	1498.10
547.36	1501.98
547.72	1504.31
548.07	1507.81
548.43	1511.36
548.79	1514.12
549.14	1516.93
549.50	1521.14
549.86	1524.69
550.21	1528.40
550.57	1532.76
550.92	1535.67
551.28	1540.12
551.64	1543.00
551.99	1545.55
552.35	1548.81
552.70	1551.81
553.06	1556.40
553.41	1560.90
553.77	1565.26
554.13	1568.83
554.48	1574.88
554.84	1580.05
555.19	1585.21
555.55	1590.62
555.90	1594.36
556.26	1599.45
556.61	1603.00
556.97	1605.74
557.32	1610.31
557.68	1614.79
558.03	1619.00
558.39	1623.71
558.74	1628.33
559.10	1632.86
559.45	1637.43
559.81	1641.98
560.16	1645.98
560.52	1649.21
560.87	1653.90
561.23	1656.62
561.58	1662.71
561.94	1665.38
562.29	1667.93
562.64	1671.93
563.00	1674.81
563.35	1679.36
563.71	1683.60
564.06	1689.24
564.42	1694.02
564.77	1699.17
565.12	1704.76
565.48	1711.40
565.83	1716.38
566.19	1720.71
566.54	1725.17
566.89	1728.83
567.25	1734.33
567.60	1740.36
567.96	1747.52
568.31	1752.90
568.66	1758.64
569.02	1761.17
569.37	1764.10
569.72	1769.05
570.08	1772.33
570.43	1775.67
570.78	1779.05
571.14	1782.26
571.49	1785.38
571.84	1789.02
572.20	1792.31
572.55	1794.93
572.90	1795.64
573.26	1798.33
573.61	1800.88
573.96	1803.50
574.31	1806.36
574.67	1808.17
575.02	1808.93
575.37	1808.38
575.72	1809.10
576.08	1809.45
576.43	1811.17
576.78	1813.93
577.13	1814.60
577.49	1816.52
577.84	1818.33
578.19	1820.45
578.54	1822.83
578.90	1825.05
579.25	1825.98
579.60	1826.38
579.95	1826.14
580.30	1826.57
580.66	1827.81
581.01	1827.81
581.36	1828.12
581.71	1829.38
582.06	1830.95
582.42	1831.31
582.77	1831.71
583.12	1831.38
583.47	1832.36
583.82	1831.74
584.17	1831.79
584.53	1832.40
584.88	1832.29
585.23	1832.64
585.58	1831.60
585.93	1828.83
586.28	1827.14
586.63	1826.81
586.98	1826.00
587.34	1826.48
587.69	1825.79
588.04	1823.38
588.39	1822.81
588.74	1820.19
589.09	1817.90
589.44	1814.24
589.79	1813.57
590.14	1811.88
590.49	1810.86
590.84	1808.38
591.19	1806.88
591.54	1805.21
591.89	1803.31
592.25	1803.10
592.60	1799.55
592.95	1797.60
593.30	1796.43
593.65	1794.55
594.00	1790.83
594.35	1793.79
594.70	1790.26
595.05	1787.55
595.40	1785.21
595.75	1782.76
596.10	1781.07
596.45	1778.86
596.80	1777.05
597.15	1774.14
597.50	1771.79
597.85	1770.86
598.19	1768.86
598.54	1767.17
598.89	1764.71
599.24	1762.02
599.59	1757.19
599.94	1754.26
600.29	1751.86
600.64	1749.45
600.99	1746.81
601.34	1745.24
601.69	1736.74
602.04	1733.38
602.39	1730.50
602.74	1728.98
603.08	1725.98
603.43	1722.93
603.78	1720.12
604.13	1717.43
604.48	1713.83
604.83	1711.40
605.18	1706.62
605.53	1703.19
605.87	1698.90
606.22	1695.26
606.57	1691.83
606.92	1688.67
607.27	1686.55
607.62	1683.07
607.96	1680.74
608.31	1676.81
608.66	1672.90
609.01	1669.57
609.36	1666.38
609.70	1661.76
610.05	1656.38
610.40	1652.38
610.75	1647.98
611.10	1643.64
611.44	1638.76
611.79	1633.93
612.14	1627.86
612.49	1622.05
612.83	1616.21
613.18	1609.98
613.53	1604.52
613.88	1597.79
614.22	1592.74
614.57	1587.55
614.92	1581.64
615.27	1574.86
615.61	1569.40
615.96	1563.12
616.31	1556.57
616.65	1552.24
617.00	1547.48
617.35	1542.38
617.70	1536.10
618.04	1530.33
618.39	1524.60
618.74	1518.55
619.08	1512.33
619.43	1507.76
619.78	1502.60
620.12	1497.40
620.47	1493.12
620.82	1486.50
621.16	1480.64
621.51	1474.74
621.85	1467.62
622.20	1460.81
622.55	1454.00
622.89	1447.88
623.24	1442.38
623.59	1437.00
623.93	1430.52
624.28	1424.21
624.62	1420.38
624.97	1415.50
625.32	1409.55
625.66	1403.52
626.01	1397.74
626.35	1392.93
626.70	1386.76
627.04	1381.19
627.39	1375.60
627.73	1370.71
628.08	1366.14
628.43	1361.17
628.77	1354.48
629.12	1349.45
629.46	1345.45
629.81	1340.52
630.15	1334.24
630.50	1328.12
630.84	1321.60
631.19	1314.52
631.53	1308.19
631.88	1298.76
632.22	1290.45
632.57	1284.98
632.91	1277.86
633.26	1271.21
633.60	1264.26
633.95	1257.00
634.29	1250.50
634.64	1244.00
634.98	1235.98
635.32	1230.17
635.67	1224.26
636.01	1218.98
636.36	1212.19
636.70	1205.33
637.05	1198.71
637.39	1193.14
637.73	1187.14
638.08	1181.74
638.42	1175.64
638.77	1169.86
639.11	1164.02
639.45	1159.10
639.80	1151.98
640.14	1145.45
640.49	1138.95
640.83	1132.55
641.17	1127.05
641.52	1120.60
641.86	1114.17
642.20	1109.14
642.55	1101.71
642.89	1094.88
643.23	1087.83
643.58	1081.55
643.92	1074.55
644.26	1068.19
644.61	1061.14
644.95	1054.24
645.29	1046.67
645.64	1040.55
645.98	1033.79
646.32	1028.26
646.66	1020.98
647.01	1014.29
647.35	1009.14
647.69	1002.86
648.04	997.62
648.38	991.67
648.72	985.43
649.06	979.62
649.41	972.02
649.75	965.55
650.09	959.05
650.43	952.45
650.78	945.88
651.12	939.26
651.46	932.48
651.80	926.60
652.14	920.45
652.49	915.71
652.83	909.60
653.17	903.67
653.51	896.55
653.85	891.31
654.20	885.31
654.54	878.86
654.88	872.95
655.22	866.29
655.56	859.40
655.90	853.14
656.25	846.62
656.59	841.26
656.93	836.17
657.27	831.21
657.61	826.17
657.95	820.93
658.29	815.55
658.64	810.64
658.98	804.62
659.32	798.38
659.66	792.45
660.00	786.55
660.34	780.83
660.68	776.36
661.02	770.69
661.36	765.38
661.70	759.81
662.05	754.69
662.39	749.81
662.73	745.74
663.07	742.12
663.41	736.90
663.75	731.21
664.09	726.07
664.43	720.24
664.77	714.69
665.11	708.98
665.45	703.86
665.79	698.60
666.13	693.07
666.47	688.71
666.81	683.26
667.15	678.33
667.49	673.76
667.83	669.67
668.17	664.71
668.51	660.19
668.85	655.57
669.19	651.50
669.53	645.71
669.87	639.98
670.21	634.33
670.55	630.12
670.89	626.55
671.23	621.95
671.57	618.07
671.91	614.14
672.25	610.64
672.58	607.29
672.92	602.62
673.26	599.21
673.60	595.48
673.94	591.71
674.28	587.88
674.62	584.14
674.96	578.95
675.30	575.52
675.64	571.71
675.97	567.90
676.31	563.64
676.65	560.10
676.99	557.38
677.33	553.57
677.67	550.26
678.01	546.31
678.34	542.67
678.68	539.29
679.02	535.14
679.36	531.31
679.70	527.12
680.04	523.81
680.37	520.38
680.71	516.88
681.05	513.71
681.39	510.43
681.73	507.02
682.06	504.05
682.40	500.52
682.74	497.19
683.08	494.57
683.42	490.83
683.75	488.19
684.09	484.10
684.43	480.64
684.77	477.12
685.10	473.98
685.44	470.52
685.78	467.05
686.12	464.38
686.45	461.12
686.79	458.24
687.13	455.57
687.46	452.50
687.80	450.21
688.14	446.74
688.48	443.93
688.81	441.33
689.15	439.07
689.49	436.31
689.82	433.55
690.16	430.10
690.50	427.79
690.83	424.64
691.17	421.62
691.51	419.17
691.84	416.29
692.18	413.55
692.52	410.71
692.85	408.62
693.19	406.95
693.52	404.64
693.86	402.12
694.20	399.52
694.53	397.45
694.87	394.55
695.21	392.40
695.54	389.93
695.88	386.64
696.21	383.69
696.55	381.38
696.88	379.12
697.22	376.95
697.56	374.93
697.89	372.86
698.23	371.36
698.56	368.79
698.90	367.19
699.23	365.45
699.57	363.95
699.90	361.86
700.24	359.02
700.58	357.00
700.91	355.38
701.25	355.19
701.58	353.95
701.92	352.62
702.25	350.98
702.59	349.48
702.92	348.36
703.26	346.81
703.59	344.79
703.93	344.83
704.26	343.43
704.60	341.60
704.93	339.81
705.26	338.00
705.60	337.19
705.93	335.40
706.27	334.36
706.60	333.62
706.94	332.83
707.27	331.31
707.61	329.98
707.94	328.19
708.27	325.38
708.61	323.26
708.94	321.83
709.28	320.55
709.61	318.88
709.94	317.69
710.28	316.29
710.61	315.36
710.95	312.48
711.28	312.50
711.61	311.55
711.95	310.90
712.28	309.67
712.61	308.17
712.95	307.98
713.28	307.43
713.61	305.64
713.95	304.00
714.28	303.36
714.61	302.24
714.95	301.05
715.28	299.57
715.61	298.19
715.95	297.17
716.28	296.07
716.61	295.40
716.95	293.88
717.28	292.95
717.61	291.90
717.94	291.19
718.28	288.83
718.61	287.76
718.94	286.69
719.27	285.60
719.61	284.86
719.94	283.38
720.27	281.26
720.60	280.19
720.94	279.21
721.27	278.19
721.60	277.43
721.93	276.74
722.27	276.64
722.60	276.17
722.93	275.02
723.26	274.38
723.59	273.52
723.93	273.33
724.26	272.67
724.59	272.00
724.92	271.10
725.25	270.81
725.59	270.14
725.92	269.57
726.25	269.05
726.58	268.71
726.91	267.93
727.24	267.90
727.57	267.38
727.91	266.50
728.24	266.02
728.57	265.17
728.90	264.95
729.23	263.81
729.56	264.12
729.89	263.71
730.22	263.10
730.55	262.38
730.89	261.86
731.22	261.31
731.55	260.67
731.88	260.29
732.21	259.52
732.54	258.86
732.87	258.19
733.20	257.90
733.53	257.10
733.86	256.79
734.19	255.86
734.52	255.86
734.85	256.93
735.18	256.26
735.51	256.50
735.84	256.00
736.17	256.31
736.50	254.90
736.83	256.86
737.16	256.29
737.49	255.93
737.82	255.31
738.15	255.43
738.48	255.02
738.81	254.43
739.14	253.74
739.47	253.36
739.80	252.88
740.13	252.76
740.46	252.31
740.79	251.69
741.12	251.02
741.45	250.31
741.78	248.98
742.11	249.17
742.44	248.52
742.77	248.69
743.10	247.83
743.43	247.36
743.75	244.81
744.08	246.95
744.41	246.57
744.74	246.21
745.07	245.21
745.40	245.24
745.73	245.90
746.06	245.71
746.39	245.67
746.71	245.24
747.04	244.26
747.37	243.83
747.70	243.86
748.03	244.05
748.36	243.83
748.68	243.12
749.01	242.24
749.34	241.81
749.67	241.33
750.00	241.29
750.33	242.62
750.65	242.60
750.98	240.05
751.31	239.81
751.64	239.45
751.97	240.29
752.29	239.74
752.62	238.60
752.95	238.40
753.28	237.74
753.60	237.55
753.93	238.02
754.26	238.05
754.59	237.26
754.91	236.88
755.24	236.81
755.57	236.62
755.90	236.31
756.22	236.07
756.55	235.29
756.88	234.62
757.20	233.07
757.53	232.17
757.86	231.95
758.19	231.88
758.51	231.64
758.84	230.38
759.17	230.17
759.49	229.95
759.82	230.60
760.15	230.67
760.47	230.36
760.80	229.48
761.13	229.57
761.45	229.33
761.78	228.93
762.11	228.52
762.43	228.29
762.76	228.10
763.08	227.83
763.41	227.98
763.74	227.88
764.06	227.74
764.39	227.74
764.71	227.48
765.04	227.17
765.37	226.98
765.69	226.79
766.02	226.60
766.34	226.26
766.67	225.50
767.00	225.74
767.32	226.69
767.65	227.79
767.97	227.02
768.30	227.17
768.62	227.14
768.95	226.86
769.27	226.50
769.60	226.60
769.92	226.36
770.25	225.88
770.57	225.48
770.90	225.29
771.22	224.64
771.55	224.60
771.87	224.64
772.20	224.31
772.52	225.79
772.85	228.12
773.17	228.05
773.50	227.67
773.82	227.12
774.15	226.00
774.47	224.74
774.80	224.71
775.12	224.43
775.45	224.43
775.77	224.40
776.09	224.50
776.42	224.40
776.74	225.02
777.07	224.93
777.39	225.02
777.72	224.57
778.04	225.05
778.36	224.76
778.69	224.62
779.01	224.86
779.33	223.17
779.66	220.60
779.98	220.50
780.31	220.52
780.63	221.29
780.95	221.55
781.28	221.48
781.60	221.14
781.92	221.02
782.25	220.83
782.57	220.79
782.89	221.05
783.22	220.88
783.54	220.31
783.86	220.29
784.19	220.12
784.51	220.95
784.83	220.50
785.16	220.36
785.48	220.31
785.80	220.17
786.12	220.52
786.45	220.71
786.77	220.79
787.09	220.60
787.42	219.83
787.74	220.07
788.06	219.81
788.38	220.00
788.71	219.62
789.03	219.74
789.35	219.90
789.67	219.29
789.99	219.48
790.32	219.17
790.64	219.45
790.96	221.02
791.28	220.33
791.61	220.29
791.93	220.52
792.25	220.24
792.57	221.81
792.89	221.07
793.21	220.81
793.54	220.48
793.86	220.33
794.18	220.40
794.50	219.74
794.82	220.05
795.14	220.14
795.47	220.86
795.79	220.76
796.11	220.36
796.43	220.21
796.75	220.07
797.07	220.10
797.39	219.71
797.71	218.19
798.04	218.14
798.36	218.29
798.68	218.21
799.00	218.43
799.32	216.93
799.64	217.21
799.96	217.36
800.28	217.69
800.60	217.55
800.92	217.60
801.24	217.52
801.56	217.43
801.89	217.33
802.21	217.31
802.53	216.71
802.85	217.21
803.17	218.31
803.49	217.86
803.81	217.95
804.13	217.98
804.45	217.95
804.77	218.29
805.09	218.17
805.41	217.88
805.73	217.52
806.05	217.55
806.37	217.52
806.69	217.36
807.01	217.31
807.33	217.36
807.65	216.57
807.97	217.52
808.28	217.38
808.60	217.36
808.92	216.98
809.24	218.62
809.56	218.05
809.88	217.02
810.20	217.19
810.52	217.50
810.84	217.24
811.16	216.74
811.48	216.43
811.80	217.29
812.12	217.12
812.43	217.48
812.75	217.45
813.07	217.33
813.39	217.55
813.71	217.10
814.03	217.00
814.35	217.33
814.67	216.62
814.98	216.31
815.30	216.24
815.62	215.76
815.94	214.24
816.26	214.26
816.58	213.93
816.89	213.93
817.21	213.26
817.53	213.38
817.85	213.43
818.17	213.21
818.48	212.40
818.80	213.02
819.12	212.76
819.44	212.36
819.76	212.21
820.07	212.10
820.39	212.24
820.71	212.36
821.03	212.26
821.34	211.98
821.66	212.60
821.98	212.74
822.30	212.86
822.61	214.31
822.93	214.21
823.25	214.40
823.57	214.38
823.88	215.05
824.20	214.81
824.52	215.29
824.83	215.21
825.15	215.00
825.47	214.67
825.79	214.81
826.10	214.90
826.42	214.83
826.74	215.00
827.05	214.71
827.37	214.83
827.69	214.81
828.00	214.95
828.32	214.62
828.64	214.36
828.95	215.45
829.27	214.62
829.58	214.48
829.90	214.76
830.22	214.86
830.53	214.24
830.85	214.12
831.17	213.81
831.48	213.98
831.80	214.02
832.11	214.00
832.43	213.86
832.75	213.88
833.06	215.17
833.38	214.57
833.69	214.64
834.01	214.71
834.32	214.67
834.64	214.31
834.96	214.55
835.27	214.45
835.59	213.88
835.90	213.50
836.22	213.71
836.53	213.60
836.85	213.26
837.16	215.14
837.48	215.29
837.79	215.74
838.11	215.81
838.42	215.71
838.74	215.95
839.05	215.55
839.37	215.33
839.68	214.02
840.00	214.02
840.31	214.55
840.63	214.50
840.94	214.31
841.26	214.10
841.57	214.02
841.88	214.26
842.20	213.81
842.51	213.62
842.83	213.74
843.14	215.33
843.46	215.45
843.77	214.57
844.08	214.55
844.40	213.83
844.71	213.76
845.03	213.76
845.34	213.55
845.65	213.55
845.97	213.69
846.28	213.79
846.60	213.88
846.91	213.31
847.22	213.21
847.54	213.62
847.85	213.86
848.16	213.52
848.48	213.29
848.79	214.29
849.10	214.45
849.42	214.48
849.73	212.64
850.04	212.67
850.36	211.83
850.67	212.29
850.98	212.48
851.30	212.50
851.61	212.21
851.92	212.36
852.23	213.21
852.55	213.21
852.86	213.45
853.17	213.76
853.49	214.26
853.80	214.62
854.11	214.86
854.42	215.10
854.74	215.00
855.05	215.02
855.36	214.00
855.67	214.19
855.99	214.05
856.30	216.43
856.61	216.17
856.92	216.26
857.23	216.05
857.55	215.79
857.86	215.81
858.17	216.40
858.48	215.90
858.79	215.60
859.11	215.90
859.42	215.55
859.73	215.05
860.04	214.81
860.35	214.14
860.66	213.50
860.98	213.29
861.29	213.45
861.60	213.24
861.91	213.83
862.22	213.50
862.53	213.31
862.84	210.98
863.16	211.69
863.47	211.17
863.78	211.00
864.09	211.26
864.40	211.29
864.71	211.24
865.02	211.69
865.33	211.40
865.64	211.00
865.95	211.14
866.27	212.69
866.58	212.60
866.89	212.98
867.20	212.95
867.51	212.88
867.82	212.90
868.13	213.62
868.44	212.83
868.75	213.33
869.06	213.60
869.37	213.76
869.68	213.14
869.99	213.81
870.30	213.95
870.61	214.12
870.92	213.88
871.23	213.81
871.54	213.93
871.85	214.40
872.16	214.79
872.47	214.57
872.78	213.38
873.09	213.43
873.40	213.05
873.71	213.36
874.02	213.50
874.33	213.24
874.64	212.74
874.95	213.12
875.26	212.60
875.56	212.64
875.87	212.55
876.18	212.50
876.49	214.52
876.80	214.33
877.11	213.93
877.42	213.98
877.73	213.95
878.04	213.67
878.35	213.76
878.66	213.60
878.96	213.36
879.27	213.19
879.58	213.19
879.89	213.26
880.20	213.69
880.51	213.60
880.82	213.64
881.12	213.90
881.43	213.55
881.74	213.24
882.05	212.95
882.36	213.05
882.67	213.12
882.97	210.74
883.28	210.71
883.59	210.67
883.90	210.98
884.21	211.19
884.51	211.21
884.82	210.74
885.13	210.74
885.44	210.90
885.74	210.98
886.05	210.95
886.36	211.02
886.67	210.19
886.98	211.26
887.28	211.43
887.59	211.55
887.90	211.52
888.20	211.67
888.51	211.93
888.82	211.62
889.13	211.90
889.43	213.60
889.74	213.43
890.05	213.57
890.35	213.48
890.66	213.14
890.97	212.64
891.28	212.60
891.58	212.64
891.89	212.50
892.20	212.38
892.50	212.19
892.81	212.21
893.12	212.40
893.42	211.52
893.73	211.67
894.04	211.45
894.34	211.88
894.65	211.86
894.95	211.67
895.26	211.95
895.57	212.67
895.87	210.83
896.18	211.21
896.48	211.21
896.79	211.02
897.10	211.38
897.40	211.71
897.71	211.95
898.01	211.60
898.32	212.21
898.63	211.88
898.93	211.95
899.24	211.98
899.54	211.86
899.85	211.90
900.15	211.69
900.46	211.76
900.76	211.98
901.07	211.76
901.38	211.69
901.68	211.95
901.99	210.95
902.29	211.10
902.60	211.00
902.90	210.88
903.21	210.95
903.51	210.74
903.82	211.24
904.12	211.07
904.43	211.24
904.73	210.98
905.03	211.38
905.34	213.38
905.64	213.12
905.95	213.14
906.25	212.88
906.56	212.86
906.86	212.62
907.17	212.40
907.47	212.88
907.77	212.88
908.08	212.52
908.38	212.57
908.69	212.83
908.99	213.10
909.30	213.31
909.60	213.40
909.90	213.52
910.21	212.88
910.51	212.62
910.81	212.86
911.12	212.88
911.42	212.86
911.73	210.98
912.03	211.29
912.33	211.83
912.64	211.81
912.94	211.76
913.24	211.64
913.55	211.14
913.85	210.79
914.15	211.19
914.46	211.29
914.76	211.10
915.06	210.79
915.37	210.26
915.67	210.00
915.97	209.76
916.27	209.33
916.58	209.36
916.88	209.40
917.18	209.21
917.49	210.45
917.79	210.52
918.09	210.79
918.39	211.17
918.70	210.76
919.00	210.81
919.30	211.79
919.60	211.79
919.91	212.12
920.21	212.55
920.51	212.17
920.81	212.17
921.12	212.64
921.42	212.74
921.72	213.00
922.02	213.38
922.32	213.83
922.63	214.02
922.93	215.10
923.23	215.07
923.53	214.81
923.83	213.50
924.13	213.50
924.44	213.55
924.74	213.81
925.04	214.29
925.34	214.29
925.64	213.52
925.94	213.62
926.24	214.90
926.55	214.60
926.85	214.83
927.15	214.69
927.45	214.62
927.75	214.36
928.05	214.48
928.35	214.19
928.65	214.48
928.95	214.57
929.26	213.88
929.56	214.45
929.86	214.98
930.16	214.86
930.46	214.81
930.76	214.60
931.06	213.50
931.36	213.19
931.66	213.48
931.96	213.74
932.26	213.71
932.56	212.69
932.86	212.83
933.16	212.81
933.46	212.45
933.76	212.24
934.06	213.00
934.36	213.62
934.66	213.79
934.96	213.55
935.26	213.86
935.56	214.14
935.86	213.64
936.16	213.38
936.46	213.43
936.76	213.31
937.06	213.17
937.36	213.62
937.66	213.83
937.96	213.76
938.26	213.14
938.56	213.12
938.86	213.02
939.16	213.45
939.46	213.69
939.76	214.02
940.06	214.19
940.35	213.64
940.65	212.71
940.95	212.69
941.25	212.24
941.55	211.81
941.85	211.52
942.15	211.86
942.45	212.48
942.75	212.52
943.04	212.71
943.34	213.24
943.64	212.88
943.94	212.48
944.24	212.43
944.54	212.79
944.84	212.86
945.13	212.57
945.43	211.98
945.73	211.81
946.03	211.79
946.33	211.31
946.62	211.10
946.92	211.12
947.22	211.29
947.52	211.26
947.82	211.33
948.11	210.98
948.41	210.48
948.71	209.79
949.01	209.88
949.31	209.69
949.60	209.24
949.90	209.79
950.20	209.67
950.50	209.55
950.79	209.07
951.09	209.17
951.39	209.33
951.69	209.21
951.98	209.57
952.28	209.69
952.58	209.83
952.87	209.98
953.17	210.24
953.47	209.88
953.76	210.12
954.06	209.88
954.36	209.83
954.66	209.86
954.95	210.45
955.25	210.38
955.55	210.38
955.84	210.36
956.14	210.38
956.44	210.60
956.73	210.31
957.03	210.71
957.32	210.50
957.62	210.21
957.92	210.69
958.21	210.36
958.51	212.69
958.81	212.95
959.10	213.14
959.40	213.55
959.69	213.93
959.99	214.29
960.29	214.40
960.58	214.52
960.88	215.38
961.17	214.86
961.47	215.10
961.76	215.07
962.06	215.43
962.36	215.21
962.65	215.05
962.95	215.29
963.24	215.10
963.54	215.14
963.83	215.57
964.13	215.43
964.42	215.05
964.72	213.31
965.01	213.19
965.31	213.17
965.60	212.57
965.90	213.81
966.19	213.26
966.49	213.50
966.78	213.38
967.08	213.21
967.37	213.33
967.67	213.14
967.96	213.43
968.26	213.14
968.55	213.26
968.85	213.40
969.14	213.24
969.43	213.29
969.73	213.21
970.02	212.86
970.32	212.79
970.61	212.60
970.91	211.98
971.20	211.86
971.49	211.76
971.79	211.98
972.08	210.55
972.38	210.62
972.67	210.50
972.96	210.83
973.26	210.38
973.55	211.00
973.85	210.88
974.14	210.90
974.43	211.24
974.73	210.81
975.02	210.36
975.31	210.45
975.61	210.31
975.90	210.36
976.19	210.31
976.49	210.67
976.78	211.00
977.07	210.93
977.37	211.00
977.66	211.17
977.95	210.74
978.24	210.81
978.54	211.17
978.83	210.95
979.12	210.74
979.42	210.93
979.71	210.50
980.00	210.19
980.29	210.17
980.59	209.83
980.88	210.69
981.17	211.05
981.46	211.14
981.76	211.26
982.05	211.76
982.34	211.88
982.63	211.83
982.93	211.67
983.22	212.21
983.51	212.33
983.80	212.36
984.09	212.93
984.39	212.81
984.68	212.52
984.97	212.55
985.26	212.45
985.55	212.45
985.85	212.12
986.14	212.62
986.43	212.57
986.72	212.17
987.01	211.38
987.30	211.29
987.59	211.26
987.89	211.50
988.18	210.83
988.47	210.50
988.76	210.12
989.05	209.88
989.34	209.43
989.63	209.95
989.92	209.60
990.22	209.40
990.51	209.38
990.80	209.36
991.09	209.64
991.38	209.90
991.67	209.81
991.96	209.50
992.25	209.36
992.54	209.31
992.83	209.64
993.12	209.64
993.41	209.83
993.70	210.57
993.99	210.76
994.28	211.05
994.58	211.64
994.87	211.55
995.16	211.64
995.45	211.64
995.74	210.83
996.03	211.26
996.32	211.48
996.61	211.98
996.90	211.86
997.19	211.50
997.48	211.45
997.77	211.21
998.06	211.45
998.34	211.31
998.63	211.14
998.92	211.24
999.21	211.60
999.50	211.76
999.79	211.07
1000.08	210.88
1000.37	210.93
1000.66	210.50
1000.95	211.02
1001.24	211.24
1001.53	211.64
1001.82	211.57
1002.11	211.12
1002.40	211.33
1002.68	211.74
1002.97	213.26
1003.26	213.14
1003.55	213.05
1003.84	213.14
1004.13	213.88
1004.42	213.98
1004.71	213.98
1004.99	213.71
1005.28	214.17
1005.57	213.93
1005.86	213.83
1006.15	213.86
1006.44	213.74
1006.72	214.00
1007.01	213.62
1007.30	213.57
1007.59	213.21
1007.88	213.29
1008.17	213.52
1008.45	213.07
1008.74	212.02
1009.03	210.86
1009.32	211.10
1009.60	210.76
1009.89	210.60
1010.18	209.76
1010.47	209.81
1010.76	209.86
1011.04	209.95
1011.33	210.57
1011.62	210.74
1011.91	210.95
1012.19	211.00
1012.48	210.95
1012.77	210.67
1013.05	211.79
1013.34	211.83
1013.63	211.74
1013.92	211.71
1014.20	211.50
1014.49	211.55
1014.78	211.88
1015.06	211.48
1015.35	211.52
1015.64	211.86
1015.92	212.31
1016.21	212.57
1016.50	212.52
1016.78	212.50
1017.07	212.69
1017.36	211.57
1017.64	211.60
1017.93	211.64
1018.22	211.64
1018.50	211.71
1018.79	212.07
1019.08	211.10
1019.36	211.10
1019.65	211.02
1019.93	211.83
1020.22	212.12
1020.51	212.90
1020.79	212.52
1021.08	213.50
1021.36	210.00
1021.65	213.50
1021.94	212.00
1022.22	209.50
1022.51	208.00
1022.79	222.00
1023.08	212.00
1023.36	230.00
1023.65	203.00
>>>>>End Processed Spectral Data<<<<<
