SpectraSuite Data File
++++++++++++++++++++++++++++++++++++
Date: Tue Apr 02 18:46:50 EDT 2013
User: group
Dark Spectrum Present: No
Reference Spectrum Present: No
Number of Sampled Component Spectra: 1
Spectrometers: USB2E7196
Integration Time (usec): 580000 (USB2E7196)
Spectra Averaged: 2 (USB2E7196)
Boxcar Smoothing: 10 (USB2E7196)
Correct for Electrical Dark: No (USB2E7196)
Strobe/Lamp Enabled: No (USB2E7196)
Correct for Detector Non-linearity: No (USB2E7196)
Correct for Stray Light: No (USB2E7196)
Number of Pixels in Processed Spectrum: 2048
>>>>>Begin Processed Spectral Data<<<<<
339.09	0.00
339.48	192.50
339.86	197.00
340.24	197.50
340.63	197.00
341.01	232.50
341.39	203.00
341.78	206.00
342.16	212.00
342.54	208.00
342.93	199.26
343.31	209.14
343.69	210.05
344.07	210.64
344.46	211.55
344.84	212.40
345.22	211.36
345.60	211.74
345.99	212.07
346.37	212.07
346.75	212.17
347.13	212.19
347.52	212.07
347.90	212.76
348.28	212.83
348.66	213.17
349.05	212.64
349.43	212.71
349.81	212.74
350.19	212.86
350.57	212.95
350.96	213.14
351.34	213.57
351.72	213.60
352.10	213.50
352.48	212.90
352.87	212.62
353.25	212.38
353.63	212.24
354.01	212.07
354.39	212.14
354.77	212.21
355.15	212.71
355.54	212.81
355.92	212.48
356.30	212.10
356.68	213.31
357.06	213.48
357.44	213.14
357.82	213.29
358.20	214.17
358.58	214.00
358.97	213.76
359.35	214.00
359.73	214.26
360.11	214.31
360.49	214.76
360.87	214.57
361.25	215.12
361.63	215.86
362.01	216.02
362.39	215.83
362.77	215.93
363.15	215.74
363.53	215.67
363.91	215.62
364.29	215.74
364.67	213.74
365.05	213.67
365.43	213.90
365.81	214.10
366.19	213.93
366.57	214.88
366.95	214.88
367.33	214.31
367.71	213.83
368.09	214.29
368.47	214.24
368.85	214.48
369.23	214.71
369.61	214.07
369.99	214.81
370.37	215.17
370.75	216.26
371.13	215.76
371.51	215.38
371.89	215.48
372.27	215.71
372.65	216.17
373.03	216.24
373.41	216.07
373.78	215.95
374.16	215.07
374.54	214.31
374.92	214.17
375.30	214.40
375.68	214.36
376.06	214.36
376.44	214.21
376.82	214.33
377.19	214.24
377.57	214.10
377.95	213.26
378.33	213.17
378.71	211.69
379.09	212.24
379.47	212.50
379.84	212.31
380.22	212.26
380.60	211.88
380.98	211.64
381.36	211.79
381.73	211.55
382.11	211.88
382.49	211.86
382.87	211.71
383.25	211.48
383.62	214.02
384.00	213.57
384.38	213.71
384.76	214.07
385.13	214.71
385.51	214.90
385.89	214.74
386.27	214.62
386.64	215.00
387.02	214.60
387.40	214.60
387.78	214.71
388.15	214.69
388.53	214.74
388.91	214.90
389.29	214.71
389.66	214.95
390.04	214.71
390.42	215.17
390.79	215.17
391.17	215.36
391.55	212.93
391.92	213.19
392.30	213.19
392.68	212.86
393.05	212.62
393.43	212.38
393.81	212.55
394.18	212.31
394.56	212.55
394.94	213.05
395.31	212.95
395.69	213.38
396.06	213.76
396.44	213.81
396.82	213.64
397.19	214.71
397.57	214.69
397.95	214.83
398.32	214.36
398.70	214.83
399.07	215.21
399.45	215.43
399.82	215.43
400.20	215.38
400.58	215.12
400.95	214.24
401.33	214.95
401.70	216.45
402.08	216.62
402.45	216.71
402.83	217.43
403.20	217.69
403.58	217.81
403.95	218.14
404.33	218.64
404.71	218.90
405.08	220.12
405.46	220.55
405.83	221.17
406.21	221.36
406.58	221.79
406.96	222.07
407.33	222.76
407.70	223.64
408.08	225.98
408.45	227.14
408.83	228.64
409.20	229.12
409.58	228.60
409.95	229.71
410.33	230.62
410.70	230.71
411.08	232.26
411.45	233.26
411.82	233.98
412.20	235.52
412.57	238.17
412.95	237.98
413.32	239.57
413.69	241.07
414.07	242.98
414.44	244.60
414.82	246.67
415.19	248.74
415.56	250.55
415.94	251.50
416.31	254.52
416.68	256.98
417.06	260.21
417.43	264.00
417.81	267.43
418.18	270.60
418.55	274.57
418.93	278.21
419.30	282.19
419.67	286.74
420.04	290.90
420.42	294.81
420.79	301.67
421.16	307.00
421.54	313.71
421.91	319.76
422.28	326.26
422.66	332.60
423.03	340.60
423.40	347.48
423.77	354.88
424.15	361.62
424.52	369.12
424.89	377.38
425.26	384.71
425.64	392.29
426.01	400.76
426.38	409.19
426.75	418.60
427.13	427.95
427.50	437.26
427.87	447.69
428.24	457.57
428.61	465.90
428.99	477.52
429.36	488.14
429.73	499.62
430.10	510.60
430.47	522.67
430.85	532.45
431.22	545.02
431.59	559.50
431.96	572.33
432.33	586.26
432.70	600.33
433.08	616.60
433.45	631.98
433.82	647.40
434.19	664.40
434.56	680.79
434.93	696.33
435.30	712.40
435.68	729.55
436.05	747.24
436.42	764.21
436.79	779.64
437.16	796.50
437.53	813.76
437.90	831.48
438.27	848.71
438.64	867.29
439.01	884.33
439.38	898.36
439.75	913.33
440.13	930.26
440.50	945.62
440.87	958.69
441.24	971.86
441.61	985.74
441.98	996.45
442.35	1008.88
442.72	1021.81
443.09	1035.21
443.46	1042.55
443.83	1047.55
444.20	1052.60
444.57	1058.52
444.94	1061.98
445.31	1066.17
445.68	1071.52
446.05	1072.38
446.42	1071.17
446.79	1070.17
447.16	1067.64
447.53	1065.88
447.90	1059.17
448.27	1052.26
448.64	1043.26
449.01	1037.05
449.37	1026.50
449.74	1015.81
450.11	1004.55
450.48	989.76
450.85	973.67
451.22	961.12
451.59	949.60
451.96	937.57
452.33	921.88
452.70	907.88
453.07	890.52
453.43	871.12
453.80	855.31
454.17	839.52
454.54	824.21
454.91	808.67
455.28	792.79
455.65	778.31
456.02	767.19
456.38	754.52
456.75	738.98
457.12	726.26
457.49	713.79
457.86	699.19
458.23	689.69
458.59	678.60
458.96	667.21
459.33	655.98
459.70	645.74
460.07	637.98
460.43	628.00
460.80	619.19
461.17	612.21
461.54	604.38
461.91	596.43
462.27	588.10
462.64	581.05
463.01	574.19
463.38	568.26
463.74	557.29
464.11	550.38
464.48	545.00
464.85	538.05
465.21	533.36
465.58	528.86
465.95	521.98
466.32	516.74
466.68	511.33
467.05	506.45
467.42	501.36
467.78	495.88
468.15	491.07
468.52	488.02
468.88	482.36
469.25	477.52
469.62	474.93
469.98	471.24
470.35	467.69
470.72	463.90
471.08	458.98
471.45	456.60
471.82	454.36
472.18	451.14
472.55	448.81
472.92	445.24
473.28	442.07
473.65	439.36
474.02	436.76
474.38	434.57
474.75	432.79
475.11	430.62
475.48	428.95
475.85	427.33
476.21	425.17
476.58	423.90
476.94	422.69
477.31	420.71
477.67	419.07
478.04	417.71
478.41	417.10
478.77	418.10
479.14	417.12
479.50	416.33
479.87	415.81
480.23	415.64
480.60	415.12
480.96	415.05
481.33	415.93
481.69	415.74
482.06	416.00
482.42	416.29
482.79	416.60
483.15	416.98
483.52	417.83
483.88	418.19
484.25	418.74
484.61	419.71
484.98	420.24
485.34	422.17
485.71	423.79
486.07	424.93
486.44	424.62
486.80	426.33
487.17	427.93
487.53	430.10
487.90	432.19
488.26	435.29
488.62	438.40
488.99	439.93
489.35	442.79
489.72	445.10
490.08	447.38
490.44	449.98
490.81	453.14
491.17	455.90
491.54	459.36
491.90	463.21
492.26	466.57
492.63	470.24
492.99	473.90
493.36	478.10
493.72	482.40
494.08	486.52
494.45	490.98
494.81	495.98
495.17	500.26
495.54	505.62
495.90	510.12
496.26	514.93
496.63	520.88
496.99	526.31
497.35	532.00
497.72	538.57
498.08	544.67
498.44	550.98
498.80	557.76
499.17	563.71
499.53	570.02
499.89	576.93
500.26	584.14
500.62	590.71
500.98	598.05
501.34	605.21
501.71	613.36
502.07	620.55
502.43	627.50
502.79	634.69
503.16	641.74
503.52	649.24
503.88	655.90
504.24	663.12
504.60	670.74
504.97	678.60
505.33	686.00
505.69	694.64
506.05	702.12
506.41	709.62
506.78	717.67
507.14	725.29
507.50	732.95
507.86	741.14
508.22	749.17
508.59	755.83
508.95	763.50
509.31	771.40
509.67	778.88
510.03	786.71
510.39	795.07
510.75	802.88
511.12	810.33
511.48	818.12
511.84	825.29
512.20	832.88
512.56	840.95
512.92	848.83
513.28	856.00
513.64	862.88
514.00	870.40
514.37	878.02
514.73	885.31
515.09	892.79
515.45	898.90
515.81	905.62
516.17	912.81
516.53	918.95
516.89	924.95
517.25	931.81
517.61	938.33
517.97	943.90
518.33	950.02
518.69	956.52
519.05	963.19
519.41	970.31
519.77	977.64
520.13	983.02
520.49	988.79
520.85	994.50
521.21	1001.40
521.57	1007.00
521.93	1012.33
522.29	1017.79
522.65	1023.12
523.01	1028.90
523.37	1033.93
523.73	1039.17
524.09	1044.52
524.45	1049.74
524.81	1054.86
525.17	1059.95
525.53	1065.12
525.89	1069.60
526.25	1074.55
526.61	1078.60
526.97	1082.62
527.33	1086.76
527.68	1093.24
528.04	1097.43
528.40	1101.24
528.76	1104.76
529.12	1109.48
529.48	1114.81
529.84	1118.90
530.20	1123.33
530.56	1127.81
530.91	1131.93
531.27	1135.86
531.63	1140.52
531.99	1143.52
532.35	1146.90
532.71	1150.36
533.07	1154.93
533.42	1161.36
533.78	1165.29
534.14	1169.95
534.50	1173.64
534.86	1177.45
535.21	1180.31
535.57	1184.64
535.93	1188.05
536.29	1192.62
536.65	1196.29
537.00	1198.64
537.36	1202.48
537.72	1205.36
538.08	1208.40
538.44	1211.24
538.79	1215.12
539.15	1218.36
539.51	1222.57
539.87	1226.93
540.22	1230.76
540.58	1233.12
540.94	1234.76
541.29	1237.52
541.65	1239.60
542.01	1243.43
542.37	1245.57
542.72	1246.50
543.08	1248.00
543.44	1251.64
543.79	1253.24
544.15	1255.93
544.51	1259.07
544.87	1261.83
545.22	1265.10
545.58	1267.74
545.94	1270.93
546.29	1273.38
546.65	1275.90
547.01	1278.14
547.36	1279.52
547.72	1281.57
548.07	1284.74
548.43	1286.33
548.79	1288.19
549.14	1290.76
549.50	1293.05
549.86	1295.00
550.21	1298.50
550.57	1301.76
550.92	1303.76
551.28	1307.90
551.64	1309.93
551.99	1312.38
552.35	1315.05
552.70	1317.19
553.06	1320.43
553.41	1323.33
553.77	1327.90
554.13	1331.40
554.48	1335.81
554.84	1340.83
555.19	1344.67
555.55	1349.45
555.90	1352.86
556.26	1357.07
556.61	1360.14
556.97	1362.86
557.32	1366.60
557.68	1369.90
558.03	1373.12
558.39	1377.33
558.74	1380.24
559.10	1383.93
559.45	1388.26
559.81	1392.88
560.16	1396.86
560.52	1400.33
560.87	1405.17
561.23	1406.98
561.58	1412.74
561.94	1415.14
562.29	1418.36
562.64	1423.12
563.00	1426.52
563.35	1431.52
563.71	1436.24
564.06	1441.43
564.42	1446.17
564.77	1452.24
565.12	1458.64
565.48	1466.21
565.83	1472.17
566.19	1477.62
566.54	1482.98
566.89	1488.24
567.25	1493.81
567.60	1500.95
567.96	1510.05
568.31	1516.36
568.66	1524.62
569.02	1528.45
569.37	1534.45
569.72	1540.12
570.08	1545.43
570.43	1549.90
570.78	1555.57
571.14	1561.64
571.49	1566.60
571.84	1572.79
572.20	1577.64
572.55	1582.14
572.90	1585.00
573.26	1589.02
573.61	1593.02
573.96	1598.29
574.31	1602.86
574.67	1606.88
575.02	1609.74
575.37	1610.67
575.72	1613.57
576.08	1616.26
576.43	1619.60
576.78	1623.60
577.13	1627.45
577.49	1630.60
577.84	1634.55
578.19	1638.14
578.54	1642.19
578.90	1648.29
579.25	1651.74
579.60	1654.76
579.95	1658.21
580.30	1662.52
580.66	1666.88
581.01	1670.50
581.36	1674.05
581.71	1677.69
582.06	1681.86
582.42	1686.17
582.77	1689.67
583.12	1693.86
583.47	1697.48
583.82	1701.86
584.17	1705.36
584.53	1709.62
584.88	1712.71
585.23	1716.69
585.58	1719.31
585.93	1721.71
586.28	1723.36
586.63	1726.71
586.98	1730.21
587.34	1733.55
587.69	1735.95
588.04	1738.64
588.39	1741.83
588.74	1742.90
589.09	1745.83
589.44	1747.12
589.79	1749.12
590.14	1752.45
590.49	1753.79
590.84	1754.86
591.19	1756.93
591.54	1759.17
591.89	1759.86
592.25	1764.02
592.60	1764.88
592.95	1766.60
593.30	1768.14
593.65	1769.00
594.00	1769.57
594.35	1776.31
594.70	1776.29
595.05	1777.21
595.40	1777.48
595.75	1779.10
596.10	1781.81
596.45	1782.93
596.80	1784.14
597.15	1785.64
597.50	1785.26
597.85	1787.43
598.19	1788.79
598.54	1788.69
598.89	1788.67
599.24	1789.29
599.59	1788.00
599.94	1789.12
600.29	1790.55
600.64	1790.52
600.99	1791.45
601.34	1792.31
601.69	1787.67
602.04	1787.81
602.39	1787.83
602.74	1788.50
603.08	1787.52
603.43	1787.64
603.78	1786.57
604.13	1786.10
604.48	1784.83
604.83	1785.05
605.18	1784.45
605.53	1784.19
605.87	1783.14
606.22	1782.50
606.57	1781.57
606.92	1780.14
607.27	1778.52
607.62	1776.52
607.96	1776.21
608.31	1775.07
608.66	1774.40
609.01	1772.31
609.36	1772.79
609.70	1770.76
610.05	1767.93
610.40	1767.10
610.75	1764.05
611.10	1762.36
611.44	1760.19
611.79	1757.76
612.14	1755.07
612.49	1750.69
612.83	1747.69
613.18	1745.43
613.53	1743.00
613.88	1740.05
614.22	1737.64
614.57	1734.29
614.92	1731.98
615.27	1728.21
615.61	1724.52
615.96	1720.67
616.31	1715.88
616.65	1712.71
617.00	1710.60
617.35	1708.05
617.70	1705.19
618.04	1702.60
618.39	1699.02
618.74	1695.52
619.08	1692.83
619.43	1690.12
619.78	1688.67
620.12	1684.86
620.47	1681.57
620.82	1677.07
621.16	1672.93
621.51	1669.88
621.85	1666.52
622.20	1662.69
622.55	1658.50
622.89	1655.55
623.24	1652.55
623.59	1650.14
623.93	1646.62
624.28	1642.43
624.62	1640.93
624.97	1637.90
625.32	1633.26
625.66	1629.98
626.01	1626.52
626.35	1622.93
626.70	1618.83
627.04	1614.57
627.39	1611.00
627.73	1608.26
628.08	1605.88
628.43	1603.00
628.77	1598.95
629.12	1595.69
629.46	1591.50
629.81	1588.21
630.15	1583.55
630.50	1577.93
630.84	1573.71
631.19	1567.95
631.53	1563.02
631.88	1555.81
632.22	1549.12
632.57	1546.36
632.91	1540.64
633.26	1536.69
633.60	1530.48
633.95	1524.71
634.29	1518.71
634.64	1513.83
634.98	1508.69
635.32	1504.21
635.67	1499.83
636.01	1495.02
636.36	1490.60
636.70	1486.88
637.05	1482.31
637.39	1477.93
637.73	1474.45
638.08	1470.69
638.42	1465.55
638.77	1462.12
639.11	1457.71
639.45	1453.24
639.80	1446.76
640.14	1442.90
640.49	1437.07
640.83	1432.26
641.17	1428.14
641.52	1424.07
641.86	1419.69
642.20	1413.71
642.55	1408.43
642.89	1403.33
643.23	1397.95
643.58	1392.83
643.92	1386.12
644.26	1379.83
644.61	1375.17
644.95	1369.43
645.29	1362.71
645.64	1357.98
645.98	1352.21
646.32	1347.43
646.66	1340.98
647.01	1335.43
647.35	1329.74
647.69	1324.60
648.04	1319.71
648.38	1314.52
648.72	1309.24
649.06	1303.38
649.41	1298.12
649.75	1291.95
650.09	1285.81
650.43	1279.40
650.78	1272.55
651.12	1266.83
651.46	1261.31
651.80	1254.57
652.14	1248.36
652.49	1243.02
652.83	1236.95
653.17	1230.40
653.51	1223.50
653.85	1218.21
654.20	1212.29
654.54	1205.71
654.88	1199.12
655.22	1194.00
655.56	1187.29
655.90	1180.38
656.25	1173.86
656.59	1167.21
656.93	1160.74
657.27	1155.31
657.61	1148.98
657.95	1144.19
658.29	1138.64
658.64	1133.67
658.98	1127.05
659.32	1120.62
659.66	1114.24
660.00	1107.69
660.34	1101.90
660.68	1096.29
661.02	1089.88
661.36	1083.93
661.70	1078.43
662.05	1072.60
662.39	1066.07
662.73	1060.45
663.07	1055.98
663.41	1050.40
663.75	1045.24
664.09	1040.26
664.43	1033.55
664.77	1028.24
665.11	1021.26
665.45	1014.90
665.79	1008.93
666.13	1003.57
666.47	998.10
666.81	992.64
667.15	987.50
667.49	982.07
667.83	976.52
668.17	971.43
668.51	965.69
668.85	959.88
669.19	955.98
669.53	949.90
669.87	944.14
670.21	937.38
670.55	932.19
670.89	927.48
671.23	921.83
671.57	916.98
671.91	911.62
672.25	907.00
672.58	902.90
672.92	897.29
673.26	892.26
673.60	887.33
673.94	882.36
674.28	877.10
674.62	871.64
674.96	866.62
675.30	861.48
675.64	857.24
675.97	852.60
676.31	846.60
676.65	841.74
676.99	837.48
677.33	832.36
677.67	827.50
678.01	822.00
678.34	817.43
678.68	812.83
679.02	807.86
679.36	802.62
679.70	796.57
680.04	791.57
680.37	786.76
680.71	781.98
681.05	777.76
681.39	773.02
681.73	768.48
682.06	763.52
682.40	759.48
682.74	755.19
683.08	750.67
683.42	745.38
683.75	740.67
684.09	735.57
684.43	731.02
684.77	725.74
685.10	721.10
685.44	715.83
685.78	710.10
686.12	705.69
686.45	700.76
686.79	696.40
687.13	692.10
687.46	687.60
687.80	683.00
688.14	678.00
688.48	673.83
688.81	669.57
689.15	665.55
689.49	660.24
689.82	654.83
690.16	649.10
690.50	644.98
690.83	640.43
691.17	635.48
691.51	631.48
691.84	627.48
692.18	623.00
692.52	619.00
692.85	616.02
693.19	612.43
693.52	608.21
693.86	603.52
694.20	598.64
694.53	594.07
694.87	589.90
695.21	584.95
695.54	580.76
695.88	575.81
696.21	570.88
696.55	567.26
696.88	563.52
697.22	560.21
697.56	556.64
697.89	552.83
698.23	549.26
698.56	544.90
698.90	541.24
699.23	536.90
699.57	533.26
699.90	529.05
700.24	524.79
700.58	521.19
700.91	518.17
701.25	516.79
701.58	513.90
701.92	510.76
702.25	507.67
702.59	504.10
702.92	501.33
703.26	498.93
703.59	495.81
703.93	494.14
704.26	490.83
704.60	487.19
704.93	484.14
705.26	481.29
705.60	478.86
705.93	475.33
706.27	473.19
706.60	470.74
706.94	468.43
707.27	465.19
707.61	462.50
707.94	459.52
708.27	454.43
708.61	451.17
708.94	448.07
709.28	445.79
709.61	443.31
709.94	440.57
710.28	437.45
710.61	434.45
710.95	430.31
711.28	429.31
711.61	426.95
711.95	424.88
712.28	422.12
712.61	419.26
712.95	417.88
713.28	416.00
713.61	413.12
713.95	409.83
714.28	407.88
714.61	405.76
714.95	403.52
715.28	401.52
715.61	399.19
715.95	397.05
716.28	394.36
716.61	391.88
716.95	389.33
717.28	386.88
717.61	384.71
717.94	382.52
718.28	378.90
718.61	376.62
718.94	374.29
719.27	372.36
719.61	370.21
719.94	367.26
720.27	364.40
720.60	361.93
720.94	360.38
721.27	358.60
721.60	357.29
721.93	355.50
722.27	354.38
722.60	352.93
722.93	350.76
723.26	349.14
723.59	346.86
723.93	345.64
724.26	344.55
724.59	342.98
724.92	341.38
725.25	340.93
725.59	339.40
725.92	338.07
726.25	336.45
726.58	335.55
726.91	334.67
727.24	333.43
727.57	332.55
727.91	330.71
728.24	329.52
728.57	327.57
728.90	326.52
729.23	324.50
729.56	324.00
729.89	323.33
730.22	322.05
730.55	321.14
730.89	319.60
731.22	318.00
731.55	316.71
731.88	315.83
732.21	313.62
732.54	312.74
732.87	311.60
733.20	310.86
733.53	309.71
733.86	308.67
734.19	307.57
734.52	306.64
734.85	307.05
735.18	305.57
735.51	305.24
735.84	304.43
736.17	304.14
736.50	302.38
736.83	303.29
737.16	302.40
737.49	301.88
737.82	301.02
738.15	300.38
738.48	299.62
738.81	298.52
739.14	297.43
739.47	296.05
739.80	294.86
740.13	294.07
740.46	292.74
740.79	291.52
741.12	290.67
741.45	289.60
741.78	287.50
742.11	287.10
742.44	285.64
742.77	284.86
743.10	283.52
743.43	282.50
743.75	279.57
744.08	281.05
744.41	279.98
744.74	279.17
745.07	277.88
745.40	277.31
745.73	277.05
746.06	276.48
746.39	276.07
746.71	274.95
747.04	273.79
747.37	273.00
747.70	272.60
748.03	271.79
748.36	271.05
748.68	270.69
749.01	269.38
749.34	268.76
749.67	267.95
750.00	267.71
750.33	268.29
750.65	267.86
750.98	265.07
751.31	264.40
751.64	263.79
751.97	264.67
752.29	263.81
752.62	262.40
752.95	261.74
753.28	261.00
753.60	260.57
753.93	260.74
754.26	260.64
754.59	259.36
754.91	258.45
755.24	257.76
755.57	256.88
755.90	256.55
756.22	255.83
756.55	255.05
756.88	253.98
757.20	252.17
757.53	251.33
757.86	250.62
758.19	249.93
758.51	249.45
758.84	247.64
759.17	246.98
759.49	246.71
759.82	247.21
760.15	246.93
760.47	246.50
760.80	245.31
761.13	244.90
761.45	244.52
761.78	244.40
762.11	243.93
762.43	243.69
762.76	243.38
763.08	243.31
763.41	243.00
763.74	242.95
764.06	242.55
764.39	241.93
764.71	241.52
765.04	241.12
765.37	240.50
765.69	240.02
766.02	239.60
766.34	239.12
766.67	238.05
767.00	238.12
767.32	238.62
767.65	239.57
767.97	238.86
768.30	238.90
768.62	238.24
768.95	237.76
769.27	237.17
769.60	236.93
769.92	236.29
770.25	235.64
770.57	234.98
770.90	234.79
771.22	234.67
771.55	234.62
771.87	234.55
772.20	234.33
772.52	235.98
772.85	238.64
773.17	238.31
773.50	237.86
773.82	237.14
774.15	236.19
774.47	234.52
774.80	234.14
775.12	233.67
775.45	233.55
775.77	233.45
776.09	233.48
776.42	233.33
776.74	233.88
777.07	233.52
777.39	233.19
777.72	232.79
778.04	232.76
778.36	232.50
778.69	232.19
779.01	232.17
779.33	230.38
779.66	227.50
779.98	227.40
780.31	227.31
780.63	228.02
780.95	228.07
781.28	228.17
781.60	227.93
781.92	228.10
782.25	227.90
782.57	227.90
782.89	227.50
783.22	227.19
783.54	226.31
783.86	226.43
784.19	226.21
784.51	226.76
784.83	226.24
785.16	226.02
785.48	226.07
785.80	225.90
786.12	226.07
786.45	226.02
786.77	225.88
787.09	225.69
787.42	224.83
787.74	225.02
788.06	224.95
788.38	224.88
788.71	224.50
789.03	224.50
789.35	224.81
789.67	224.33
789.99	224.12
790.32	223.74
790.64	223.86
790.96	225.48
791.28	224.71
791.61	224.62
791.93	224.48
792.25	224.24
792.57	225.64
792.89	224.98
793.21	224.88
793.54	224.74
793.86	224.62
794.18	224.88
794.50	224.38
794.82	224.29
795.14	224.67
795.47	224.86
795.79	224.83
796.11	224.17
796.43	224.45
796.75	224.40
797.07	224.60
797.39	224.50
797.71	223.10
798.04	223.17
798.36	223.12
798.68	222.86
799.00	222.93
799.32	221.52
799.64	221.95
799.96	222.07
800.28	222.48
800.60	222.36
800.92	221.98
801.24	221.83
801.56	221.79
801.89	221.48
802.21	221.52
802.53	221.24
802.85	221.69
803.17	222.38
803.49	222.36
803.81	222.19
804.13	222.12
804.45	221.88
804.77	222.19
805.09	222.26
805.41	222.24
805.73	221.95
806.05	221.67
806.37	221.33
806.69	221.02
807.01	220.86
807.33	220.93
807.65	220.48
807.97	221.40
808.28	221.12
808.60	220.88
808.92	220.52
809.24	221.69
809.56	221.26
809.88	220.50
810.20	220.26
810.52	220.64
810.84	220.19
811.16	219.79
811.48	219.60
811.80	220.43
812.12	220.24
812.43	220.48
812.75	220.76
813.07	220.48
813.39	220.60
813.71	220.02
814.03	219.69
814.35	219.67
814.67	218.57
814.98	218.62
815.30	218.71
815.62	218.24
815.94	216.88
816.26	216.76
816.58	216.31
816.89	216.40
817.21	215.79
817.53	215.93
817.85	216.24
818.17	215.74
818.48	214.71
818.80	215.12
819.12	214.74
819.44	213.90
819.76	213.64
820.07	213.55
820.39	213.67
820.71	213.93
821.03	213.98
821.34	213.95
821.66	214.05
821.98	214.14
822.30	214.26
822.61	215.60
822.93	215.38
823.25	215.33
823.57	215.17
823.88	215.60
824.20	215.57
824.52	215.71
824.83	215.88
825.15	215.64
825.47	215.55
825.79	215.76
826.10	215.95
826.42	216.14
826.74	216.21
827.05	216.12
827.37	216.12
827.69	215.76
828.00	215.88
828.32	215.79
828.64	215.55
828.95	216.57
829.27	215.95
829.58	216.10
829.90	216.45
830.22	216.76
830.53	216.33
830.85	216.00
831.17	215.62
831.48	215.45
831.80	215.55
832.11	215.45
832.43	215.31
832.75	215.31
833.06	216.38
833.38	216.02
833.69	216.00
834.01	215.90
834.32	216.14
834.64	216.00
834.96	216.12
835.27	215.95
835.59	215.21
835.90	214.55
836.22	214.29
836.53	214.05
836.85	213.76
837.16	215.64
837.48	215.83
837.79	216.48
838.11	216.88
838.42	216.95
838.74	217.00
839.05	216.69
839.37	216.74
839.68	215.76
840.00	215.52
840.31	216.12
840.63	216.07
840.94	215.81
841.26	215.62
841.57	215.57
841.88	216.10
842.20	215.95
842.51	216.02
842.83	216.45
843.14	218.38
843.46	218.24
843.77	217.43
844.08	217.33
844.40	216.55
844.71	216.31
845.03	216.19
845.34	216.21
845.65	216.24
845.97	216.29
846.28	216.12
846.60	216.21
846.91	215.45
847.22	215.50
847.54	215.81
847.85	215.98
848.16	215.71
848.48	215.02
848.79	215.62
849.10	215.71
849.42	215.36
849.73	213.21
850.04	212.95
850.36	212.05
850.67	212.29
850.98	212.43
851.30	212.71
851.61	212.40
851.92	212.55
852.23	213.07
852.55	213.17
852.86	213.45
853.17	213.69
853.49	214.21
853.80	214.57
854.11	214.74
854.42	214.81
854.74	214.43
855.05	214.62
855.36	213.74
855.67	213.71
855.99	213.95
856.30	216.52
856.61	216.81
856.92	216.71
857.23	216.64
857.55	216.71
857.86	216.48
858.17	216.86
858.48	216.33
858.79	215.98
859.11	216.00
859.42	215.60
859.73	215.45
860.04	215.31
860.35	214.71
860.66	214.17
860.98	214.12
861.29	214.64
861.60	214.55
861.91	215.29
862.22	215.00
862.53	214.69
862.84	212.26
863.16	212.74
863.47	212.55
863.78	212.52
864.09	212.48
864.40	212.57
864.71	212.57
865.02	212.86
865.33	212.60
865.64	212.19
865.95	212.21
866.27	213.19
866.58	212.83
866.89	213.14
867.20	213.17
867.51	212.90
867.82	212.86
868.13	213.60
868.44	212.83
868.75	213.29
869.06	213.55
869.37	213.79
869.68	213.07
869.99	213.31
870.30	213.36
870.61	213.71
870.92	213.19
871.23	213.00
871.54	213.21
871.85	213.64
872.16	213.98
872.47	213.83
872.78	212.79
873.09	213.14
873.40	212.76
873.71	212.88
874.02	213.10
874.33	212.71
874.64	211.98
874.95	212.43
875.26	212.00
875.56	211.83
875.87	211.76
876.18	211.90
876.49	213.95
876.80	213.83
877.11	213.24
877.42	213.40
877.73	213.67
878.04	213.26
878.35	213.33
878.66	213.33
878.96	213.29
879.27	213.45
879.58	213.24
879.89	213.31
880.20	214.02
880.51	214.10
880.82	214.26
881.12	214.52
881.43	214.12
881.74	213.95
882.05	213.74
882.36	213.88
882.67	214.12
882.97	211.88
883.28	211.79
883.59	211.86
883.90	212.17
884.21	212.40
884.51	212.17
884.82	211.88
885.13	211.86
885.44	212.17
885.74	212.02
886.05	212.17
886.36	212.12
886.67	211.40
886.98	212.12
887.28	212.33
887.59	212.29
887.90	212.36
888.20	212.55
888.51	213.10
888.82	212.81
889.13	212.81
889.43	214.52
889.74	214.40
890.05	214.40
890.35	214.07
890.66	213.62
890.97	213.67
891.28	213.52
891.58	213.67
891.89	213.64
892.20	213.40
892.50	213.26
892.81	213.36
893.12	213.45
893.42	212.36
893.73	212.40
894.04	212.43
894.34	212.67
894.65	212.43
894.95	211.98
895.26	212.12
895.57	212.95
895.87	211.02
896.18	211.60
896.48	211.48
896.79	211.71
897.10	212.02
897.40	212.14
897.71	212.45
898.01	212.21
898.32	212.00
898.63	212.24
898.93	212.29
899.24	212.26
899.54	212.14
899.85	212.17
900.15	212.02
900.46	212.12
900.76	212.36
901.07	212.26
901.38	212.40
901.68	212.55
901.99	211.71
902.29	212.00
902.60	211.55
902.90	211.55
903.21	211.45
903.51	211.33
903.82	211.81
904.12	211.64
904.43	211.79
904.73	211.86
905.03	211.81
905.34	213.86
905.64	213.86
905.95	213.79
906.25	214.02
906.56	213.93
906.86	213.95
907.17	213.71
907.47	213.90
907.77	213.81
908.08	213.55
908.38	213.60
908.69	213.67
908.99	214.02
909.30	214.05
909.60	214.00
909.90	214.24
910.21	213.74
910.51	213.55
910.81	213.62
911.12	213.76
911.42	213.79
911.73	211.45
912.03	211.64
912.33	212.12
912.64	211.90
912.94	211.48
913.24	211.17
913.55	211.10
913.85	211.02
914.15	211.48
914.46	211.45
914.76	210.88
915.06	210.81
915.37	210.55
915.67	210.48
915.97	210.48
916.27	209.93
916.58	210.02
916.88	209.86
917.18	209.76
917.49	211.31
917.79	211.24
918.09	211.67
918.39	212.05
918.70	211.90
919.00	211.86
919.30	213.07
919.60	212.88
919.91	212.57
920.21	212.86
920.51	212.21
920.81	212.21
921.12	212.95
921.42	212.83
921.72	212.98
922.02	213.14
922.32	213.36
922.63	213.29
922.93	214.36
923.23	214.67
923.53	214.38
923.83	212.83
924.13	213.14
924.44	213.10
924.74	213.14
925.04	213.64
925.34	213.79
925.64	213.00
925.94	213.14
926.24	214.14
926.55	213.62
926.85	214.12
927.15	214.05
927.45	213.98
927.75	214.02
928.05	214.12
928.35	213.90
928.65	214.43
928.95	214.69
929.26	213.83
929.56	214.19
929.86	214.76
930.16	214.86
930.46	214.48
930.76	214.45
931.06	213.81
931.36	213.12
931.66	213.45
931.96	213.62
932.26	213.69
932.56	212.98
932.86	213.29
933.16	213.07
933.46	213.02
933.76	212.79
934.06	213.12
934.36	213.69
934.66	213.88
934.96	213.43
935.26	213.50
935.56	213.64
935.86	212.90
936.16	212.36
936.46	211.95
936.76	212.00
937.06	211.62
937.36	211.52
937.66	211.81
937.96	211.52
938.26	211.31
938.56	211.24
938.86	211.36
939.16	211.79
939.46	212.17
939.76	212.21
940.06	212.17
940.35	211.76
940.65	210.60
940.95	210.62
941.25	210.26
941.55	210.12
941.85	210.24
942.15	210.93
942.45	211.36
942.75	211.38
943.04	211.50
943.34	212.17
943.64	212.10
943.94	211.67
944.24	211.69
944.54	211.50
944.84	211.45
945.13	211.14
945.43	210.64
945.73	210.52
946.03	210.57
946.33	210.29
946.62	210.26
946.92	210.40
947.22	210.64
947.52	210.69
947.82	210.86
948.11	210.38
948.41	209.88
948.71	209.26
949.01	209.48
949.31	209.14
949.60	208.69
949.90	208.93
950.20	208.74
950.50	208.88
950.79	209.05
951.09	209.24
951.39	209.26
951.69	209.17
951.98	209.50
952.28	209.62
952.58	209.88
952.87	209.93
953.17	209.95
953.47	209.64
953.76	209.52
954.06	209.31
954.36	209.00
954.66	208.95
954.95	209.71
955.25	209.93
955.55	210.40
955.84	210.31
956.14	210.64
956.44	211.00
956.73	210.79
957.03	210.98
957.32	211.10
957.62	211.00
957.92	211.55
958.21	211.07
958.51	213.26
958.81	213.29
959.10	213.40
959.40	214.05
959.69	214.24
959.99	214.69
960.29	214.55
960.58	214.71
960.88	215.52
961.17	215.21
961.47	215.29
961.76	214.86
962.06	215.38
962.36	215.10
962.65	215.19
962.95	215.07
963.24	214.69
963.54	214.62
963.83	214.57
964.13	214.33
964.42	214.00
964.72	212.29
965.01	212.29
965.31	212.43
965.60	211.81
965.90	213.12
966.19	212.62
966.49	213.05
966.78	213.02
967.08	212.93
967.37	213.05
967.67	212.67
967.96	213.26
968.26	213.14
968.55	213.21
968.85	213.05
969.14	213.12
969.43	213.02
969.73	212.76
970.02	212.81
970.32	212.93
970.61	212.86
970.91	212.38
971.20	212.17
971.49	211.74
971.79	212.10
972.08	210.79
972.38	210.93
972.67	210.62
972.96	210.90
973.26	210.38
973.55	210.90
973.85	210.88
974.14	210.52
974.43	210.67
974.73	210.31
975.02	210.12
975.31	210.10
975.61	210.31
975.90	210.17
976.19	210.33
976.49	210.36
976.78	210.62
977.07	210.50
977.37	210.64
977.66	211.12
977.95	210.98
978.24	210.69
978.54	211.07
978.83	211.05
979.12	210.81
979.42	210.88
979.71	210.45
980.00	210.38
980.29	210.40
980.59	209.76
980.88	210.33
981.17	210.21
981.46	210.26
981.76	210.29
982.05	211.31
982.34	211.12
982.63	211.05
982.93	211.12
983.22	211.83
983.51	211.88
983.80	211.98
984.09	212.24
984.39	212.24
984.68	212.24
984.97	212.31
985.26	212.26
985.55	212.45
985.85	211.90
986.14	212.29
986.43	212.60
986.72	212.67
987.01	212.21
987.30	212.33
987.59	212.17
987.89	212.24
988.18	211.14
988.47	211.19
988.76	210.83
989.05	210.57
989.34	210.17
989.63	210.52
989.92	210.10
990.22	209.79
990.51	209.74
990.80	209.40
991.09	209.69
991.38	209.86
991.67	209.62
991.96	209.71
992.25	209.71
992.54	209.38
992.83	209.48
993.12	209.55
993.41	209.93
993.70	210.83
993.99	211.21
994.28	211.57
994.58	211.79
994.87	211.62
995.16	211.90
995.45	211.79
995.74	211.29
996.03	211.71
996.32	212.02
996.61	212.64
996.90	212.55
997.19	212.48
997.48	212.62
997.77	212.38
998.06	212.48
998.34	212.21
998.63	212.21
998.92	212.14
999.21	212.26
999.50	212.26
999.79	211.43
1000.08	211.12
1000.37	211.21
1000.66	210.76
1000.95	211.60
1001.24	211.45
1001.53	211.50
1001.82	211.52
1002.11	210.95
1002.40	211.17
1002.68	211.69
1002.97	213.40
1003.26	213.02
1003.55	212.55
1003.84	212.81
1004.13	213.67
1004.42	213.64
1004.71	213.50
1004.99	213.38
1005.28	213.95
1005.57	213.64
1005.86	213.55
1006.15	213.24
1006.44	213.17
1006.72	213.74
1007.01	213.31
1007.30	213.36
1007.59	213.10
1007.88	212.95
1008.17	213.24
1008.45	212.93
1008.74	211.90
1009.03	210.86
1009.32	211.02
1009.60	211.07
1009.89	210.90
1010.18	210.07
1010.47	209.90
1010.76	209.79
1011.04	209.95
1011.33	209.93
1011.62	210.10
1011.91	210.29
1012.19	210.57
1012.48	210.21
1012.77	210.17
1013.05	210.95
1013.34	211.05
1013.63	211.02
1013.92	211.38
1014.20	211.00
1014.49	210.81
1014.78	210.90
1015.06	210.07
1015.35	209.93
1015.64	210.24
1015.92	210.60
1016.21	210.43
1016.50	210.57
1016.78	210.83
1017.07	210.86
1017.36	210.43
1017.64	210.26
1017.93	210.48
1018.22	210.40
1018.50	210.50
1018.79	210.31
1019.08	209.45
1019.36	209.45
1019.65	209.31
1019.93	209.60
1020.22	210.21
1020.51	211.12
1020.79	211.07
1021.08	209.50
1021.36	205.50
1021.65	210.50
1021.94	209.50
1022.22	212.00
1022.51	205.00
1022.79	219.50
1023.08	216.00
1023.36	231.00
1023.65	207.50
>>>>>End Processed Spectral Data<<<<<
