SpectraSuite Data File
++++++++++++++++++++++++++++++++++++
Date: Tue Apr 02 18:44:28 EDT 2013
User: group
Dark Spectrum Present: No
Reference Spectrum Present: No
Number of Sampled Component Spectra: 1
Spectrometers: USB2E7196
Integration Time (usec): 580000 (USB2E7196)
Spectra Averaged: 2 (USB2E7196)
Boxcar Smoothing: 10 (USB2E7196)
Correct for Electrical Dark: No (USB2E7196)
Strobe/Lamp Enabled: No (USB2E7196)
Correct for Detector Non-linearity: No (USB2E7196)
Correct for Stray Light: No (USB2E7196)
Number of Pixels in Processed Spectrum: 2048
>>>>>Begin Processed Spectral Data<<<<<
339.09	0.00
339.48	196.00
339.86	194.00
340.24	195.50
340.63	200.00
341.01	232.00
341.39	205.00
341.78	207.00
342.16	211.00
342.54	202.50
342.93	198.55
343.31	208.17
343.69	208.79
344.07	209.45
344.46	210.50
344.84	211.12
345.22	210.02
345.60	210.31
345.99	210.55
346.37	210.50
346.75	210.69
347.13	210.62
347.52	210.69
347.90	211.29
348.28	211.21
348.66	211.60
349.05	210.88
349.43	211.19
349.81	211.64
350.19	211.83
350.57	211.83
350.96	212.10
351.34	212.52
351.72	212.33
352.10	212.45
352.48	212.00
352.87	211.86
353.25	211.86
353.63	211.64
354.01	211.74
354.39	211.76
354.77	211.98
355.15	212.69
355.54	212.62
355.92	211.76
356.30	211.93
356.68	213.02
357.06	213.29
357.44	212.95
357.82	212.83
358.20	213.60
358.58	213.48
358.97	213.55
359.35	213.93
359.73	214.52
360.11	214.45
360.49	214.52
360.87	214.50
361.25	214.62
361.63	215.40
362.01	215.17
362.39	215.10
362.77	215.14
363.15	214.93
363.53	215.07
363.91	215.40
364.29	215.31
364.67	213.67
365.05	213.74
365.43	213.86
365.81	213.83
366.19	213.98
366.57	214.83
366.95	214.71
367.33	214.24
367.71	214.14
368.09	214.21
368.47	214.26
368.85	214.33
369.23	215.00
369.61	214.60
369.99	215.43
370.37	215.67
370.75	216.60
371.13	216.24
371.51	215.86
371.89	215.55
372.27	215.69
372.65	215.81
373.03	215.69
373.41	215.50
373.78	215.55
374.16	214.52
374.54	213.95
374.92	213.83
375.30	214.05
375.68	213.55
376.06	213.90
376.44	213.69
376.82	213.79
377.19	213.52
377.57	213.12
377.95	212.26
378.33	212.24
378.71	211.19
379.09	211.55
379.47	212.02
379.84	211.86
380.22	211.64
380.60	211.43
380.98	211.43
381.36	211.45
381.73	211.10
382.11	211.43
382.49	211.60
382.87	211.36
383.25	211.29
383.62	213.76
384.00	213.48
384.38	213.52
384.76	213.90
385.13	214.69
385.51	215.02
385.89	215.02
386.27	214.98
386.64	215.10
387.02	214.74
387.40	214.50
387.78	215.00
388.15	215.17
388.53	215.38
388.91	215.38
389.29	215.40
389.66	215.79
390.04	215.43
390.42	215.57
390.79	215.74
391.17	215.74
391.55	213.60
391.92	213.62
392.30	214.10
392.68	213.62
393.05	213.24
393.43	212.88
393.81	212.95
394.18	212.64
394.56	212.83
394.94	213.40
395.31	213.14
395.69	213.86
396.06	214.24
396.44	214.05
396.82	213.74
397.19	214.79
397.57	214.57
397.95	215.36
398.32	214.86
398.70	215.10
399.07	215.50
399.45	215.31
399.82	215.14
400.20	214.74
400.58	214.93
400.95	214.43
401.33	215.17
401.70	216.79
402.08	217.07
402.45	217.12
402.83	217.50
403.20	217.76
403.58	217.24
403.95	217.64
404.33	218.26
404.71	218.79
405.08	219.90
405.46	220.33
405.83	220.33
406.21	220.90
406.58	221.07
406.96	221.36
407.33	222.26
407.70	223.12
408.08	225.48
408.45	226.33
408.83	227.24
409.20	227.52
409.58	227.02
409.95	228.05
410.33	229.02
410.70	229.48
411.08	230.69
411.45	231.86
411.82	232.50
412.20	233.81
412.57	236.05
412.95	235.74
413.32	237.50
413.69	238.79
414.07	240.19
414.44	242.21
414.82	244.24
415.19	246.52
415.56	248.57
415.94	249.98
416.31	252.52
416.68	255.12
417.06	258.43
417.43	261.67
417.81	265.26
418.18	269.00
418.55	272.81
418.93	276.60
419.30	280.98
419.67	285.67
420.04	290.14
420.42	294.45
420.79	301.86
421.16	307.31
421.54	314.38
421.91	320.52
422.28	326.60
422.66	333.10
423.03	340.60
423.40	347.90
423.77	355.05
424.15	362.12
424.52	370.02
424.89	378.50
425.26	386.45
425.64	394.02
426.01	402.00
426.38	410.81
426.75	420.62
427.13	430.00
427.50	439.79
427.87	449.48
428.24	459.10
428.61	467.31
428.99	478.81
429.36	488.81
429.73	500.10
430.10	511.57
430.47	523.50
430.85	534.00
431.22	546.24
431.59	560.45
431.96	573.60
432.33	587.36
432.70	601.00
433.08	617.02
433.45	632.55
433.82	648.12
434.19	665.12
434.56	681.33
434.93	697.02
435.30	712.19
435.68	730.33
436.05	748.24
436.42	764.71
436.79	780.33
437.16	798.52
437.53	816.81
437.90	834.52
438.27	852.10
438.64	870.26
439.01	886.79
439.38	900.60
439.75	915.21
440.13	931.71
440.50	947.55
440.87	960.31
441.24	973.31
441.61	987.71
441.98	998.52
442.35	1010.45
442.72	1022.88
443.09	1036.79
443.46	1043.98
443.83	1048.86
444.20	1053.83
444.57	1059.52
444.94	1062.43
445.31	1065.98
445.68	1071.07
446.05	1072.07
446.42	1070.81
446.79	1070.60
447.16	1069.00
447.53	1068.36
447.90	1061.88
448.27	1055.76
448.64	1047.19
449.01	1041.14
449.37	1030.07
449.74	1018.86
450.11	1008.45
450.48	994.00
450.85	978.10
451.22	965.60
451.59	953.93
451.96	942.52
452.33	927.43
452.70	913.31
453.07	895.98
453.43	877.29
453.80	860.90
454.17	845.21
454.54	829.52
454.91	813.60
455.28	797.07
455.65	782.71
456.02	771.48
456.38	759.10
456.75	743.48
457.12	730.05
457.49	717.24
457.86	702.64
458.23	692.64
458.59	680.86
458.96	669.02
459.33	658.33
459.70	647.71
460.07	639.36
460.43	629.21
460.80	620.88
461.17	613.52
461.54	605.24
461.91	597.17
462.27	588.86
462.64	581.74
463.01	574.26
463.38	567.81
463.74	556.26
464.11	549.24
464.48	543.79
464.85	537.69
465.21	533.31
465.58	528.17
465.95	521.62
466.32	516.55
466.68	511.24
467.05	506.17
467.42	500.86
467.78	495.33
468.15	490.31
468.52	486.05
468.88	480.26
469.25	475.93
469.62	472.95
469.98	468.95
470.35	465.29
470.72	461.40
471.08	456.79
471.45	454.33
471.82	451.93
472.18	448.17
472.55	445.69
472.92	442.31
473.28	439.48
473.65	436.69
474.02	433.93
474.38	432.10
474.75	430.14
475.11	428.26
475.48	426.62
475.85	425.29
476.21	423.50
476.58	422.48
476.94	421.33
477.31	419.69
477.67	418.90
478.04	417.90
478.41	417.93
478.77	419.40
479.14	418.07
479.50	417.31
479.87	416.93
480.23	416.50
480.60	415.86
480.96	415.69
481.33	416.38
481.69	416.40
482.06	416.52
482.42	416.79
482.79	417.43
483.15	417.71
483.52	418.36
483.88	418.60
484.25	419.17
484.61	419.93
484.98	420.67
485.34	421.93
485.71	423.17
486.07	423.81
486.44	423.14
486.80	424.74
487.17	426.26
487.53	428.88
487.90	431.19
488.26	434.67
488.62	437.55
488.99	439.10
489.35	442.10
489.72	443.93
490.08	446.60
490.44	449.19
490.81	452.64
491.17	455.90
491.54	459.69
491.90	463.45
492.26	466.76
492.63	470.74
492.99	474.17
493.36	478.52
493.72	483.07
494.08	487.81
494.45	492.57
494.81	497.40
495.17	502.29
495.54	507.38
495.90	511.50
496.26	516.21
496.63	521.60
496.99	526.62
497.35	533.21
497.72	539.31
498.08	545.07
498.44	550.86
498.80	557.17
499.17	563.10
499.53	568.93
499.89	576.50
500.26	583.05
500.62	589.86
500.98	596.95
501.34	603.81
501.71	610.90
502.07	618.02
502.43	624.71
502.79	631.31
503.16	638.24
503.52	645.10
503.88	651.76
504.24	659.93
504.60	667.71
504.97	675.45
505.33	682.57
505.69	691.21
506.05	698.93
506.41	706.31
506.78	714.05
507.14	721.95
507.50	729.38
507.86	737.12
508.22	744.86
508.59	751.76
508.95	759.98
509.31	768.14
509.67	775.93
510.03	783.69
510.39	791.48
510.75	799.48
511.12	807.48
511.48	815.90
511.84	823.36
512.20	831.05
512.56	838.24
512.92	845.81
513.28	852.83
513.64	860.38
514.00	867.88
514.37	875.52
514.73	883.00
515.09	889.93
515.45	897.02
515.81	904.43
516.17	911.48
516.53	917.64
516.89	923.64
517.25	929.83
517.61	936.86
517.97	942.67
518.33	949.10
518.69	955.07
519.05	961.71
519.41	967.86
519.77	975.02
520.13	980.74
520.49	986.88
520.85	992.52
521.21	999.21
521.57	1004.79
521.93	1009.90
522.29	1015.17
522.65	1019.98
523.01	1026.24
523.37	1030.48
523.73	1035.57
524.09	1040.81
524.45	1046.12
524.81	1051.29
525.17	1055.90
525.53	1061.02
525.89	1065.00
526.25	1070.83
526.61	1074.60
526.97	1078.57
527.33	1082.45
527.68	1089.02
528.04	1092.71
528.40	1096.83
528.76	1099.86
529.12	1104.60
529.48	1109.14
529.84	1112.98
530.20	1118.05
530.56	1121.45
530.91	1126.60
531.27	1130.93
531.63	1135.26
531.99	1138.67
532.35	1142.10
532.71	1145.98
533.07	1150.57
533.42	1157.45
533.78	1161.02
534.14	1165.52
534.50	1169.17
534.86	1173.24
535.21	1174.60
535.57	1179.45
535.93	1182.74
536.29	1187.40
536.65	1191.21
537.00	1194.95
537.36	1198.83
537.72	1201.74
538.08	1205.43
538.44	1207.98
538.79	1211.50
539.15	1214.48
539.51	1218.40
539.87	1223.00
540.22	1227.19
540.58	1230.10
540.94	1231.26
541.29	1234.29
541.65	1236.29
542.01	1240.24
542.37	1242.57
542.72	1245.21
543.08	1247.12
543.44	1249.98
543.79	1251.48
544.15	1254.62
544.51	1257.64
544.87	1261.29
545.22	1264.71
545.58	1267.02
545.94	1269.45
546.29	1271.57
546.65	1274.31
547.01	1275.71
547.36	1277.93
547.72	1279.40
548.07	1282.40
548.43	1284.98
548.79	1286.98
549.14	1289.38
549.50	1291.71
549.86	1293.88
550.21	1297.26
550.57	1300.19
550.92	1302.71
551.28	1306.79
551.64	1308.86
551.99	1311.40
552.35	1313.29
552.70	1315.45
553.06	1319.26
553.41	1322.40
553.77	1327.57
554.13	1331.17
554.48	1336.17
554.84	1340.50
555.19	1344.17
555.55	1348.83
555.90	1352.45
556.26	1356.29
556.61	1360.83
556.97	1364.36
557.32	1368.83
557.68	1372.98
558.03	1377.36
558.39	1382.05
558.74	1385.55
559.10	1389.43
559.45	1394.17
559.81	1398.76
560.16	1403.14
560.52	1406.36
560.87	1411.29
561.23	1414.24
561.58	1420.26
561.94	1424.19
562.29	1427.98
562.64	1433.43
563.00	1436.57
563.35	1441.60
563.71	1447.21
564.06	1452.26
564.42	1457.05
564.77	1462.36
565.12	1468.05
565.48	1475.55
565.83	1481.21
566.19	1487.21
566.54	1492.93
566.89	1498.00
567.25	1504.93
567.60	1512.19
567.96	1520.45
568.31	1527.81
568.66	1534.60
569.02	1538.83
569.37	1544.50
569.72	1549.86
570.08	1554.48
570.43	1560.07
570.78	1565.31
571.14	1570.74
571.49	1576.45
571.84	1583.19
572.20	1588.40
572.55	1592.69
572.90	1595.45
573.26	1600.62
573.61	1604.57
573.96	1609.76
574.31	1614.60
574.67	1617.67
575.02	1620.74
575.37	1622.19
575.72	1624.69
576.08	1627.90
576.43	1631.24
576.78	1635.38
577.13	1639.31
577.49	1643.33
577.84	1647.12
578.19	1650.79
578.54	1654.60
578.90	1658.57
579.25	1661.24
579.60	1663.62
579.95	1667.21
580.30	1670.26
580.66	1673.93
581.01	1677.69
581.36	1680.55
581.71	1684.00
582.06	1688.29
582.42	1692.43
582.77	1696.52
583.12	1700.14
583.47	1703.40
583.82	1706.71
584.17	1709.69
584.53	1713.71
584.88	1716.76
585.23	1719.93
585.58	1722.31
585.93	1724.60
586.28	1725.83
586.63	1729.17
586.98	1732.71
587.34	1735.86
587.69	1738.36
588.04	1740.98
588.39	1743.50
588.74	1744.69
589.09	1747.05
589.44	1747.52
589.79	1748.98
590.14	1751.38
590.49	1752.74
590.84	1754.24
591.19	1756.67
591.54	1758.88
591.89	1758.98
592.25	1762.76
592.60	1764.48
592.95	1766.69
593.30	1768.17
593.65	1769.86
594.00	1770.60
594.35	1777.19
594.70	1777.88
595.05	1779.74
595.40	1779.40
595.75	1779.86
596.10	1782.45
596.45	1782.93
596.80	1784.52
597.15	1785.69
597.50	1785.74
597.85	1787.38
598.19	1788.48
598.54	1788.29
598.89	1788.76
599.24	1790.81
599.59	1789.90
599.94	1789.81
600.29	1789.60
600.64	1789.43
600.99	1789.50
601.34	1789.69
601.69	1783.86
602.04	1782.95
602.39	1782.21
602.74	1782.79
603.08	1782.17
603.43	1782.69
603.78	1782.55
604.13	1781.95
604.48	1779.83
604.83	1779.45
605.18	1778.95
605.53	1778.00
605.87	1777.40
606.22	1776.31
606.57	1774.29
606.92	1772.36
607.27	1771.86
607.62	1771.74
607.96	1770.57
608.31	1770.14
608.66	1768.95
609.01	1767.86
609.36	1767.69
609.70	1766.10
610.05	1763.48
610.40	1762.48
610.75	1758.50
611.10	1756.07
611.44	1753.74
611.79	1752.12
612.14	1749.83
612.49	1746.40
612.83	1743.62
613.18	1740.38
613.53	1736.95
613.88	1732.79
614.22	1729.17
614.57	1724.50
614.92	1719.74
615.27	1716.81
615.61	1712.62
615.96	1708.26
616.31	1704.48
616.65	1701.71
617.00	1698.95
617.35	1697.33
617.70	1693.55
618.04	1690.79
618.39	1687.21
618.74	1683.83
619.08	1680.38
619.43	1677.29
619.78	1674.19
620.12	1670.76
620.47	1667.64
620.82	1663.62
621.16	1660.74
621.51	1658.33
621.85	1654.71
622.20	1651.26
622.55	1646.64
622.89	1643.29
623.24	1640.74
623.59	1637.14
623.93	1631.95
624.28	1627.64
624.62	1624.38
624.97	1621.67
625.32	1617.24
625.66	1613.17
626.01	1608.69
626.35	1605.12
626.70	1600.52
627.04	1596.40
627.39	1592.81
627.73	1589.36
628.08	1585.69
628.43	1581.69
628.77	1577.36
629.12	1574.02
629.46	1570.76
629.81	1567.24
630.15	1563.19
630.50	1557.52
630.84	1552.79
631.19	1548.19
631.53	1543.62
631.88	1535.95
632.22	1529.05
632.57	1525.26
632.91	1520.93
633.26	1516.62
633.60	1511.24
633.95	1506.67
634.29	1501.26
634.64	1497.26
634.98	1491.88
635.32	1487.24
635.67	1482.93
636.01	1478.26
636.36	1472.74
636.70	1467.86
637.05	1463.38
637.39	1458.60
637.73	1454.79
638.08	1451.48
638.42	1447.05
638.77	1442.52
639.11	1438.76
639.45	1435.64
639.80	1430.17
640.14	1424.57
640.49	1419.90
640.83	1414.45
641.17	1408.83
641.52	1403.88
641.86	1397.48
642.20	1393.38
642.55	1388.14
642.89	1383.31
643.23	1377.29
643.58	1373.33
643.92	1366.76
644.26	1360.29
644.61	1355.76
644.95	1349.62
645.29	1342.93
645.64	1337.43
645.98	1331.81
646.32	1327.00
646.66	1319.69
647.01	1313.05
647.35	1308.24
647.69	1302.33
648.04	1297.83
648.38	1292.50
648.72	1287.12
649.06	1280.69
649.41	1273.93
649.75	1267.43
650.09	1261.55
650.43	1255.83
650.78	1248.86
651.12	1243.12
651.46	1237.38
651.80	1230.29
652.14	1224.57
652.49	1218.55
652.83	1211.81
653.17	1204.60
653.51	1197.45
653.85	1192.24
654.20	1186.19
654.54	1179.07
654.88	1171.60
655.22	1165.31
655.56	1158.98
655.90	1152.67
656.25	1146.38
656.59	1139.48
656.93	1134.02
657.27	1127.93
657.61	1121.05
657.95	1115.26
658.29	1108.79
658.64	1103.21
658.98	1096.45
659.32	1088.76
659.66	1082.62
660.00	1076.90
660.34	1071.12
660.68	1064.95
661.02	1058.40
661.36	1052.60
661.70	1046.71
662.05	1040.95
662.39	1034.21
662.73	1028.62
663.07	1022.81
663.41	1017.05
663.75	1011.05
664.09	1004.55
664.43	997.17
664.77	991.62
665.11	984.83
665.45	979.26
665.79	972.76
666.13	967.02
666.47	961.52
666.81	955.71
667.15	949.43
667.49	943.69
667.83	938.81
668.17	932.90
668.51	927.62
668.85	921.95
669.19	917.90
669.53	911.50
669.87	905.40
670.21	899.12
670.55	893.69
670.89	889.43
671.23	884.19
671.57	879.36
671.91	873.40
672.25	868.21
672.58	863.50
672.92	857.81
673.26	852.60
673.60	847.88
673.94	842.19
674.28	837.71
674.62	833.64
674.96	827.64
675.30	822.71
675.64	816.86
675.97	811.67
676.31	805.45
676.65	800.67
676.99	796.29
677.33	791.62
677.67	786.52
678.01	780.79
678.34	776.00
678.68	771.43
679.02	766.62
679.36	761.79
679.70	756.02
680.04	751.79
680.37	746.50
680.71	741.55
681.05	737.24
681.39	731.98
681.73	726.07
682.06	721.48
682.40	716.64
682.74	712.83
683.08	708.95
683.42	704.19
683.75	700.55
684.09	694.93
684.43	690.05
684.77	684.98
685.10	680.43
685.44	675.43
685.78	670.64
686.12	666.12
686.45	661.50
686.79	657.10
687.13	652.83
687.46	648.48
687.80	644.81
688.14	640.05
688.48	635.81
688.81	631.52
689.15	627.88
689.49	623.64
689.82	618.88
690.16	613.55
690.50	609.14
690.83	604.48
691.17	600.29
691.51	596.14
691.84	592.79
692.18	588.33
692.52	584.40
692.85	580.90
693.19	578.05
693.52	574.36
693.86	569.76
694.20	565.52
694.53	562.05
694.87	557.74
695.21	553.62
695.54	549.55
695.88	545.76
696.21	541.10
696.55	537.26
696.88	533.60
697.22	529.90
697.56	526.67
697.89	522.60
698.23	519.02
698.56	514.79
698.90	510.98
699.23	507.55
699.57	504.10
699.90	499.90
700.24	495.69
700.58	492.19
700.91	489.88
701.25	488.12
701.58	485.48
701.92	482.29
702.25	479.36
702.59	475.95
702.92	472.64
703.26	469.76
703.59	466.60
703.93	465.57
704.26	463.24
704.60	460.29
704.93	457.62
705.26	454.93
705.60	452.86
705.93	449.69
706.27	447.69
706.60	445.33
706.94	443.52
707.27	440.60
707.61	437.90
707.94	434.50
708.27	430.10
708.61	426.57
708.94	424.24
709.28	421.81
709.61	419.40
709.94	417.31
710.28	414.86
710.61	412.38
710.95	407.62
711.28	406.40
711.61	404.31
711.95	402.43
712.28	399.57
712.61	397.07
712.95	396.29
713.28	394.71
713.61	392.07
713.95	388.98
714.28	387.02
714.61	384.86
714.95	383.12
715.28	380.95
715.61	379.07
715.95	377.17
716.28	374.76
716.61	373.40
716.95	371.10
717.28	369.05
717.61	367.24
717.94	365.48
718.28	361.86
718.61	359.57
718.94	356.95
719.27	355.38
719.61	353.81
719.94	351.02
720.27	347.90
720.60	345.71
720.94	344.19
721.27	342.29
721.60	340.88
721.93	339.19
722.27	338.36
722.60	336.74
722.93	334.64
723.26	333.21
723.59	330.98
723.93	329.36
724.26	327.95
724.59	326.71
724.92	325.60
725.25	324.93
725.59	323.74
725.92	323.33
726.25	322.19
726.58	320.93
726.91	319.76
727.24	319.02
727.57	318.14
727.91	316.69
728.24	315.71
728.57	314.19
728.90	313.29
729.23	311.55
729.56	311.71
729.89	310.81
730.22	309.52
730.55	308.29
730.89	307.50
731.22	306.40
731.55	305.21
731.88	304.36
732.21	303.00
732.54	301.83
732.87	300.26
733.20	299.29
733.53	298.36
733.86	297.40
734.19	296.12
734.52	295.43
734.85	295.76
735.18	294.88
735.51	294.95
735.84	294.19
736.17	293.83
736.50	291.79
736.83	293.24
737.16	292.64
737.49	292.48
737.82	291.52
738.15	290.81
738.48	289.74
738.81	288.62
739.14	287.98
739.47	287.24
739.80	286.40
740.13	285.90
740.46	284.71
740.79	283.74
741.12	282.86
741.45	281.76
741.78	279.71
742.11	279.29
742.44	277.83
742.77	277.26
743.10	276.14
743.43	275.29
743.75	272.21
744.08	274.12
744.41	272.67
744.74	272.00
745.07	270.98
745.40	270.81
745.73	270.88
746.06	269.88
746.39	269.21
746.71	268.52
747.04	267.26
747.37	266.67
747.70	266.17
748.03	265.60
748.36	265.33
748.68	264.83
749.01	263.62
749.34	262.74
749.67	261.95
750.00	261.86
750.33	262.57
750.65	262.40
750.98	259.19
751.31	258.93
751.64	258.19
751.97	258.74
752.29	258.05
752.62	256.81
752.95	256.29
753.28	255.64
753.60	255.10
753.93	255.31
754.26	255.00
754.59	254.05
754.91	253.31
755.24	252.69
755.57	252.19
755.90	251.57
756.22	251.26
756.55	250.29
756.88	249.29
757.20	247.60
757.53	246.40
757.86	245.95
758.19	245.55
758.51	245.24
758.84	243.67
759.17	242.93
759.49	242.60
759.82	243.10
760.15	242.90
760.47	242.40
760.80	241.24
761.13	241.00
761.45	240.55
761.78	240.50
762.11	240.05
762.43	239.74
762.76	239.50
763.08	239.45
763.41	239.67
763.74	239.74
764.06	239.38
764.39	239.17
764.71	238.79
765.04	238.38
765.37	237.83
765.69	237.52
766.02	237.24
766.34	236.38
766.67	235.24
767.00	235.31
767.32	236.07
767.65	237.17
767.97	236.74
768.30	236.67
768.62	236.14
768.95	235.86
769.27	235.45
769.60	235.55
769.92	234.98
770.25	234.07
770.57	232.90
770.90	232.76
771.22	232.36
771.55	232.40
771.87	232.33
772.20	232.50
772.52	233.98
772.85	236.60
773.17	237.02
773.50	236.86
773.82	236.31
774.15	235.24
774.47	233.76
774.80	233.38
775.12	233.17
775.45	232.98
775.77	232.86
776.09	232.71
776.42	232.52
776.74	232.86
777.07	232.60
777.39	232.83
777.72	232.21
778.04	232.36
778.36	231.79
778.69	231.67
779.01	231.24
779.33	229.45
779.66	226.64
779.98	226.07
780.31	226.17
780.63	226.81
780.95	227.14
781.28	227.14
781.60	226.95
781.92	226.64
782.25	226.40
782.57	226.19
782.89	226.02
783.22	225.60
783.54	224.81
783.86	224.98
784.19	224.60
784.51	225.19
784.83	224.69
785.16	224.74
785.48	224.74
785.80	224.90
786.12	225.02
786.45	224.76
786.77	225.02
787.09	224.48
787.42	223.67
787.74	223.38
788.06	223.14
788.38	222.88
788.71	222.69
789.03	222.88
789.35	222.95
789.67	222.52
789.99	222.69
790.32	222.76
790.64	222.88
790.96	224.71
791.28	224.02
791.61	224.00
791.93	223.83
792.25	223.45
792.57	224.60
792.89	224.02
793.21	224.17
793.54	223.79
793.86	223.57
794.18	223.48
794.50	223.12
794.82	223.05
795.14	223.40
795.47	223.95
795.79	223.60
796.11	223.12
796.43	223.07
796.75	222.88
797.07	222.60
797.39	222.40
797.71	220.93
798.04	221.07
798.36	221.19
798.68	221.19
799.00	221.40
799.32	219.90
799.64	220.12
799.96	220.00
800.28	220.36
800.60	220.05
800.92	220.02
801.24	219.71
801.56	219.79
801.89	219.19
802.21	219.26
802.53	218.93
802.85	219.31
803.17	220.26
803.49	219.90
803.81	219.74
804.13	219.57
804.45	219.19
804.77	219.07
805.09	219.07
805.41	218.83
805.73	218.29
806.05	218.10
806.37	218.00
806.69	217.83
807.01	217.64
807.33	218.02
807.65	217.64
807.97	218.71
808.28	218.55
808.60	218.67
808.92	218.07
809.24	219.52
809.56	218.83
809.88	218.05
810.20	218.31
810.52	218.64
810.84	218.12
811.16	217.90
811.48	218.00
811.80	218.64
812.12	218.55
812.43	219.17
812.75	219.33
813.07	219.21
813.39	219.17
813.71	218.64
814.03	218.43
814.35	218.21
814.67	217.17
814.98	217.12
815.30	217.07
815.62	216.79
815.94	215.21
816.26	215.64
816.58	215.10
816.89	214.98
817.21	214.62
817.53	215.07
817.85	215.19
818.17	214.98
818.48	214.07
818.80	214.26
819.12	213.62
819.44	213.00
819.76	212.57
820.07	212.67
820.39	212.76
820.71	212.71
821.03	212.50
821.34	212.43
821.66	212.67
821.98	212.88
822.30	212.76
822.61	214.10
822.93	213.83
823.25	213.93
823.57	213.48
823.88	213.86
824.20	213.64
824.52	214.00
824.83	213.79
825.15	213.55
825.47	213.48
825.79	213.79
826.10	213.79
826.42	214.00
826.74	214.17
827.05	213.98
827.37	214.17
827.69	214.33
828.00	214.38
828.32	214.21
828.64	213.98
828.95	215.21
829.27	214.48
829.58	214.60
829.90	215.00
830.22	215.33
830.53	214.93
830.85	214.90
831.17	214.36
831.48	214.52
831.80	214.55
832.11	214.67
832.43	214.36
832.75	214.48
833.06	215.48
833.38	215.02
833.69	215.29
834.01	215.40
834.32	215.43
834.64	215.38
834.96	215.45
835.27	215.40
835.59	214.62
835.90	214.38
836.22	214.26
836.53	213.93
836.85	213.86
837.16	215.71
837.48	215.83
837.79	216.17
838.11	216.24
838.42	216.29
838.74	216.45
839.05	216.33
839.37	216.40
839.68	215.50
840.00	215.26
840.31	215.19
840.63	214.93
840.94	214.83
841.26	214.64
841.57	214.43
841.88	214.67
842.20	214.33
842.51	214.24
842.83	214.17
843.14	216.00
843.46	216.02
843.77	215.00
844.08	214.83
844.40	214.17
844.71	214.10
845.03	214.02
845.34	213.71
845.65	213.69
845.97	213.60
846.28	213.31
846.60	213.52
846.91	213.43
847.22	213.40
847.54	213.83
847.85	214.17
848.16	214.19
848.48	213.71
848.79	214.79
849.10	214.88
849.42	215.10
849.73	213.05
850.04	212.93
850.36	212.14
850.67	212.69
850.98	213.05
851.30	213.10
851.61	213.33
851.92	213.40
852.23	214.17
852.55	214.48
852.86	214.88
853.17	215.17
853.49	215.38
853.80	215.76
854.11	215.76
854.42	216.02
854.74	215.79
855.05	216.02
855.36	214.90
855.67	215.10
855.99	214.90
856.30	217.45
856.61	217.48
856.92	217.67
857.23	217.52
857.55	217.33
857.86	217.31
858.17	217.50
858.48	217.10
858.79	216.60
859.11	216.71
859.42	216.40
859.73	215.98
860.04	215.90
860.35	215.17
860.66	214.69
860.98	214.64
861.29	214.88
861.60	214.81
861.91	215.05
862.22	214.64
862.53	214.40
862.84	211.81
863.16	212.40
863.47	212.31
863.78	212.07
864.09	212.21
864.40	212.26
864.71	212.12
865.02	212.60
865.33	212.24
865.64	211.71
865.95	211.74
866.27	212.83
866.58	212.79
866.89	212.95
867.20	212.88
867.51	212.12
867.82	211.90
868.13	212.31
868.44	212.12
868.75	212.52
869.06	212.69
869.37	213.12
869.68	212.55
869.99	212.71
870.30	212.93
870.61	213.10
870.92	212.79
871.23	212.86
871.54	213.10
871.85	213.88
872.16	214.29
872.47	214.19
872.78	213.00
873.09	213.29
873.40	213.36
873.71	213.69
874.02	214.05
874.33	214.07
874.64	213.69
874.95	213.98
875.26	213.40
875.56	213.62
875.87	213.38
876.18	213.21
876.49	215.33
876.80	214.93
877.11	214.50
877.42	214.48
877.73	214.31
878.04	213.98
878.35	213.76
878.66	213.60
878.96	213.48
879.27	213.86
879.58	213.60
879.89	213.55
880.20	214.14
880.51	213.95
880.82	213.83
881.12	213.81
881.43	213.31
881.74	213.10
882.05	212.69
882.36	212.95
882.67	213.21
882.97	210.83
883.28	210.81
883.59	210.81
883.90	211.36
884.21	211.60
884.51	211.50
884.82	211.26
885.13	211.19
885.44	211.29
885.74	211.29
886.05	210.95
886.36	210.90
886.67	209.88
886.98	211.12
887.28	211.38
887.59	211.57
887.90	211.88
888.20	211.93
888.51	212.48
888.82	212.02
889.13	212.12
889.43	213.69
889.74	213.74
890.05	213.88
890.35	213.60
890.66	213.38
890.97	213.10
891.28	212.71
891.58	212.95
891.89	212.88
892.20	212.55
892.50	212.69
892.81	212.64
893.12	212.64
893.42	211.83
893.73	211.90
894.04	211.74
894.34	211.69
894.65	211.74
894.95	211.33
895.26	211.52
895.57	212.69
895.87	210.90
896.18	211.21
896.48	211.14
896.79	211.00
897.10	211.10
897.40	211.17
897.71	211.50
898.01	211.21
898.32	211.26
898.63	211.19
898.93	211.29
899.24	211.33
899.54	211.33
899.85	211.02
900.15	211.02
900.46	211.21
900.76	211.43
901.07	211.40
901.38	211.52
901.68	211.88
901.99	210.62
902.29	210.98
902.60	210.67
902.90	210.81
903.21	210.76
903.51	210.60
903.82	211.17
904.12	211.29
904.43	211.67
904.73	211.79
905.03	212.02
905.34	213.98
905.64	213.88
905.95	213.88
906.25	213.71
906.56	213.55
906.86	213.55
907.17	213.21
907.47	213.36
907.77	213.26
908.08	212.74
908.38	212.86
908.69	213.02
908.99	213.50
909.30	213.48
909.60	213.43
909.90	213.79
910.21	213.26
910.51	213.07
910.81	212.81
911.12	212.81
911.42	212.93
911.73	210.90
912.03	211.12
912.33	211.62
912.64	211.86
912.94	211.86
913.24	211.45
913.55	211.55
913.85	211.45
914.15	211.95
914.46	212.21
914.76	211.79
915.06	211.40
915.37	210.79
915.67	210.62
915.97	210.69
916.27	210.21
916.58	210.17
916.88	209.86
917.18	209.79
917.49	211.26
917.79	211.10
918.09	211.45
918.39	211.86
918.70	211.60
919.00	211.57
919.30	212.55
919.60	212.57
919.91	212.43
920.21	212.69
920.51	212.07
920.81	211.88
921.12	212.29
921.42	212.38
921.72	212.69
922.02	212.95
922.32	213.38
922.63	213.31
922.93	214.43
923.23	214.69
923.53	214.52
923.83	213.07
924.13	213.17
924.44	213.05
924.74	213.38
925.04	213.81
925.34	213.76
925.64	212.98
925.94	213.05
926.24	214.26
926.55	214.14
926.85	214.52
927.15	214.64
927.45	214.81
927.75	214.81
928.05	214.83
928.35	214.62
928.65	214.88
928.95	215.14
929.26	214.29
929.56	214.62
929.86	214.98
930.16	214.67
930.46	214.55
930.76	214.50
931.06	213.76
931.36	213.33
931.66	213.48
931.96	213.48
932.26	213.36
932.56	212.52
932.86	212.69
933.16	212.62
933.46	212.52
933.76	212.05
934.06	212.60
934.36	213.17
934.66	213.21
934.96	212.90
935.26	212.93
935.56	213.33
935.86	212.76
936.16	212.36
936.46	212.55
936.76	212.52
937.06	212.05
937.36	212.00
937.66	212.12
937.96	212.19
938.26	211.76
938.56	211.76
938.86	211.88
939.16	212.19
939.46	212.45
939.76	212.48
940.06	212.52
940.35	211.90
940.65	211.19
940.95	211.24
941.25	210.67
941.55	210.40
941.85	210.10
942.15	210.71
942.45	211.50
942.75	211.38
943.04	211.69
943.34	212.29
943.64	212.07
943.94	211.76
944.24	211.67
944.54	211.81
944.84	211.81
945.13	211.31
945.43	210.98
945.73	210.69
946.03	210.57
946.33	210.48
946.62	210.40
946.92	210.31
947.22	210.55
947.52	210.76
947.82	211.19
948.11	210.95
948.41	210.38
948.71	209.69
949.01	209.95
949.31	209.67
949.60	209.31
949.90	209.74
950.20	209.79
950.50	209.74
950.79	209.52
951.09	209.83
951.39	209.90
951.69	209.48
951.98	210.00
952.28	210.12
952.58	209.98
952.87	210.02
953.17	210.40
953.47	210.12
953.76	210.21
954.06	209.64
954.36	209.60
954.66	209.64
954.95	210.33
955.25	210.38
955.55	210.38
955.84	210.26
956.14	210.45
956.44	210.48
956.73	210.19
957.03	210.60
957.32	210.67
957.62	210.71
957.92	211.17
958.21	210.83
958.51	213.38
958.81	213.83
959.10	214.05
959.40	214.07
959.69	214.14
959.99	214.26
960.29	214.38
960.58	214.24
960.88	215.10
961.17	214.74
961.47	214.90
961.76	214.74
962.06	214.98
962.36	214.69
962.65	214.69
962.95	214.76
963.24	214.40
963.54	214.21
963.83	214.24
964.13	214.31
964.42	213.67
964.72	211.67
965.01	211.76
965.31	211.40
965.60	211.19
965.90	212.38
966.19	212.17
966.49	212.24
966.78	212.38
967.08	212.26
967.37	212.19
967.67	211.86
967.96	212.31
968.26	212.43
968.55	212.79
968.85	212.79
969.14	212.71
969.43	212.76
969.73	212.64
970.02	212.55
970.32	212.43
970.61	212.31
970.91	211.71
971.20	211.36
971.49	211.52
971.79	211.90
972.08	210.64
972.38	210.52
972.67	210.52
972.96	210.83
973.26	210.14
973.55	211.10
973.85	211.21
974.14	210.88
974.43	210.93
974.73	210.43
975.02	210.38
975.31	210.31
975.61	210.33
975.90	210.14
976.19	209.83
976.49	209.95
976.78	210.36
977.07	210.57
977.37	210.62
977.66	210.67
977.95	210.14
978.24	210.19
978.54	210.83
978.83	210.76
979.12	210.40
979.42	210.57
979.71	209.76
980.00	209.52
980.29	209.76
980.59	209.55
980.88	210.21
981.17	210.05
981.46	210.33
981.76	210.52
982.05	211.24
982.34	211.62
982.63	211.60
982.93	211.76
983.22	212.29
983.51	212.33
983.80	212.31
984.09	212.74
984.39	212.52
984.68	212.21
984.97	212.29
985.26	212.12
985.55	212.24
985.85	211.83
986.14	212.17
986.43	212.38
986.72	212.21
987.01	211.33
987.30	211.33
987.59	211.14
987.89	210.98
988.18	210.36
988.47	210.17
988.76	210.02
989.05	209.98
989.34	209.55
989.63	210.07
989.92	210.24
990.22	209.79
990.51	209.93
990.80	209.67
991.09	209.74
991.38	210.02
991.67	209.93
991.96	209.88
992.25	209.79
992.54	209.29
992.83	209.33
993.12	209.17
993.41	209.55
993.70	210.33
993.99	210.71
994.28	210.98
994.58	211.29
994.87	211.14
995.16	210.83
995.45	210.69
995.74	210.10
996.03	210.17
996.32	210.50
996.61	211.02
996.90	211.14
997.19	211.17
997.48	211.29
997.77	211.02
998.06	211.26
998.34	211.33
998.63	211.24
998.92	211.29
999.21	211.69
999.50	211.76
999.79	211.07
1000.08	210.74
1000.37	210.64
1000.66	210.19
1000.95	210.62
1001.24	210.74
1001.53	211.05
1001.82	210.93
1002.11	210.45
1002.40	210.76
1002.68	211.07
1002.97	212.45
1003.26	212.07
1003.55	211.81
1003.84	212.12
1004.13	212.67
1004.42	212.36
1004.71	212.79
1004.99	212.64
1005.28	213.36
1005.57	213.05
1005.86	212.98
1006.15	213.02
1006.44	212.88
1006.72	213.40
1007.01	212.93
1007.30	212.93
1007.59	212.76
1007.88	212.64
1008.17	212.98
1008.45	212.40
1008.74	211.74
1009.03	210.60
1009.32	210.81
1009.60	210.83
1009.89	210.62
1010.18	209.83
1010.47	210.02
1010.76	209.81
1011.04	209.95
1011.33	209.74
1011.62	210.02
1011.91	210.10
1012.19	210.38
1012.48	210.40
1012.77	210.33
1013.05	211.48
1013.34	211.45
1013.63	211.26
1013.92	211.38
1014.20	211.02
1014.49	211.14
1014.78	211.02
1015.06	210.52
1015.35	210.31
1015.64	210.48
1015.92	210.67
1016.21	210.98
1016.50	210.69
1016.78	210.88
1017.07	210.86
1017.36	210.50
1017.64	209.98
1017.93	209.98
1018.22	209.55
1018.50	209.38
1018.79	209.02
1019.08	208.10
1019.36	208.67
1019.65	208.50
1019.93	209.17
1020.22	209.62
1020.51	210.55
1020.79	210.45
1021.08	206.00
1021.36	203.00
1021.65	206.00
1021.94	211.00
1022.22	219.00
1022.51	206.50
1022.79	220.00
1023.08	214.50
1023.36	232.00
1023.65	206.50
>>>>>End Processed Spectral Data<<<<<
