SpectraSuite Data File
++++++++++++++++++++++++++++++++++++
Date: Tue Apr 02 18:44:57 EDT 2013
User: group
Dark Spectrum Present: No
Reference Spectrum Present: No
Number of Sampled Component Spectra: 1
Spectrometers: USB2E7196
Integration Time (usec): 580000 (USB2E7196)
Spectra Averaged: 2 (USB2E7196)
Boxcar Smoothing: 10 (USB2E7196)
Correct for Electrical Dark: No (USB2E7196)
Strobe/Lamp Enabled: No (USB2E7196)
Correct for Detector Non-linearity: No (USB2E7196)
Correct for Stray Light: No (USB2E7196)
Number of Pixels in Processed Spectrum: 2048
>>>>>Begin Processed Spectral Data<<<<<
339.09	0.00
339.48	195.00
339.86	198.00
340.24	194.50
340.63	194.50
341.01	234.00
341.39	200.50
341.78	209.50
342.16	211.50
342.54	202.00
342.93	197.95
343.31	207.62
343.69	208.24
344.07	208.74
344.46	209.57
344.84	210.40
345.22	209.17
345.60	209.71
345.99	209.76
346.37	209.76
346.75	210.07
347.13	210.21
347.52	210.38
347.90	211.10
348.28	211.24
348.66	211.62
349.05	211.07
349.43	211.60
349.81	211.98
350.19	211.93
350.57	211.93
350.96	212.12
351.34	212.52
351.72	212.67
352.10	212.62
352.48	212.50
352.87	212.31
353.25	212.33
353.63	212.24
354.01	212.14
354.39	212.26
354.77	212.19
355.15	212.64
355.54	212.45
355.92	211.88
356.30	211.71
356.68	213.10
357.06	213.40
357.44	212.98
357.82	212.93
358.20	214.05
358.58	214.14
358.97	214.36
359.35	214.79
359.73	215.02
360.11	215.19
360.49	215.26
360.87	215.57
361.25	215.83
361.63	216.43
362.01	216.81
362.39	216.69
362.77	216.95
363.15	216.79
363.53	216.90
363.91	217.00
364.29	217.12
364.67	215.02
365.05	214.79
365.43	215.00
365.81	215.14
366.19	215.14
366.57	215.81
366.95	215.62
367.33	215.05
367.71	215.10
368.09	215.38
368.47	215.26
368.85	215.14
369.23	215.48
369.61	214.81
369.99	215.00
370.37	215.00
370.75	215.88
371.13	215.45
371.51	215.17
371.89	215.19
372.27	215.14
372.65	215.36
373.03	215.52
373.41	215.19
373.78	214.90
374.16	213.83
374.54	213.19
374.92	212.88
375.30	212.86
375.68	212.40
376.06	212.57
376.44	212.50
376.82	212.60
377.19	212.40
377.57	212.31
377.95	211.79
378.33	211.81
378.71	210.71
379.09	210.95
379.47	211.21
379.84	211.21
380.22	210.93
380.60	210.60
380.98	210.50
381.36	210.64
381.73	210.45
382.11	210.79
382.49	211.02
382.87	211.07
383.25	211.17
383.62	213.60
384.00	213.02
384.38	213.33
384.76	213.50
385.13	214.40
385.51	214.48
385.89	214.40
386.27	214.71
386.64	215.07
387.02	214.90
387.40	214.79
387.78	214.69
388.15	214.98
388.53	215.26
388.91	215.29
389.29	215.10
389.66	215.43
390.04	215.26
390.42	215.62
390.79	215.64
391.17	215.69
391.55	213.38
391.92	213.76
392.30	213.86
392.68	213.79
393.05	213.67
393.43	213.69
393.81	213.79
394.18	213.29
394.56	213.36
394.94	213.83
395.31	213.76
395.69	214.64
396.06	215.14
396.44	215.14
396.82	215.24
397.19	216.40
397.57	216.12
397.95	216.40
398.32	215.93
398.70	216.19
399.07	216.57
399.45	216.64
399.82	216.24
400.20	216.02
400.58	215.74
400.95	214.83
401.33	215.43
401.70	216.95
402.08	217.07
402.45	217.00
402.83	217.55
403.20	217.79
403.58	217.52
403.95	218.00
404.33	218.33
404.71	218.55
405.08	219.69
405.46	219.90
405.83	220.40
406.21	220.71
406.58	221.17
406.96	221.48
407.33	222.19
407.70	222.98
408.08	225.31
408.45	226.43
408.83	227.52
409.20	227.69
409.58	227.17
409.95	228.38
410.33	229.48
410.70	229.98
411.08	231.31
411.45	232.21
411.82	232.45
412.20	234.02
412.57	236.31
412.95	235.69
413.32	237.60
413.69	238.90
414.07	240.33
414.44	242.05
414.82	243.95
415.19	246.24
415.56	248.62
415.94	249.43
416.31	252.26
416.68	255.02
417.06	258.74
417.43	261.83
417.81	265.14
418.18	268.74
418.55	272.24
418.93	275.83
419.30	280.33
419.67	285.12
420.04	289.40
420.42	293.57
420.79	301.00
421.16	306.79
421.54	313.60
421.91	320.12
422.28	326.33
422.66	332.79
423.03	340.50
423.40	347.07
423.77	354.36
424.15	361.36
424.52	368.88
424.89	377.19
425.26	385.33
425.64	393.17
426.01	401.29
426.38	410.31
426.75	419.69
427.13	428.60
427.50	437.71
427.87	447.45
428.24	457.45
428.61	465.67
428.99	477.02
429.36	487.45
429.73	498.74
430.10	510.02
430.47	522.07
430.85	532.60
431.22	545.31
431.59	560.79
431.96	573.64
432.33	587.52
432.70	601.05
433.08	617.21
433.45	632.31
433.82	647.67
434.19	664.62
434.56	681.17
434.93	696.62
435.30	712.90
435.68	730.74
436.05	747.64
436.42	764.60
436.79	779.69
437.16	796.90
437.53	814.79
437.90	832.86
438.27	849.86
438.64	868.52
439.01	885.81
439.38	899.02
439.75	914.12
440.13	930.83
440.50	946.29
440.87	958.90
441.24	972.26
441.61	986.38
441.98	996.71
442.35	1009.07
442.72	1022.10
443.09	1035.88
443.46	1043.40
443.83	1048.71
444.20	1053.45
444.57	1058.88
444.94	1061.57
445.31	1064.79
445.68	1069.83
446.05	1071.29
446.42	1069.64
446.79	1068.48
447.16	1066.21
447.53	1064.67
447.90	1058.93
448.27	1051.88
448.64	1043.24
449.01	1036.90
449.37	1026.19
449.74	1016.10
450.11	1005.24
450.48	990.98
450.85	974.57
451.22	961.88
451.59	950.00
451.96	938.33
452.33	923.57
452.70	910.12
453.07	893.00
453.43	874.07
453.80	858.21
454.17	842.71
454.54	827.38
454.91	811.55
455.28	795.33
455.65	780.00
456.02	769.88
456.38	757.02
456.75	741.64
457.12	728.21
457.49	714.79
457.86	700.36
458.23	689.95
458.59	678.52
458.96	666.83
459.33	656.60
459.70	646.40
460.07	638.64
460.43	628.52
460.80	620.26
461.17	612.93
461.54	604.83
461.91	596.43
462.27	588.10
462.64	581.12
463.01	573.79
463.38	567.62
463.74	556.50
464.11	549.90
464.48	544.07
464.85	538.07
465.21	533.83
465.58	528.90
465.95	522.60
466.32	517.40
466.68	511.95
467.05	506.86
467.42	501.79
467.78	495.98
468.15	491.21
468.52	487.12
468.88	481.21
469.25	476.43
469.62	473.21
469.98	469.33
470.35	465.62
470.72	461.95
471.08	456.81
471.45	454.02
471.82	451.74
472.18	448.52
472.55	446.05
472.92	442.26
473.28	439.05
473.65	436.00
474.02	433.33
474.38	431.60
474.75	429.50
475.11	427.17
475.48	425.81
475.85	424.38
476.21	422.55
476.58	421.52
476.94	420.29
477.31	419.07
477.67	417.48
478.04	416.74
478.41	416.12
478.77	418.10
479.14	417.00
479.50	416.14
479.87	415.67
480.23	415.36
480.60	414.71
480.96	414.74
481.33	415.69
481.69	415.95
482.06	416.40
482.42	416.90
482.79	417.43
483.15	417.71
483.52	418.62
483.88	418.64
484.25	419.24
484.61	420.07
484.98	420.38
485.34	422.24
485.71	423.60
486.07	424.74
486.44	423.88
486.80	425.19
487.17	427.07
487.53	429.62
487.90	431.88
488.26	435.31
488.62	438.07
488.99	439.93
489.35	442.48
489.72	444.52
490.08	447.07
490.44	450.10
490.81	453.10
491.17	456.05
491.54	460.21
491.90	464.10
492.26	467.62
492.63	471.38
492.99	474.88
493.36	478.62
493.72	483.43
494.08	488.10
494.45	493.26
494.81	497.90
495.17	502.31
495.54	507.48
495.90	511.88
496.26	516.74
496.63	522.36
496.99	528.19
497.35	533.81
497.72	539.74
498.08	545.29
498.44	551.05
498.80	557.60
499.17	563.76
499.53	569.79
499.89	576.86
500.26	583.81
500.62	590.40
500.98	597.79
501.34	604.71
501.71	611.83
502.07	618.40
502.43	625.45
502.79	632.21
503.16	638.67
503.52	645.86
503.88	652.62
504.24	660.07
504.60	667.38
504.97	675.36
505.33	682.69
505.69	691.76
506.05	699.38
506.41	706.74
506.78	714.26
507.14	722.07
507.50	729.62
507.86	737.69
508.22	745.36
508.59	752.40
508.95	759.64
509.31	768.26
509.67	776.55
510.03	784.36
510.39	792.12
510.75	800.24
511.12	807.83
511.48	815.76
511.84	823.00
512.20	830.31
512.56	837.43
512.92	845.29
513.28	851.50
513.64	859.21
514.00	866.57
514.37	874.17
514.73	881.10
515.09	888.52
515.45	895.12
515.81	901.98
516.17	909.12
516.53	915.86
516.89	921.76
517.25	928.29
517.61	934.95
517.97	941.69
518.33	947.90
518.69	954.74
519.05	961.71
519.41	967.55
519.77	974.86
520.13	980.74
520.49	986.21
520.85	992.29
521.21	999.00
521.57	1004.95
521.93	1009.69
522.29	1015.62
522.65	1020.48
523.01	1026.10
523.37	1031.50
523.73	1036.86
524.09	1041.40
524.45	1046.07
524.81	1050.62
525.17	1055.31
525.53	1060.17
525.89	1065.07
526.25	1068.95
526.61	1071.71
526.97	1076.40
527.33	1080.02
527.68	1086.57
528.04	1090.71
528.40	1094.64
528.76	1098.21
529.12	1102.38
529.48	1107.36
529.84	1110.98
530.20	1115.26
530.56	1119.74
530.91	1124.93
531.27	1128.36
531.63	1133.76
531.99	1138.02
532.35	1141.88
532.71	1146.19
533.07	1150.83
533.42	1157.05
533.78	1162.05
534.14	1167.12
534.50	1171.33
534.86	1176.02
535.21	1177.79
535.57	1182.50
535.93	1186.26
536.29	1191.14
536.65	1194.95
537.00	1197.69
537.36	1201.43
537.72	1205.19
538.08	1208.69
538.44	1210.88
538.79	1215.17
539.15	1217.60
539.51	1220.81
539.87	1224.62
540.22	1227.02
540.58	1229.55
540.94	1230.55
541.29	1232.71
541.65	1235.00
542.01	1238.10
542.37	1240.10
542.72	1242.52
543.08	1244.24
543.44	1246.69
543.79	1247.26
544.15	1249.98
544.51	1254.43
544.87	1257.29
545.22	1260.05
545.58	1262.57
545.94	1265.45
546.29	1267.43
546.65	1269.71
547.01	1271.88
547.36	1274.38
547.72	1276.67
548.07	1278.62
548.43	1280.88
548.79	1283.29
549.14	1286.57
549.50	1289.86
549.86	1291.86
550.21	1294.60
550.57	1298.48
550.92	1301.24
551.28	1305.52
551.64	1308.14
551.99	1310.29
552.35	1312.86
552.70	1315.40
553.06	1318.55
553.41	1321.14
553.77	1326.31
554.13	1330.74
554.48	1334.12
554.84	1338.55
555.19	1342.81
555.55	1348.36
555.90	1351.90
556.26	1356.57
556.61	1360.29
556.97	1362.86
557.32	1366.98
557.68	1371.02
558.03	1374.40
558.39	1378.79
558.74	1382.26
559.10	1385.81
559.45	1389.64
559.81	1394.86
560.16	1398.40
560.52	1401.83
560.87	1406.74
561.23	1409.26
561.58	1414.71
561.94	1418.86
562.29	1421.98
562.64	1426.76
563.00	1430.17
563.35	1435.33
563.71	1439.45
564.06	1444.79
564.42	1449.86
564.77	1455.83
565.12	1462.14
565.48	1469.52
565.83	1476.48
566.19	1482.21
566.54	1488.31
566.89	1494.45
567.25	1500.31
567.60	1507.29
567.96	1516.14
568.31	1523.07
568.66	1529.86
569.02	1533.40
569.37	1539.38
569.72	1544.95
570.08	1550.26
570.43	1555.60
570.78	1561.17
571.14	1566.81
571.49	1571.69
571.84	1577.36
572.20	1582.19
572.55	1587.62
572.90	1590.98
573.26	1594.26
573.61	1598.43
573.96	1603.33
574.31	1607.19
574.67	1610.90
575.02	1614.21
575.37	1615.52
575.72	1618.02
576.08	1621.93
576.43	1627.02
576.78	1630.60
577.13	1634.50
577.49	1638.31
577.84	1642.50
578.19	1645.88
578.54	1650.88
578.90	1655.52
579.25	1658.57
579.60	1661.55
579.95	1663.81
580.30	1667.40
580.66	1671.05
581.01	1675.00
581.36	1677.40
581.71	1681.21
582.06	1685.07
582.42	1689.74
582.77	1692.69
583.12	1695.88
583.47	1698.50
583.82	1701.10
584.17	1704.67
584.53	1708.52
584.88	1711.17
585.23	1714.48
585.58	1717.21
585.93	1718.26
586.28	1720.88
586.63	1724.50
586.98	1727.86
587.34	1731.48
587.69	1733.43
588.04	1736.14
588.39	1738.21
588.74	1740.36
589.09	1742.24
589.44	1743.00
589.79	1744.76
590.14	1746.79
590.49	1748.55
590.84	1749.93
591.19	1752.29
591.54	1754.76
591.89	1756.40
592.25	1760.43
592.60	1761.79
592.95	1763.95
593.30	1766.55
593.65	1767.14
594.00	1767.95
594.35	1774.10
594.70	1773.33
595.05	1775.07
595.40	1775.50
595.75	1776.50
596.10	1777.93
596.45	1778.40
596.80	1780.24
597.15	1780.88
597.50	1781.81
597.85	1784.02
598.19	1784.45
598.54	1784.48
598.89	1783.40
599.24	1783.60
599.59	1782.74
599.94	1782.24
600.29	1781.81
600.64	1780.98
600.99	1781.55
601.34	1782.43
601.69	1777.05
602.04	1777.83
602.39	1777.07
602.74	1778.24
603.08	1777.31
603.43	1778.07
603.78	1778.07
604.13	1777.12
604.48	1776.02
604.83	1776.71
605.18	1776.17
605.53	1775.90
605.87	1774.43
606.22	1774.55
606.57	1774.07
606.92	1771.90
607.27	1771.24
607.62	1770.83
607.96	1770.64
608.31	1769.31
608.66	1766.76
609.01	1765.38
609.36	1764.36
609.70	1762.71
610.05	1758.88
610.40	1757.57
610.75	1754.33
611.10	1752.45
611.44	1750.40
611.79	1748.43
612.14	1745.69
612.49	1741.38
612.83	1739.26
613.18	1736.45
613.53	1733.26
613.88	1728.69
614.22	1725.64
614.57	1721.29
614.92	1717.05
615.27	1713.76
615.61	1709.64
615.96	1706.74
616.31	1703.24
616.65	1700.79
617.00	1698.21
617.35	1696.19
617.70	1693.57
618.04	1690.62
618.39	1686.93
618.74	1683.05
619.08	1679.19
619.43	1675.19
619.78	1672.45
620.12	1669.55
620.47	1666.33
620.82	1662.14
621.16	1658.40
621.51	1655.69
621.85	1652.67
622.20	1649.26
622.55	1644.52
622.89	1641.40
623.24	1638.31
623.59	1634.55
623.93	1629.69
624.28	1625.79
624.62	1623.62
624.97	1620.17
625.32	1616.24
625.66	1613.14
626.01	1609.86
626.35	1606.55
626.70	1602.83
627.04	1599.17
627.39	1593.76
627.73	1590.45
628.08	1588.62
628.43	1585.21
628.77	1580.62
629.12	1577.10
629.46	1574.21
629.81	1571.02
630.15	1565.93
630.50	1560.98
630.84	1556.43
631.19	1551.33
631.53	1545.76
631.88	1538.67
632.22	1532.40
632.57	1528.19
632.91	1522.90
633.26	1518.19
633.60	1512.48
633.95	1507.19
634.29	1501.86
634.64	1498.40
634.98	1493.95
635.32	1489.14
635.67	1485.19
636.01	1480.79
636.36	1475.60
636.70	1470.50
637.05	1465.98
637.39	1462.60
637.73	1458.48
638.08	1453.86
638.42	1449.19
638.77	1445.26
639.11	1440.93
639.45	1436.45
639.80	1431.45
640.14	1426.29
640.49	1421.33
640.83	1416.67
641.17	1412.21
641.52	1407.52
641.86	1402.21
642.20	1397.71
642.55	1391.93
642.89	1386.64
643.23	1381.43
643.58	1377.10
643.92	1371.45
644.26	1365.55
644.61	1359.93
644.95	1354.05
645.29	1349.24
645.64	1344.43
645.98	1338.64
646.32	1333.93
646.66	1327.86
647.01	1321.12
647.35	1316.31
647.69	1311.07
648.04	1304.98
648.38	1299.62
648.72	1293.83
649.06	1287.88
649.41	1281.05
649.75	1274.21
650.09	1268.31
650.43	1261.29
650.78	1254.19
651.12	1247.10
651.46	1240.14
651.80	1234.07
652.14	1229.10
652.49	1222.69
652.83	1216.64
653.17	1209.86
653.51	1202.57
653.85	1196.93
654.20	1191.10
654.54	1183.69
654.88	1176.81
655.22	1171.79
655.56	1164.52
655.90	1157.86
656.25	1150.79
656.59	1144.48
656.93	1138.55
657.27	1133.00
657.61	1127.57
657.95	1122.05
658.29	1116.71
658.64	1111.98
658.98	1104.76
659.32	1096.79
659.66	1089.90
660.00	1083.12
660.34	1077.81
660.68	1071.93
661.02	1065.48
661.36	1059.57
661.70	1053.90
662.05	1047.52
662.39	1041.07
662.73	1035.81
663.07	1031.45
663.41	1025.88
663.75	1020.31
664.09	1014.62
664.43	1007.79
664.77	1001.88
665.11	995.52
665.45	989.74
665.79	982.88
666.13	977.43
666.47	971.93
666.81	966.36
667.15	961.12
667.49	955.33
667.83	950.24
668.17	944.98
668.51	939.14
668.85	933.81
669.19	929.67
669.53	924.14
669.87	917.88
670.21	911.29
670.55	905.60
670.89	900.79
671.23	895.76
671.57	889.95
671.91	884.88
672.25	879.14
672.58	873.64
672.92	868.48
673.26	863.48
673.60	858.40
673.94	852.83
674.28	847.64
674.62	842.50
674.96	837.02
675.30	831.98
675.64	827.24
675.97	821.90
676.31	815.90
676.65	810.33
676.99	806.12
677.33	801.38
677.67	796.76
678.01	791.02
678.34	785.98
678.68	781.95
679.02	776.19
679.36	771.31
679.70	766.31
680.04	761.50
680.37	755.93
680.71	750.45
681.05	746.90
681.39	741.43
681.73	735.81
682.06	731.14
682.40	726.02
682.74	722.05
683.08	718.62
683.42	713.33
683.75	709.10
684.09	703.93
684.43	698.69
684.77	693.69
685.10	689.07
685.44	684.10
685.78	678.81
686.12	674.43
686.45	670.10
686.79	665.40
687.13	661.10
687.46	657.00
687.80	653.52
688.14	648.62
688.48	644.69
688.81	640.74
689.15	636.36
689.49	632.17
689.82	626.81
690.16	620.90
690.50	617.05
690.83	612.36
691.17	607.38
691.51	602.86
691.84	599.07
692.18	594.64
692.52	590.24
692.85	586.90
693.19	584.17
693.52	580.19
693.86	576.64
694.20	572.40
694.53	568.33
694.87	564.19
695.21	559.55
695.54	555.50
695.88	550.95
696.21	546.33
696.55	542.55
696.88	539.40
697.22	535.57
697.56	532.50
697.89	528.98
698.23	526.05
698.56	522.60
698.90	518.76
699.23	515.10
699.57	512.26
699.90	508.05
700.24	503.12
700.58	499.62
700.91	496.48
701.25	494.98
701.58	492.36
701.92	489.36
702.25	486.43
702.59	483.57
702.92	480.33
703.26	477.38
703.59	474.31
703.93	472.62
704.26	470.40
704.60	466.86
704.93	463.55
705.26	460.36
705.60	458.21
705.93	455.05
706.27	452.60
706.60	449.69
706.94	447.98
707.27	445.19
707.61	442.57
707.94	439.45
708.27	434.83
708.61	431.36
708.94	428.57
709.28	426.48
709.61	423.55
709.94	421.52
710.28	418.98
710.61	416.57
710.95	412.14
711.28	410.86
711.61	408.33
711.95	406.43
712.28	404.12
712.61	401.48
712.95	400.17
713.28	398.79
713.61	396.12
713.95	393.17
714.28	391.19
714.61	389.00
714.95	386.83
715.28	384.67
715.61	382.98
715.95	380.86
716.28	378.36
716.61	376.64
716.95	374.67
717.28	372.81
717.61	370.74
717.94	368.88
718.28	365.33
718.61	363.40
718.94	361.19
719.27	359.05
719.61	357.14
719.94	354.69
720.27	351.67
720.60	349.57
720.94	347.64
721.27	346.19
721.60	345.05
721.93	343.12
722.27	342.33
722.60	340.69
722.93	338.93
723.26	337.38
723.59	335.55
723.93	334.40
724.26	333.02
724.59	331.31
724.92	329.98
725.25	329.36
725.59	328.12
725.92	327.17
726.25	326.02
726.58	324.93
726.91	323.67
727.24	322.90
727.57	322.07
727.91	320.88
728.24	319.76
728.57	318.12
728.90	317.14
729.23	315.21
729.56	314.81
729.89	313.60
730.22	312.43
730.55	311.29
730.89	309.95
731.22	308.57
731.55	307.43
731.88	306.52
732.21	305.10
732.54	303.93
732.87	303.10
733.20	302.40
733.53	301.19
733.86	300.26
734.19	298.93
734.52	298.07
734.85	298.38
735.18	297.17
735.51	296.93
735.84	296.38
736.17	295.98
736.50	294.21
736.83	295.52
737.16	294.81
737.49	294.17
737.82	293.21
738.15	292.88
738.48	292.38
738.81	291.45
739.14	289.86
739.47	288.83
739.80	288.00
740.13	287.12
740.46	285.95
740.79	284.88
741.12	283.88
741.45	282.67
741.78	280.88
742.11	280.60
742.44	279.19
742.77	278.29
743.10	277.19
743.43	276.31
743.75	273.64
744.08	275.40
744.41	274.33
744.74	273.45
745.07	272.43
745.40	271.69
745.73	271.64
746.06	271.36
746.39	271.05
746.71	270.00
747.04	269.19
747.37	268.52
747.70	268.21
748.03	267.69
748.36	267.31
748.68	266.50
749.01	265.21
749.34	264.52
749.67	264.00
750.00	263.69
750.33	264.86
750.65	264.43
750.98	261.45
751.31	260.93
751.64	260.81
751.97	261.45
752.29	260.86
752.62	259.64
752.95	258.95
753.28	258.07
753.60	257.40
753.93	257.45
754.26	257.12
754.59	256.14
754.91	255.33
755.24	254.95
755.57	254.48
755.90	254.02
756.22	253.57
756.55	252.48
756.88	251.69
757.20	249.62
757.53	248.43
757.86	247.71
758.19	247.52
758.51	246.64
758.84	245.00
759.17	244.31
759.49	243.74
759.82	244.40
760.15	244.31
760.47	243.90
760.80	242.62
761.13	242.74
761.45	242.17
761.78	241.86
762.11	241.31
762.43	240.81
762.76	240.36
763.08	240.29
763.41	240.48
763.74	240.17
764.06	239.79
764.39	239.67
764.71	239.43
765.04	238.90
765.37	238.57
765.69	238.29
766.02	238.02
766.34	237.62
766.67	236.48
767.00	236.50
767.32	237.38
767.65	238.38
767.97	237.67
768.30	237.60
768.62	237.33
768.95	237.14
769.27	236.71
769.60	236.79
769.92	236.10
770.25	235.38
770.57	234.57
770.90	234.38
771.22	233.95
771.55	233.79
771.87	233.62
772.20	233.64
772.52	235.19
772.85	237.26
773.17	237.17
773.50	236.69
773.82	236.12
774.15	234.93
774.47	233.38
774.80	233.14
775.12	232.95
775.45	232.90
775.77	232.69
776.09	232.71
776.42	232.60
776.74	232.98
777.07	232.76
777.39	232.95
777.72	232.64
778.04	232.67
778.36	232.10
778.69	231.93
779.01	231.71
779.33	229.71
779.66	227.48
779.98	227.10
780.31	227.19
780.63	227.83
780.95	227.88
781.28	227.90
781.60	227.45
781.92	227.10
782.25	226.98
782.57	226.69
782.89	226.36
783.22	226.00
783.54	225.38
783.86	225.52
784.19	225.12
784.51	225.79
784.83	225.10
785.16	225.17
785.48	225.07
785.80	224.76
786.12	224.69
786.45	224.43
786.77	224.67
787.09	224.50
787.42	223.62
787.74	223.55
788.06	223.36
788.38	223.31
788.71	223.10
789.03	222.90
789.35	223.02
789.67	222.64
789.99	222.71
790.32	222.81
790.64	222.88
790.96	224.62
791.28	223.67
791.61	223.69
791.93	223.55
792.25	223.50
792.57	225.07
792.89	224.64
793.21	224.69
793.54	224.52
793.86	224.12
794.18	224.21
794.50	223.76
794.82	223.86
795.14	224.07
795.47	224.43
795.79	224.50
796.11	224.19
796.43	223.98
796.75	223.88
797.07	223.48
797.39	223.19
797.71	221.64
798.04	221.74
798.36	222.10
798.68	222.26
799.00	222.21
799.32	220.71
799.64	220.95
799.96	220.71
800.28	220.83
800.60	220.81
800.92	220.69
801.24	220.62
801.56	220.57
801.89	220.43
802.21	220.74
802.53	220.33
802.85	220.57
803.17	221.76
803.49	221.24
803.81	221.24
804.13	221.14
804.45	220.93
804.77	220.81
805.09	220.40
805.41	220.05
805.73	219.33
806.05	218.98
806.37	218.90
806.69	218.71
807.01	218.40
807.33	218.48
807.65	217.88
807.97	218.55
808.28	218.36
808.60	217.98
808.92	217.24
809.24	218.45
809.56	218.02
809.88	217.26
810.20	217.43
810.52	217.79
810.84	217.26
811.16	216.88
811.48	216.71
811.80	217.50
812.12	217.36
812.43	218.07
812.75	218.36
813.07	218.07
813.39	218.26
813.71	217.95
814.03	217.86
814.35	217.83
814.67	216.93
814.98	216.45
815.30	216.55
815.62	216.38
815.94	215.00
816.26	215.21
816.58	214.88
816.89	214.88
817.21	214.60
817.53	215.00
817.85	215.26
818.17	215.26
818.48	214.57
818.80	215.05
819.12	214.64
819.44	214.33
819.76	214.17
820.07	214.10
820.39	214.07
820.71	214.19
821.03	214.26
821.34	214.31
821.66	214.86
821.98	215.17
822.30	215.05
822.61	216.48
822.93	216.00
823.25	215.90
823.57	215.76
823.88	215.74
824.20	215.60
824.52	216.07
824.83	215.95
825.15	215.74
825.47	215.55
825.79	215.57
826.10	215.45
826.42	215.40
826.74	215.76
827.05	215.71
827.37	215.64
827.69	215.67
828.00	215.90
828.32	215.76
828.64	215.40
828.95	216.67
829.27	215.67
829.58	215.90
829.90	216.38
830.22	216.40
830.53	216.10
830.85	215.88
831.17	215.12
831.48	215.05
831.80	215.12
832.11	215.12
832.43	214.88
832.75	214.98
833.06	216.10
833.38	215.38
833.69	215.19
834.01	215.14
834.32	214.81
834.64	214.57
834.96	214.74
835.27	214.79
835.59	213.86
835.90	213.69
836.22	213.55
836.53	213.19
836.85	213.10
837.16	215.10
837.48	215.10
837.79	215.86
838.11	216.29
838.42	216.31
838.74	216.33
839.05	216.26
839.37	216.17
839.68	214.95
840.00	214.98
840.31	215.64
840.63	215.36
840.94	215.29
841.26	214.88
841.57	215.12
841.88	215.07
842.20	214.81
842.51	214.64
842.83	214.71
843.14	216.17
843.46	216.29
843.77	215.12
844.08	215.10
844.40	214.52
844.71	214.05
845.03	213.76
845.34	213.55
845.65	213.60
845.97	213.79
846.28	214.10
846.60	214.12
846.91	213.74
847.22	214.05
847.54	214.60
847.85	214.69
848.16	214.24
848.48	214.07
848.79	215.00
849.10	215.43
849.42	215.38
849.73	213.64
850.04	213.45
850.36	212.60
850.67	212.98
850.98	212.90
851.30	212.98
851.61	212.98
851.92	212.88
852.23	213.40
852.55	213.24
852.86	213.12
853.17	213.24
853.49	213.55
853.80	213.69
854.11	213.62
854.42	214.02
854.74	213.69
855.05	213.60
855.36	212.55
855.67	212.26
855.99	212.38
856.30	215.07
856.61	215.14
856.92	215.45
857.23	215.26
857.55	215.24
857.86	215.19
858.17	215.60
858.48	215.40
858.79	214.86
859.11	215.29
859.42	215.21
859.73	215.10
860.04	215.05
860.35	214.55
860.66	214.12
860.98	214.26
861.29	214.64
861.60	214.74
861.91	215.24
862.22	214.93
862.53	214.62
862.84	211.95
863.16	212.26
863.47	212.05
863.78	211.86
864.09	211.67
864.40	211.98
864.71	211.95
865.02	212.21
865.33	212.05
865.64	211.48
865.95	211.45
866.27	212.79
866.58	212.45
866.89	212.62
867.20	212.43
867.51	211.98
867.82	211.74
868.13	212.24
868.44	211.67
868.75	212.00
869.06	212.21
869.37	212.50
869.68	211.88
869.99	212.00
870.30	212.33
870.61	212.64
870.92	212.12
871.23	211.93
871.54	212.14
871.85	212.71
872.16	213.00
872.47	212.88
872.78	211.67
873.09	211.95
873.40	211.95
873.71	212.38
874.02	212.55
874.33	212.50
874.64	212.05
874.95	212.67
875.26	212.31
875.56	212.26
875.87	212.07
876.18	212.07
876.49	214.02
876.80	213.79
877.11	213.43
877.42	213.62
877.73	213.62
878.04	213.38
878.35	213.40
878.66	213.33
878.96	213.52
879.27	213.36
879.58	213.26
879.89	213.12
880.20	213.71
880.51	213.45
880.82	213.45
881.12	213.50
881.43	212.83
881.74	212.98
882.05	212.79
882.36	213.05
882.67	213.17
882.97	211.33
883.28	211.31
883.59	211.40
883.90	211.69
884.21	212.07
884.51	212.05
884.82	211.69
885.13	211.81
885.44	211.50
885.74	211.55
886.05	211.50
886.36	211.67
886.67	211.02
886.98	212.21
887.28	212.67
887.59	212.52
887.90	212.81
888.20	212.33
888.51	212.74
888.82	212.33
889.13	212.57
889.43	213.86
889.74	213.67
890.05	213.67
890.35	213.31
890.66	212.93
890.97	212.64
891.28	212.71
891.58	212.57
891.89	212.57
892.20	212.36
892.50	211.95
892.81	211.67
893.12	211.45
893.42	210.24
893.73	210.02
894.04	210.12
894.34	210.17
894.65	210.40
894.95	210.00
895.26	210.26
895.57	211.21
895.87	209.21
896.18	209.67
896.48	209.57
896.79	209.60
897.10	210.05
897.40	210.24
897.71	210.48
898.01	210.26
898.32	210.55
898.63	210.71
898.93	210.93
899.24	210.95
899.54	210.95
899.85	211.19
900.15	211.19
900.46	211.26
900.76	211.48
901.07	211.26
901.38	211.43
901.68	211.71
901.99	210.62
902.29	211.19
902.60	211.00
902.90	211.00
903.21	211.21
903.51	210.95
903.82	211.57
904.12	211.38
904.43	211.60
904.73	211.48
905.03	211.69
905.34	213.67
905.64	213.88
905.95	213.88
906.25	214.02
906.56	213.83
906.86	213.90
907.17	213.81
907.47	213.95
907.77	213.76
908.08	213.12
908.38	213.33
908.69	213.29
908.99	213.62
909.30	213.86
909.60	213.62
909.90	213.69
910.21	212.81
910.51	212.55
910.81	212.67
911.12	212.83
911.42	212.79
911.73	210.69
912.03	210.55
912.33	211.10
912.64	210.83
912.94	210.76
913.24	210.40
913.55	210.12
913.85	210.29
914.15	210.71
914.46	211.05
914.76	210.64
915.06	210.62
915.37	210.21
915.67	209.90
915.97	209.95
916.27	209.55
916.58	209.74
916.88	209.74
917.18	209.76
917.49	211.00
917.79	210.81
918.09	211.02
918.39	211.74
918.70	211.29
919.00	211.19
919.30	212.17
919.60	212.33
919.91	212.31
920.21	212.21
920.51	211.67
920.81	211.64
921.12	212.14
921.42	212.05
921.72	212.26
922.02	212.50
922.32	212.93
922.63	213.17
922.93	214.36
923.23	214.60
923.53	214.12
923.83	212.90
924.13	213.10
924.44	213.19
924.74	213.45
925.04	214.12
925.34	214.17
925.64	213.24
925.94	213.12
926.24	214.17
926.55	214.05
926.85	214.31
927.15	214.26
927.45	214.19
927.75	214.19
928.05	214.26
928.35	214.02
928.65	214.19
928.95	214.14
929.26	213.17
929.56	213.38
929.86	213.71
930.16	213.74
930.46	213.79
930.76	213.81
931.06	213.02
931.36	212.60
931.66	213.00
931.96	213.14
932.26	213.26
932.56	212.57
932.86	212.76
933.16	212.88
933.46	212.64
933.76	212.36
934.06	213.02
934.36	213.64
934.66	213.83
934.96	213.74
935.26	213.69
935.56	214.12
935.86	213.79
936.16	213.64
936.46	213.36
936.76	212.90
937.06	212.55
937.36	212.43
937.66	212.14
937.96	211.90
938.26	211.71
938.56	211.57
938.86	211.71
939.16	212.07
939.46	212.24
939.76	212.33
940.06	212.43
940.35	211.93
940.65	210.79
940.95	211.10
941.25	210.62
941.55	210.45
941.85	210.38
942.15	210.76
942.45	211.12
942.75	211.12
943.04	211.57
943.34	212.21
943.64	212.12
943.94	212.02
944.24	212.17
944.54	212.50
944.84	212.36
945.13	212.10
945.43	211.79
945.73	211.74
946.03	211.83
946.33	211.45
946.62	211.29
946.92	211.40
947.22	211.26
947.52	211.36
947.82	211.67
948.11	211.36
948.41	210.88
948.71	210.40
949.01	210.40
949.31	210.12
949.60	209.86
949.90	210.24
950.20	210.29
950.50	210.19
950.79	210.00
951.09	210.24
951.39	210.17
951.69	210.12
951.98	210.52
952.28	210.55
952.58	210.83
952.87	210.76
953.17	211.14
953.47	210.76
953.76	210.81
954.06	210.71
954.36	210.48
954.66	210.45
954.95	211.05
955.25	211.38
955.55	211.45
955.84	211.14
956.14	211.10
956.44	211.17
956.73	210.64
957.03	210.60
957.32	210.62
957.62	210.57
957.92	211.10
958.21	210.90
958.51	213.17
958.81	213.21
959.10	213.57
959.40	214.02
959.69	214.19
959.99	214.50
960.29	214.43
960.58	214.29
960.88	215.02
961.17	214.76
961.47	214.74
961.76	214.64
962.06	215.10
962.36	215.00
962.65	215.10
962.95	215.50
963.24	215.24
963.54	215.36
963.83	215.45
964.13	215.07
964.42	214.55
964.72	212.95
965.01	213.10
965.31	212.83
965.60	212.26
965.90	213.69
966.19	213.17
966.49	213.12
966.78	212.95
967.08	212.76
967.37	212.71
967.67	212.52
967.96	212.86
968.26	212.67
968.55	212.88
968.85	213.10
969.14	213.10
969.43	213.26
969.73	213.05
970.02	212.88
970.32	212.79
970.61	212.81
970.91	212.17
971.20	211.81
971.49	211.76
971.79	211.83
972.08	210.43
972.38	210.52
972.67	210.45
972.96	210.98
973.26	210.67
973.55	211.10
973.85	211.07
974.14	210.76
974.43	210.95
974.73	210.64
975.02	210.31
975.31	210.26
975.61	210.17
975.90	209.98
976.19	209.86
976.49	210.17
976.78	210.21
977.07	210.14
977.37	210.36
977.66	210.36
977.95	210.14
978.24	210.24
978.54	210.79
978.83	210.57
979.12	210.55
979.42	210.43
979.71	209.88
980.00	209.88
980.29	210.17
980.59	209.74
980.88	210.10
981.17	210.02
981.46	210.12
981.76	210.17
982.05	210.98
982.34	211.14
982.63	211.19
982.93	211.26
983.22	211.79
983.51	211.88
983.80	212.45
984.09	212.83
984.39	212.95
984.68	212.50
984.97	212.76
985.26	212.31
985.55	212.40
985.85	212.10
986.14	212.29
986.43	212.43
986.72	212.40
987.01	211.86
987.30	211.88
987.59	211.64
987.89	211.71
988.18	211.19
988.47	211.21
988.76	210.83
989.05	210.60
989.34	210.14
989.63	210.60
989.92	209.98
990.22	209.62
990.51	209.21
990.80	209.40
991.09	209.55
991.38	210.00
991.67	209.98
991.96	209.90
992.25	209.86
992.54	209.60
992.83	209.62
993.12	209.74
993.41	210.02
993.70	210.88
993.99	211.14
994.28	211.24
994.58	211.14
994.87	210.86
995.16	210.90
995.45	210.79
995.74	210.14
996.03	210.60
996.32	211.07
996.61	211.88
996.90	211.64
997.19	211.50
997.48	211.52
997.77	211.12
998.06	211.55
998.34	211.24
998.63	211.07
998.92	211.24
999.21	211.38
999.50	211.43
999.79	210.52
1000.08	210.52
1000.37	210.64
1000.66	210.52
1000.95	211.19
1001.24	211.31
1001.53	211.64
1001.82	211.57
1002.11	211.14
1002.40	211.29
1002.68	211.38
1002.97	212.81
1003.26	212.69
1003.55	212.38
1003.84	212.86
1004.13	213.48
1004.42	213.60
1004.71	213.60
1004.99	213.33
1005.28	213.83
1005.57	213.40
1005.86	213.52
1006.15	213.29
1006.44	213.14
1006.72	213.67
1007.01	213.21
1007.30	213.26
1007.59	213.14
1007.88	213.05
1008.17	213.21
1008.45	212.48
1008.74	211.74
1009.03	210.81
1009.32	210.81
1009.60	210.67
1009.89	210.36
1010.18	209.60
1010.47	209.55
1010.76	209.55
1011.04	209.64
1011.33	209.74
1011.62	210.10
1011.91	210.17
1012.19	210.36
1012.48	210.07
1012.77	209.79
1013.05	210.67
1013.34	210.62
1013.63	210.55
1013.92	210.93
1014.20	210.81
1014.49	211.14
1014.78	211.26
1015.06	210.60
1015.35	210.55
1015.64	210.79
1015.92	211.19
1016.21	211.21
1016.50	211.19
1016.78	211.40
1017.07	211.45
1017.36	210.90
1017.64	210.48
1017.93	210.83
1018.22	210.57
1018.50	210.74
1018.79	210.67
1019.08	209.90
1019.36	210.05
1019.65	209.81
1019.93	209.90
1020.22	210.05
1020.51	210.81
1020.79	210.50
1021.08	207.00
1021.36	208.50
1021.65	210.00
1021.94	211.00
1022.22	212.50
1022.51	206.00
1022.79	214.50
1023.08	212.50
1023.36	231.00
1023.65	203.50
>>>>>End Processed Spectral Data<<<<<
