SpectraSuite Data File
++++++++++++++++++++++++++++++++++++
Date: Tue Apr 02 18:38:29 EDT 2013
User: group
Dark Spectrum Present: No
Reference Spectrum Present: No
Number of Sampled Component Spectra: 1
Spectrometers: USB2E7196
Integration Time (usec): 580000 (USB2E7196)
Spectra Averaged: 2 (USB2E7196)
Boxcar Smoothing: 10 (USB2E7196)
Correct for Electrical Dark: No (USB2E7196)
Strobe/Lamp Enabled: No (USB2E7196)
Correct for Detector Non-linearity: No (USB2E7196)
Correct for Stray Light: No (USB2E7196)
Number of Pixels in Processed Spectrum: 2048
>>>>>Begin Processed Spectral Data<<<<<
339.09	0.00
339.48	193.50
339.86	197.00
340.24	196.50
340.63	199.50
341.01	233.50
341.39	203.00
341.78	207.50
342.16	211.00
342.54	206.00
342.93	199.05
343.31	208.90
343.69	209.48
344.07	209.90
344.46	210.76
344.84	211.26
345.22	210.19
345.60	210.50
345.99	210.50
346.37	210.52
346.75	210.64
347.13	210.76
347.52	211.00
347.90	211.50
348.28	211.52
348.66	211.86
349.05	211.19
349.43	211.33
349.81	211.52
350.19	211.43
350.57	211.64
350.96	211.57
351.34	211.79
351.72	211.98
352.10	212.24
352.48	212.10
352.87	212.19
353.25	212.14
353.63	212.05
354.01	212.12
354.39	212.07
354.77	212.19
355.15	212.76
355.54	212.52
355.92	212.07
356.30	211.93
356.68	213.05
357.06	213.24
357.44	212.93
357.82	212.90
358.20	213.93
358.58	213.64
358.97	214.17
359.35	214.52
359.73	214.74
360.11	214.50
360.49	214.52
360.87	214.38
361.25	214.62
361.63	215.38
362.01	215.76
362.39	215.67
362.77	215.71
363.15	215.36
363.53	215.21
363.91	215.14
364.29	215.17
364.67	213.40
365.05	213.40
365.43	213.79
365.81	214.00
366.19	214.07
366.57	215.12
366.95	214.71
367.33	214.17
367.71	214.24
368.09	214.64
368.47	214.60
368.85	214.50
369.23	214.90
369.61	214.31
369.99	214.76
370.37	215.00
370.75	216.02
371.13	215.62
371.51	215.33
371.89	215.40
372.27	215.71
372.65	215.98
373.03	216.12
373.41	215.67
373.78	215.57
374.16	214.50
374.54	213.64
374.92	213.48
375.30	213.64
375.68	213.19
376.06	213.29
376.44	213.10
376.82	213.33
377.19	213.00
377.57	212.74
377.95	212.24
378.33	212.26
378.71	211.12
379.09	211.43
379.47	211.88
379.84	211.93
380.22	211.45
380.60	211.21
380.98	211.12
381.36	211.29
381.73	210.93
382.11	211.43
382.49	211.83
382.87	211.93
383.25	211.90
383.62	214.45
384.00	214.17
384.38	214.43
384.76	214.95
385.13	215.69
385.51	215.74
385.89	215.33
386.27	215.43
386.64	215.67
387.02	215.50
387.40	215.17
387.78	215.31
388.15	215.60
388.53	215.48
388.91	215.29
389.29	215.36
389.66	215.64
390.04	215.10
390.42	215.31
390.79	215.48
391.17	215.40
391.55	213.05
391.92	213.02
392.30	213.24
392.68	212.71
393.05	212.64
393.43	212.90
393.81	212.98
394.18	212.76
394.56	212.74
394.94	213.21
395.31	213.29
395.69	213.95
396.06	214.19
396.44	214.45
396.82	214.69
397.19	215.45
397.57	215.60
397.95	216.24
398.32	215.60
398.70	215.90
399.07	216.43
399.45	216.45
399.82	216.36
400.20	216.12
400.58	216.02
400.95	215.36
401.33	215.90
401.70	217.60
402.08	217.69
402.45	217.90
402.83	218.52
403.20	218.74
403.58	218.43
403.95	218.88
404.33	219.38
404.71	219.55
405.08	221.02
405.46	221.24
405.83	221.64
406.21	221.95
406.58	222.29
406.96	222.74
407.33	223.62
407.70	224.50
408.08	226.90
408.45	228.14
408.83	229.12
409.20	229.48
409.58	228.90
409.95	230.26
410.33	231.26
410.70	231.64
411.08	233.02
411.45	234.33
411.82	235.31
412.20	236.88
412.57	239.55
412.95	239.21
413.32	241.26
413.69	242.74
414.07	244.79
414.44	247.19
414.82	249.57
415.19	252.38
415.56	255.19
415.94	256.74
416.31	260.00
416.68	263.48
417.06	267.48
417.43	271.64
417.81	275.81
418.18	280.31
418.55	284.90
418.93	289.79
419.30	294.52
419.67	299.86
420.04	305.07
420.42	310.05
420.79	318.40
421.16	324.88
421.54	332.88
421.91	340.24
422.28	347.36
422.66	354.95
423.03	364.00
423.40	372.14
423.77	380.60
424.15	388.79
424.52	397.88
424.89	407.50
425.26	416.67
425.64	425.76
426.01	435.33
426.38	445.93
426.75	456.67
427.13	467.71
427.50	478.90
427.87	490.50
428.24	502.50
428.61	512.95
428.99	526.29
429.36	539.07
429.73	552.21
430.10	565.93
430.47	579.95
430.85	592.40
431.22	607.29
431.59	624.52
431.96	639.64
432.33	656.12
432.70	672.86
433.08	691.45
433.45	709.14
433.82	726.93
434.19	746.74
434.56	767.21
434.93	786.10
435.30	805.60
435.68	827.10
436.05	847.36
436.42	867.21
436.79	885.90
437.16	906.19
437.53	928.17
437.90	949.45
438.27	970.10
438.64	992.19
439.01	1012.48
439.38	1028.76
439.75	1047.00
440.13	1067.19
440.50	1085.48
440.87	1101.62
441.24	1117.64
441.61	1134.95
441.98	1148.07
442.35	1162.02
442.72	1178.17
443.09	1193.83
443.46	1203.33
443.83	1210.00
444.20	1215.60
444.57	1223.12
444.94	1227.19
445.31	1230.95
445.68	1237.10
446.05	1239.90
446.42	1238.40
446.79	1236.93
447.16	1235.31
447.53	1233.81
447.90	1226.40
448.27	1219.02
448.64	1208.33
449.01	1200.98
449.37	1188.71
449.74	1175.98
450.11	1162.21
450.48	1144.40
450.85	1126.10
451.22	1110.36
451.59	1096.33
451.96	1082.71
452.33	1063.60
452.70	1046.81
453.07	1026.71
453.43	1003.60
453.80	983.69
454.17	964.50
454.54	946.21
454.91	926.83
455.28	907.52
455.65	889.88
456.02	875.33
456.38	860.79
456.75	842.76
457.12	826.79
457.49	811.02
457.86	794.52
458.23	782.02
458.59	767.67
458.96	753.79
459.33	740.67
459.70	728.26
460.07	718.64
460.43	707.17
460.80	697.05
461.17	688.33
461.54	678.24
461.91	669.19
462.27	659.21
462.64	650.57
463.01	641.74
463.38	633.81
463.74	622.00
464.11	613.64
464.48	606.74
464.85	599.29
465.21	594.14
465.58	588.24
465.95	580.40
466.32	574.64
466.68	568.26
467.05	562.26
467.42	556.57
467.78	550.79
468.15	544.57
468.52	539.98
468.88	533.38
469.25	527.81
469.62	523.50
469.98	518.93
470.35	514.88
470.72	510.55
471.08	505.19
471.45	502.21
471.82	499.17
472.18	494.93
472.55	492.24
472.92	488.14
473.28	484.98
473.65	481.98
474.02	478.62
474.38	476.17
474.75	473.81
475.11	470.76
475.48	468.45
475.85	466.48
476.21	464.24
476.58	463.19
476.94	462.07
477.31	460.79
477.67	459.55
478.04	458.67
478.41	458.19
478.77	459.24
479.14	457.86
479.50	457.19
479.87	456.81
480.23	455.90
480.60	455.52
480.96	454.38
481.33	455.17
481.69	455.31
482.06	455.60
482.42	456.31
482.79	456.95
483.15	457.64
483.52	459.17
483.88	459.43
484.25	460.02
484.61	460.90
484.98	461.74
485.34	463.86
485.71	465.64
486.07	467.21
486.44	467.60
486.80	469.43
487.17	470.93
487.53	473.55
487.90	476.71
488.26	479.95
488.62	484.29
488.99	486.69
489.35	490.00
489.72	493.45
490.08	497.00
490.44	500.29
490.81	504.31
491.17	508.12
491.54	512.81
491.90	517.67
492.26	522.40
492.63	527.02
492.99	531.21
493.36	535.88
493.72	541.69
494.08	547.24
494.45	554.00
494.81	560.40
495.17	566.45
495.54	573.31
495.90	579.26
496.26	585.55
496.63	592.26
496.99	599.12
497.35	606.55
497.72	613.86
498.08	621.62
498.44	629.50
498.80	637.55
499.17	645.88
499.53	654.00
499.89	662.57
500.26	671.00
500.62	680.17
500.98	689.90
501.34	698.76
501.71	708.33
502.07	716.55
502.43	725.69
502.79	735.76
503.16	744.74
503.52	755.07
503.88	764.79
504.24	775.31
504.60	785.81
504.97	795.88
505.33	805.57
505.69	816.98
506.05	827.00
506.41	837.38
506.78	847.48
507.14	857.76
507.50	868.48
507.86	880.17
508.22	891.02
508.59	901.10
508.95	912.31
509.31	923.55
509.67	935.07
510.03	945.86
510.39	956.00
510.75	967.07
511.12	977.71
511.48	988.74
511.84	999.40
512.20	1009.71
512.56	1020.86
512.92	1032.76
513.28	1043.43
513.64	1054.74
514.00	1065.60
514.37	1076.60
514.73	1087.29
515.09	1098.48
515.45	1108.14
515.81	1118.33
516.17	1128.95
516.53	1138.64
516.89	1147.81
517.25	1158.12
517.61	1169.19
517.97	1179.60
518.33	1189.64
518.69	1199.71
519.05	1209.93
519.41	1219.21
519.77	1230.62
520.13	1239.60
520.49	1248.10
520.85	1257.05
521.21	1266.45
521.57	1275.88
521.93	1284.21
522.29	1293.52
522.65	1302.60
523.01	1312.07
523.37	1320.52
523.73	1328.98
524.09	1336.95
524.45	1345.19
524.81	1353.00
525.17	1361.02
525.53	1369.00
525.89	1376.95
526.25	1384.83
526.61	1391.69
526.97	1398.93
527.33	1405.74
527.68	1415.12
528.04	1422.86
528.40	1429.83
528.76	1437.24
529.12	1444.74
529.48	1453.93
529.84	1460.48
530.20	1466.43
530.56	1473.43
530.91	1480.57
531.27	1487.40
531.63	1495.19
531.99	1502.29
532.35	1508.43
532.71	1514.14
533.07	1520.43
533.42	1528.50
533.78	1535.38
534.14	1542.38
534.50	1549.31
534.86	1555.95
535.21	1560.40
535.57	1567.26
535.93	1573.43
536.29	1579.64
536.65	1585.71
537.00	1589.79
537.36	1595.50
537.72	1600.52
538.08	1604.88
538.44	1609.76
538.79	1614.71
539.15	1618.48
539.51	1623.76
539.87	1629.02
540.22	1635.19
540.58	1640.02
540.94	1642.71
541.29	1646.43
541.65	1649.48
542.01	1653.76
542.37	1656.43
542.72	1659.29
543.08	1661.60
543.44	1665.14
543.79	1666.48
544.15	1668.64
544.51	1672.74
544.87	1675.90
545.22	1679.26
545.58	1682.93
545.94	1686.33
546.29	1688.90
546.65	1692.07
547.01	1693.29
547.36	1695.12
547.72	1696.02
548.07	1698.10
548.43	1699.05
548.79	1700.48
549.14	1702.48
549.50	1704.19
549.86	1705.24
550.21	1706.90
550.57	1708.67
550.92	1709.52
551.28	1711.88
551.64	1713.45
551.99	1713.81
552.35	1714.60
552.70	1715.57
553.06	1716.24
553.41	1716.62
553.77	1718.74
554.13	1720.19
554.48	1723.05
554.84	1725.60
555.19	1727.00
555.55	1729.48
555.90	1730.98
556.26	1730.98
556.61	1731.52
556.97	1732.05
557.32	1733.33
557.68	1734.19
558.03	1735.33
558.39	1735.90
558.74	1736.60
559.10	1737.14
559.45	1738.52
559.81	1739.38
560.16	1739.64
560.52	1740.38
560.87	1741.21
561.23	1741.10
561.58	1742.38
561.94	1741.21
562.29	1740.10
562.64	1739.71
563.00	1738.43
563.35	1739.45
563.71	1740.64
564.06	1741.45
564.42	1741.60
564.77	1741.88
565.12	1742.83
565.48	1744.98
565.83	1746.14
566.19	1746.10
566.54	1746.05
566.89	1745.26
567.25	1746.74
567.60	1748.67
567.96	1750.62
568.31	1751.14
568.66	1752.05
569.02	1750.90
569.37	1750.14
569.72	1750.10
570.08	1749.64
570.43	1748.98
570.78	1747.57
571.14	1746.90
571.49	1745.93
571.84	1745.40
572.20	1744.50
572.55	1743.24
572.90	1739.31
573.26	1736.98
573.61	1735.55
573.96	1733.45
574.31	1731.86
574.67	1727.93
575.02	1724.62
575.37	1720.29
575.72	1717.17
576.08	1714.14
576.43	1710.50
576.78	1708.88
577.13	1705.67
577.49	1702.40
577.84	1699.36
578.19	1696.62
578.54	1694.19
578.90	1691.71
579.25	1688.14
579.60	1684.48
579.95	1680.00
580.30	1676.45
580.66	1672.90
581.01	1669.60
581.36	1665.02
581.71	1660.60
582.06	1658.74
582.42	1655.52
582.77	1650.90
583.12	1647.81
583.47	1642.98
583.82	1639.67
584.17	1634.79
584.53	1631.86
584.88	1627.95
585.23	1622.98
585.58	1618.14
585.93	1612.50
586.28	1606.81
586.63	1601.52
586.98	1596.74
587.34	1593.67
587.69	1588.07
588.04	1583.57
588.39	1577.98
588.74	1572.88
589.09	1568.95
589.44	1561.74
589.79	1555.93
590.14	1551.38
590.49	1544.52
590.84	1538.95
591.19	1533.29
591.54	1528.19
591.89	1521.43
592.25	1517.26
592.60	1512.81
592.95	1507.88
593.30	1502.79
593.65	1497.33
594.00	1491.10
594.35	1490.76
594.70	1483.83
595.05	1479.69
595.40	1473.62
595.75	1467.71
596.10	1462.81
596.45	1456.79
596.80	1451.76
597.15	1446.43
597.50	1439.95
597.85	1435.24
598.19	1430.43
598.54	1425.02
598.89	1419.38
599.24	1414.14
599.59	1407.21
599.94	1400.38
600.29	1394.02
600.64	1388.81
600.99	1384.21
601.34	1379.90
601.69	1368.71
602.04	1362.43
602.39	1355.21
602.74	1350.69
603.08	1345.36
603.43	1341.36
603.78	1334.93
604.13	1329.17
604.48	1322.05
604.83	1317.00
605.18	1310.67
605.53	1304.10
605.87	1298.17
606.22	1292.48
606.57	1286.55
606.92	1281.05
607.27	1275.79
607.62	1269.86
607.96	1263.71
608.31	1257.74
608.66	1252.10
609.01	1246.76
609.36	1242.57
609.70	1237.76
610.05	1230.74
610.40	1224.33
610.75	1216.43
611.10	1210.81
611.44	1204.45
611.79	1199.07
612.14	1192.71
612.49	1186.79
612.83	1180.43
613.18	1173.71
613.53	1166.55
613.88	1160.36
614.22	1153.79
614.57	1147.40
614.92	1141.17
615.27	1135.31
615.61	1128.29
615.96	1122.40
616.31	1116.17
616.65	1110.02
617.00	1103.88
617.35	1097.81
617.70	1092.07
618.04	1086.43
618.39	1080.36
618.74	1074.55
619.08	1069.10
619.43	1062.86
619.78	1056.88
620.12	1051.45
620.47	1046.45
620.82	1041.07
621.16	1034.79
621.51	1030.52
621.85	1024.64
622.20	1019.29
622.55	1013.21
622.89	1008.02
623.24	1002.36
623.59	996.90
623.93	991.02
624.28	985.95
624.62	983.12
624.97	979.21
625.32	973.64
625.66	968.40
626.01	963.29
626.35	957.43
626.70	952.64
627.04	948.64
627.39	942.79
627.73	937.98
628.08	933.38
628.43	928.36
628.77	921.95
629.12	916.74
629.46	912.02
629.81	906.93
630.15	901.45
630.50	895.79
630.84	889.98
631.19	884.07
631.53	878.93
631.88	870.79
632.22	864.38
632.57	860.14
632.91	854.74
633.26	849.86
633.60	844.81
633.95	839.88
634.29	833.38
634.64	828.79
634.98	822.38
635.32	817.48
635.67	812.93
636.01	807.93
636.36	802.86
636.70	798.21
637.05	793.02
637.39	788.00
637.73	782.95
638.08	779.14
638.42	775.02
638.77	770.60
639.11	766.05
639.45	761.00
639.80	755.50
640.14	751.12
640.49	745.79
640.83	740.50
641.17	735.76
641.52	731.45
641.86	727.02
642.20	723.98
642.55	718.55
642.89	713.74
643.23	709.21
643.58	705.83
643.92	700.38
644.26	696.10
644.61	692.17
644.95	687.98
645.29	683.00
645.64	678.29
645.98	673.21
646.32	669.62
646.66	664.71
647.01	660.48
647.35	656.33
647.69	652.48
648.04	648.86
648.38	644.62
648.72	640.24
649.06	636.10
649.41	631.02
649.75	627.50
650.09	623.29
650.43	618.76
650.78	613.71
651.12	609.74
651.46	605.71
651.80	601.24
652.14	596.88
652.49	593.19
652.83	589.43
653.17	585.07
653.51	580.29
653.85	577.12
654.20	573.17
654.54	568.79
654.88	564.71
655.22	561.45
655.56	557.05
655.90	553.07
656.25	549.19
656.59	545.71
656.93	542.10
657.27	539.38
657.61	535.88
657.95	532.90
658.29	529.45
658.64	526.55
658.98	522.98
659.32	519.88
659.66	516.02
660.00	512.98
660.34	510.19
660.68	507.36
661.02	504.17
661.36	500.93
661.70	498.05
662.05	494.93
662.39	491.57
662.73	489.60
663.07	488.10
663.41	485.14
663.75	481.40
664.09	478.52
664.43	474.86
664.77	472.45
665.11	469.31
665.45	466.45
665.79	463.71
666.13	461.05
666.47	458.33
666.81	455.90
667.15	452.57
667.49	450.17
667.83	448.07
668.17	445.52
668.51	443.43
668.85	441.14
669.19	439.74
669.53	437.00
669.87	434.21
670.21	431.07
670.55	428.74
670.89	427.95
671.23	425.29
671.57	423.19
671.91	421.55
672.25	419.26
672.58	417.95
672.92	415.19
673.26	413.43
673.60	411.52
673.94	409.48
674.28	407.64
674.62	406.07
674.96	403.88
675.30	402.05
675.64	400.05
675.97	398.45
676.31	396.05
676.65	394.17
676.99	393.14
677.33	391.00
677.67	389.45
678.01	386.67
678.34	385.29
678.68	383.95
679.02	381.60
679.36	379.98
679.70	377.67
680.04	376.00
680.37	374.31
680.71	372.38
681.05	370.81
681.39	369.26
681.73	367.12
682.06	365.57
682.40	363.79
682.74	362.55
683.08	361.64
683.42	359.57
683.75	358.48
684.09	356.36
684.43	355.24
684.77	353.40
685.10	352.07
685.44	350.57
685.78	348.90
686.12	347.55
686.45	346.05
686.79	344.60
687.13	343.45
687.46	341.83
687.80	340.81
688.14	339.48
688.48	338.43
688.81	337.17
689.15	336.10
689.49	334.45
689.82	332.98
690.16	330.48
690.50	329.55
690.83	327.79
691.17	326.05
691.51	324.64
691.84	323.81
692.18	322.76
692.52	321.21
692.85	320.33
693.19	320.00
693.52	318.71
693.86	317.52
694.20	316.17
694.53	315.33
694.87	314.17
695.21	313.05
695.54	311.48
695.88	309.95
696.21	307.90
696.55	307.45
696.88	306.29
697.22	305.57
697.56	304.36
697.89	303.55
698.23	303.00
698.56	301.62
698.90	300.71
699.23	299.71
699.57	299.10
699.90	297.55
700.24	295.62
700.58	295.00
700.91	294.50
701.25	295.07
701.58	294.74
701.92	294.00
702.25	293.17
702.59	292.69
702.92	292.26
703.26	291.95
703.59	290.98
703.93	291.93
704.26	291.10
704.60	290.64
704.93	289.60
705.26	288.71
705.60	288.50
705.93	287.17
706.27	287.05
706.60	286.95
706.94	287.48
707.27	286.88
707.61	285.95
707.94	284.79
708.27	282.86
708.61	281.24
708.94	280.43
709.28	279.50
709.61	278.48
709.94	277.90
710.28	277.05
710.61	276.33
710.95	273.64
711.28	274.31
711.61	273.48
711.95	273.38
712.28	272.36
712.61	271.55
712.95	272.31
713.28	272.10
713.61	270.69
713.95	269.07
714.28	268.43
714.61	268.10
714.95	267.31
715.28	266.33
715.61	265.81
715.95	265.45
716.28	264.93
716.61	264.88
716.95	264.05
717.28	263.69
717.61	263.19
717.94	262.95
718.28	260.88
718.61	260.02
718.94	258.88
719.27	258.38
719.61	257.98
719.94	256.76
720.27	255.07
720.60	254.50
720.94	253.98
721.27	253.67
721.60	253.31
721.93	253.00
722.27	253.19
722.60	253.12
722.93	252.26
723.26	252.07
723.59	251.17
723.93	250.86
724.26	250.67
724.59	250.26
724.92	249.79
725.25	250.24
725.59	250.24
725.92	250.19
726.25	250.05
726.58	249.79
726.91	249.00
727.24	249.10
727.57	248.81
727.91	248.48
728.24	248.12
728.57	247.50
728.90	247.38
729.23	246.40
729.56	246.93
729.89	246.55
730.22	246.21
730.55	245.88
730.89	245.74
731.22	245.07
731.55	244.50
731.88	244.33
732.21	243.60
732.54	243.05
732.87	242.67
733.20	242.36
733.53	241.98
733.86	242.12
734.19	241.40
734.52	241.76
734.85	242.60
735.18	242.07
735.51	242.64
735.84	242.33
736.17	242.67
736.50	241.29
736.83	243.67
737.16	243.14
737.49	243.14
737.82	242.81
738.15	242.93
738.48	242.62
738.81	242.17
739.14	241.57
739.47	241.14
739.80	240.81
740.13	240.79
740.46	239.95
740.79	239.43
741.12	239.14
741.45	238.05
741.78	237.05
742.11	237.24
742.44	236.24
742.77	236.48
743.10	235.90
743.43	235.76
743.75	232.95
744.08	235.48
744.41	234.83
744.74	234.31
745.07	233.50
745.40	233.76
745.73	234.55
746.06	234.17
746.39	234.38
746.71	234.21
747.04	233.64
747.37	233.67
747.70	233.71
748.03	233.76
748.36	233.95
748.68	233.55
749.01	233.10
749.34	232.93
749.67	232.71
750.00	232.98
750.33	234.33
750.65	234.67
750.98	231.90
751.31	232.14
751.64	232.29
751.97	233.57
752.29	233.36
752.62	232.26
752.95	232.55
753.28	231.76
753.60	231.64
753.93	231.98
754.26	231.88
754.59	231.07
754.91	230.79
755.24	230.67
755.57	230.57
755.90	230.24
756.22	230.02
756.55	229.45
756.88	228.76
757.20	226.90
757.53	226.05
757.86	225.79
758.19	225.67
758.51	225.48
758.84	224.12
759.17	223.79
759.49	224.00
759.82	224.62
760.15	224.90
760.47	224.79
760.80	224.17
761.13	224.55
761.45	224.48
761.78	224.19
762.11	224.00
762.43	223.74
762.76	223.55
763.08	223.62
763.41	223.62
763.74	223.50
764.06	223.57
764.39	223.64
764.71	223.74
765.04	223.24
765.37	223.02
765.69	222.81
766.02	222.57
766.34	222.00
766.67	220.93
767.00	221.29
767.32	222.12
767.65	223.52
767.97	223.02
768.30	223.29
768.62	223.50
768.95	223.31
769.27	223.05
769.60	223.21
769.92	222.71
770.25	222.17
770.57	221.74
770.90	221.40
771.22	221.12
771.55	220.95
771.87	221.17
772.20	220.90
772.52	222.76
772.85	225.07
773.17	225.26
773.50	225.26
773.82	224.81
774.15	223.88
774.47	222.33
774.80	222.21
775.12	221.88
775.45	221.62
775.77	221.79
776.09	221.98
776.42	222.02
776.74	222.83
777.07	222.90
777.39	223.17
777.72	223.19
778.04	223.48
778.36	223.19
778.69	223.50
779.01	223.69
779.33	221.81
779.66	219.48
779.98	219.26
780.31	219.19
780.63	219.95
780.95	220.50
781.28	220.43
781.60	220.24
781.92	220.33
782.25	220.26
782.57	219.98
782.89	219.57
783.22	219.38
783.54	218.76
783.86	218.79
784.19	218.67
784.51	219.26
784.83	218.93
785.16	219.00
785.48	218.60
785.80	218.57
786.12	218.81
786.45	218.81
786.77	218.86
787.09	218.81
787.42	218.19
787.74	217.81
788.06	218.05
788.38	217.90
788.71	217.81
789.03	218.07
789.35	218.48
789.67	218.38
789.99	218.60
790.32	218.48
790.64	218.79
790.96	220.21
791.28	219.40
791.61	219.19
791.93	219.14
792.25	219.07
792.57	220.60
792.89	220.14
793.21	220.33
793.54	220.17
793.86	220.21
794.18	220.29
794.50	219.81
794.82	219.62
795.14	220.19
795.47	220.60
795.79	220.43
796.11	219.88
796.43	219.69
796.75	219.36
797.07	219.36
797.39	219.19
797.71	217.95
798.04	218.17
798.36	218.36
798.68	218.67
799.00	219.00
799.32	217.74
799.64	218.14
799.96	218.00
800.28	218.19
800.60	217.88
800.92	217.95
801.24	217.79
801.56	217.90
801.89	217.48
802.21	217.40
802.53	217.10
802.85	217.45
803.17	218.69
803.49	218.31
803.81	218.00
804.13	217.62
804.45	217.26
804.77	217.40
805.09	217.38
805.41	216.81
805.73	216.26
806.05	215.50
806.37	215.31
806.69	215.10
807.01	215.17
807.33	215.33
807.65	214.38
807.97	215.50
808.28	215.43
808.60	215.45
808.92	215.14
809.24	216.43
809.56	216.24
809.88	215.48
810.20	215.64
810.52	216.31
810.84	216.40
811.16	216.43
811.48	216.14
811.80	216.76
812.12	217.00
812.43	217.40
812.75	217.98
813.07	217.62
813.39	217.74
813.71	217.43
814.03	217.36
814.35	217.60
814.67	216.60
814.98	216.31
815.30	216.17
815.62	215.86
815.94	214.48
816.26	214.48
816.58	213.95
816.89	214.21
817.21	213.62
817.53	213.45
817.85	213.40
818.17	213.48
818.48	212.64
818.80	212.95
819.12	212.62
819.44	212.05
819.76	211.98
820.07	212.17
820.39	212.00
820.71	212.07
821.03	212.14
821.34	212.36
821.66	212.74
821.98	213.02
822.30	213.12
822.61	214.38
822.93	214.14
823.25	214.12
823.57	213.81
823.88	214.24
824.20	214.43
824.52	214.64
824.83	214.64
825.15	214.79
825.47	214.69
825.79	214.62
826.10	214.71
826.42	214.55
826.74	214.71
827.05	214.67
827.37	214.79
827.69	214.52
828.00	214.69
828.32	214.40
828.64	214.07
828.95	214.98
829.27	214.36
829.58	214.43
829.90	215.02
830.22	215.43
830.53	214.81
830.85	214.55
831.17	214.38
831.48	214.43
831.80	214.43
832.11	214.00
832.43	214.17
832.75	214.07
833.06	215.36
833.38	214.71
833.69	214.57
834.01	214.62
834.32	214.71
834.64	214.36
834.96	214.40
835.27	214.50
835.59	213.95
835.90	213.43
836.22	213.60
836.53	213.19
836.85	212.86
837.16	215.05
837.48	215.10
837.79	215.67
838.11	215.67
838.42	215.60
838.74	216.07
839.05	215.95
839.37	215.93
839.68	214.71
840.00	214.71
840.31	215.36
840.63	215.31
840.94	215.17
841.26	214.76
841.57	214.69
841.88	214.79
842.20	214.36
842.51	214.43
842.83	214.31
843.14	216.19
843.46	216.14
843.77	215.26
844.08	215.29
844.40	214.67
844.71	214.31
845.03	214.10
845.34	213.93
845.65	213.57
845.97	213.67
846.28	213.93
846.60	214.00
846.91	213.33
847.22	213.10
847.54	213.55
847.85	213.71
848.16	213.83
848.48	213.36
848.79	214.48
849.10	214.55
849.42	214.60
849.73	212.50
850.04	212.64
850.36	211.76
850.67	212.24
850.98	212.36
851.30	212.52
851.61	212.52
851.92	212.29
852.23	212.88
852.55	213.10
852.86	212.98
853.17	213.10
853.49	213.71
853.80	214.10
854.11	214.26
854.42	214.81
854.74	214.40
855.05	214.69
855.36	213.62
855.67	213.79
855.99	213.71
856.30	216.31
856.61	216.19
856.92	216.29
857.23	216.17
857.55	215.69
857.86	215.57
858.17	216.05
858.48	215.98
858.79	215.74
859.11	215.69
859.42	215.55
859.73	215.29
860.04	215.17
860.35	214.50
860.66	214.02
860.98	213.67
861.29	213.81
861.60	213.48
861.91	213.93
862.22	213.45
862.53	213.19
862.84	210.67
863.16	211.00
863.47	210.71
863.78	210.29
864.09	210.79
864.40	211.07
864.71	210.88
865.02	211.14
865.33	210.90
865.64	210.67
865.95	210.69
866.27	212.12
866.58	211.93
866.89	212.19
867.20	212.14
867.51	212.05
867.82	211.90
868.13	212.69
868.44	212.02
868.75	212.55
869.06	212.79
869.37	213.00
869.68	212.57
869.99	212.98
870.30	213.31
870.61	213.24
870.92	212.90
871.23	212.74
871.54	213.05
871.85	213.50
872.16	213.79
872.47	213.67
872.78	212.21
873.09	212.24
873.40	212.19
873.71	212.17
874.02	212.36
874.33	212.40
874.64	211.83
874.95	212.45
875.26	212.17
875.56	212.17
875.87	212.24
876.18	212.36
876.49	214.24
876.80	213.95
877.11	213.60
877.42	213.74
877.73	213.71
878.04	213.31
878.35	213.50
878.66	213.45
878.96	213.45
879.27	213.55
879.58	213.62
879.89	213.52
880.20	214.43
880.51	214.10
880.82	214.21
881.12	214.52
881.43	214.05
881.74	213.81
882.05	213.62
882.36	213.57
882.67	213.52
882.97	211.26
883.28	211.24
883.59	211.26
883.90	211.40
884.21	211.88
884.51	211.71
884.82	211.33
885.13	211.38
885.44	211.62
885.74	211.67
886.05	211.50
886.36	211.50
886.67	210.55
886.98	211.64
887.28	211.98
887.59	211.88
887.90	212.12
888.20	212.00
888.51	212.33
888.82	212.19
889.13	212.60
889.43	214.29
889.74	214.24
890.05	214.10
890.35	213.98
890.66	213.62
890.97	213.60
891.28	213.38
891.58	213.29
891.89	213.02
892.20	212.95
892.50	213.05
892.81	212.83
893.12	212.95
893.42	211.76
893.73	211.55
894.04	211.62
894.34	211.43
894.65	211.57
894.95	211.24
895.26	211.21
895.57	211.88
895.87	209.95
896.18	210.31
896.48	210.62
896.79	210.64
897.10	210.90
897.40	211.02
897.71	211.26
898.01	211.21
898.32	211.52
898.63	211.45
898.93	211.67
899.24	211.74
899.54	211.62
899.85	211.86
900.15	211.88
900.46	211.64
900.76	211.98
901.07	211.90
901.38	211.76
901.68	212.17
901.99	210.86
902.29	211.07
902.60	210.83
902.90	210.67
903.21	210.48
903.51	210.36
903.82	210.52
904.12	210.62
904.43	210.86
904.73	210.83
905.03	211.12
905.34	212.81
905.64	212.95
905.95	212.90
906.25	212.95
906.56	212.98
906.86	213.24
907.17	213.19
907.47	213.38
907.77	213.48
908.08	212.88
908.38	213.31
908.69	213.52
908.99	213.93
909.30	213.90
909.60	214.05
909.90	213.98
910.21	213.69
910.51	213.31
910.81	213.21
911.12	213.48
911.42	213.24
911.73	211.21
912.03	211.21
912.33	211.71
912.64	211.60
912.94	211.33
913.24	211.02
913.55	210.81
913.85	210.76
914.15	211.05
914.46	211.36
914.76	211.17
915.06	210.90
915.37	210.62
915.67	210.60
915.97	210.62
916.27	210.36
916.58	210.55
916.88	210.48
917.18	210.21
917.49	211.38
917.79	211.50
918.09	211.74
918.39	212.24
918.70	212.12
919.00	212.02
919.30	212.98
919.60	212.83
919.91	212.48
920.21	212.52
920.51	212.05
920.81	211.76
921.12	212.02
921.42	212.10
921.72	212.19
922.02	212.33
922.32	212.69
922.63	212.60
922.93	213.40
923.23	213.43
923.53	213.48
923.83	212.19
924.13	212.31
924.44	212.19
924.74	212.64
925.04	213.02
925.34	213.21
925.64	212.43
925.94	212.52
926.24	213.69
926.55	213.45
926.85	213.83
927.15	214.12
927.45	214.19
927.75	214.12
928.05	214.05
928.35	213.98
928.65	214.10
928.95	214.57
929.26	213.88
929.56	214.55
929.86	214.67
930.16	214.14
930.46	213.93
930.76	214.29
931.06	213.29
931.36	212.69
931.66	212.95
931.96	213.02
932.26	213.14
932.56	212.26
932.86	212.36
933.16	212.40
933.46	212.24
933.76	211.93
934.06	212.38
934.36	213.19
934.66	213.17
934.96	212.86
935.26	212.93
935.56	213.05
935.86	212.45
936.16	212.36
936.46	212.52
936.76	212.62
937.06	212.12
937.36	212.40
937.66	212.62
937.96	212.29
938.26	212.24
938.56	212.10
938.86	212.33
939.16	212.98
939.46	213.26
939.76	213.33
940.06	213.29
940.35	212.98
940.65	211.83
940.95	211.86
941.25	211.52
941.55	211.12
941.85	211.10
942.15	211.57
942.45	211.95
942.75	211.93
943.04	211.95
943.34	212.50
943.64	212.21
943.94	211.83
944.24	212.07
944.54	211.86
944.84	211.74
945.13	211.55
945.43	211.00
945.73	210.88
946.03	210.69
946.33	210.36
946.62	210.26
946.92	210.36
947.22	210.71
947.52	210.79
947.82	211.14
948.11	210.81
948.41	210.31
948.71	209.76
949.01	210.07
949.31	209.62
949.60	209.38
949.90	209.74
950.20	209.83
950.50	210.05
950.79	210.17
951.09	210.48
951.39	210.50
951.69	210.36
951.98	210.57
952.28	210.62
952.58	211.17
952.87	210.93
953.17	211.17
953.47	210.90
953.76	211.14
954.06	210.81
954.36	210.76
954.66	210.90
954.95	211.43
955.25	211.40
955.55	211.76
955.84	211.36
956.14	211.55
956.44	211.52
956.73	210.95
957.03	210.95
957.32	211.07
957.62	211.05
957.92	211.21
958.21	210.95
958.51	213.57
958.81	213.57
959.10	213.98
959.40	214.48
959.69	214.55
959.99	214.71
960.29	214.93
960.58	214.90
960.88	215.64
961.17	215.36
961.47	215.48
961.76	215.24
962.06	215.79
962.36	215.60
962.65	215.88
962.95	216.05
963.24	215.88
963.54	215.81
963.83	215.90
964.13	216.00
964.42	215.38
964.72	213.62
965.01	213.64
965.31	213.38
965.60	212.69
965.90	214.07
966.19	213.55
966.49	213.57
966.78	213.43
967.08	213.24
967.37	213.50
967.67	213.17
967.96	213.71
968.26	213.55
968.55	213.64
968.85	213.57
969.14	213.48
969.43	213.48
969.73	213.55
970.02	213.21
970.32	213.26
970.61	213.62
970.91	212.83
971.20	212.55
971.49	212.38
971.79	212.67
972.08	211.31
972.38	211.38
972.67	211.38
972.96	211.71
973.26	210.93
973.55	211.36
973.85	211.21
974.14	211.05
974.43	211.26
974.73	210.55
975.02	210.40
975.31	210.43
975.61	210.67
975.90	210.36
976.19	210.40
976.49	210.50
976.78	210.71
977.07	210.81
977.37	211.00
977.66	211.50
977.95	211.24
978.24	211.14
978.54	211.81
978.83	211.45
979.12	211.38
979.42	211.57
979.71	211.05
980.00	211.05
980.29	210.93
980.59	210.31
980.88	211.07
981.17	211.00
981.46	211.19
981.76	210.86
982.05	211.48
982.34	211.45
982.63	211.43
982.93	211.14
983.22	211.69
983.51	211.76
983.80	211.74
984.09	211.88
984.39	211.90
984.68	211.38
984.97	211.67
985.26	211.50
985.55	211.88
985.85	211.64
986.14	212.17
986.43	212.33
986.72	212.57
987.01	212.00
987.30	212.05
987.59	211.67
987.89	212.02
988.18	211.33
988.47	211.19
988.76	211.00
989.05	210.90
989.34	210.52
989.63	210.95
989.92	210.74
990.22	210.69
990.51	210.50
990.80	210.57
991.09	210.76
991.38	210.90
991.67	210.45
991.96	210.26
992.25	210.19
992.54	210.00
992.83	209.95
993.12	210.02
993.41	210.19
993.70	211.07
993.99	211.10
994.28	211.45
994.58	211.88
994.87	211.62
995.16	211.48
995.45	211.29
995.74	210.57
996.03	210.76
996.32	211.07
996.61	211.52
996.90	211.26
997.19	210.95
997.48	211.21
997.77	211.05
998.06	211.24
998.34	210.95
998.63	210.93
998.92	211.02
999.21	211.31
999.50	211.14
999.79	210.57
1000.08	210.64
1000.37	210.50
1000.66	210.10
1000.95	210.52
1001.24	210.76
1001.53	211.02
1001.82	211.07
1002.11	210.81
1002.40	211.00
1002.68	211.52
1002.97	213.21
1003.26	213.14
1003.55	212.67
1003.84	213.05
1004.13	213.62
1004.42	213.76
1004.71	214.17
1004.99	214.10
1005.28	214.52
1005.57	214.43
1005.86	214.14
1006.15	214.05
1006.44	213.90
1006.72	214.29
1007.01	214.07
1007.30	214.02
1007.59	213.98
1007.88	213.79
1008.17	213.76
1008.45	213.29
1008.74	212.29
1009.03	211.45
1009.32	211.40
1009.60	211.45
1009.89	211.19
1010.18	210.40
1010.47	210.24
1010.76	209.71
1011.04	209.62
1011.33	209.57
1011.62	209.76
1011.91	209.90
1012.19	209.88
1012.48	209.95
1012.77	209.86
1013.05	210.90
1013.34	211.02
1013.63	210.79
1013.92	210.90
1014.20	210.95
1014.49	211.21
1014.78	211.57
1015.06	210.79
1015.35	210.86
1015.64	211.17
1015.92	211.31
1016.21	211.57
1016.50	211.60
1016.78	211.90
1017.07	212.10
1017.36	211.64
1017.64	211.24
1017.93	211.50
1018.22	211.29
1018.50	211.29
1018.79	211.21
1019.08	210.10
1019.36	210.19
1019.65	210.05
1019.93	210.76
1020.22	211.14
1020.51	211.86
1020.79	211.55
1021.08	206.50
1021.36	209.00
1021.65	209.50
1021.94	209.00
1022.22	211.00
1022.51	206.50
1022.79	222.50
1023.08	217.00
1023.36	232.00
1023.65	206.00
>>>>>End Processed Spectral Data<<<<<
