SpectraSuite Data File
++++++++++++++++++++++++++++++++++++
Date: Tue Apr 02 18:43:33 EDT 2013
User: group
Dark Spectrum Present: No
Reference Spectrum Present: No
Number of Sampled Component Spectra: 1
Spectrometers: USB2E7196
Integration Time (usec): 580000 (USB2E7196)
Spectra Averaged: 2 (USB2E7196)
Boxcar Smoothing: 10 (USB2E7196)
Correct for Electrical Dark: No (USB2E7196)
Strobe/Lamp Enabled: No (USB2E7196)
Correct for Detector Non-linearity: No (USB2E7196)
Correct for Stray Light: No (USB2E7196)
Number of Pixels in Processed Spectrum: 2048
>>>>>Begin Processed Spectral Data<<<<<
339.09	0.00
339.48	195.50
339.86	195.50
340.24	198.00
340.63	193.00
341.01	230.00
341.39	197.00
341.78	207.50
342.16	210.00
342.54	205.50
342.93	196.95
343.31	206.74
343.69	207.12
344.07	207.74
344.46	208.17
344.84	208.81
345.22	207.55
345.60	208.05
345.99	208.24
346.37	208.02
346.75	208.19
347.13	208.31
347.52	208.19
347.90	208.88
348.28	209.14
348.66	209.57
349.05	208.86
349.43	209.10
349.81	209.19
350.19	209.31
350.57	209.76
350.96	210.14
351.34	210.38
351.72	210.52
352.10	210.43
352.48	210.29
352.87	210.52
353.25	210.60
353.63	210.71
354.01	210.48
354.39	210.90
354.77	211.02
355.15	211.24
355.54	211.10
355.92	210.40
356.30	210.33
356.68	211.86
357.06	211.81
357.44	211.38
357.82	211.19
358.20	212.05
358.58	211.83
358.97	211.67
359.35	212.14
359.73	212.67
360.11	212.79
360.49	213.00
360.87	212.83
361.25	213.26
361.63	213.98
362.01	214.29
362.39	213.95
362.77	214.02
363.15	214.29
363.53	214.45
363.91	214.71
364.29	214.98
364.67	212.88
365.05	213.29
365.43	213.71
365.81	214.14
366.19	214.10
366.57	214.69
366.95	214.90
367.33	214.38
367.71	214.45
368.09	214.74
368.47	214.69
368.85	214.76
369.23	215.36
369.61	214.55
369.99	215.26
370.37	215.71
370.75	216.60
371.13	216.05
371.51	215.93
371.89	216.05
372.27	216.10
372.65	216.24
373.03	216.38
373.41	216.29
373.78	216.05
374.16	215.33
374.54	214.90
374.92	214.71
375.30	214.71
375.68	214.33
376.06	214.45
376.44	214.67
376.82	214.98
377.19	214.52
377.57	214.60
377.95	213.67
378.33	213.57
378.71	212.57
379.09	213.21
379.47	213.43
379.84	213.48
380.22	213.10
380.60	212.88
380.98	212.57
381.36	212.50
381.73	212.36
382.11	212.71
382.49	213.02
382.87	212.71
383.25	212.62
383.62	214.88
384.00	214.45
384.38	214.45
384.76	214.76
385.13	215.64
385.51	215.48
385.89	215.45
386.27	215.50
386.64	215.60
387.02	215.26
387.40	215.21
387.78	215.21
388.15	215.24
388.53	215.19
388.91	215.48
389.29	215.05
389.66	215.31
390.04	214.86
390.42	214.86
390.79	215.24
391.17	215.24
391.55	212.93
391.92	213.00
392.30	213.29
392.68	212.67
393.05	212.29
393.43	212.26
393.81	212.31
394.18	211.88
394.56	212.00
394.94	212.40
395.31	212.19
395.69	212.79
396.06	213.17
396.44	213.21
396.82	213.00
397.19	214.40
397.57	214.26
397.95	214.60
398.32	214.24
398.70	214.26
399.07	214.67
399.45	214.71
399.82	214.88
400.20	214.57
400.58	214.93
400.95	214.19
401.33	214.88
401.70	216.40
402.08	216.79
402.45	216.83
402.83	217.38
403.20	217.43
403.58	217.26
403.95	217.88
404.33	218.52
404.71	218.98
405.08	220.17
405.46	220.48
405.83	220.98
406.21	221.33
406.58	221.71
406.96	222.29
407.33	223.12
407.70	223.83
408.08	226.12
408.45	226.76
408.83	228.00
409.20	228.24
409.58	227.98
409.95	229.05
410.33	230.24
410.70	230.43
411.08	231.74
411.45	232.67
411.82	233.33
412.20	234.90
412.57	237.26
412.95	236.86
413.32	238.40
413.69	239.81
414.07	241.48
414.44	243.43
414.82	245.26
415.19	247.31
415.56	249.43
415.94	250.69
416.31	253.55
416.68	256.07
417.06	259.38
417.43	262.74
417.81	266.10
418.18	269.86
418.55	273.60
418.93	277.67
419.30	282.05
419.67	286.64
420.04	291.10
420.42	295.29
420.79	302.50
421.16	307.95
421.54	314.98
421.91	321.17
422.28	327.24
422.66	333.90
423.03	341.88
423.40	348.79
423.77	355.52
424.15	362.07
424.52	370.07
424.89	378.81
425.26	386.50
425.64	394.10
426.01	402.14
426.38	410.93
426.75	420.43
427.13	429.17
427.50	438.52
427.87	448.17
428.24	457.55
428.61	465.79
428.99	477.62
429.36	487.79
429.73	499.05
430.10	510.48
430.47	522.24
430.85	532.64
431.22	545.02
431.59	560.10
431.96	573.48
432.33	587.64
432.70	601.24
433.08	616.93
433.45	632.07
433.82	647.33
434.19	664.60
434.56	680.88
434.93	696.83
435.30	712.81
435.68	730.48
436.05	748.17
436.42	765.31
436.79	779.98
437.16	797.00
437.53	814.07
437.90	831.24
438.27	848.76
438.64	866.95
439.01	884.17
439.38	898.29
439.75	913.12
440.13	929.43
440.50	945.31
440.87	958.57
441.24	971.93
441.61	986.60
441.98	997.14
442.35	1009.76
442.72	1022.40
443.09	1036.05
443.46	1043.14
443.83	1048.12
444.20	1053.00
444.57	1059.86
444.94	1063.64
445.31	1068.19
445.68	1074.86
446.05	1076.69
446.42	1075.52
446.79	1074.57
447.16	1072.43
447.53	1070.98
447.90	1065.31
448.27	1058.79
448.64	1050.36
449.01	1044.69
449.37	1033.90
449.74	1023.00
450.11	1011.93
450.48	997.71
450.85	981.55
451.22	969.48
451.59	957.69
451.96	946.05
452.33	930.10
452.70	916.21
453.07	899.40
453.43	879.71
453.80	863.00
454.17	847.36
454.54	831.98
454.91	815.52
455.28	800.12
455.65	784.88
456.02	773.00
456.38	760.05
456.75	744.60
457.12	730.69
457.49	718.02
457.86	703.14
458.23	693.17
458.59	681.57
458.96	669.76
459.33	659.24
459.70	648.67
460.07	641.10
460.43	630.95
460.80	621.57
461.17	614.48
461.54	606.45
461.91	598.67
462.27	589.88
462.64	583.31
463.01	575.55
463.38	568.98
463.74	558.52
464.11	551.81
464.48	545.48
464.85	539.12
465.21	534.29
465.58	529.43
465.95	522.57
466.32	517.57
466.68	512.29
467.05	507.36
467.42	502.24
467.78	496.48
468.15	491.52
468.52	487.98
468.88	482.00
469.25	477.17
469.62	473.50
469.98	469.95
470.35	466.02
470.72	462.60
471.08	457.93
471.45	455.43
471.82	452.83
472.18	449.33
472.55	447.05
472.92	443.76
473.28	440.50
473.65	437.98
474.02	435.40
474.38	433.71
474.75	431.57
475.11	429.36
475.48	427.55
475.85	425.71
476.21	424.10
476.58	422.95
476.94	421.57
477.31	420.43
477.67	419.29
478.04	418.21
478.41	417.36
478.77	418.86
479.14	417.24
479.50	416.81
479.87	416.64
480.23	416.02
480.60	415.50
480.96	415.95
481.33	416.74
481.69	416.86
482.06	416.60
482.42	417.24
482.79	417.50
483.15	418.24
483.52	419.36
483.88	419.76
484.25	420.24
484.61	421.10
484.98	421.57
485.34	422.98
485.71	424.38
486.07	425.67
486.44	425.05
486.80	427.17
487.17	428.14
487.53	430.76
487.90	433.33
488.26	436.57
488.62	439.21
488.99	440.90
489.35	443.79
489.72	446.40
490.08	448.86
490.44	451.69
490.81	454.60
491.17	457.57
491.54	461.14
491.90	464.79
492.26	468.40
492.63	472.29
492.99	475.48
493.36	479.69
493.72	483.83
494.08	488.52
494.45	493.24
494.81	498.52
495.17	503.07
495.54	508.02
495.90	512.52
496.26	517.45
496.63	523.31
496.99	528.40
497.35	534.26
497.72	540.21
498.08	545.76
498.44	551.93
498.80	558.29
499.17	564.21
499.53	570.55
499.89	577.71
500.26	584.19
500.62	591.57
500.98	598.88
501.34	606.19
501.71	613.57
502.07	619.67
502.43	626.40
502.79	632.81
503.16	639.62
503.52	646.60
503.88	653.02
504.24	660.21
504.60	667.93
504.97	675.43
505.33	682.93
505.69	692.05
506.05	699.50
506.41	706.83
506.78	714.57
507.14	722.12
507.50	729.67
507.86	737.76
508.22	745.50
508.59	752.33
508.95	759.93
509.31	768.50
509.67	777.05
510.03	784.93
510.39	792.71
510.75	801.07
511.12	808.55
511.48	816.83
511.84	824.29
512.20	831.90
512.56	840.10
512.92	848.36
513.28	855.33
513.64	863.40
514.00	870.60
514.37	878.05
514.73	885.24
515.09	892.81
515.45	899.02
515.81	905.95
516.17	913.60
516.53	919.79
516.89	925.10
517.25	931.90
517.61	938.69
517.97	945.48
518.33	951.62
518.69	958.71
519.05	965.33
519.41	972.05
519.77	979.67
520.13	984.81
520.49	989.52
520.85	995.19
521.21	1001.52
521.57	1007.76
521.93	1012.45
522.29	1018.10
522.65	1022.64
523.01	1028.62
523.37	1033.26
523.73	1038.00
524.09	1043.29
524.45	1048.24
524.81	1052.69
525.17	1057.60
525.53	1062.45
525.89	1067.19
526.25	1071.69
526.61	1075.86
526.97	1079.55
527.33	1082.76
527.68	1088.98
528.04	1094.19
528.40	1098.33
528.76	1101.69
529.12	1106.17
529.48	1111.60
529.84	1116.24
530.20	1121.05
530.56	1125.69
530.91	1130.43
531.27	1134.67
531.63	1139.48
531.99	1143.26
532.35	1146.60
532.71	1150.05
533.07	1154.21
533.42	1161.14
533.78	1165.50
534.14	1170.02
534.50	1174.31
534.86	1178.98
535.21	1181.62
535.57	1185.83
535.93	1190.05
536.29	1194.31
536.65	1198.26
537.00	1201.48
537.36	1204.74
537.72	1207.88
538.08	1210.95
538.44	1214.29
538.79	1218.24
539.15	1221.79
539.51	1226.74
539.87	1231.12
540.22	1234.19
540.58	1237.21
540.94	1237.93
541.29	1240.60
541.65	1242.57
542.01	1246.12
542.37	1248.55
542.72	1250.64
543.08	1252.76
543.44	1255.79
543.79	1257.81
544.15	1260.69
544.51	1264.07
544.87	1266.86
545.22	1270.05
545.58	1273.05
545.94	1275.50
546.29	1277.71
546.65	1278.93
547.01	1280.36
547.36	1282.57
547.72	1285.33
548.07	1288.02
548.43	1290.00
548.79	1292.07
549.14	1295.02
549.50	1298.67
549.86	1300.76
550.21	1303.38
550.57	1306.81
550.92	1309.12
551.28	1313.36
551.64	1315.71
551.99	1318.02
552.35	1320.95
552.70	1322.81
553.06	1325.74
553.41	1328.88
553.77	1333.43
554.13	1337.69
554.48	1341.98
554.84	1346.86
555.19	1350.81
555.55	1355.95
555.90	1359.67
556.26	1363.10
556.61	1367.07
556.97	1368.83
557.32	1373.26
557.68	1377.69
558.03	1380.79
558.39	1384.67
558.74	1386.62
559.10	1390.33
559.45	1394.86
559.81	1399.45
560.16	1404.29
560.52	1408.81
560.87	1413.95
561.23	1416.64
561.58	1422.76
561.94	1425.98
562.29	1429.57
562.64	1435.10
563.00	1438.19
563.35	1443.00
563.71	1448.45
564.06	1453.98
564.42	1459.83
564.77	1465.64
565.12	1471.86
565.48	1478.79
565.83	1485.76
566.19	1492.00
566.54	1497.95
566.89	1503.88
567.25	1509.50
567.60	1516.90
567.96	1524.67
568.31	1531.21
568.66	1538.50
569.02	1541.90
569.37	1547.86
569.72	1553.00
570.08	1557.14
570.43	1563.02
570.78	1569.14
571.14	1575.71
571.49	1580.88
571.84	1585.67
572.20	1589.64
572.55	1594.40
572.90	1598.38
573.26	1601.40
573.61	1605.64
573.96	1610.14
574.31	1613.90
574.67	1618.43
575.02	1621.10
575.37	1622.64
575.72	1625.45
576.08	1628.55
576.43	1632.79
576.78	1636.67
577.13	1640.62
577.49	1644.29
577.84	1647.64
578.19	1650.21
578.54	1652.69
578.90	1656.71
579.25	1661.29
579.60	1664.86
579.95	1667.31
580.30	1670.64
580.66	1674.38
581.01	1678.26
581.36	1680.86
581.71	1684.33
582.06	1688.52
582.42	1692.67
582.77	1696.21
583.12	1699.12
583.47	1701.88
583.82	1704.55
584.17	1707.86
584.53	1711.50
584.88	1715.19
585.23	1718.38
585.58	1721.43
585.93	1723.88
586.28	1725.40
586.63	1727.76
586.98	1730.12
587.34	1733.76
587.69	1735.21
588.04	1738.33
588.39	1740.02
588.74	1741.62
589.09	1744.21
589.44	1744.05
589.79	1746.00
590.14	1747.93
590.49	1749.31
590.84	1751.19
591.19	1754.38
591.54	1756.29
591.89	1757.29
592.25	1760.55
592.60	1761.05
592.95	1763.19
593.30	1765.10
593.65	1766.64
594.00	1767.17
594.35	1773.83
594.70	1773.50
595.05	1775.90
595.40	1776.14
595.75	1777.45
596.10	1779.62
596.45	1780.31
596.80	1781.60
597.15	1782.10
597.50	1782.33
597.85	1784.60
598.19	1785.05
598.54	1784.88
598.89	1784.76
599.24	1786.45
599.59	1784.88
599.94	1785.74
600.29	1785.50
600.64	1785.36
600.99	1785.19
601.34	1785.81
601.69	1780.19
602.04	1780.19
602.39	1778.83
602.74	1779.43
603.08	1778.86
603.43	1779.38
603.78	1778.48
604.13	1777.81
604.48	1776.40
604.83	1776.64
605.18	1775.29
605.53	1774.60
605.87	1773.48
606.22	1772.76
606.57	1771.05
606.92	1770.95
607.27	1769.95
607.62	1769.69
607.96	1769.95
608.31	1769.64
608.66	1767.90
609.01	1766.31
609.36	1765.52
609.70	1764.14
610.05	1760.90
610.40	1758.79
610.75	1755.86
611.10	1754.67
611.44	1752.52
611.79	1750.52
612.14	1747.31
612.49	1744.57
612.83	1740.88
613.18	1738.57
613.53	1735.24
613.88	1731.00
614.22	1726.67
614.57	1723.07
614.92	1718.50
615.27	1713.98
615.61	1709.57
615.96	1705.98
616.31	1702.43
616.65	1699.48
617.00	1697.02
617.35	1693.86
617.70	1690.64
618.04	1686.71
618.39	1681.79
618.74	1678.48
619.08	1674.69
619.43	1671.21
619.78	1667.14
620.12	1664.93
620.47	1661.24
620.82	1657.24
621.16	1653.05
621.51	1650.79
621.85	1646.21
622.20	1642.38
622.55	1637.29
622.89	1633.79
623.24	1630.36
623.59	1626.60
623.93	1622.31
624.28	1617.38
624.62	1616.29
624.97	1613.90
625.32	1610.12
625.66	1606.38
626.01	1601.55
626.35	1598.29
626.70	1594.76
627.04	1591.64
627.39	1587.12
627.73	1583.14
628.08	1580.14
628.43	1577.67
628.77	1572.21
629.12	1569.74
629.46	1566.21
629.81	1563.17
630.15	1558.45
630.50	1553.45
630.84	1548.86
631.19	1543.81
631.53	1539.21
631.88	1531.36
632.22	1525.12
632.57	1520.93
632.91	1515.90
633.26	1511.93
633.60	1505.50
633.95	1499.79
634.29	1493.93
634.64	1490.24
634.98	1484.60
635.32	1479.31
635.67	1475.05
636.01	1471.14
636.36	1465.26
636.70	1460.90
637.05	1455.79
637.39	1450.98
637.73	1446.19
638.08	1442.45
638.42	1437.31
638.77	1433.07
639.11	1428.33
639.45	1422.67
639.80	1416.71
640.14	1411.48
640.49	1406.02
640.83	1401.62
641.17	1397.48
641.52	1392.19
641.86	1385.24
642.20	1381.60
642.55	1376.24
642.89	1369.67
643.23	1363.38
643.58	1359.02
643.92	1352.29
644.26	1346.83
644.61	1341.69
644.95	1335.95
645.29	1329.36
645.64	1324.02
645.98	1317.88
646.32	1312.81
646.66	1306.33
647.01	1300.57
647.35	1295.57
647.69	1290.00
648.04	1284.55
648.38	1277.60
648.72	1271.67
649.06	1266.00
649.41	1258.48
649.75	1252.10
650.09	1245.81
650.43	1239.38
650.78	1232.62
651.12	1226.60
651.46	1220.31
651.80	1213.17
652.14	1206.88
652.49	1200.33
652.83	1194.10
653.17	1187.21
653.51	1180.50
653.85	1175.81
654.20	1169.71
654.54	1162.07
654.88	1154.95
655.22	1148.79
655.56	1141.98
655.90	1135.40
656.25	1128.86
656.59	1122.57
656.93	1116.12
657.27	1110.33
657.61	1103.86
657.95	1096.52
658.29	1089.74
658.64	1084.17
658.98	1078.12
659.32	1070.88
659.66	1064.76
660.00	1058.07
660.34	1051.43
660.68	1044.57
661.02	1037.83
661.36	1031.14
661.70	1026.07
662.05	1020.36
662.39	1014.36
662.73	1009.67
663.07	1005.00
663.41	998.93
663.75	992.64
664.09	986.93
664.43	980.17
664.77	974.62
665.11	968.71
665.45	962.79
665.79	956.12
666.13	949.60
666.47	944.45
666.81	938.38
667.15	932.76
667.49	927.98
667.83	923.24
668.17	917.88
668.51	912.93
668.85	907.29
669.19	902.52
669.53	896.07
669.87	889.62
670.21	882.69
670.55	876.98
670.89	872.19
671.23	866.48
671.57	861.48
671.91	855.43
672.25	850.98
672.58	846.86
672.92	840.95
673.26	836.29
673.60	830.95
673.94	825.48
674.28	820.50
674.62	815.14
674.96	808.64
675.30	803.36
675.64	797.90
675.97	792.45
676.31	787.24
676.65	782.38
676.99	777.95
677.33	772.93
677.67	768.90
678.01	763.26
678.34	758.55
678.68	753.90
679.02	748.69
679.36	743.02
679.70	737.21
680.04	732.52
680.37	727.26
680.71	722.24
681.05	717.98
681.39	713.05
681.73	708.00
682.06	704.10
682.40	699.69
682.74	695.69
683.08	691.45
683.42	685.64
683.75	681.00
684.09	675.88
684.43	671.60
684.77	666.24
685.10	661.74
685.44	657.17
685.78	652.29
686.12	648.14
686.45	643.45
686.79	639.14
687.13	634.98
687.46	630.67
687.80	627.17
688.14	622.71
688.48	618.86
688.81	615.31
689.15	611.57
689.49	606.86
689.82	601.95
690.16	597.14
690.50	593.38
690.83	589.43
691.17	585.21
691.51	581.31
691.84	577.57
692.18	573.55
692.52	569.38
692.85	566.07
693.19	563.21
693.52	560.07
693.86	555.86
694.20	552.00
694.53	548.26
694.87	543.86
695.21	539.36
695.54	535.36
695.88	530.55
696.21	525.86
696.55	522.43
696.88	518.95
697.22	515.50
697.56	512.05
697.89	508.07
698.23	504.98
698.56	501.10
698.90	497.95
699.23	494.29
699.57	490.93
699.90	487.14
700.24	483.26
700.58	480.00
700.91	477.43
701.25	475.98
701.58	473.93
701.92	471.24
702.25	469.26
702.59	465.83
702.92	463.17
703.26	460.86
703.59	457.93
703.93	456.79
704.26	454.60
704.60	452.05
704.93	449.05
705.26	446.05
705.60	444.02
705.93	440.93
706.27	439.19
706.60	436.86
706.94	435.24
707.27	432.29
707.61	429.62
707.94	426.50
708.27	422.31
708.61	418.71
708.94	416.12
709.28	413.36
709.61	410.88
709.94	408.98
710.28	406.50
710.61	404.12
710.95	399.76
711.28	398.26
711.61	396.07
711.95	394.50
712.28	391.88
712.61	389.55
712.95	388.40
713.28	386.67
713.61	384.24
713.95	381.36
714.28	379.60
714.61	377.48
714.95	375.83
715.28	373.57
715.61	371.95
715.95	370.24
716.28	367.95
716.61	366.24
716.95	363.64
717.28	361.90
717.61	359.88
717.94	358.05
718.28	354.86
718.61	353.02
718.94	350.83
719.27	348.98
719.61	346.95
719.94	344.50
720.27	341.74
720.60	339.76
720.94	337.76
721.27	336.19
721.60	334.88
721.93	333.14
722.27	332.67
722.60	331.36
722.93	329.48
723.26	328.45
723.59	326.64
723.93	325.81
724.26	324.71
724.59	323.26
724.92	322.17
725.25	321.64
725.59	320.17
725.92	319.21
726.25	318.31
726.58	317.33
726.91	315.93
727.24	315.14
727.57	314.33
727.91	312.95
728.24	311.57
728.57	310.12
728.90	309.26
729.23	307.36
729.56	307.26
729.89	306.31
730.22	305.02
730.55	303.93
730.89	302.79
731.22	300.95
731.55	300.17
731.88	299.14
732.21	297.79
732.54	296.67
732.87	295.55
733.20	294.64
733.53	293.67
733.86	292.95
734.19	291.81
734.52	291.21
734.85	291.98
735.18	291.33
735.51	291.14
735.84	290.36
736.17	290.00
736.50	287.88
736.83	289.29
737.16	288.48
737.49	288.14
737.82	286.88
738.15	286.48
738.48	285.57
738.81	284.88
739.14	283.95
739.47	283.10
739.80	282.31
740.13	281.71
740.46	280.62
740.79	279.69
741.12	278.88
741.45	277.60
741.78	275.71
742.11	275.64
742.44	274.45
742.77	273.95
743.10	273.00
743.43	272.43
743.75	269.62
744.08	271.38
744.41	270.21
744.74	269.67
745.07	268.45
745.40	268.12
745.73	267.98
746.06	267.10
746.39	266.69
746.71	265.76
747.04	264.62
747.37	263.98
747.70	263.57
748.03	263.00
748.36	263.02
748.68	262.36
749.01	260.79
749.34	260.43
749.67	259.62
750.00	259.19
750.33	260.05
750.65	259.83
750.98	256.88
751.31	256.81
751.64	256.55
751.97	257.43
752.29	256.88
752.62	255.79
752.95	255.14
753.28	254.21
753.60	253.64
753.93	254.02
754.26	253.76
754.59	252.64
754.91	252.02
755.24	251.26
755.57	250.76
755.90	250.43
756.22	249.57
756.55	248.81
756.88	247.83
757.20	246.24
757.53	245.36
757.86	245.02
758.19	244.50
758.51	244.00
758.84	242.43
759.17	241.79
759.49	241.21
759.82	241.90
760.15	242.05
760.47	241.69
760.80	240.64
761.13	240.26
761.45	239.95
761.78	239.81
762.11	239.48
762.43	238.93
762.76	238.57
763.08	238.69
763.41	238.48
763.74	238.62
764.06	238.12
764.39	237.69
764.71	237.43
765.04	237.07
765.37	236.52
765.69	236.31
766.02	235.90
766.34	235.60
766.67	234.62
767.00	234.74
767.32	235.64
767.65	236.48
767.97	236.26
768.30	236.29
768.62	236.10
768.95	235.64
769.27	235.26
769.60	235.24
769.92	234.40
770.25	234.00
770.57	233.29
770.90	232.79
771.22	232.40
771.55	232.17
771.87	232.02
772.20	231.86
772.52	233.33
772.85	235.50
773.17	235.38
773.50	235.24
773.82	234.50
774.15	233.31
774.47	232.17
774.80	231.81
775.12	231.40
775.45	230.90
775.77	230.67
776.09	230.93
776.42	230.90
776.74	231.69
777.07	231.38
777.39	231.29
777.72	231.12
778.04	231.19
778.36	230.69
778.69	230.40
779.01	230.31
779.33	228.40
779.66	226.07
779.98	225.79
780.31	225.36
780.63	225.95
780.95	226.43
781.28	226.14
781.60	225.83
781.92	225.93
782.25	225.83
782.57	225.69
782.89	225.05
783.22	224.79
783.54	224.05
783.86	224.29
784.19	224.12
784.51	224.64
784.83	224.29
785.16	224.38
785.48	224.33
785.80	224.26
786.12	224.45
786.45	224.52
786.77	224.71
787.09	224.69
787.42	224.02
787.74	223.95
788.06	223.76
788.38	223.64
788.71	223.33
789.03	223.36
789.35	223.52
789.67	223.29
789.99	223.31
790.32	222.81
790.64	222.79
790.96	224.33
791.28	223.57
791.61	223.38
791.93	223.50
792.25	223.12
792.57	224.55
792.89	223.83
793.21	223.69
793.54	223.10
793.86	222.76
794.18	222.62
794.50	221.81
794.82	221.67
795.14	222.00
795.47	222.38
795.79	222.17
796.11	221.67
796.43	221.69
796.75	221.48
797.07	221.45
797.39	221.67
797.71	220.17
798.04	220.31
798.36	220.48
798.68	220.12
799.00	220.38
799.32	219.19
799.64	219.86
799.96	219.90
800.28	220.52
800.60	220.45
800.92	220.69
801.24	220.57
801.56	220.81
801.89	220.45
802.21	220.26
802.53	219.74
802.85	220.36
803.17	221.17
803.49	220.83
803.81	220.86
804.13	220.50
804.45	220.33
804.77	220.26
805.09	220.10
805.41	219.88
805.73	219.52
806.05	218.79
806.37	218.52
806.69	218.21
807.01	218.02
807.33	218.02
807.65	217.17
807.97	218.00
808.28	217.83
808.60	217.86
808.92	217.45
809.24	218.93
809.56	218.38
809.88	217.83
810.20	217.81
810.52	218.05
810.84	217.64
811.16	217.31
811.48	217.36
811.80	218.00
812.12	217.88
812.43	218.17
812.75	218.55
813.07	218.14
813.39	218.31
813.71	217.74
814.03	217.74
814.35	217.90
814.67	217.12
814.98	217.05
815.30	216.81
815.62	216.62
815.94	215.24
816.26	215.33
816.58	214.86
816.89	215.10
817.21	214.62
817.53	214.76
817.85	214.74
818.17	214.67
818.48	214.00
818.80	214.57
819.12	214.24
819.44	213.67
819.76	213.57
820.07	213.55
820.39	213.55
820.71	213.55
821.03	213.48
821.34	213.33
821.66	213.50
821.98	213.76
822.30	213.86
822.61	215.19
822.93	215.14
823.25	215.10
823.57	214.90
823.88	215.55
824.20	215.38
824.52	215.86
824.83	215.76
825.15	215.48
825.47	215.40
825.79	215.62
826.10	215.67
826.42	215.36
826.74	215.40
827.05	215.40
827.37	215.57
827.69	215.38
828.00	215.45
828.32	215.55
828.64	215.24
828.95	216.17
829.27	215.52
829.58	215.50
829.90	215.83
830.22	215.76
830.53	215.17
830.85	215.07
831.17	214.57
831.48	214.52
831.80	214.67
832.11	214.33
832.43	213.79
832.75	213.98
833.06	215.43
833.38	214.95
833.69	214.83
834.01	214.62
834.32	214.71
834.64	214.36
834.96	214.17
835.27	214.14
835.59	213.57
835.90	213.26
836.22	213.07
836.53	212.71
836.85	212.50
837.16	214.50
837.48	214.50
837.79	215.24
838.11	215.12
838.42	215.21
838.74	215.55
839.05	215.60
839.37	215.43
839.68	214.33
840.00	214.14
840.31	214.71
840.63	214.76
840.94	214.74
841.26	214.71
841.57	214.69
841.88	214.79
842.20	214.40
842.51	214.10
842.83	214.12
843.14	215.98
843.46	216.17
843.77	214.88
844.08	214.86
844.40	213.95
844.71	213.95
845.03	213.60
845.34	213.33
845.65	213.50
845.97	213.43
846.28	213.57
846.60	213.69
846.91	213.05
847.22	213.07
847.54	213.40
847.85	213.76
848.16	213.57
848.48	213.31
848.79	214.14
849.10	214.50
849.42	214.67
849.73	212.69
850.04	212.64
850.36	212.05
850.67	212.43
850.98	212.67
851.30	212.79
851.61	212.93
851.92	213.02
852.23	213.43
852.55	213.83
852.86	213.74
853.17	214.17
853.49	214.76
853.80	215.19
854.11	215.14
854.42	215.19
854.74	215.00
855.05	215.14
855.36	214.14
855.67	214.17
855.99	214.19
856.30	217.00
856.61	216.88
856.92	217.07
857.23	216.95
857.55	216.95
857.86	216.86
858.17	217.19
858.48	216.81
858.79	216.48
859.11	216.52
859.42	216.48
859.73	215.83
860.04	215.86
860.35	215.29
860.66	214.88
860.98	214.71
861.29	214.88
861.60	214.83
861.91	215.40
862.22	215.05
862.53	214.79
862.84	212.00
863.16	212.62
863.47	212.36
863.78	212.10
864.09	211.98
864.40	212.10
864.71	211.93
865.02	212.38
865.33	212.14
865.64	211.69
865.95	211.98
866.27	213.62
866.58	213.00
866.89	213.17
867.20	213.10
867.51	212.95
867.82	212.74
868.13	213.36
868.44	212.74
868.75	213.19
869.06	213.12
869.37	213.43
869.68	212.74
869.99	213.07
870.30	213.38
870.61	213.88
870.92	213.62
871.23	213.52
871.54	213.67
871.85	214.31
872.16	214.67
872.47	214.29
872.78	213.05
873.09	213.55
873.40	213.26
873.71	213.48
874.02	213.88
874.33	214.12
874.64	213.52
874.95	213.83
875.26	213.43
875.56	213.38
875.87	213.31
876.18	213.07
876.49	214.88
876.80	214.60
877.11	213.79
877.42	214.07
877.73	214.00
878.04	213.62
878.35	213.40
878.66	213.31
878.96	213.36
879.27	213.36
879.58	213.33
879.89	213.36
880.20	213.86
880.51	213.50
880.82	213.36
881.12	213.45
881.43	213.10
881.74	212.86
882.05	212.98
882.36	213.24
882.67	213.76
882.97	211.71
883.28	211.69
883.59	211.95
883.90	212.05
884.21	212.50
884.51	212.40
884.82	212.10
885.13	212.17
885.44	211.93
885.74	211.95
886.05	211.76
886.36	211.45
886.67	210.83
886.98	211.67
887.28	211.88
887.59	211.88
887.90	212.10
888.20	212.05
888.51	212.31
888.82	211.93
889.13	211.95
889.43	213.79
889.74	213.76
890.05	213.71
890.35	213.60
890.66	213.10
890.97	212.90
891.28	212.93
891.58	212.83
891.89	212.98
892.20	212.64
892.50	212.33
892.81	212.29
893.12	212.29
893.42	211.60
893.73	211.76
894.04	211.79
894.34	211.64
894.65	211.74
894.95	211.24
895.26	211.33
895.57	212.40
895.87	210.24
896.18	210.57
896.48	210.71
896.79	210.52
897.10	210.98
897.40	211.07
897.71	211.02
898.01	211.10
898.32	211.52
898.63	211.43
898.93	211.64
899.24	212.02
899.54	211.93
899.85	211.95
900.15	211.62
900.46	211.55
900.76	211.86
901.07	211.71
901.38	211.98
901.68	212.17
901.99	210.81
902.29	210.86
902.60	210.62
902.90	210.48
903.21	210.50
903.51	210.67
903.82	210.90
904.12	211.24
904.43	211.12
904.73	210.93
905.03	211.36
905.34	213.45
905.64	213.33
905.95	213.48
906.25	213.21
906.56	213.43
906.86	213.67
907.17	213.48
907.47	213.74
907.77	213.52
908.08	213.07
908.38	213.26
908.69	213.60
908.99	213.88
909.30	213.83
909.60	213.88
909.90	213.69
910.21	213.26
910.51	213.00
910.81	213.00
911.12	213.02
911.42	212.83
911.73	210.69
912.03	210.76
912.33	211.17
912.64	211.26
912.94	211.17
913.24	210.64
913.55	210.50
913.85	210.45
914.15	210.86
914.46	211.24
914.76	211.19
915.06	211.00
915.37	210.88
915.67	210.86
915.97	210.90
916.27	210.31
916.58	210.57
916.88	210.57
917.18	210.60
917.49	212.05
917.79	211.95
918.09	212.36
918.39	212.98
918.70	212.83
919.00	212.88
919.30	213.52
919.60	213.76
919.91	213.90
920.21	213.86
920.51	213.43
920.81	213.52
921.12	213.79
921.42	213.83
921.72	213.86
922.02	214.07
922.32	214.24
922.63	214.60
922.93	215.48
923.23	215.45
923.53	215.21
923.83	213.81
924.13	214.12
924.44	214.07
924.74	214.24
925.04	214.62
925.34	214.57
925.64	213.95
925.94	213.83
926.24	214.79
926.55	214.57
926.85	215.00
927.15	214.67
927.45	214.57
927.75	214.69
928.05	214.45
928.35	214.31
928.65	214.52
928.95	214.26
929.26	213.71
929.56	214.17
929.86	214.50
930.16	214.26
930.46	213.90
930.76	213.76
931.06	213.00
931.36	212.45
931.66	212.60
931.96	212.64
932.26	212.74
932.56	211.93
932.86	212.02
933.16	211.83
933.46	211.67
933.76	211.45
934.06	211.86
934.36	212.79
934.66	212.69
934.96	212.64
935.26	213.05
935.56	213.10
935.86	212.55
936.16	212.24
936.46	212.07
936.76	212.07
937.06	211.86
937.36	212.02
937.66	211.98
937.96	211.86
938.26	211.60
938.56	211.50
938.86	211.69
939.16	212.10
939.46	212.36
939.76	212.69
940.06	212.93
940.35	212.36
940.65	211.45
940.95	211.60
941.25	210.95
941.55	210.64
941.85	210.64
942.15	211.26
942.45	211.71
942.75	211.81
943.04	211.90
943.34	212.57
943.64	212.33
943.94	212.19
944.24	212.31
944.54	212.43
944.84	212.43
945.13	212.00
945.43	211.93
945.73	211.83
946.03	211.45
946.33	210.95
946.62	210.90
946.92	210.93
947.22	211.12
947.52	211.29
947.82	211.52
948.11	211.21
948.41	210.43
948.71	209.95
949.01	210.02
949.31	209.98
949.60	209.67
949.90	209.93
950.20	209.95
950.50	210.19
950.79	209.95
951.09	210.33
951.39	210.50
951.69	210.17
951.98	210.62
952.28	210.93
952.58	211.07
952.87	211.07
953.17	211.19
953.47	211.07
953.76	210.98
954.06	210.69
954.36	210.57
954.66	210.71
954.95	211.19
955.25	211.38
955.55	211.57
955.84	211.14
956.14	211.07
956.44	211.05
956.73	210.60
957.03	210.83
957.32	210.69
957.62	210.52
957.92	210.93
958.21	210.62
958.51	212.86
958.81	213.17
959.10	213.62
959.40	214.05
959.69	214.12
959.99	214.64
960.29	214.74
960.58	214.60
960.88	215.43
961.17	215.19
961.47	215.48
961.76	215.12
962.06	215.86
962.36	215.90
962.65	216.05
962.95	216.02
963.24	215.76
963.54	215.88
963.83	216.07
964.13	216.00
964.42	215.50
964.72	213.79
965.01	213.74
965.31	213.45
965.60	212.86
965.90	214.21
966.19	213.86
966.49	213.88
966.78	213.98
967.08	213.76
967.37	213.81
967.67	213.14
967.96	213.76
968.26	213.19
968.55	213.36
968.85	213.12
969.14	213.36
969.43	213.33
969.73	213.24
970.02	213.24
970.32	213.12
970.61	213.07
970.91	212.69
971.20	212.31
971.49	212.05
971.79	212.31
972.08	210.79
972.38	210.90
972.67	210.93
972.96	211.26
973.26	210.93
973.55	211.55
973.85	211.88
974.14	211.45
974.43	211.69
974.73	211.29
975.02	211.29
975.31	211.17
975.61	211.40
975.90	210.98
976.19	210.76
976.49	210.90
976.78	211.00
977.07	210.64
977.37	210.98
977.66	211.21
977.95	210.88
978.24	210.93
978.54	211.24
978.83	210.98
979.12	210.62
979.42	210.52
979.71	209.95
980.00	209.57
980.29	209.81
980.59	209.38
980.88	209.90
981.17	209.76
981.46	209.76
981.76	209.57
982.05	210.52
982.34	210.55
982.63	210.67
982.93	210.76
983.22	211.60
983.51	211.67
983.80	211.95
984.09	212.36
984.39	212.40
984.68	211.98
984.97	212.26
985.26	212.24
985.55	212.24
985.85	211.83
986.14	212.24
986.43	212.40
986.72	212.38
987.01	211.86
987.30	212.02
987.59	211.93
987.89	212.10
988.18	211.24
988.47	211.17
988.76	210.74
989.05	210.69
989.34	210.21
989.63	210.79
989.92	210.57
990.22	210.02
990.51	210.02
990.80	210.12
991.09	210.31
991.38	210.57
991.67	210.50
991.96	210.55
992.25	210.48
992.54	210.10
992.83	210.10
993.12	210.10
993.41	210.60
993.70	211.52
993.99	212.07
994.28	212.29
994.58	212.64
994.87	212.40
995.16	212.17
995.45	211.93
995.74	210.88
996.03	211.12
996.32	211.64
996.61	211.88
996.90	211.76
997.19	211.52
997.48	211.55
997.77	211.33
998.06	211.38
998.34	211.19
998.63	211.17
998.92	211.33
999.21	211.60
999.50	211.33
999.79	210.48
1000.08	209.93
1000.37	210.05
1000.66	209.71
1000.95	210.43
1001.24	210.93
1001.53	211.24
1001.82	211.33
1002.11	210.86
1002.40	211.14
1002.68	211.55
1002.97	213.17
1003.26	212.79
1003.55	212.40
1003.84	212.64
1004.13	213.64
1004.42	213.62
1004.71	213.48
1004.99	213.29
1005.28	213.81
1005.57	213.93
1005.86	213.88
1006.15	214.02
1006.44	213.71
1006.72	213.90
1007.01	213.50
1007.30	213.12
1007.59	212.90
1007.88	212.90
1008.17	212.93
1008.45	212.48
1008.74	211.60
1009.03	210.43
1009.32	210.62
1009.60	210.52
1009.89	210.31
1010.18	209.31
1010.47	209.19
1010.76	209.52
1011.04	209.64
1011.33	209.71
1011.62	209.76
1011.91	209.62
1012.19	209.71
1012.48	209.64
1012.77	209.62
1013.05	210.45
1013.34	210.60
1013.63	210.43
1013.92	210.69
1014.20	210.69
1014.49	210.76
1014.78	210.90
1015.06	210.40
1015.35	210.52
1015.64	210.83
1015.92	211.10
1016.21	211.17
1016.50	211.19
1016.78	211.17
1017.07	211.29
1017.36	210.60
1017.64	210.10
1017.93	210.52
1018.22	210.26
1018.50	210.36
1018.79	210.60
1019.08	209.79
1019.36	209.64
1019.65	209.50
1019.93	209.76
1020.22	210.02
1020.51	211.10
1020.79	210.98
1021.08	208.00
1021.36	207.00
1021.65	216.50
1021.94	209.50
1022.22	206.00
1022.51	204.50
1022.79	217.00
1023.08	213.50
1023.36	236.50
1023.65	205.50
>>>>>End Processed Spectral Data<<<<<
