SpectraSuite Data File
++++++++++++++++++++++++++++++++++++
Date: Tue Apr 02 18:46:23 EDT 2013
User: group
Dark Spectrum Present: No
Reference Spectrum Present: No
Number of Sampled Component Spectra: 1
Spectrometers: USB2E7196
Integration Time (usec): 580000 (USB2E7196)
Spectra Averaged: 2 (USB2E7196)
Boxcar Smoothing: 10 (USB2E7196)
Correct for Electrical Dark: No (USB2E7196)
Strobe/Lamp Enabled: No (USB2E7196)
Correct for Detector Non-linearity: No (USB2E7196)
Correct for Stray Light: No (USB2E7196)
Number of Pixels in Processed Spectrum: 2048
>>>>>Begin Processed Spectral Data<<<<<
339.09	0.00
339.48	193.50
339.86	193.50
340.24	193.50
340.63	196.50
341.01	228.50
341.39	198.00
341.78	205.00
342.16	210.50
342.54	204.00
342.93	196.76
343.31	206.43
343.69	206.90
344.07	207.45
344.46	208.26
344.84	208.88
345.22	207.90
345.60	208.52
345.99	208.90
346.37	208.90
346.75	209.24
347.13	209.24
347.52	209.17
347.90	209.88
348.28	209.95
348.66	210.19
349.05	209.52
349.43	209.95
349.81	210.17
350.19	210.26
350.57	210.12
350.96	210.50
351.34	210.74
351.72	210.90
352.10	211.17
352.48	211.02
352.87	211.10
353.25	211.02
353.63	210.76
354.01	210.45
354.39	210.50
354.77	210.24
355.15	210.95
355.54	210.81
355.92	210.17
356.30	210.17
356.68	211.71
357.06	211.90
357.44	211.83
357.82	211.76
358.20	212.83
358.58	212.98
358.97	213.10
359.35	213.67
359.73	214.29
360.11	214.14
360.49	214.24
360.87	214.14
361.25	214.74
361.63	215.90
362.01	216.12
362.39	216.02
362.77	216.57
363.15	216.31
363.53	216.36
363.91	216.52
364.29	216.55
364.67	214.52
365.05	214.64
365.43	214.71
365.81	214.88
366.19	215.00
366.57	215.69
366.95	215.64
367.33	215.10
367.71	214.90
368.09	215.43
368.47	215.81
368.85	215.79
369.23	215.95
369.61	214.93
369.99	215.62
370.37	216.00
370.75	216.93
371.13	216.55
371.51	216.45
371.89	216.55
372.27	216.64
372.65	216.88
373.03	217.14
373.41	217.00
373.78	216.95
374.16	215.83
374.54	215.45
374.92	215.12
375.30	215.05
375.68	214.81
376.06	214.79
376.44	214.31
376.82	214.57
377.19	214.55
377.57	214.55
377.95	213.76
378.33	213.67
378.71	212.43
379.09	212.98
379.47	213.26
379.84	213.17
380.22	213.02
380.60	212.64
380.98	212.45
381.36	212.43
381.73	212.26
382.11	212.60
382.49	212.57
382.87	212.57
383.25	212.76
383.62	215.17
384.00	214.79
384.38	215.02
384.76	215.43
385.13	215.90
385.51	215.88
385.89	215.81
386.27	215.69
386.64	216.00
387.02	215.45
387.40	215.17
387.78	215.14
388.15	215.33
388.53	215.40
388.91	215.31
389.29	215.00
389.66	215.14
390.04	214.83
390.42	215.00
390.79	214.95
391.17	214.74
391.55	212.45
391.92	212.67
392.30	212.69
392.68	212.07
393.05	212.14
393.43	212.40
393.81	212.45
394.18	212.19
394.56	211.95
394.94	212.55
395.31	212.48
395.69	213.26
396.06	213.38
396.44	213.38
396.82	213.36
397.19	214.62
397.57	214.74
397.95	215.29
398.32	214.69
398.70	214.76
399.07	215.38
399.45	215.31
399.82	215.05
400.20	214.88
400.58	214.88
400.95	213.67
401.33	213.81
401.70	215.48
402.08	215.64
402.45	215.79
402.83	216.17
403.20	216.31
403.58	216.00
403.95	216.62
404.33	217.31
404.71	217.50
405.08	218.74
405.46	218.74
405.83	218.90
406.21	219.55
406.58	220.10
406.96	220.33
407.33	220.86
407.70	221.64
408.08	223.76
408.45	224.74
408.83	225.93
409.20	226.55
409.58	226.12
409.95	227.38
410.33	228.52
410.70	228.76
411.08	229.95
411.45	231.19
411.82	231.60
412.20	232.93
412.57	235.36
412.95	234.90
413.32	236.83
413.69	238.21
414.07	239.67
414.44	241.67
414.82	243.45
415.19	246.00
415.56	248.36
415.94	249.62
416.31	252.52
416.68	255.50
417.06	258.67
417.43	262.07
417.81	265.10
418.18	268.52
418.55	272.45
418.93	276.45
419.30	280.40
419.67	285.12
420.04	289.38
420.42	293.50
420.79	300.62
421.16	306.17
421.54	312.74
421.91	319.07
422.28	325.02
422.66	331.79
423.03	339.36
423.40	345.95
423.77	353.33
424.15	360.19
424.52	368.12
424.89	376.71
425.26	384.29
425.64	392.12
426.01	400.24
426.38	408.81
426.75	418.14
427.13	427.64
427.50	437.21
427.87	447.10
428.24	457.14
428.61	465.10
428.99	476.48
429.36	487.19
429.73	498.26
430.10	510.00
430.47	521.83
430.85	532.45
431.22	545.14
431.59	559.55
431.96	572.76
432.33	586.52
432.70	599.74
433.08	616.02
433.45	631.45
433.82	646.48
434.19	663.83
434.56	680.98
434.93	695.81
435.30	711.57
435.68	729.21
436.05	746.17
436.42	763.71
436.79	778.95
437.16	796.00
437.53	813.81
437.90	831.40
438.27	848.81
438.64	867.50
439.01	884.45
439.38	898.52
439.75	912.88
440.13	929.36
440.50	944.95
440.87	957.14
441.24	969.79
441.61	984.45
441.98	995.00
442.35	1006.57
442.72	1019.64
443.09	1033.24
443.46	1040.55
443.83	1045.83
444.20	1050.76
444.57	1056.88
444.94	1060.29
445.31	1064.36
445.68	1068.74
446.05	1070.45
446.42	1068.29
446.79	1066.95
447.16	1065.14
447.53	1064.05
447.90	1057.93
448.27	1051.86
448.64	1043.43
449.01	1037.93
449.37	1027.05
449.74	1015.67
450.11	1004.55
450.48	990.40
450.85	974.19
451.22	961.81
451.59	949.93
451.96	938.07
452.33	923.10
452.70	908.81
453.07	891.17
453.43	872.62
453.80	856.12
454.17	840.55
454.54	825.31
454.91	808.57
455.28	792.57
455.65	777.79
456.02	766.64
456.38	754.43
456.75	738.83
457.12	725.38
457.49	712.71
457.86	698.60
458.23	688.43
458.59	677.05
458.96	665.31
459.33	654.74
459.70	644.45
460.07	636.21
460.43	626.60
460.80	618.55
461.17	611.71
461.54	603.19
461.91	595.26
462.27	586.88
462.64	580.52
463.01	572.93
463.38	566.29
463.74	555.00
464.11	548.21
464.48	542.62
464.85	536.64
465.21	532.81
465.58	528.00
465.95	521.74
466.32	516.52
466.68	511.40
467.05	506.14
467.42	500.81
467.78	494.71
468.15	490.12
468.52	486.12
468.88	480.05
469.25	475.45
469.62	472.26
469.98	468.86
470.35	465.12
470.72	461.60
471.08	457.02
471.45	454.67
471.82	452.14
472.18	448.40
472.55	446.10
472.92	442.07
473.28	438.79
473.65	435.69
474.02	433.31
474.38	431.29
474.75	429.79
475.11	427.48
475.48	426.31
475.85	424.48
476.21	422.29
476.58	421.26
476.94	420.19
477.31	418.81
477.67	417.21
478.04	415.98
478.41	415.45
478.77	416.67
479.14	415.48
479.50	414.60
479.87	414.36
480.23	414.10
480.60	414.02
480.96	414.19
481.33	415.50
481.69	415.36
482.06	415.69
482.42	416.19
482.79	416.48
483.15	416.48
483.52	417.31
483.88	417.83
484.25	418.40
484.61	419.43
484.98	419.81
485.34	421.62
485.71	423.52
486.07	424.98
486.44	424.52
486.80	426.38
487.17	428.12
487.53	430.55
487.90	432.55
488.26	435.36
488.62	437.98
488.99	439.24
489.35	442.19
489.72	444.24
490.08	446.62
490.44	449.43
490.81	452.90
491.17	455.90
491.54	459.52
491.90	463.12
492.26	466.69
492.63	471.00
492.99	474.29
493.36	477.98
493.72	482.36
494.08	487.00
494.45	491.52
494.81	496.12
495.17	500.79
495.54	505.79
495.90	510.17
496.26	514.76
496.63	520.17
496.99	525.02
497.35	530.90
497.72	536.69
498.08	542.76
498.44	548.64
498.80	555.38
499.17	561.55
499.53	568.19
499.89	575.24
500.26	581.86
500.62	588.76
500.98	596.02
501.34	603.12
501.71	610.33
502.07	617.12
502.43	624.26
502.79	631.69
503.16	638.64
503.52	646.24
503.88	653.31
504.24	661.24
504.60	669.21
504.97	677.24
505.33	685.10
505.69	693.90
506.05	701.71
506.41	708.88
506.78	716.88
507.14	724.31
507.50	731.60
507.86	739.62
508.22	747.88
508.59	755.14
508.95	762.74
509.31	771.26
509.67	779.12
510.03	786.38
510.39	793.38
510.75	801.67
511.12	809.19
511.48	817.29
511.84	824.24
512.20	831.71
512.56	839.07
512.92	846.48
513.28	853.33
513.64	860.45
514.00	867.90
514.37	874.86
514.73	882.48
515.09	890.02
515.45	896.52
515.81	903.02
516.17	910.02
516.53	916.86
516.89	923.05
517.25	929.83
517.61	937.29
517.97	943.76
518.33	949.86
518.69	956.31
519.05	962.74
519.41	969.79
519.77	977.98
520.13	983.90
520.49	989.52
520.85	994.74
521.21	1001.86
521.57	1007.79
521.93	1013.21
522.29	1018.74
522.65	1023.71
523.01	1029.24
523.37	1034.64
523.73	1039.95
524.09	1045.00
524.45	1049.86
524.81	1054.52
525.17	1058.81
525.53	1064.05
525.89	1069.26
526.25	1074.67
526.61	1078.60
526.97	1082.62
527.33	1085.21
527.68	1091.55
528.04	1095.93
528.40	1100.36
528.76	1103.52
529.12	1107.69
529.48	1112.62
529.84	1116.40
530.20	1121.29
530.56	1125.38
530.91	1129.93
531.27	1134.26
531.63	1138.40
531.99	1141.43
532.35	1146.02
532.71	1149.86
533.07	1153.69
533.42	1159.48
533.78	1162.76
534.14	1167.45
534.50	1170.50
534.86	1175.26
535.21	1177.64
535.57	1182.29
535.93	1185.90
536.29	1190.33
536.65	1194.14
537.00	1197.36
537.36	1200.76
537.72	1203.48
538.08	1207.40
538.44	1210.14
538.79	1213.17
539.15	1216.33
539.51	1220.17
539.87	1223.95
540.22	1228.57
540.58	1232.07
540.94	1233.29
541.29	1236.57
541.65	1238.83
542.01	1242.86
542.37	1245.17
542.72	1247.38
543.08	1249.29
543.44	1252.55
543.79	1254.00
544.15	1257.38
544.51	1260.40
544.87	1263.69
545.22	1266.86
545.58	1269.45
545.94	1271.36
546.29	1274.57
546.65	1276.12
547.01	1279.07
547.36	1280.74
547.72	1282.79
548.07	1285.02
548.43	1287.21
548.79	1288.76
549.14	1291.45
549.50	1294.26
549.86	1296.36
550.21	1298.76
550.57	1302.07
550.92	1303.40
551.28	1306.67
551.64	1309.02
551.99	1311.76
552.35	1313.69
552.70	1316.33
553.06	1319.14
553.41	1323.05
553.77	1326.33
554.13	1331.07
554.48	1335.31
554.84	1339.57
555.19	1342.88
555.55	1347.71
555.90	1351.60
556.26	1355.93
556.61	1359.43
556.97	1362.74
557.32	1366.36
557.68	1370.76
558.03	1373.69
558.39	1378.24
558.74	1382.07
559.10	1384.81
559.45	1388.88
559.81	1393.55
560.16	1397.45
560.52	1402.05
560.87	1405.74
561.23	1408.67
561.58	1414.07
561.94	1417.24
562.29	1420.55
562.64	1424.83
563.00	1428.24
563.35	1431.98
563.71	1436.90
564.06	1442.50
564.42	1446.95
564.77	1452.74
565.12	1458.10
565.48	1464.98
565.83	1471.10
566.19	1477.33
566.54	1483.64
566.89	1489.29
567.25	1495.60
567.60	1503.07
567.96	1510.10
568.31	1517.21
568.66	1524.90
569.02	1529.02
569.37	1534.93
569.72	1540.52
570.08	1545.48
570.43	1550.43
570.78	1557.02
571.14	1562.33
571.49	1567.48
571.84	1572.62
572.20	1577.31
572.55	1582.00
572.90	1585.40
573.26	1590.69
573.61	1594.45
573.96	1598.71
574.31	1602.98
574.67	1606.02
575.02	1608.17
575.37	1610.48
575.72	1613.83
576.08	1616.93
576.43	1619.83
576.78	1622.81
577.13	1626.48
577.49	1630.45
577.84	1635.24
578.19	1638.98
578.54	1642.57
578.90	1646.24
579.25	1649.67
579.60	1652.33
579.95	1655.21
580.30	1658.83
580.66	1661.40
581.01	1664.55
581.36	1667.60
581.71	1671.19
582.06	1676.90
582.42	1681.14
582.77	1684.02
583.12	1687.02
583.47	1691.00
583.82	1695.45
584.17	1699.67
584.53	1704.02
584.88	1708.10
585.23	1711.29
585.58	1713.48
585.93	1716.38
586.28	1719.40
586.63	1723.02
586.98	1727.19
587.34	1731.40
587.69	1733.69
588.04	1737.21
588.39	1741.00
588.74	1742.60
589.09	1745.12
589.44	1745.83
589.79	1748.40
590.14	1751.26
590.49	1752.45
590.84	1752.83
591.19	1754.21
591.54	1756.07
591.89	1756.50
592.25	1760.19
592.60	1760.67
592.95	1762.83
593.30	1765.71
593.65	1767.26
594.00	1767.64
594.35	1773.95
594.70	1774.86
595.05	1776.86
595.40	1777.31
595.75	1777.19
596.10	1780.62
596.45	1782.12
596.80	1783.10
597.15	1783.67
597.50	1784.05
597.85	1787.67
598.19	1788.83
598.54	1789.50
598.89	1790.17
599.24	1792.55
599.59	1791.12
599.94	1791.71
600.29	1791.64
600.64	1790.43
600.99	1790.29
601.34	1790.95
601.69	1785.67
602.04	1784.00
602.39	1783.60
602.74	1783.45
603.08	1783.31
603.43	1782.74
603.78	1781.19
604.13	1780.90
604.48	1779.90
604.83	1779.76
605.18	1777.74
605.53	1777.38
605.87	1777.14
606.22	1775.90
606.57	1773.83
606.92	1771.52
607.27	1770.50
607.62	1770.05
607.96	1769.98
608.31	1769.29
608.66	1769.45
609.01	1767.69
609.36	1768.14
609.70	1766.93
610.05	1765.36
610.40	1765.05
610.75	1762.62
611.10	1761.26
611.44	1758.69
611.79	1756.83
612.14	1754.60
612.49	1751.33
612.83	1748.81
613.18	1746.17
613.53	1743.31
613.88	1741.02
614.22	1738.62
614.57	1734.60
614.92	1730.95
615.27	1726.71
615.61	1722.52
615.96	1718.29
616.31	1715.48
616.65	1712.24
617.00	1709.69
617.35	1706.52
617.70	1703.17
618.04	1699.86
618.39	1696.90
618.74	1694.48
619.08	1690.29
619.43	1687.29
619.78	1684.55
620.12	1681.60
620.47	1678.29
620.82	1674.71
621.16	1669.81
621.51	1666.71
621.85	1663.00
622.20	1659.02
622.55	1655.62
622.89	1653.24
623.24	1650.67
623.59	1647.38
623.93	1642.45
624.28	1637.86
624.62	1636.05
624.97	1632.26
625.32	1628.40
625.66	1624.17
626.01	1619.69
626.35	1617.40
626.70	1613.17
627.04	1609.90
627.39	1605.93
627.73	1602.74
628.08	1600.02
628.43	1597.10
628.77	1592.67
629.12	1590.67
629.46	1588.10
629.81	1584.00
630.15	1579.29
630.50	1574.50
630.84	1569.17
631.19	1565.31
631.53	1561.10
631.88	1553.74
632.22	1547.55
632.57	1543.60
632.91	1538.50
633.26	1534.07
633.60	1528.33
633.95	1523.10
634.29	1516.64
634.64	1511.71
634.98	1506.50
635.32	1501.81
635.67	1497.43
636.01	1493.57
636.36	1488.76
636.70	1483.31
637.05	1478.93
637.39	1474.50
637.73	1469.45
638.08	1466.62
638.42	1461.64
638.77	1457.14
639.11	1452.64
639.45	1448.55
639.80	1442.48
640.14	1438.07
640.49	1433.52
640.83	1428.52
641.17	1424.69
641.52	1419.98
641.86	1415.17
642.20	1410.43
642.55	1403.62
642.89	1397.52
643.23	1391.55
643.58	1387.24
643.92	1382.29
644.26	1376.98
644.61	1371.64
644.95	1366.67
645.29	1359.93
645.64	1355.38
645.98	1349.29
646.32	1344.60
646.66	1338.26
647.01	1333.02
647.35	1327.17
647.69	1321.07
648.04	1316.05
648.38	1309.86
648.72	1305.38
649.06	1298.86
649.41	1292.24
649.75	1287.02
650.09	1282.24
650.43	1276.57
650.78	1269.36
651.12	1262.98
651.46	1256.52
651.80	1250.81
652.14	1245.10
652.49	1239.45
652.83	1232.60
653.17	1227.00
653.51	1220.33
653.85	1215.05
654.20	1209.02
654.54	1202.24
654.88	1195.79
655.22	1190.19
655.56	1183.69
655.90	1176.60
656.25	1170.10
656.59	1164.26
656.93	1158.38
657.27	1152.24
657.61	1145.98
657.95	1140.55
658.29	1133.76
658.64	1129.02
658.98	1121.79
659.32	1114.60
659.66	1107.36
660.00	1101.64
660.34	1095.60
660.68	1089.67
661.02	1083.10
661.36	1077.31
661.70	1072.10
662.05	1066.21
662.39	1059.43
662.73	1054.05
663.07	1049.43
663.41	1044.31
663.75	1038.19
664.09	1032.29
664.43	1026.10
664.77	1020.24
665.11	1013.12
665.45	1007.60
665.79	1001.31
666.13	996.26
666.47	990.83
666.81	985.55
667.15	979.52
667.49	973.90
667.83	969.29
668.17	964.36
668.51	958.90
668.85	953.71
669.19	949.62
669.53	944.14
669.87	938.12
670.21	931.90
670.55	925.93
670.89	921.10
671.23	916.33
671.57	911.07
671.91	906.33
672.25	901.36
672.58	896.71
672.92	891.02
673.26	885.45
673.60	880.36
673.94	875.74
674.28	871.43
674.62	866.69
674.96	861.17
675.30	855.98
675.64	850.79
675.97	845.60
676.31	839.81
676.65	834.38
676.99	831.19
677.33	826.19
677.67	822.05
678.01	817.10
678.34	811.67
678.68	807.17
679.02	801.24
679.36	796.12
679.70	791.05
680.04	786.00
680.37	781.02
680.71	775.93
681.05	771.74
681.39	766.57
681.73	761.29
682.06	756.33
682.40	751.71
682.74	747.57
683.08	743.48
683.42	737.98
683.75	733.93
684.09	727.24
684.43	722.81
684.77	717.40
685.10	712.50
685.44	707.52
685.78	702.21
686.12	697.93
686.45	693.48
686.79	688.64
687.13	684.33
687.46	680.05
687.80	676.21
688.14	670.98
688.48	666.95
688.81	662.88
689.15	659.21
689.49	654.57
689.82	649.76
690.16	644.57
690.50	640.48
690.83	635.81
691.17	631.64
691.51	626.90
691.84	622.98
692.18	618.67
692.52	615.10
692.85	611.98
693.19	608.95
693.52	605.00
693.86	600.43
694.20	595.98
694.53	591.64
694.87	587.00
695.21	582.48
695.54	577.69
695.88	572.88
696.21	567.57
696.55	563.64
696.88	559.45
697.22	555.48
697.56	552.07
697.89	547.93
698.23	544.79
698.56	540.98
698.90	537.52
699.23	533.69
699.57	529.90
699.90	525.71
700.24	521.36
700.58	517.98
700.91	515.26
701.25	513.76
701.58	510.95
701.92	508.12
702.25	505.05
702.59	501.67
702.92	498.62
703.26	495.52
703.59	492.21
703.93	490.69
704.26	487.90
704.60	484.50
704.93	481.62
705.26	477.95
705.60	475.95
705.93	471.81
706.27	469.29
706.60	466.93
706.94	464.40
707.27	460.90
707.61	457.86
707.94	454.74
708.27	450.26
708.61	446.64
708.94	443.45
709.28	441.07
709.61	438.48
709.94	435.98
710.28	433.48
710.61	430.83
710.95	426.45
711.28	424.95
711.61	422.71
711.95	420.74
712.28	418.26
712.61	415.19
712.95	414.19
713.28	412.50
713.61	409.26
713.95	406.71
714.28	404.81
714.61	402.67
714.95	400.24
715.28	397.69
715.61	395.60
715.95	393.38
716.28	390.81
716.61	388.79
716.95	386.60
717.28	384.52
717.61	382.40
717.94	380.36
718.28	376.81
718.61	374.52
718.94	371.95
719.27	369.95
719.61	367.74
719.94	365.52
720.27	362.50
720.60	360.57
720.94	358.02
721.27	356.14
721.60	354.52
721.93	352.83
722.27	351.90
722.60	350.43
722.93	348.62
723.26	347.29
723.59	345.38
723.93	343.76
724.26	342.48
724.59	340.93
724.92	339.55
725.25	338.71
725.59	336.95
725.92	335.86
726.25	334.43
726.58	333.14
726.91	331.76
727.24	331.02
727.57	329.79
727.91	328.48
728.24	327.31
728.57	325.76
728.90	324.52
729.23	322.24
729.56	321.88
729.89	320.74
730.22	319.33
730.55	318.05
730.89	317.14
731.22	315.69
731.55	314.55
731.88	313.48
732.21	312.00
732.54	310.90
732.87	309.50
733.20	308.67
733.53	307.90
733.86	306.93
734.19	305.17
734.52	304.38
734.85	304.67
735.18	303.45
735.51	303.00
735.84	302.26
736.17	301.98
736.50	299.98
736.83	301.29
737.16	300.36
737.49	299.45
737.82	298.10
738.15	297.50
738.48	296.45
738.81	295.60
739.14	294.29
739.47	293.45
739.80	292.57
740.13	291.57
740.46	290.14
740.79	288.90
741.12	288.10
741.45	286.86
741.78	284.71
742.11	284.45
742.44	283.26
742.77	282.86
743.10	282.00
743.43	281.05
743.75	278.17
744.08	279.83
744.41	278.79
744.74	277.90
745.07	276.48
745.40	276.17
745.73	276.07
746.06	275.57
746.39	275.05
746.71	274.10
747.04	273.12
747.37	272.33
747.70	271.98
748.03	271.40
748.36	271.02
748.68	270.60
749.01	269.21
749.34	268.67
749.67	267.93
750.00	267.55
750.33	268.45
750.65	268.00
750.98	264.88
751.31	264.45
751.64	263.98
751.97	264.88
752.29	264.24
752.62	262.83
752.95	262.19
753.28	261.24
753.60	260.69
753.93	260.90
754.26	260.40
754.59	259.02
754.91	258.17
755.24	257.26
755.57	256.52
755.90	255.90
756.22	254.95
756.55	254.10
756.88	253.10
757.20	251.24
757.53	250.33
757.86	249.95
758.19	249.76
758.51	249.19
758.84	247.38
759.17	246.69
759.49	246.50
759.82	247.12
760.15	246.93
760.47	246.64
760.80	245.43
761.13	245.40
761.45	245.10
761.78	244.81
762.11	244.57
762.43	244.29
762.76	243.95
763.08	243.79
763.41	243.24
763.74	242.69
764.06	242.36
764.39	242.05
764.71	241.67
765.04	240.88
765.37	240.55
765.69	240.26
766.02	239.95
766.34	239.57
766.67	238.45
767.00	238.40
767.32	239.38
767.65	240.29
767.97	239.90
768.30	239.81
768.62	239.67
768.95	239.24
769.27	238.57
769.60	238.71
769.92	238.14
770.25	237.50
770.57	237.14
770.90	236.74
771.22	235.88
771.55	235.88
771.87	236.02
772.20	235.71
772.52	237.12
772.85	239.10
773.17	238.57
773.50	238.05
773.82	237.36
774.15	235.93
774.47	234.64
774.80	234.10
775.12	233.71
775.45	232.98
775.77	232.83
776.09	233.10
776.42	232.76
776.74	233.31
777.07	233.12
777.39	232.88
777.72	232.43
778.04	232.95
778.36	232.33
778.69	232.12
779.01	232.00
779.33	230.19
779.66	227.76
779.98	227.40
780.31	227.38
780.63	228.21
780.95	228.33
781.28	227.90
781.60	227.79
781.92	227.81
782.25	228.02
782.57	227.48
782.89	227.19
783.22	227.00
783.54	226.17
783.86	226.43
784.19	226.26
784.51	226.90
784.83	226.19
785.16	225.86
785.48	225.60
785.80	225.38
786.12	225.36
786.45	225.40
786.77	225.36
787.09	225.05
787.42	224.31
787.74	224.14
788.06	224.26
788.38	224.02
788.71	223.62
789.03	223.60
789.35	224.10
789.67	223.64
789.99	223.50
790.32	223.45
790.64	223.38
790.96	225.07
791.28	224.31
791.61	224.00
791.93	224.00
792.25	223.71
792.57	225.40
792.89	224.81
793.21	224.81
793.54	224.64
793.86	224.50
794.18	224.21
794.50	223.90
794.82	223.76
795.14	224.05
795.47	224.43
795.79	224.24
796.11	223.76
796.43	223.79
796.75	223.86
797.07	223.79
797.39	223.33
797.71	221.79
798.04	221.76
798.36	222.02
798.68	222.36
799.00	222.69
799.32	221.36
799.64	221.67
799.96	221.38
800.28	222.00
800.60	221.76
800.92	222.05
801.24	221.74
801.56	221.67
801.89	221.24
802.21	221.17
802.53	220.74
802.85	221.14
803.17	221.98
803.49	221.55
803.81	221.57
804.13	221.74
804.45	221.38
804.77	221.64
805.09	221.83
805.41	221.36
805.73	221.07
806.05	220.50
806.37	220.55
806.69	220.26
807.01	219.90
807.33	220.12
807.65	219.26
807.97	220.12
808.28	220.00
808.60	220.07
808.92	219.93
809.24	221.50
809.56	221.00
809.88	220.31
810.20	220.26
810.52	220.38
810.84	220.02
811.16	219.95
811.48	219.62
811.80	219.93
812.12	219.81
812.43	219.83
812.75	219.90
813.07	219.69
813.39	219.95
813.71	219.62
814.03	219.26
814.35	219.19
814.67	218.48
814.98	218.33
815.30	218.19
815.62	217.67
815.94	215.98
816.26	216.33
816.58	215.74
816.89	215.93
817.21	215.33
817.53	215.36
817.85	215.38
818.17	215.45
818.48	214.79
818.80	215.29
819.12	215.07
819.44	214.79
819.76	214.55
820.07	214.45
820.39	214.26
820.71	214.62
821.03	214.79
821.34	214.57
821.66	214.95
821.98	215.26
822.30	215.26
822.61	216.62
822.93	216.17
823.25	216.26
823.57	216.02
823.88	216.67
824.20	216.62
824.52	216.95
824.83	216.88
825.15	216.83
825.47	216.71
825.79	216.76
826.10	216.48
826.42	216.45
826.74	216.69
827.05	216.62
827.37	216.48
827.69	216.17
828.00	216.21
828.32	216.05
828.64	215.45
828.95	216.45
829.27	215.57
829.58	215.64
829.90	216.05
830.22	216.14
830.53	215.45
830.85	215.24
831.17	214.71
831.48	214.60
831.80	214.50
832.11	214.07
832.43	213.88
832.75	214.21
833.06	215.40
833.38	214.67
833.69	214.86
834.01	214.98
834.32	215.21
834.64	215.02
834.96	214.93
835.27	215.05
835.59	214.45
835.90	214.12
836.22	213.76
836.53	213.12
836.85	212.98
837.16	214.95
837.48	215.17
837.79	215.67
838.11	215.90
838.42	216.00
838.74	216.38
839.05	216.24
839.37	216.10
839.68	214.69
840.00	214.69
840.31	214.83
840.63	214.52
840.94	214.19
841.26	214.02
841.57	214.14
841.88	214.36
842.20	213.98
842.51	213.83
842.83	214.10
843.14	216.14
843.46	216.12
843.77	215.14
844.08	214.98
844.40	214.48
844.71	214.12
845.03	214.05
845.34	213.69
845.65	213.52
845.97	213.29
846.28	213.40
846.60	213.64
846.91	213.21
847.22	213.21
847.54	213.62
847.85	213.67
848.16	213.38
848.48	213.17
848.79	214.00
849.10	214.21
849.42	214.26
849.73	212.26
850.04	212.12
850.36	211.19
850.67	211.52
850.98	211.55
851.30	211.74
851.61	211.60
851.92	211.79
852.23	212.48
852.55	212.95
852.86	213.07
853.17	213.17
853.49	213.64
853.80	214.21
854.11	214.62
854.42	214.95
854.74	214.81
855.05	214.67
855.36	213.76
855.67	214.05
855.99	214.14
856.30	216.64
856.61	216.76
856.92	216.81
857.23	216.74
857.55	216.64
857.86	216.67
858.17	217.31
858.48	216.98
858.79	216.57
859.11	216.57
859.42	216.31
859.73	215.95
860.04	215.86
860.35	214.95
860.66	214.12
860.98	214.17
861.29	214.33
861.60	214.33
861.91	214.76
862.22	214.40
862.53	214.07
862.84	211.60
863.16	212.07
863.47	211.95
863.78	211.88
864.09	212.05
864.40	212.10
864.71	211.81
865.02	212.31
865.33	212.24
865.64	211.93
865.95	212.26
866.27	213.57
866.58	213.43
866.89	213.90
867.20	213.98
867.51	213.55
867.82	213.40
868.13	214.10
868.44	213.71
868.75	213.95
869.06	214.00
869.37	214.45
869.68	213.90
869.99	214.17
870.30	214.07
870.61	214.12
870.92	213.52
871.23	213.14
871.54	213.12
871.85	213.50
872.16	213.79
872.47	213.48
872.78	212.52
873.09	212.64
873.40	212.31
873.71	212.29
874.02	212.40
874.33	212.29
874.64	211.74
874.95	212.00
875.26	211.62
875.56	211.45
875.87	211.14
876.18	211.02
876.49	213.00
876.80	212.95
877.11	212.50
877.42	212.88
877.73	213.05
878.04	212.55
878.35	212.43
878.66	212.57
878.96	212.74
879.27	212.45
879.58	212.45
879.89	212.57
880.20	213.36
880.51	213.40
880.82	213.64
881.12	213.98
881.43	213.62
881.74	213.55
882.05	213.64
882.36	213.79
882.67	213.81
882.97	211.50
883.28	211.55
883.59	211.55
883.90	211.48
884.21	211.74
884.51	211.95
884.82	211.69
885.13	211.40
885.44	211.10
885.74	210.76
886.05	210.79
886.36	210.81
886.67	209.95
886.98	211.10
887.28	211.38
887.59	211.21
887.90	211.33
888.20	211.26
888.51	211.64
888.82	211.26
889.13	211.52
889.43	213.36
889.74	213.14
890.05	213.05
890.35	213.14
890.66	212.90
890.97	212.67
891.28	212.60
891.58	212.69
891.89	212.90
892.20	212.93
892.50	212.38
892.81	212.26
893.12	212.33
893.42	211.10
893.73	210.69
894.04	210.69
894.34	210.62
894.65	210.55
894.95	210.29
895.26	210.74
895.57	211.48
895.87	209.43
896.18	209.88
896.48	210.21
896.79	210.05
897.10	210.10
897.40	210.33
897.71	210.55
898.01	210.36
898.32	210.38
898.63	210.57
898.93	211.07
899.24	211.14
899.54	211.17
899.85	211.26
900.15	211.31
900.46	211.14
900.76	211.45
901.07	211.43
901.38	211.40
901.68	211.43
901.99	210.45
902.29	210.62
902.60	210.50
902.90	210.36
903.21	210.33
903.51	210.40
903.82	210.83
904.12	210.93
904.43	211.05
904.73	211.14
905.03	211.50
905.34	213.40
905.64	213.26
905.95	213.14
906.25	213.02
906.56	212.93
906.86	212.98
907.17	213.00
907.47	213.29
907.77	213.17
908.08	212.50
908.38	212.60
908.69	212.98
908.99	213.21
909.30	213.31
909.60	213.45
909.90	213.57
910.21	212.67
910.51	212.26
910.81	212.17
911.12	212.29
911.42	212.21
911.73	210.19
912.03	210.31
912.33	210.83
912.64	210.81
912.94	210.86
913.24	210.60
913.55	210.24
913.85	209.86
914.15	210.29
914.46	210.71
914.76	210.79
915.06	210.50
915.37	210.19
915.67	210.02
915.97	209.93
916.27	209.52
916.58	209.71
916.88	209.57
917.18	209.57
917.49	210.86
917.79	210.52
918.09	210.50
918.39	211.21
918.70	211.00
919.00	211.10
919.30	211.93
919.60	211.90
919.91	211.74
920.21	212.00
920.51	211.57
920.81	211.57
921.12	211.71
921.42	211.71
921.72	211.86
922.02	212.10
922.32	212.43
922.63	212.52
922.93	213.81
923.23	214.26
923.53	214.05
923.83	212.62
924.13	213.17
924.44	213.31
924.74	213.43
925.04	214.00
925.34	214.05
925.64	213.10
925.94	213.29
926.24	214.71
926.55	214.60
926.85	215.10
927.15	215.02
927.45	214.98
927.75	214.95
928.05	214.95
928.35	214.74
928.65	215.10
928.95	215.12
929.26	214.24
929.56	214.45
929.86	214.60
930.16	214.60
930.46	214.02
930.76	214.14
931.06	213.31
931.36	212.81
931.66	213.00
931.96	213.29
932.26	213.33
932.56	212.38
932.86	212.57
933.16	212.31
933.46	212.17
933.76	211.81
934.06	212.45
934.36	213.40
934.66	213.52
934.96	213.21
935.26	213.24
935.56	213.43
935.86	212.95
936.16	213.00
936.46	213.05
936.76	213.31
937.06	212.93
937.36	212.90
937.66	212.74
937.96	212.55
938.26	212.14
938.56	211.93
938.86	212.07
939.16	212.60
939.46	212.93
939.76	213.02
940.06	213.38
940.35	212.93
940.65	211.62
940.95	211.62
941.25	211.00
941.55	211.05
941.85	211.00
942.15	211.24
942.45	211.76
942.75	211.43
943.04	211.43
943.34	212.05
943.64	212.12
943.94	212.07
944.24	212.21
944.54	212.64
944.84	212.64
945.13	212.02
945.43	211.33
945.73	211.07
946.03	210.83
946.33	210.26
946.62	209.98
946.92	209.93
947.22	210.07
947.52	210.33
947.82	210.45
948.11	210.17
948.41	209.86
948.71	209.19
949.01	209.29
949.31	208.95
949.60	208.71
949.90	208.86
950.20	208.79
950.50	208.67
950.79	208.36
951.09	208.64
951.39	208.76
951.69	208.69
951.98	209.02
952.28	209.31
952.58	209.60
952.87	209.74
953.17	210.19
953.47	210.10
953.76	210.14
954.06	209.93
954.36	209.79
954.66	209.83
954.95	210.45
955.25	210.55
955.55	211.00
955.84	210.50
956.14	210.48
956.44	210.60
956.73	210.31
957.03	210.36
957.32	210.31
957.62	210.14
957.92	210.43
958.21	210.05
958.51	212.33
958.81	212.57
959.10	212.90
959.40	213.05
959.69	213.00
959.99	213.29
960.29	213.24
960.58	213.19
960.88	213.90
961.17	213.62
961.47	214.07
961.76	213.81
962.06	214.19
962.36	214.17
962.65	214.17
962.95	214.31
963.24	214.14
963.54	214.10
963.83	214.48
964.13	214.57
964.42	214.36
964.72	212.79
965.01	212.76
965.31	212.40
965.60	211.88
965.90	213.19
966.19	212.76
966.49	212.98
966.78	213.00
967.08	212.93
967.37	213.00
967.67	212.45
967.96	212.52
968.26	212.52
968.55	212.74
968.85	212.48
969.14	212.38
969.43	212.50
969.73	212.29
970.02	212.12
970.32	211.95
970.61	211.67
970.91	210.76
971.20	210.26
971.49	210.00
971.79	210.40
972.08	208.98
972.38	209.19
972.67	209.05
972.96	209.26
973.26	208.90
973.55	209.55
973.85	209.67
974.14	209.83
974.43	210.00
974.73	209.67
975.02	209.76
975.31	209.90
975.61	209.98
975.90	210.14
976.19	209.90
976.49	210.00
976.78	210.43
977.07	210.67
977.37	211.07
977.66	211.36
977.95	210.90
978.24	211.07
978.54	211.31
978.83	211.26
979.12	211.05
979.42	210.83
979.71	210.24
980.00	209.98
980.29	209.86
980.59	209.31
980.88	209.95
981.17	210.12
981.46	210.10
981.76	209.93
982.05	210.38
982.34	210.45
982.63	210.57
982.93	210.52
983.22	211.10
983.51	211.21
983.80	211.76
984.09	212.36
984.39	212.12
984.68	211.79
984.97	211.71
985.26	211.57
985.55	211.95
985.85	211.57
986.14	212.07
986.43	212.40
986.72	212.71
987.01	211.98
987.30	211.88
987.59	211.69
987.89	211.81
988.18	211.24
988.47	211.31
988.76	211.14
989.05	210.86
989.34	210.43
989.63	210.90
989.92	210.38
990.22	210.21
990.51	210.31
990.80	210.31
991.09	210.74
991.38	211.17
991.67	210.86
991.96	210.79
992.25	210.81
992.54	210.48
992.83	210.43
993.12	210.43
993.41	210.52
993.70	211.45
993.99	211.71
994.28	211.98
994.58	212.36
994.87	212.14
995.16	212.00
995.45	211.93
995.74	211.10
996.03	211.43
996.32	211.52
996.61	212.14
996.90	212.21
997.19	212.17
997.48	212.10
997.77	212.05
998.06	212.29
998.34	211.93
998.63	212.00
998.92	211.83
999.21	211.88
999.50	212.05
999.79	211.19
1000.08	211.21
1000.37	211.31
1000.66	210.93
1000.95	211.29
1001.24	211.83
1001.53	212.00
1001.82	212.02
1002.11	211.74
1002.40	211.79
1002.68	211.98
1002.97	213.40
1003.26	213.00
1003.55	212.67
1003.84	212.71
1004.13	213.38
1004.42	213.45
1004.71	213.43
1004.99	213.40
1005.28	214.10
1005.57	213.93
1005.86	213.83
1006.15	213.55
1006.44	213.14
1006.72	213.38
1007.01	213.19
1007.30	213.19
1007.59	213.00
1007.88	213.12
1008.17	213.00
1008.45	212.76
1008.74	211.93
1009.03	210.93
1009.32	210.79
1009.60	210.69
1009.89	210.52
1010.18	209.38
1010.47	209.26
1010.76	209.19
1011.04	209.24
1011.33	209.31
1011.62	209.40
1011.91	209.57
1012.19	209.93
1012.48	209.98
1012.77	210.00
1013.05	211.02
1013.34	210.71
1013.63	210.50
1013.92	210.45
1014.20	210.29
1014.49	210.12
1014.78	210.29
1015.06	209.50
1015.35	209.55
1015.64	210.10
1015.92	210.21
1016.21	210.71
1016.50	210.62
1016.78	210.79
1017.07	210.98
1017.36	210.05
1017.64	209.81
1017.93	210.07
1018.22	209.86
1018.50	209.86
1018.79	209.81
1019.08	208.57
1019.36	208.60
1019.65	208.55
1019.93	209.05
1020.22	209.29
1020.51	210.55
1020.79	210.29
1021.08	210.00
1021.36	207.00
1021.65	212.00
1021.94	206.00
1022.22	207.00
1022.51	206.50
1022.79	218.50
1023.08	209.50
1023.36	236.00
1023.65	204.00
>>>>>End Processed Spectral Data<<<<<
