SpectraSuite Data File
++++++++++++++++++++++++++++++++++++
Date: Tue Apr 02 18:40:17 EDT 2013
User: group
Dark Spectrum Present: No
Reference Spectrum Present: No
Number of Sampled Component Spectra: 1
Spectrometers: USB2E7196
Integration Time (usec): 580000 (USB2E7196)
Spectra Averaged: 2 (USB2E7196)
Boxcar Smoothing: 10 (USB2E7196)
Correct for Electrical Dark: No (USB2E7196)
Strobe/Lamp Enabled: No (USB2E7196)
Correct for Detector Non-linearity: No (USB2E7196)
Correct for Stray Light: No (USB2E7196)
Number of Pixels in Processed Spectrum: 2048
>>>>>Begin Processed Spectral Data<<<<<
339.09	0.00
339.48	192.00
339.86	197.50
340.24	193.50
340.63	198.50
341.01	231.00
341.39	201.50
341.78	209.00
342.16	208.50
342.54	205.00
342.93	198.57
343.31	208.29
343.69	208.79
344.07	209.45
344.46	210.60
344.84	211.29
345.22	210.17
345.60	210.60
345.99	210.71
346.37	210.88
346.75	211.12
347.13	211.45
347.52	211.69
347.90	212.26
348.28	212.02
348.66	212.31
349.05	211.76
349.43	212.10
349.81	211.93
350.19	211.88
350.57	212.19
350.96	212.26
351.34	212.64
351.72	213.05
352.10	212.83
352.48	212.48
352.87	212.26
353.25	212.38
353.63	212.21
354.01	212.12
354.39	212.17
354.77	212.05
355.15	212.48
355.54	212.21
355.92	211.60
356.30	211.64
356.68	212.90
357.06	212.95
357.44	212.45
357.82	212.55
358.20	213.60
358.58	213.36
358.97	213.29
359.35	213.64
359.73	213.90
360.11	213.93
360.49	213.95
360.87	214.02
361.25	214.36
361.63	215.17
362.01	215.36
362.39	215.26
362.77	215.50
363.15	215.24
363.53	215.17
363.91	215.14
364.29	215.07
364.67	213.02
365.05	213.12
365.43	213.62
365.81	213.79
366.19	213.69
366.57	214.45
366.95	214.52
367.33	214.02
367.71	213.95
368.09	214.57
368.47	214.69
368.85	214.57
369.23	214.71
369.61	213.81
369.99	214.60
370.37	214.69
370.75	215.67
371.13	215.26
371.51	215.10
371.89	215.40
372.27	215.52
372.65	215.90
373.03	216.05
373.41	215.86
373.78	215.95
374.16	214.98
374.54	214.38
374.92	214.17
375.30	214.12
375.68	213.74
376.06	213.60
376.44	213.48
376.82	213.48
377.19	213.26
377.57	213.38
377.95	212.52
378.33	212.55
378.71	211.55
379.09	212.05
379.47	212.26
379.84	212.19
380.22	212.19
380.60	211.67
380.98	211.52
381.36	211.55
381.73	211.07
382.11	211.71
382.49	211.86
382.87	211.93
383.25	211.95
383.62	214.38
384.00	213.93
384.38	213.93
384.76	214.69
385.13	215.62
385.51	215.74
385.89	215.55
386.27	215.38
386.64	215.60
387.02	215.17
387.40	215.00
387.78	215.33
388.15	215.36
388.53	215.21
388.91	215.26
389.29	215.21
389.66	215.62
390.04	215.17
390.42	215.60
390.79	215.69
391.17	215.86
391.55	213.81
391.92	213.95
392.30	214.24
392.68	213.64
393.05	213.40
393.43	213.40
393.81	213.81
394.18	213.90
394.56	213.90
394.94	214.60
395.31	214.45
395.69	214.90
396.06	215.14
396.44	215.57
396.82	215.45
397.19	216.52
397.57	216.50
397.95	216.88
398.32	216.26
398.70	216.36
399.07	216.79
399.45	216.62
399.82	216.60
400.20	216.71
400.58	217.00
400.95	216.40
401.33	216.86
401.70	218.14
402.08	218.33
402.45	218.52
402.83	218.95
403.20	219.29
403.58	219.12
403.95	219.48
404.33	219.86
404.71	220.40
405.08	221.52
405.46	221.88
405.83	222.19
406.21	222.76
406.58	223.29
406.96	223.69
407.33	224.52
407.70	225.50
408.08	227.38
408.45	228.00
408.83	229.10
409.20	229.52
409.58	229.14
409.95	230.24
410.33	231.14
410.70	231.48
411.08	232.90
411.45	234.05
411.82	235.24
412.20	237.00
412.57	239.21
412.95	238.71
413.32	240.50
413.69	242.21
414.07	243.67
414.44	245.55
414.82	247.52
415.19	249.76
415.56	252.17
415.94	253.64
416.31	256.90
416.68	259.81
417.06	263.43
417.43	267.07
417.81	270.86
418.18	274.90
418.55	279.02
418.93	283.21
419.30	287.64
419.67	292.55
420.04	297.24
420.42	301.79
420.79	309.71
421.16	315.83
421.54	323.07
421.91	329.74
422.28	336.38
422.66	343.45
423.03	351.71
423.40	359.17
423.77	366.81
424.15	374.10
424.52	382.36
424.89	391.60
425.26	399.79
425.64	407.57
426.01	416.40
426.38	426.10
426.75	436.02
427.13	445.93
427.50	455.88
427.87	466.55
428.24	477.29
428.61	486.40
428.99	497.98
429.36	509.29
429.73	521.29
430.10	533.38
430.47	545.79
430.85	557.52
431.22	570.81
431.59	586.26
431.96	600.79
432.33	616.10
432.70	630.67
433.08	647.86
433.45	663.88
433.82	679.67
434.19	697.40
434.56	715.83
434.93	732.93
435.30	750.45
435.68	769.31
436.05	788.33
436.42	806.05
436.79	822.88
437.16	841.21
437.53	861.29
437.90	880.55
438.27	900.02
438.64	919.38
439.01	938.26
439.38	953.10
439.75	967.83
440.13	985.45
440.50	1002.43
440.87	1016.10
441.24	1030.76
441.61	1047.17
441.98	1059.14
442.35	1071.12
442.72	1084.52
443.09	1098.74
443.46	1107.43
443.83	1112.55
444.20	1118.67
444.57	1125.38
444.94	1128.64
445.31	1131.57
445.68	1137.19
446.05	1138.43
446.42	1136.83
446.79	1134.48
447.16	1132.24
447.53	1132.00
447.90	1124.98
448.27	1117.86
448.64	1108.29
449.01	1101.79
449.37	1089.71
449.74	1077.64
450.11	1066.38
450.48	1050.86
450.85	1033.71
451.22	1019.12
451.59	1006.62
451.96	993.48
452.33	976.48
452.70	961.60
453.07	943.90
453.43	923.50
453.80	905.83
454.17	889.14
454.54	872.79
454.91	855.29
455.28	837.74
455.65	821.50
456.02	808.60
456.38	794.98
456.75	778.36
457.12	764.19
457.49	750.67
457.86	735.14
458.23	724.07
458.59	711.26
458.96	698.60
459.33	686.57
459.70	675.17
460.07	666.14
460.43	655.60
460.80	646.05
461.17	638.07
461.54	628.98
461.91	620.24
462.27	611.86
462.64	604.79
463.01	596.26
463.38	589.36
463.74	578.26
464.11	571.50
464.48	565.05
464.85	558.17
465.21	553.02
465.58	547.67
465.95	540.74
466.32	535.38
466.68	529.90
467.05	524.95
467.42	519.57
467.78	513.74
468.15	508.38
468.52	504.24
468.88	498.12
469.25	493.33
469.62	489.98
469.98	485.48
470.35	481.76
470.72	478.50
471.08	473.83
471.45	470.69
471.82	468.02
472.18	464.62
472.55	461.74
472.92	458.12
473.28	454.79
473.65	452.05
474.02	449.40
474.38	447.24
474.75	444.86
475.11	442.57
475.48	441.48
475.85	439.86
476.21	437.69
476.58	436.24
476.94	434.90
477.31	433.24
477.67	431.71
478.04	430.64
478.41	429.62
478.77	431.00
479.14	430.21
479.50	429.31
479.87	428.64
480.23	428.17
480.60	427.38
480.96	427.29
481.33	428.24
481.69	427.67
482.06	427.95
482.42	428.40
482.79	428.71
483.15	428.88
483.52	429.79
483.88	430.24
484.25	430.74
484.61	431.93
484.98	432.64
485.34	434.81
485.71	436.55
486.07	438.05
486.44	437.69
486.80	439.17
487.17	440.55
487.53	443.31
487.90	446.24
488.26	450.10
488.62	452.81
488.99	454.69
489.35	457.93
489.72	460.55
490.08	463.38
490.44	466.55
490.81	470.02
491.17	472.98
491.54	477.12
491.90	481.48
492.26	485.10
492.63	489.07
492.99	492.43
493.36	496.76
493.72	501.62
494.08	506.43
494.45	511.67
494.81	517.26
495.17	522.17
495.54	527.33
495.90	532.14
496.26	537.60
496.63	543.24
496.99	549.38
497.35	555.40
497.72	562.38
498.08	568.52
498.44	575.48
498.80	582.83
499.17	589.02
499.53	595.57
499.89	602.81
500.26	610.12
500.62	617.07
500.98	624.88
501.34	632.00
501.71	639.88
502.07	647.57
502.43	655.02
502.79	662.43
503.16	669.98
503.52	677.02
503.88	684.79
504.24	693.02
504.60	701.02
504.97	709.95
505.33	717.26
505.69	726.38
506.05	733.93
506.41	742.12
506.78	750.69
507.14	758.71
507.50	766.95
507.86	775.24
508.22	784.64
508.59	792.14
508.95	801.14
509.31	810.24
509.67	818.95
510.03	826.86
510.39	835.71
510.75	843.95
511.12	852.64
511.48	861.40
511.84	869.48
512.20	877.45
512.56	885.48
512.92	894.02
513.28	902.40
513.64	910.69
514.00	918.02
514.37	926.52
514.73	935.36
515.09	944.33
515.45	952.33
515.81	960.21
516.17	968.55
516.53	975.36
516.89	982.64
517.25	989.76
517.61	998.64
517.97	1005.93
518.33	1013.33
518.69	1021.07
519.05	1028.50
519.41	1035.74
519.77	1044.48
520.13	1051.24
520.49	1057.48
520.85	1063.83
521.21	1071.50
521.57	1078.79
521.93	1084.67
522.29	1090.95
522.65	1095.88
523.01	1102.48
523.37	1108.19
523.73	1113.98
524.09	1120.12
524.45	1125.52
524.81	1131.07
525.17	1137.38
525.53	1142.86
525.89	1148.60
526.25	1154.36
526.61	1159.74
526.97	1164.93
527.33	1169.19
527.68	1176.24
528.04	1182.19
528.40	1187.14
528.76	1192.57
529.12	1198.07
529.48	1203.76
529.84	1208.38
530.20	1214.52
530.56	1220.43
530.91	1225.88
531.27	1231.21
531.63	1237.38
531.99	1241.90
532.35	1246.64
532.71	1250.40
533.07	1256.10
533.42	1263.60
533.78	1268.88
534.14	1274.26
534.50	1279.67
534.86	1284.90
535.21	1287.76
535.57	1292.62
535.93	1297.31
536.29	1302.36
536.65	1307.21
537.00	1311.31
537.36	1316.02
537.72	1319.93
538.08	1324.07
538.44	1328.50
538.79	1333.00
539.15	1336.12
539.51	1341.05
539.87	1345.55
540.22	1350.14
540.58	1354.12
540.94	1356.26
541.29	1359.14
541.65	1361.64
542.01	1365.83
542.37	1369.02
542.72	1372.60
543.08	1376.02
543.44	1380.57
543.79	1382.60
544.15	1386.48
544.51	1390.76
544.87	1395.48
545.22	1399.43
545.58	1402.71
545.94	1406.31
546.29	1410.12
546.65	1414.17
547.01	1417.69
547.36	1421.76
547.72	1424.86
548.07	1429.19
548.43	1431.86
548.79	1436.17
549.14	1439.93
549.50	1443.48
549.86	1446.79
550.21	1451.24
550.57	1455.38
550.92	1458.26
551.28	1462.67
551.64	1466.07
551.99	1469.62
552.35	1471.76
552.70	1475.52
553.06	1479.76
553.41	1483.86
553.77	1488.31
554.13	1492.88
554.48	1497.12
554.84	1502.60
555.19	1507.14
555.55	1511.93
555.90	1516.57
556.26	1521.14
556.61	1525.38
556.97	1529.17
557.32	1533.64
557.68	1537.62
558.03	1542.62
558.39	1546.64
558.74	1551.50
559.10	1555.52
559.45	1560.02
559.81	1565.60
560.16	1570.14
560.52	1574.19
560.87	1578.55
561.23	1582.29
561.58	1588.50
561.94	1592.95
562.29	1596.07
562.64	1601.19
563.00	1604.29
563.35	1609.21
563.71	1614.19
564.06	1620.57
564.42	1625.76
564.77	1632.02
565.12	1639.10
565.48	1645.79
565.83	1652.88
566.19	1657.86
566.54	1663.64
566.89	1668.69
567.25	1675.33
567.60	1681.95
567.96	1689.24
568.31	1695.57
568.66	1701.64
569.02	1704.74
569.37	1709.02
569.72	1714.31
570.08	1718.86
570.43	1724.00
570.78	1728.29
571.14	1731.29
571.49	1735.26
571.84	1740.29
572.20	1743.52
572.55	1746.69
572.90	1748.21
573.26	1750.05
573.61	1753.10
573.96	1757.19
574.31	1760.88
574.67	1762.83
575.02	1764.64
575.37	1765.74
575.72	1767.33
576.08	1769.79
576.43	1771.83
576.78	1775.31
577.13	1777.57
577.49	1779.98
577.84	1782.38
578.19	1785.10
578.54	1789.31
578.90	1791.55
579.25	1792.95
579.60	1795.43
579.95	1796.07
580.30	1798.45
580.66	1801.17
581.01	1803.67
581.36	1803.98
581.71	1805.86
582.06	1808.17
582.42	1811.00
582.77	1812.90
583.12	1814.17
583.47	1815.74
583.82	1817.62
584.17	1819.24
584.53	1821.69
584.88	1823.21
585.23	1824.83
585.58	1826.12
585.93	1825.88
586.28	1826.74
586.63	1827.43
586.98	1828.57
587.34	1831.29
587.69	1831.69
588.04	1831.45
588.39	1831.60
588.74	1831.14
589.09	1831.40
589.44	1830.05
589.79	1829.29
590.14	1829.69
590.49	1829.52
590.84	1828.38
591.19	1828.67
591.54	1828.12
591.89	1826.21
592.25	1826.14
592.60	1824.31
592.95	1823.31
593.30	1823.60
593.65	1822.05
594.00	1820.83
594.35	1824.98
594.70	1822.19
595.05	1820.98
595.40	1819.90
595.75	1818.67
596.10	1819.17
596.45	1817.88
596.80	1818.38
597.15	1816.38
597.50	1813.21
597.85	1813.26
598.19	1811.40
598.54	1809.17
598.89	1807.52
599.24	1806.69
599.59	1804.12
599.94	1802.43
600.29	1800.31
600.64	1797.69
600.99	1795.83
601.34	1794.67
601.69	1787.21
602.04	1785.02
602.39	1782.67
602.74	1781.00
603.08	1777.48
603.43	1775.33
603.78	1773.29
604.13	1769.95
604.48	1767.79
604.83	1766.71
605.18	1763.50
605.53	1761.21
605.87	1758.29
606.22	1754.62
606.57	1751.02
606.92	1747.29
607.27	1745.55
607.62	1743.19
607.96	1741.02
608.31	1738.86
608.66	1735.29
609.01	1731.98
609.36	1728.33
609.70	1724.45
610.05	1720.38
610.40	1717.90
610.75	1712.71
611.10	1708.02
611.44	1703.17
611.79	1698.33
612.14	1693.57
612.49	1687.71
612.83	1682.71
613.18	1677.40
613.53	1672.93
613.88	1668.31
614.22	1664.10
614.57	1657.57
614.92	1652.26
615.27	1646.57
615.61	1639.81
615.96	1633.90
616.31	1627.81
616.65	1623.50
617.00	1619.10
617.35	1614.29
617.70	1608.24
618.04	1603.31
618.39	1597.29
618.74	1591.93
619.08	1586.74
619.43	1580.90
619.78	1575.86
620.12	1571.38
620.47	1567.79
620.82	1562.19
621.16	1555.90
621.51	1550.64
621.85	1544.88
622.20	1539.10
622.55	1533.00
622.89	1527.90
623.24	1522.62
623.59	1517.31
623.93	1511.40
624.28	1505.83
624.62	1502.71
624.97	1499.57
625.32	1494.24
625.66	1489.67
626.01	1484.33
626.35	1479.90
626.70	1474.60
627.04	1470.17
627.39	1464.67
627.73	1459.14
628.08	1454.76
628.43	1450.26
628.77	1445.05
629.12	1440.29
629.46	1435.60
629.81	1430.07
630.15	1424.12
630.50	1419.24
630.84	1413.26
631.19	1407.17
631.53	1400.95
631.88	1392.00
632.22	1384.10
632.57	1378.95
632.91	1372.95
633.26	1367.55
633.60	1359.74
633.95	1353.83
634.29	1346.76
634.64	1340.45
634.98	1332.90
635.32	1327.10
635.67	1321.43
636.01	1315.02
636.36	1308.83
636.70	1303.74
637.05	1297.95
637.39	1292.93
637.73	1287.17
638.08	1282.69
638.42	1276.83
638.77	1271.12
639.11	1265.21
639.45	1259.62
639.80	1252.74
640.14	1246.26
640.49	1239.98
640.83	1234.67
641.17	1228.52
641.52	1222.95
641.86	1216.93
642.20	1212.88
642.55	1206.12
642.89	1199.24
643.23	1192.81
643.58	1187.50
643.92	1179.12
644.26	1172.98
644.61	1166.55
644.95	1159.45
645.29	1151.98
645.64	1145.95
645.98	1139.10
646.32	1132.86
646.66	1125.55
647.01	1118.60
647.35	1112.98
647.69	1106.71
648.04	1100.62
648.38	1094.21
648.72	1087.79
649.06	1081.62
649.41	1074.10
649.75	1067.05
650.09	1060.69
650.43	1054.02
650.78	1046.71
651.12	1040.62
651.46	1033.57
651.80	1027.19
652.14	1020.90
652.49	1015.29
652.83	1008.50
653.17	1002.19
653.51	995.83
653.85	990.21
654.20	984.14
654.54	976.81
654.88	970.05
655.22	964.10
655.56	957.55
655.90	951.17
656.25	944.67
656.59	938.33
656.93	932.12
657.27	926.76
657.61	920.24
657.95	914.60
658.29	908.29
658.64	903.19
658.98	896.40
659.32	889.64
659.66	882.98
660.00	877.24
660.34	871.74
660.68	866.12
661.02	859.90
661.36	854.38
661.70	849.40
662.05	843.50
662.39	837.60
662.73	832.71
663.07	828.07
663.41	822.17
663.75	816.43
664.09	810.98
664.43	804.57
664.77	799.43
665.11	793.31
665.45	787.95
665.79	781.74
666.13	776.62
666.47	771.55
666.81	766.55
667.15	761.14
667.49	756.26
667.83	751.38
668.17	746.45
668.51	740.95
668.85	735.45
669.19	731.88
669.53	726.05
669.87	720.14
670.21	714.40
670.55	709.05
670.89	705.29
671.23	700.62
671.57	696.24
671.91	691.69
672.25	687.45
672.58	684.02
672.92	679.52
673.26	675.07
673.60	670.57
673.94	665.74
674.28	661.67
674.62	656.90
674.96	652.02
675.30	647.76
675.64	643.86
675.97	639.60
676.31	633.90
676.65	629.90
676.99	626.88
677.33	622.17
677.67	618.26
678.01	613.00
678.34	609.17
678.68	605.26
679.02	600.86
679.36	596.48
679.70	591.26
680.04	587.12
680.37	582.52
680.71	578.62
681.05	574.64
681.39	570.50
681.73	566.64
682.06	563.00
682.40	559.00
682.74	555.24
683.08	551.93
683.42	547.86
683.75	544.43
684.09	539.93
684.43	536.36
684.77	532.45
685.10	528.64
685.44	524.62
685.78	520.55
686.12	516.83
686.45	513.17
686.79	509.69
687.13	506.31
687.46	502.90
687.80	500.10
688.14	496.69
688.48	493.50
688.81	490.31
689.15	487.31
689.49	484.07
689.82	480.55
690.16	476.40
690.50	473.43
690.83	469.83
691.17	466.17
691.51	462.98
691.84	460.64
692.18	457.74
692.52	454.74
692.85	451.90
693.19	449.76
693.52	447.02
693.86	443.98
694.20	441.00
694.53	438.83
694.87	435.62
695.21	432.36
695.54	429.48
695.88	425.71
696.21	422.05
696.55	419.31
696.88	416.74
697.22	414.14
697.56	411.98
697.89	409.17
698.23	406.90
698.56	404.38
698.90	401.71
699.23	398.83
699.57	396.19
699.90	393.50
700.24	390.67
700.58	388.05
700.91	386.21
701.25	385.43
701.58	383.31
701.92	381.31
702.25	379.45
702.59	376.95
702.92	375.43
703.26	373.69
703.59	371.55
703.93	371.21
704.26	369.55
704.60	367.55
704.93	365.62
705.26	363.71
705.60	362.29
705.93	360.07
706.27	359.14
706.60	358.02
706.94	357.24
707.27	355.48
707.61	354.14
707.94	352.19
708.27	349.14
708.61	346.95
708.94	345.12
709.28	343.40
709.61	341.88
709.94	340.38
710.28	338.88
710.61	337.19
710.95	333.86
711.28	333.45
711.61	331.95
711.95	330.98
712.28	329.60
712.61	327.86
712.95	327.64
713.28	326.71
713.61	324.98
713.95	322.86
714.28	321.38
714.61	319.57
714.95	318.05
715.28	316.31
715.61	314.76
715.95	313.76
716.28	312.55
716.61	311.43
716.95	309.69
717.28	308.36
717.61	307.07
717.94	305.74
718.28	303.12
718.61	301.74
718.94	300.33
719.27	298.81
719.61	297.67
719.94	295.62
720.27	293.29
720.60	292.21
720.94	291.02
721.27	290.07
721.60	289.83
721.93	288.88
722.27	288.79
722.60	288.33
722.93	286.74
723.26	285.86
723.59	284.67
723.93	284.14
724.26	283.57
724.59	282.69
724.92	282.10
725.25	281.95
725.59	281.19
725.92	280.71
726.25	280.19
726.58	279.62
726.91	278.81
727.24	278.38
727.57	277.48
727.91	276.48
728.24	275.86
728.57	274.43
728.90	273.81
729.23	272.62
729.56	272.93
729.89	272.55
730.22	271.69
730.55	271.12
730.89	270.48
731.22	269.52
731.55	268.90
731.88	268.19
732.21	267.12
732.54	266.21
732.87	265.64
733.20	265.12
733.53	264.55
733.86	264.17
734.19	263.71
734.52	263.38
734.85	264.40
735.18	263.83
735.51	264.00
735.84	263.81
736.17	263.74
736.50	261.90
736.83	263.62
737.16	263.24
737.49	262.62
737.82	261.95
738.15	261.76
738.48	261.36
738.81	260.79
739.14	260.21
739.47	259.76
739.80	259.05
740.13	258.76
740.46	257.83
740.79	257.24
741.12	256.43
741.45	255.64
741.78	253.95
742.11	253.98
742.44	253.38
742.77	253.07
743.10	252.24
743.43	251.88
743.75	249.31
744.08	251.64
744.41	251.05
744.74	250.64
745.07	249.90
745.40	249.86
745.73	250.26
746.06	250.12
746.39	249.93
746.71	249.52
747.04	248.52
747.37	248.36
747.70	247.95
748.03	247.83
748.36	247.95
748.68	247.60
749.01	246.45
749.34	245.79
749.67	245.43
750.00	245.43
750.33	246.55
750.65	246.55
750.98	243.45
751.31	243.38
751.64	243.07
751.97	243.81
752.29	243.12
752.62	241.93
752.95	241.36
753.28	240.90
753.60	240.52
753.93	241.10
754.26	240.62
754.59	239.98
754.91	239.40
755.24	238.74
755.57	238.52
755.90	238.10
756.22	237.81
756.55	237.10
756.88	236.36
757.20	234.57
757.53	233.43
757.86	233.29
758.19	233.26
758.51	233.19
758.84	231.79
759.17	231.36
759.49	231.26
759.82	231.88
760.15	232.02
760.47	231.74
760.80	230.81
761.13	231.02
761.45	230.86
761.78	230.79
762.11	230.60
762.43	230.07
762.76	230.07
763.08	229.90
763.41	229.88
763.74	229.76
764.06	229.57
764.39	229.90
764.71	229.55
765.04	228.93
765.37	228.24
765.69	228.21
766.02	227.93
766.34	227.57
766.67	226.76
767.00	226.86
767.32	227.57
767.65	228.55
767.97	228.10
768.30	228.10
768.62	227.83
768.95	227.71
769.27	227.60
769.60	227.74
769.92	227.45
770.25	226.93
770.57	226.31
770.90	226.17
771.22	225.62
771.55	225.71
771.87	225.74
772.20	225.71
772.52	227.05
772.85	229.48
773.17	229.45
773.50	229.12
773.82	228.57
774.15	227.50
774.47	226.24
774.80	225.93
775.12	225.71
775.45	225.45
775.77	225.31
776.09	225.33
776.42	225.19
776.74	225.64
777.07	225.52
777.39	225.62
777.72	225.62
778.04	225.71
778.36	225.38
778.69	225.38
779.01	225.36
779.33	223.71
779.66	221.52
779.98	221.36
780.31	221.33
780.63	222.14
780.95	222.62
781.28	222.55
781.60	222.48
781.92	222.29
782.25	222.21
782.57	222.00
782.89	221.60
783.22	221.29
783.54	220.67
783.86	220.62
784.19	220.57
784.51	221.36
784.83	220.93
785.16	220.74
785.48	220.69
785.80	220.67
786.12	220.93
786.45	220.74
786.77	220.74
787.09	220.52
787.42	219.76
787.74	219.69
788.06	219.55
788.38	219.55
788.71	219.26
789.03	219.24
789.35	219.43
789.67	219.31
789.99	219.31
790.32	219.26
790.64	219.55
790.96	220.95
791.28	219.86
791.61	219.71
791.93	220.02
792.25	219.74
792.57	221.00
792.89	220.36
793.21	220.24
793.54	219.90
793.86	219.95
794.18	219.95
794.50	219.62
794.82	219.60
795.14	219.74
795.47	220.38
795.79	220.45
796.11	220.24
796.43	220.19
796.75	220.36
797.07	220.31
797.39	220.12
797.71	218.81
798.04	218.86
798.36	219.29
798.68	219.19
799.00	219.43
799.32	218.24
799.64	218.79
799.96	218.90
800.28	219.43
800.60	219.38
800.92	219.10
801.24	218.93
801.56	219.07
801.89	218.90
802.21	218.86
802.53	218.64
802.85	219.02
803.17	220.10
803.49	219.79
803.81	219.60
804.13	219.38
804.45	219.29
804.77	219.38
805.09	219.36
805.41	218.98
805.73	218.62
806.05	218.21
806.37	217.88
806.69	217.69
807.01	217.48
807.33	217.45
807.65	217.14
807.97	218.29
808.28	218.21
808.60	218.17
808.92	217.95
809.24	219.26
809.56	218.86
809.88	218.21
810.20	218.33
810.52	218.62
810.84	218.40
811.16	218.17
811.48	218.19
811.80	218.67
812.12	218.62
812.43	218.93
812.75	219.36
813.07	219.17
813.39	219.29
813.71	218.83
814.03	218.64
814.35	218.79
814.67	217.69
814.98	217.48
815.30	217.45
815.62	216.98
815.94	215.38
816.26	215.48
816.58	215.07
816.89	214.81
817.21	214.38
817.53	214.48
817.85	214.50
818.17	214.36
818.48	213.71
818.80	214.19
819.12	213.88
819.44	213.24
819.76	213.02
820.07	213.00
820.39	213.19
820.71	213.43
821.03	213.31
821.34	213.29
821.66	213.50
821.98	213.62
822.30	213.76
822.61	214.98
822.93	214.60
823.25	214.50
823.57	214.31
823.88	214.83
824.20	214.93
824.52	215.36
824.83	215.21
825.15	214.76
825.47	214.62
825.79	214.79
826.10	214.76
826.42	214.67
826.74	215.00
827.05	214.95
827.37	214.93
827.69	214.90
828.00	214.95
828.32	214.90
828.64	214.74
828.95	215.67
829.27	215.29
829.58	215.50
829.90	216.10
830.22	216.60
830.53	215.93
830.85	215.79
831.17	215.21
831.48	215.26
831.80	215.62
832.11	215.29
832.43	215.17
832.75	215.24
833.06	216.43
833.38	215.90
833.69	215.86
834.01	215.79
834.32	215.57
834.64	215.33
834.96	215.50
835.27	215.52
835.59	215.00
835.90	214.60
836.22	214.48
836.53	213.79
836.85	213.45
837.16	215.57
837.48	215.64
837.79	216.24
838.11	216.24
838.42	216.17
838.74	216.45
839.05	216.14
839.37	216.14
839.68	214.98
840.00	214.62
840.31	214.90
840.63	214.86
840.94	214.69
841.26	214.45
841.57	214.31
841.88	214.07
842.20	213.62
842.51	213.33
842.83	213.26
843.14	215.05
843.46	215.14
843.77	214.02
844.08	213.93
844.40	213.36
844.71	213.36
845.03	213.12
845.34	213.05
845.65	213.05
845.97	212.95
846.28	213.21
846.60	213.60
846.91	213.26
847.22	213.10
847.54	213.50
847.85	213.86
848.16	213.71
848.48	213.64
848.79	214.64
849.10	214.95
849.42	215.17
849.73	213.48
850.04	213.24
850.36	212.52
850.67	212.69
850.98	212.76
851.30	212.67
851.61	212.67
851.92	212.62
852.23	213.43
852.55	213.67
852.86	213.74
853.17	213.79
853.49	214.31
853.80	214.81
854.11	215.10
854.42	215.38
854.74	215.26
855.05	215.33
855.36	214.14
855.67	214.14
855.99	214.26
856.30	216.52
856.61	216.64
856.92	216.62
857.23	216.50
857.55	216.38
857.86	216.26
858.17	216.62
858.48	216.21
858.79	215.69
859.11	215.95
859.42	215.88
859.73	215.60
860.04	215.48
860.35	214.86
860.66	214.19
860.98	213.98
861.29	214.19
861.60	214.14
861.91	214.67
862.22	214.26
862.53	213.83
862.84	211.43
863.16	212.05
863.47	211.64
863.78	211.71
864.09	211.69
864.40	212.24
864.71	212.33
865.02	212.69
865.33	212.43
865.64	211.98
865.95	211.93
866.27	213.33
866.58	213.05
866.89	213.14
867.20	213.29
867.51	212.79
867.82	212.57
868.13	213.29
868.44	213.02
868.75	213.69
869.06	214.00
869.37	214.31
869.68	213.50
869.99	214.29
870.30	214.48
870.61	214.90
870.92	214.33
871.23	214.12
871.54	214.31
871.85	214.95
872.16	215.33
872.47	215.19
872.78	213.83
873.09	213.86
873.40	213.93
873.71	213.93
874.02	214.19
874.33	214.10
874.64	213.43
874.95	213.64
875.26	212.88
875.56	212.62
875.87	212.50
876.18	212.69
876.49	214.55
876.80	214.36
877.11	213.81
877.42	213.81
877.73	213.69
878.04	213.52
878.35	213.40
878.66	213.36
878.96	213.24
879.27	213.24
879.58	213.40
879.89	213.14
880.20	213.93
880.51	213.81
880.82	213.83
881.12	214.10
881.43	213.62
881.74	213.69
882.05	213.69
882.36	213.79
882.67	213.71
882.97	211.38
883.28	211.24
883.59	211.17
883.90	211.45
884.21	211.86
884.51	211.62
884.82	211.26
885.13	211.17
885.44	211.21
885.74	211.40
886.05	211.26
886.36	211.67
886.67	210.81
886.98	211.95
887.28	212.17
887.59	212.05
887.90	212.17
888.20	212.12
888.51	212.55
888.82	212.17
889.13	212.33
889.43	214.10
889.74	213.81
890.05	213.81
890.35	213.62
890.66	213.19
890.97	213.00
891.28	212.74
891.58	212.67
891.89	212.60
892.20	212.36
892.50	212.24
892.81	211.83
893.12	212.05
893.42	210.95
893.73	211.05
894.04	211.26
894.34	211.48
894.65	211.26
894.95	211.00
895.26	211.26
895.57	212.14
895.87	210.12
896.18	210.55
896.48	210.86
896.79	210.88
897.10	211.45
897.40	211.90
897.71	212.21
898.01	212.00
898.32	212.29
898.63	212.21
898.93	212.17
899.24	212.31
899.54	211.88
899.85	211.76
900.15	211.60
900.46	211.31
900.76	211.33
901.07	211.52
901.38	211.31
901.68	211.52
901.99	210.67
902.29	211.12
902.60	211.12
902.90	210.88
903.21	210.88
903.51	210.74
903.82	211.07
904.12	211.02
904.43	211.26
904.73	211.24
905.03	211.24
905.34	213.19
905.64	213.29
905.95	213.60
906.25	213.86
906.56	213.79
906.86	214.07
907.17	213.98
907.47	214.14
907.77	214.07
908.08	213.55
908.38	213.71
908.69	213.74
908.99	213.93
909.30	213.95
909.60	214.10
909.90	214.12
910.21	213.24
910.51	212.98
910.81	213.10
911.12	213.36
911.42	213.50
911.73	211.50
912.03	211.43
912.33	211.76
912.64	211.57
912.94	211.45
913.24	210.79
913.55	210.74
913.85	210.57
914.15	210.83
914.46	211.17
914.76	210.86
915.06	210.71
915.37	210.29
915.67	210.17
915.97	210.17
916.27	209.60
916.58	209.93
916.88	210.10
917.18	209.90
917.49	210.88
917.79	210.83
918.09	211.19
918.39	211.74
918.70	211.45
919.00	211.40
919.30	212.14
919.60	212.31
919.91	211.88
920.21	211.90
920.51	211.48
920.81	211.29
921.12	211.64
921.42	211.62
921.72	211.79
922.02	212.21
922.32	212.43
922.63	212.62
922.93	213.60
923.23	213.71
923.53	213.64
923.83	212.48
924.13	212.52
924.44	212.69
924.74	212.79
925.04	213.19
925.34	213.21
925.64	212.60
925.94	212.60
926.24	213.98
926.55	213.81
926.85	214.40
927.15	214.50
927.45	214.60
927.75	214.36
928.05	214.50
928.35	214.17
928.65	214.33
928.95	214.50
929.26	213.50
929.56	213.79
929.86	214.14
930.16	214.05
930.46	213.83
930.76	213.76
931.06	212.88
931.36	212.36
931.66	212.83
931.96	212.98
932.26	213.02
932.56	212.26
932.86	212.50
933.16	212.38
933.46	212.10
933.76	211.55
934.06	212.26
934.36	212.95
934.66	212.83
934.96	212.52
935.26	212.64
935.56	213.19
935.86	212.62
936.16	212.19
936.46	211.93
936.76	212.02
937.06	211.83
937.36	212.33
937.66	212.57
937.96	212.12
938.26	211.79
938.56	211.83
938.86	211.76
939.16	212.07
939.46	212.31
939.76	212.38
940.06	212.69
940.35	212.00
940.65	210.88
940.95	211.14
941.25	210.71
941.55	210.33
941.85	210.14
942.15	210.64
942.45	211.02
942.75	211.00
943.04	211.10
943.34	211.29
943.64	210.88
943.94	210.48
944.24	211.02
944.54	211.29
944.84	210.98
945.13	210.71
945.43	210.29
945.73	209.98
946.03	210.05
946.33	209.62
946.62	209.60
946.92	209.60
947.22	209.71
947.52	209.95
947.82	210.40
948.11	210.05
948.41	209.50
948.71	209.19
949.01	209.40
949.31	209.33
949.60	209.31
949.90	209.67
950.20	209.79
950.50	209.50
950.79	209.07
951.09	209.55
951.39	209.48
951.69	209.33
951.98	209.81
952.28	209.98
952.58	209.90
952.87	209.95
953.17	210.29
953.47	209.98
953.76	209.83
954.06	209.38
954.36	209.31
954.66	209.24
954.95	209.79
955.25	209.93
955.55	209.98
955.84	209.67
956.14	209.67
956.44	209.90
956.73	209.62
957.03	209.86
957.32	209.86
957.62	209.76
957.92	210.50
958.21	210.07
958.51	212.33
958.81	212.71
959.10	212.95
959.40	213.40
959.69	213.48
959.99	213.90
960.29	213.90
960.58	213.81
960.88	214.93
961.17	214.64
961.47	214.76
961.76	214.57
962.06	215.05
962.36	214.86
962.65	214.76
962.95	214.76
963.24	214.76
963.54	214.69
963.83	215.02
964.13	214.86
964.42	214.52
964.72	212.79
965.01	212.76
965.31	212.55
965.60	212.00
965.90	213.31
966.19	212.83
966.49	213.17
966.78	213.21
967.08	212.71
967.37	212.52
967.67	212.12
967.96	212.45
968.26	212.29
968.55	212.71
968.85	212.69
969.14	212.88
969.43	212.79
969.73	212.86
970.02	212.81
970.32	212.64
970.61	212.60
970.91	211.98
971.20	211.57
971.49	211.48
971.79	211.60
972.08	210.31
972.38	210.50
972.67	210.26
972.96	210.57
973.26	210.36
973.55	211.17
973.85	211.17
974.14	211.19
974.43	211.24
974.73	210.69
975.02	210.52
975.31	210.43
975.61	210.50
975.90	210.02
976.19	209.71
976.49	209.71
976.78	209.98
977.07	210.10
977.37	210.38
977.66	210.62
977.95	210.55
978.24	210.76
978.54	211.05
978.83	210.81
979.12	210.71
979.42	210.60
979.71	210.14
980.00	210.17
980.29	210.10
980.59	209.62
980.88	210.24
981.17	210.00
981.46	210.10
981.76	210.10
982.05	210.81
982.34	210.93
982.63	211.07
982.93	211.00
983.22	211.57
983.51	211.64
983.80	211.90
984.09	212.24
984.39	211.90
984.68	211.69
984.97	211.83
985.26	211.57
985.55	211.67
985.85	211.10
986.14	211.40
986.43	211.67
986.72	211.67
987.01	211.00
987.30	211.17
987.59	210.95
987.89	211.17
988.18	210.81
988.47	210.76
988.76	210.48
989.05	210.24
989.34	209.93
989.63	210.52
989.92	210.19
990.22	209.71
990.51	209.81
990.80	209.76
991.09	209.98
991.38	210.19
991.67	210.31
991.96	210.36
992.25	210.19
992.54	210.02
992.83	210.02
993.12	210.02
993.41	210.45
993.70	211.31
993.99	211.31
994.28	211.40
994.58	211.76
994.87	211.69
995.16	211.81
995.45	211.40
995.74	210.60
996.03	211.12
996.32	211.55
996.61	212.07
996.90	212.02
997.19	211.81
997.48	211.88
997.77	211.50
998.06	211.69
998.34	211.60
998.63	211.38
998.92	211.48
999.21	211.95
999.50	211.93
999.79	211.12
1000.08	210.95
1000.37	211.00
1000.66	210.76
1000.95	211.10
1001.24	211.19
1001.53	211.74
1001.82	211.64
1002.11	211.21
1002.40	211.43
1002.68	211.57
1002.97	212.98
1003.26	212.81
1003.55	212.55
1003.84	212.62
1004.13	212.98
1004.42	212.95
1004.71	213.12
1004.99	212.90
1005.28	213.24
1005.57	212.95
1005.86	212.74
1006.15	212.83
1006.44	212.60
1006.72	212.83
1007.01	212.60
1007.30	212.62
1007.59	212.33
1007.88	212.50
1008.17	212.48
1008.45	211.71
1008.74	210.81
1009.03	209.86
1009.32	209.98
1009.60	209.90
1009.89	209.86
1010.18	209.33
1010.47	209.33
1010.76	209.29
1011.04	209.36
1011.33	209.40
1011.62	209.79
1011.91	210.17
1012.19	210.31
1012.48	210.31
1012.77	210.17
1013.05	211.00
1013.34	211.14
1013.63	210.93
1013.92	211.00
1014.20	210.86
1014.49	211.36
1014.78	211.81
1015.06	211.24
1015.35	211.29
1015.64	211.48
1015.92	211.95
1016.21	212.02
1016.50	212.00
1016.78	211.93
1017.07	212.17
1017.36	211.62
1017.64	211.17
1017.93	211.33
1018.22	211.10
1018.50	210.95
1018.79	210.79
1019.08	209.93
1019.36	210.05
1019.65	209.86
1019.93	210.48
1020.22	210.60
1020.51	211.45
1020.79	211.21
1021.08	208.50
1021.36	205.00
1021.65	207.00
1021.94	209.50
1022.22	214.50
1022.51	205.00
1022.79	222.50
1023.08	210.00
1023.36	235.00
1023.65	207.00
>>>>>End Processed Spectral Data<<<<<
