SpectraSuite Data File
++++++++++++++++++++++++++++++++++++
Date: Tue Apr 02 18:41:07 EDT 2013
User: group
Dark Spectrum Present: No
Reference Spectrum Present: No
Number of Sampled Component Spectra: 1
Spectrometers: USB2E7196
Integration Time (usec): 580000 (USB2E7196)
Spectra Averaged: 2 (USB2E7196)
Boxcar Smoothing: 10 (USB2E7196)
Correct for Electrical Dark: No (USB2E7196)
Strobe/Lamp Enabled: No (USB2E7196)
Correct for Detector Non-linearity: No (USB2E7196)
Correct for Stray Light: No (USB2E7196)
Number of Pixels in Processed Spectrum: 2048
>>>>>Begin Processed Spectral Data<<<<<
339.09	0.00
339.48	195.50
339.86	194.00
340.24	197.00
340.63	199.00
341.01	237.00
341.39	207.50
341.78	206.50
342.16	210.50
342.54	205.50
342.93	199.55
343.31	209.31
343.69	209.93
344.07	210.50
344.46	211.48
344.84	211.83
345.22	210.40
345.60	210.48
345.99	210.55
346.37	210.79
346.75	210.98
347.13	210.98
347.52	210.76
347.90	211.38
348.28	211.19
348.66	211.45
349.05	210.71
349.43	210.98
349.81	211.26
350.19	211.31
350.57	211.33
350.96	211.69
351.34	212.12
351.72	212.14
352.10	212.21
352.48	211.79
352.87	211.83
353.25	211.81
353.63	211.74
354.01	211.81
354.39	212.07
354.77	211.98
355.15	212.45
355.54	212.60
355.92	212.07
356.30	212.17
356.68	213.48
357.06	213.62
357.44	213.17
357.82	212.98
358.20	214.10
358.58	213.98
358.97	213.76
359.35	214.07
359.73	214.45
360.11	214.62
360.49	214.88
360.87	215.07
361.25	215.64
361.63	216.50
362.01	216.64
362.39	216.12
362.77	216.26
363.15	216.36
363.53	216.19
363.91	216.45
364.29	216.45
364.67	214.76
365.05	214.90
365.43	215.10
365.81	215.24
366.19	215.21
366.57	216.05
366.95	216.19
367.33	215.86
367.71	215.86
368.09	216.17
368.47	215.95
368.85	215.86
369.23	216.05
369.61	215.12
369.99	215.76
370.37	216.12
370.75	217.36
371.13	216.64
371.51	216.40
371.89	216.57
372.27	216.76
372.65	216.95
373.03	216.83
373.41	216.88
373.78	216.95
374.16	215.81
374.54	215.14
374.92	215.21
375.30	214.93
375.68	214.60
376.06	214.71
376.44	214.69
376.82	215.00
377.19	214.98
377.57	215.07
377.95	214.36
378.33	214.19
378.71	212.90
379.09	213.36
379.47	213.81
379.84	213.33
380.22	213.07
380.60	212.55
380.98	212.38
381.36	212.12
381.73	211.60
382.11	212.10
382.49	212.29
382.87	211.81
383.25	212.10
383.62	214.60
384.00	214.10
384.38	214.38
384.76	214.52
385.13	215.26
385.51	215.31
385.89	215.26
386.27	215.36
386.64	215.62
387.02	215.48
387.40	215.19
387.78	215.48
388.15	215.67
388.53	215.71
388.91	215.90
389.29	215.71
389.66	216.40
390.04	216.17
390.42	216.36
390.79	216.71
391.17	216.67
391.55	214.38
391.92	214.50
392.30	214.57
392.68	214.38
393.05	214.10
393.43	214.19
393.81	214.43
394.18	214.07
394.56	214.17
394.94	214.64
395.31	214.79
395.69	215.48
396.06	215.60
396.44	215.90
396.82	215.74
397.19	216.95
397.57	216.60
397.95	216.98
398.32	216.50
398.70	216.60
399.07	217.05
399.45	216.88
399.82	216.98
400.20	216.67
400.58	216.60
400.95	215.90
401.33	216.26
401.70	217.67
402.08	217.76
402.45	217.95
402.83	218.21
403.20	218.33
403.58	218.12
403.95	218.67
404.33	219.17
404.71	219.64
405.08	220.64
405.46	220.95
405.83	221.29
406.21	221.69
406.58	222.24
406.96	222.48
407.33	223.17
407.70	223.86
408.08	226.05
408.45	227.00
408.83	227.81
409.20	228.07
409.58	227.52
409.95	228.93
410.33	229.62
410.70	229.98
411.08	231.10
411.45	232.19
411.82	233.07
412.20	234.43
412.57	236.93
412.95	236.48
413.32	238.17
413.69	239.45
414.07	241.05
414.44	243.07
414.82	245.12
415.19	247.55
415.56	249.74
415.94	251.12
416.31	254.10
416.68	257.02
417.06	260.79
417.43	264.24
417.81	267.40
418.18	271.19
418.55	275.29
418.93	279.69
419.30	283.93
419.67	288.33
420.04	292.88
420.42	297.21
420.79	304.88
421.16	311.00
421.54	318.29
421.91	324.98
422.28	330.93
422.66	337.74
423.03	345.67
423.40	352.81
423.77	360.48
424.15	368.17
424.52	376.45
424.89	385.14
425.26	393.24
425.64	401.05
426.01	409.86
426.38	418.88
426.75	428.26
427.13	437.93
427.50	448.07
427.87	458.67
428.24	468.76
428.61	477.52
428.99	488.64
429.36	499.74
429.73	511.12
430.10	523.07
430.47	535.36
430.85	546.31
431.22	559.76
431.59	575.31
431.96	588.00
432.33	602.40
432.70	616.40
433.08	632.93
433.45	649.38
433.82	665.55
434.19	683.38
434.56	700.88
434.93	717.64
435.30	734.26
435.68	752.57
436.05	770.55
436.42	788.21
436.79	804.81
437.16	822.60
437.53	841.36
437.90	860.05
438.27	878.79
438.64	898.26
439.01	915.19
439.38	928.90
439.75	944.07
440.13	961.86
440.50	978.60
440.87	992.74
441.24	1006.31
441.61	1021.17
441.98	1031.95
442.35	1044.50
442.72	1057.64
443.09	1071.52
443.46	1079.33
443.83	1085.07
444.20	1089.95
444.57	1095.95
444.94	1099.12
445.31	1103.31
445.68	1109.07
446.05	1110.12
446.42	1108.52
446.79	1107.83
447.16	1105.98
447.53	1105.43
447.90	1098.43
448.27	1091.19
448.64	1081.95
449.01	1075.52
449.37	1064.31
449.74	1052.88
450.11	1041.29
450.48	1026.36
450.85	1010.26
451.22	997.52
451.59	984.83
451.96	972.90
452.33	957.05
452.70	942.52
453.07	924.45
453.43	904.12
453.80	887.17
454.17	870.71
454.54	854.48
454.91	837.48
455.28	820.81
455.65	805.52
456.02	793.90
456.38	780.29
456.75	764.05
457.12	749.74
457.49	737.17
457.86	722.43
458.23	711.76
458.59	699.38
458.96	686.57
459.33	675.67
459.70	664.69
460.07	655.95
460.43	646.14
460.80	637.19
461.17	629.48
461.54	620.90
461.91	612.36
462.27	603.93
462.64	597.02
463.01	588.76
463.38	581.88
463.74	570.74
464.11	563.90
464.48	557.88
464.85	551.55
465.21	546.55
465.58	541.07
465.95	533.69
466.32	528.31
466.68	522.52
467.05	517.40
467.42	512.05
467.78	506.83
468.15	501.45
468.52	497.60
468.88	492.00
469.25	486.93
469.62	483.62
469.98	479.40
470.35	475.50
470.72	471.88
471.08	466.98
471.45	464.02
471.82	461.36
472.18	457.88
472.55	455.40
472.92	451.74
473.28	448.86
473.65	446.31
474.02	443.62
474.38	441.90
474.75	439.69
475.11	437.38
475.48	435.74
475.85	433.93
476.21	431.79
476.58	430.29
476.94	429.05
477.31	427.60
477.67	426.48
478.04	425.48
478.41	424.93
478.77	426.14
479.14	425.00
479.50	423.88
479.87	423.36
480.23	423.02
480.60	422.57
480.96	422.19
481.33	422.69
481.69	422.57
482.06	422.64
482.42	423.17
482.79	423.57
483.15	423.52
483.52	424.88
483.88	425.24
484.25	426.05
484.61	427.12
484.98	427.88
485.34	429.79
485.71	431.21
486.07	432.48
486.44	432.17
486.80	433.81
487.17	435.79
487.53	438.29
487.90	440.31
488.26	443.55
488.62	446.79
488.99	448.86
489.35	452.00
489.72	454.83
490.08	457.17
490.44	459.76
490.81	463.31
491.17	465.74
491.54	469.81
491.90	473.69
492.26	477.55
492.63	481.10
492.99	484.38
493.36	488.71
493.72	493.45
494.08	498.12
494.45	503.17
494.81	508.00
495.17	512.36
495.54	517.90
495.90	522.00
496.26	526.62
496.63	532.45
496.99	537.88
497.35	543.69
497.72	549.95
498.08	555.98
498.44	562.26
498.80	569.26
499.17	575.38
499.53	581.81
499.89	588.88
500.26	595.98
500.62	603.17
500.98	610.86
501.34	617.45
501.71	625.07
502.07	632.24
502.43	639.43
502.79	647.05
503.16	653.90
503.52	661.81
503.88	669.43
504.24	676.93
504.60	684.81
504.97	692.48
505.33	700.12
505.69	709.10
506.05	717.02
506.41	724.74
506.78	732.40
507.14	740.00
507.50	747.19
507.86	756.07
508.22	764.26
508.59	771.67
508.95	780.14
509.31	789.26
509.67	797.81
510.03	806.21
510.39	814.57
510.75	822.90
511.12	830.50
511.48	838.48
511.84	846.79
512.20	854.74
512.56	862.45
512.92	870.50
513.28	877.98
513.64	885.21
514.00	892.76
514.37	901.10
514.73	909.31
515.09	917.86
515.45	925.24
515.81	932.26
516.17	939.07
516.53	945.93
516.89	951.57
517.25	958.14
517.61	965.74
517.97	972.19
518.33	978.79
518.69	986.14
519.05	992.76
519.41	999.40
519.77	1007.02
520.13	1013.62
520.49	1019.67
520.85	1026.05
521.21	1034.29
521.57	1041.52
521.93	1047.14
522.29	1053.07
522.65	1058.60
523.01	1063.79
523.37	1069.10
523.73	1075.07
524.09	1080.81
524.45	1085.83
524.81	1091.24
525.17	1096.31
525.53	1101.45
525.89	1107.00
526.25	1112.17
526.61	1117.74
526.97	1122.38
527.33	1126.19
527.68	1132.86
528.04	1137.45
528.40	1142.45
528.76	1145.71
529.12	1149.60
529.48	1154.95
529.84	1159.98
530.20	1164.29
530.56	1169.19
530.91	1175.00
531.27	1180.12
531.63	1185.40
531.99	1190.55
532.35	1194.90
532.71	1198.93
533.07	1204.14
533.42	1210.81
533.78	1215.17
534.14	1219.24
534.50	1223.43
534.86	1228.31
535.21	1231.55
535.57	1237.40
535.93	1240.79
536.29	1245.95
536.65	1250.57
537.00	1253.71
537.36	1257.33
537.72	1261.21
538.08	1265.43
538.44	1268.76
538.79	1272.19
539.15	1275.60
539.51	1279.52
539.87	1283.79
540.22	1288.36
540.58	1292.48
540.94	1293.57
541.29	1297.95
541.65	1300.93
542.01	1304.43
542.37	1307.88
542.72	1310.26
543.08	1312.45
543.44	1316.90
543.79	1318.93
544.15	1321.69
544.51	1326.43
544.87	1329.86
545.22	1333.55
545.58	1336.90
545.94	1339.81
546.29	1343.17
546.65	1346.45
547.01	1349.55
547.36	1352.76
547.72	1355.00
548.07	1358.31
548.43	1361.43
548.79	1363.95
549.14	1366.69
549.50	1370.95
549.86	1373.14
550.21	1376.33
550.57	1380.07
550.92	1382.24
551.28	1386.17
551.64	1389.57
551.99	1392.69
552.35	1395.69
552.70	1398.48
553.06	1401.21
553.41	1404.71
553.77	1410.10
554.13	1413.64
554.48	1419.02
554.84	1423.88
555.19	1429.14
555.55	1434.74
555.90	1439.81
556.26	1443.93
556.61	1449.19
556.97	1453.26
557.32	1458.24
557.68	1463.40
558.03	1468.36
558.39	1473.40
558.74	1477.50
559.10	1481.90
559.45	1486.36
559.81	1492.21
560.16	1497.71
560.52	1502.86
560.87	1508.83
561.23	1511.81
561.58	1517.55
561.94	1521.05
562.29	1524.90
562.64	1530.12
563.00	1533.60
563.35	1537.93
563.71	1543.43
564.06	1548.90
564.42	1554.55
564.77	1560.33
565.12	1566.93
565.48	1573.67
565.83	1580.67
566.19	1587.02
566.54	1593.38
566.89	1598.93
567.25	1603.90
567.60	1610.55
567.96	1618.33
568.31	1625.00
568.66	1631.71
569.02	1636.86
569.37	1642.55
569.72	1648.26
570.08	1652.05
570.43	1656.93
570.78	1662.19
571.14	1667.81
571.49	1672.45
571.84	1677.12
572.20	1681.57
572.55	1685.90
572.90	1689.05
573.26	1692.45
573.61	1695.86
573.96	1699.98
574.31	1703.76
574.67	1708.38
575.02	1711.00
575.37	1712.43
575.72	1714.95
576.08	1718.62
576.43	1722.40
576.78	1725.40
577.13	1728.62
577.49	1732.50
577.84	1736.14
578.19	1739.67
578.54	1743.40
578.90	1747.19
579.25	1750.36
579.60	1752.62
579.95	1753.74
580.30	1756.38
580.66	1759.88
581.01	1763.40
581.36	1765.17
581.71	1768.19
582.06	1771.50
582.42	1775.48
582.77	1777.38
583.12	1779.00
583.47	1780.90
583.82	1782.17
584.17	1784.69
584.53	1787.21
584.88	1789.90
585.23	1792.24
585.58	1794.26
585.93	1794.29
586.28	1796.26
586.63	1797.50
586.98	1799.95
587.34	1803.17
587.69	1804.90
588.04	1805.67
588.39	1806.43
588.74	1806.60
589.09	1807.10
589.44	1806.19
589.79	1806.40
590.14	1808.48
590.49	1809.64
590.84	1809.62
591.19	1811.62
591.54	1812.17
591.89	1812.14
592.25	1813.60
592.60	1812.24
592.95	1811.67
593.30	1813.29
593.65	1812.64
594.00	1811.88
594.35	1817.52
594.70	1816.67
595.05	1816.02
595.40	1814.67
595.75	1814.45
596.10	1815.71
596.45	1815.79
596.80	1816.43
597.15	1815.05
597.50	1813.93
597.85	1814.05
598.19	1814.19
598.54	1812.24
598.89	1811.43
599.24	1811.55
599.59	1808.71
599.94	1809.00
600.29	1809.17
600.64	1807.19
600.99	1806.10
601.34	1805.57
601.69	1799.00
602.04	1797.21
602.39	1796.55
602.74	1796.57
603.08	1795.79
603.43	1795.95
603.78	1793.90
604.13	1790.62
604.48	1789.33
604.83	1788.26
605.18	1786.43
605.53	1784.52
605.87	1782.57
606.22	1780.36
606.57	1776.79
606.92	1774.67
607.27	1772.10
607.62	1770.05
607.96	1768.02
608.31	1765.90
608.66	1763.26
609.01	1759.76
609.36	1757.17
609.70	1753.50
610.05	1749.62
610.40	1745.83
610.75	1741.17
611.10	1738.83
611.44	1736.17
611.79	1732.64
612.14	1728.81
612.49	1723.62
612.83	1719.24
613.18	1715.67
613.53	1711.40
613.88	1707.40
614.22	1702.76
614.57	1698.31
614.92	1692.83
615.27	1688.36
615.61	1682.67
615.96	1677.19
616.31	1672.64
616.65	1669.67
617.00	1664.60
617.35	1660.69
617.70	1656.02
618.04	1651.50
618.39	1646.38
618.74	1642.38
619.08	1637.12
619.43	1631.24
619.78	1627.64
620.12	1623.19
620.47	1618.81
620.82	1614.00
621.16	1609.02
621.51	1605.50
621.85	1599.55
622.20	1594.71
622.55	1588.50
622.89	1584.05
623.24	1580.67
623.59	1575.05
623.93	1568.69
624.28	1564.57
624.62	1561.05
624.97	1558.14
625.32	1553.12
625.66	1547.86
626.01	1541.95
626.35	1537.71
626.70	1533.36
627.04	1528.90
627.39	1523.88
627.73	1519.36
628.08	1515.71
628.43	1511.19
628.77	1505.64
629.12	1502.05
629.46	1497.57
629.81	1493.45
630.15	1488.43
630.50	1482.38
630.84	1477.81
631.19	1472.43
631.53	1466.67
631.88	1458.64
632.22	1450.05
632.57	1445.05
632.91	1439.12
633.26	1434.79
633.60	1428.45
633.95	1423.31
634.29	1416.07
634.64	1410.45
634.98	1403.83
635.32	1397.71
635.67	1393.00
636.01	1387.43
636.36	1381.36
636.70	1376.50
637.05	1370.74
637.39	1365.76
637.73	1361.21
638.08	1355.74
638.42	1350.67
638.77	1345.24
639.11	1340.43
639.45	1336.24
639.80	1329.17
640.14	1323.76
640.49	1317.00
640.83	1310.95
641.17	1305.40
641.52	1299.69
641.86	1293.36
642.20	1288.93
642.55	1282.14
642.89	1275.33
643.23	1268.50
643.58	1263.19
643.92	1255.10
644.26	1248.76
644.61	1242.24
644.95	1235.31
645.29	1228.14
645.64	1222.02
645.98	1215.64
646.32	1209.38
646.66	1202.29
647.01	1196.26
647.35	1190.48
647.69	1184.17
648.04	1178.12
648.38	1171.50
648.72	1164.83
649.06	1158.60
649.41	1150.83
649.75	1144.00
650.09	1136.79
650.43	1130.19
650.78	1122.50
651.12	1116.43
651.46	1109.83
651.80	1103.14
652.14	1096.81
652.49	1091.05
652.83	1083.64
653.17	1076.83
653.51	1070.07
653.85	1063.31
654.20	1056.88
654.54	1049.14
654.88	1042.62
655.22	1037.31
655.56	1029.90
655.90	1024.48
656.25	1017.90
656.59	1011.31
656.93	1005.07
657.27	1000.12
657.61	994.14
657.95	988.60
658.29	982.62
658.64	977.02
658.98	970.69
659.32	963.71
659.66	957.64
660.00	951.90
660.34	946.57
660.68	940.07
661.02	934.48
661.36	928.31
661.70	922.86
662.05	917.67
662.39	910.98
662.73	906.43
663.07	901.14
663.41	895.40
663.75	889.40
664.09	884.07
664.43	877.57
664.77	871.60
665.11	865.55
665.45	860.24
665.79	854.64
666.13	849.02
666.47	843.48
666.81	837.79
667.15	831.93
667.49	826.05
667.83	821.38
668.17	815.86
668.51	810.60
668.85	805.45
669.19	800.57
669.53	795.07
669.87	789.10
670.21	782.62
670.55	776.98
670.89	772.93
671.23	767.79
671.57	762.98
671.91	758.50
672.25	753.52
672.58	748.83
672.92	743.12
673.26	738.14
673.60	733.00
673.94	728.45
674.28	723.69
674.62	719.52
674.96	714.33
675.30	709.55
675.64	704.76
675.97	700.14
676.31	693.79
676.65	689.17
676.99	685.57
677.33	681.07
677.67	677.02
678.01	671.43
678.34	666.60
678.68	662.48
679.02	657.55
679.36	652.71
679.70	647.21
680.04	643.10
680.37	638.69
680.71	634.60
681.05	630.93
681.39	627.12
681.73	622.43
682.06	618.10
682.40	613.71
682.74	610.10
683.08	606.02
683.42	602.07
683.75	597.88
684.09	592.88
684.43	588.55
684.77	584.33
685.10	580.50
685.44	576.83
685.78	572.40
686.12	568.29
686.45	564.43
686.79	560.62
687.13	557.19
687.46	553.02
687.80	549.55
688.14	545.12
688.48	541.31
688.81	537.26
689.15	534.21
689.49	530.57
689.82	526.26
690.16	521.93
690.50	518.43
690.83	515.19
691.17	511.21
691.51	508.10
691.84	504.69
692.18	501.14
692.52	497.62
692.85	494.40
693.19	491.62
693.52	488.29
693.86	485.07
694.20	481.17
694.53	478.29
694.87	474.86
695.21	470.93
695.54	467.62
695.88	463.88
696.21	459.86
696.55	456.98
696.88	453.83
697.22	450.60
697.56	448.00
697.89	444.24
698.23	441.62
698.56	438.69
698.90	435.86
699.23	432.60
699.57	429.74
699.90	426.21
700.24	422.90
700.58	420.02
700.91	417.38
701.25	416.36
701.58	414.31
701.92	412.21
702.25	410.12
702.59	407.29
702.92	405.10
703.26	403.10
703.59	400.57
703.93	400.38
704.26	398.43
704.60	396.10
704.93	394.12
705.26	391.64
705.60	389.71
705.93	387.02
706.27	385.74
706.60	384.21
706.94	383.10
707.27	380.98
707.61	379.24
707.94	377.24
708.27	373.60
708.61	370.64
708.94	368.36
709.28	366.45
709.61	364.33
709.94	362.64
710.28	360.48
710.61	358.76
710.95	354.60
711.28	354.36
711.61	352.07
711.95	350.86
712.28	348.90
712.61	346.79
712.95	346.12
713.28	345.10
713.61	342.95
713.95	340.93
714.28	339.52
714.61	337.71
714.95	335.90
715.28	334.48
715.61	333.19
715.95	331.83
716.28	330.14
716.61	329.24
716.95	327.50
717.28	325.93
717.61	324.36
717.94	323.19
718.28	320.07
718.61	318.79
718.94	316.90
719.27	315.62
719.61	314.40
719.94	312.62
720.27	310.02
720.60	308.40
720.94	306.95
721.27	305.93
721.60	305.33
721.93	303.93
722.27	303.45
722.60	302.52
722.93	301.17
723.26	300.21
723.59	298.55
723.93	297.86
724.26	297.40
724.59	296.36
724.92	295.60
725.25	295.33
725.59	294.62
725.92	293.83
726.25	293.07
726.58	292.21
726.91	291.17
727.24	290.76
727.57	289.90
727.91	288.81
728.24	288.29
728.57	286.90
728.90	286.64
729.23	284.95
729.56	284.90
729.89	284.07
730.22	283.24
730.55	282.57
730.89	281.71
731.22	280.62
731.55	279.83
731.88	279.05
732.21	277.74
732.54	276.76
732.87	276.12
733.20	275.48
733.53	274.90
733.86	274.29
734.19	273.07
734.52	273.00
734.85	273.74
735.18	272.64
735.51	272.52
735.84	272.02
736.17	272.05
736.50	270.21
736.83	271.98
737.16	271.55
737.49	270.76
737.82	269.98
738.15	269.60
738.48	268.90
738.81	268.07
739.14	267.38
739.47	266.71
739.80	266.02
740.13	265.62
740.46	264.55
740.79	263.71
741.12	263.14
741.45	262.00
741.78	260.33
742.11	260.43
742.44	259.38
742.77	259.05
743.10	258.14
743.43	257.95
743.75	255.10
744.08	256.98
744.41	256.60
744.74	255.86
745.07	254.88
745.40	254.62
745.73	255.02
746.06	254.76
746.39	254.45
746.71	253.90
747.04	253.07
747.37	252.69
747.70	252.71
748.03	252.62
748.36	252.50
748.68	252.00
749.01	250.71
749.34	250.57
749.67	249.98
750.00	249.81
750.33	250.76
750.65	250.69
750.98	247.90
751.31	247.69
751.64	247.83
751.97	248.69
752.29	248.26
752.62	246.95
752.95	246.52
753.28	246.19
753.60	245.74
753.93	245.90
754.26	245.50
754.59	244.55
754.91	243.69
755.24	243.36
755.57	243.10
755.90	242.55
756.22	241.79
756.55	241.31
756.88	240.52
757.20	238.83
757.53	237.98
757.86	237.64
758.19	237.38
758.51	236.95
758.84	235.60
759.17	235.24
759.49	235.12
759.82	235.86
760.15	235.81
760.47	235.64
760.80	234.83
761.13	235.02
761.45	234.48
761.78	234.40
762.11	234.12
762.43	233.57
762.76	233.52
763.08	233.71
763.41	233.50
763.74	233.57
764.06	233.50
764.39	233.52
764.71	233.36
765.04	232.98
765.37	232.55
765.69	232.36
766.02	232.21
766.34	231.79
766.67	230.69
767.00	231.00
767.32	232.00
767.65	233.05
767.97	232.79
768.30	233.14
768.62	233.12
768.95	232.57
769.27	232.24
769.60	232.33
769.92	231.83
770.25	231.52
770.57	230.83
770.90	230.76
771.22	230.24
771.55	230.10
771.87	230.12
772.20	229.81
772.52	231.21
772.85	233.36
773.17	233.31
773.50	233.12
773.82	232.52
774.15	231.21
774.47	229.67
774.80	229.12
775.12	228.81
775.45	228.57
775.77	228.57
776.09	228.90
776.42	228.83
776.74	229.21
777.07	228.67
777.39	228.64
777.72	228.10
778.04	228.00
778.36	227.43
778.69	227.17
779.01	227.45
779.33	225.57
779.66	223.26
779.98	223.07
780.31	222.86
780.63	223.62
780.95	223.67
781.28	223.83
781.60	223.88
781.92	223.60
782.25	223.69
782.57	223.81
782.89	223.45
783.22	223.07
783.54	222.38
783.86	222.64
784.19	222.76
784.51	223.40
784.83	223.43
785.16	223.52
785.48	223.57
785.80	223.43
786.12	223.67
786.45	223.40
786.77	223.48
787.09	223.45
787.42	222.31
787.74	222.45
788.06	222.19
788.38	221.98
788.71	221.98
789.03	221.69
789.35	221.55
789.67	221.10
789.99	221.31
790.32	221.19
790.64	221.17
790.96	222.52
791.28	221.67
791.61	221.50
791.93	221.48
792.25	221.40
792.57	222.57
792.89	222.07
793.21	222.33
793.54	221.86
793.86	221.81
794.18	222.05
794.50	221.55
794.82	221.48
795.14	221.48
795.47	221.50
795.79	221.40
796.11	221.02
796.43	221.00
796.75	220.69
797.07	220.83
797.39	220.62
797.71	219.02
798.04	219.17
798.36	219.24
798.68	219.17
799.00	219.02
799.32	217.71
799.64	218.05
799.96	217.90
800.28	218.31
800.60	217.86
800.92	217.95
801.24	217.86
801.56	218.26
801.89	218.31
802.21	218.52
802.53	218.24
802.85	218.79
803.17	219.88
803.49	219.74
803.81	219.60
804.13	219.52
804.45	219.38
804.77	219.29
805.09	219.29
805.41	219.17
805.73	218.76
806.05	218.31
806.37	217.98
806.69	217.69
807.01	217.64
807.33	217.86
807.65	217.26
807.97	218.29
808.28	217.98
808.60	217.88
808.92	217.64
809.24	219.07
809.56	218.69
809.88	217.74
810.20	217.67
810.52	217.86
810.84	217.67
811.16	217.67
811.48	217.60
811.80	218.19
812.12	218.00
812.43	218.50
812.75	218.98
813.07	218.86
813.39	218.98
813.71	218.38
814.03	218.26
814.35	218.24
814.67	217.29
814.98	217.19
815.30	216.98
815.62	216.69
815.94	215.21
816.26	215.07
816.58	214.90
816.89	215.29
817.21	215.10
817.53	215.36
817.85	215.33
818.17	215.29
818.48	214.50
818.80	214.71
819.12	214.24
819.44	213.76
819.76	213.57
820.07	213.48
820.39	213.81
820.71	213.79
821.03	213.55
821.34	213.62
821.66	213.79
821.98	214.21
822.30	214.07
822.61	215.31
822.93	214.93
823.25	214.93
823.57	214.52
823.88	214.81
824.20	214.69
824.52	214.90
824.83	214.95
825.15	214.71
825.47	214.83
825.79	214.98
826.10	215.00
826.42	215.05
826.74	215.43
827.05	215.38
827.37	215.52
827.69	215.55
828.00	215.43
828.32	215.19
828.64	214.67
828.95	215.88
829.27	215.33
829.58	215.55
829.90	215.95
830.22	216.02
830.53	215.48
830.85	215.24
831.17	214.88
831.48	214.83
831.80	214.88
832.11	214.71
832.43	214.76
832.75	214.45
833.06	215.74
833.38	214.95
833.69	214.93
834.01	214.88
834.32	214.69
834.64	214.38
834.96	214.40
835.27	214.62
835.59	213.69
835.90	213.24
836.22	213.21
836.53	212.79
836.85	212.64
837.16	214.55
837.48	214.48
837.79	214.90
838.11	214.90
838.42	215.05
838.74	215.12
839.05	214.95
839.37	215.12
839.68	213.93
840.00	213.95
840.31	214.05
840.63	213.95
840.94	213.81
841.26	213.67
841.57	213.55
841.88	213.67
842.20	213.67
842.51	213.60
842.83	213.79
843.14	215.64
843.46	215.74
843.77	214.74
844.08	214.98
844.40	214.57
844.71	214.43
845.03	214.17
845.34	214.14
845.65	213.88
845.97	213.93
846.28	213.95
846.60	214.00
846.91	213.62
847.22	213.79
847.54	214.29
847.85	214.55
848.16	214.64
848.48	214.29
848.79	215.07
849.10	215.21
849.42	215.10
849.73	213.36
850.04	213.36
850.36	212.74
850.67	213.02
850.98	212.98
851.30	213.10
851.61	213.24
851.92	213.19
852.23	214.00
852.55	214.10
852.86	214.17
853.17	214.43
853.49	214.93
853.80	215.24
854.11	215.38
854.42	215.60
854.74	215.31
855.05	215.45
855.36	214.31
855.67	214.57
855.99	214.76
856.30	217.14
856.61	217.02
856.92	217.12
857.23	216.90
857.55	216.83
857.86	216.90
858.17	217.12
858.48	217.00
858.79	216.52
859.11	216.86
859.42	216.45
859.73	216.38
860.04	216.17
860.35	215.38
860.66	215.00
860.98	214.93
861.29	215.31
861.60	215.43
861.91	215.76
862.22	215.21
862.53	214.83
862.84	212.26
863.16	212.60
863.47	212.33
863.78	212.05
864.09	212.14
864.40	212.17
864.71	212.10
865.02	212.33
865.33	212.17
865.64	211.79
865.95	212.07
866.27	213.55
866.58	213.50
866.89	213.88
867.20	213.57
867.51	213.21
867.82	212.98
868.13	213.48
868.44	213.29
868.75	213.90
869.06	214.02
869.37	214.33
869.68	213.86
869.99	213.98
870.30	214.17
870.61	214.36
870.92	214.26
871.23	214.29
871.54	214.38
871.85	214.71
872.16	214.86
872.47	214.62
872.78	213.31
873.09	213.64
873.40	213.60
873.71	213.98
874.02	214.17
874.33	214.10
874.64	213.50
874.95	213.71
875.26	213.12
875.56	213.17
875.87	212.93
876.18	212.81
876.49	214.88
876.80	214.67
877.11	214.36
877.42	214.43
877.73	214.24
878.04	213.76
878.35	213.88
878.66	213.98
878.96	214.12
879.27	213.76
879.58	213.43
879.89	213.07
880.20	213.67
880.51	213.64
880.82	213.88
881.12	213.79
881.43	213.55
881.74	213.43
882.05	213.14
882.36	213.48
882.67	213.64
882.97	211.40
883.28	211.36
883.59	211.29
883.90	211.40
884.21	211.71
884.51	211.62
884.82	211.29
885.13	211.31
885.44	211.19
885.74	211.12
886.05	211.17
886.36	211.50
886.67	210.74
886.98	211.71
887.28	211.69
887.59	211.79
887.90	211.81
888.20	211.55
888.51	212.10
888.82	211.64
889.13	212.00
889.43	213.64
889.74	213.71
890.05	213.67
890.35	213.36
890.66	213.17
890.97	213.19
891.28	212.98
891.58	212.83
891.89	213.14
892.20	213.14
892.50	212.88
892.81	212.60
893.12	212.48
893.42	211.40
893.73	211.45
894.04	211.45
894.34	211.48
894.65	211.69
894.95	211.52
895.26	211.60
895.57	212.14
895.87	210.21
896.18	210.38
896.48	210.64
896.79	210.50
897.10	210.62
897.40	210.48
897.71	210.57
898.01	210.40
898.32	210.50
898.63	210.43
898.93	210.55
899.24	210.79
899.54	210.81
899.85	210.95
900.15	210.86
900.46	210.98
900.76	211.40
901.07	211.33
901.38	211.45
901.68	211.74
901.99	210.90
902.29	211.19
902.60	211.14
902.90	210.83
903.21	210.79
903.51	210.74
903.82	211.45
904.12	211.57
904.43	211.64
904.73	211.50
905.03	211.71
905.34	214.10
905.64	213.86
905.95	214.02
906.25	213.88
906.56	213.83
906.86	213.90
907.17	213.71
907.47	213.81
907.77	213.45
908.08	212.88
908.38	213.24
908.69	213.26
908.99	213.55
909.30	213.83
909.60	214.17
909.90	214.19
910.21	213.33
910.51	213.14
910.81	213.17
911.12	213.29
911.42	213.29
911.73	210.81
912.03	211.07
912.33	211.33
912.64	211.45
912.94	211.33
913.24	210.81
913.55	210.43
913.85	210.38
914.15	210.74
914.46	211.21
914.76	210.88
915.06	210.88
915.37	210.50
915.67	210.29
915.97	210.26
916.27	209.95
916.58	210.40
916.88	210.24
917.18	210.26
917.49	211.45
917.79	211.26
918.09	211.52
918.39	211.90
918.70	211.69
919.00	211.64
919.30	212.60
919.60	212.60
919.91	212.57
920.21	212.69
920.51	212.21
920.81	211.95
921.12	212.21
921.42	212.24
921.72	212.29
922.02	212.38
922.32	212.69
922.63	212.74
922.93	213.69
923.23	214.07
923.53	213.86
923.83	212.60
924.13	212.93
924.44	212.67
924.74	212.81
925.04	213.31
925.34	213.31
925.64	212.57
925.94	212.79
926.24	213.98
926.55	213.81
926.85	214.29
927.15	214.24
927.45	214.38
927.75	214.33
928.05	214.60
928.35	214.64
928.65	214.86
928.95	215.10
929.26	214.05
929.56	214.50
929.86	215.10
930.16	215.00
930.46	214.76
930.76	215.00
931.06	214.43
931.36	213.95
931.66	214.31
931.96	214.19
932.26	214.12
932.56	213.07
932.86	213.26
933.16	213.07
933.46	213.00
933.76	212.40
934.06	212.98
934.36	213.33
934.66	213.33
934.96	212.83
935.26	213.00
935.56	213.60
935.86	212.76
936.16	212.26
936.46	212.10
936.76	212.05
937.06	211.95
937.36	211.98
937.66	212.05
937.96	211.62
938.26	211.45
938.56	211.60
938.86	211.69
939.16	212.02
939.46	212.52
939.76	212.71
940.06	213.02
940.35	212.55
940.65	211.74
940.95	211.74
941.25	211.50
941.55	211.17
941.85	210.86
942.15	211.69
942.45	212.36
942.75	212.17
943.04	212.36
943.34	212.76
943.64	212.57
943.94	212.26
944.24	212.67
944.54	212.88
944.84	212.74
945.13	212.62
945.43	212.50
945.73	212.26
946.03	212.31
946.33	211.81
946.62	211.74
946.92	211.69
947.22	211.71
947.52	211.93
947.82	212.05
948.11	211.76
948.41	211.05
948.71	210.26
949.01	210.71
949.31	210.33
949.60	210.05
949.90	210.29
950.20	210.38
950.50	210.21
950.79	210.00
951.09	210.26
951.39	210.26
951.69	209.86
951.98	210.12
952.28	209.83
952.58	209.83
952.87	209.81
953.17	210.21
953.47	210.21
953.76	210.26
954.06	209.98
954.36	209.79
954.66	209.86
954.95	210.50
955.25	210.48
955.55	210.74
955.84	210.55
956.14	210.79
956.44	210.93
956.73	210.52
957.03	210.57
957.32	210.62
957.62	210.52
957.92	211.00
958.21	210.76
958.51	213.50
958.81	213.90
959.10	214.10
959.40	214.40
959.69	214.10
959.99	214.21
960.29	214.31
960.58	214.50
960.88	215.36
961.17	214.95
961.47	215.17
961.76	215.05
962.06	215.38
962.36	215.02
962.65	215.00
962.95	215.07
963.24	215.05
963.54	214.76
963.83	214.69
964.13	214.38
964.42	213.60
964.72	211.76
965.01	211.79
965.31	211.64
965.60	211.31
965.90	213.00
966.19	212.40
966.49	212.50
966.78	212.31
967.08	211.86
967.37	211.98
967.67	211.33
967.96	211.55
968.26	211.24
968.55	211.36
968.85	211.38
969.14	211.29
969.43	211.31
969.73	211.21
970.02	211.38
970.32	211.38
970.61	211.81
970.91	211.24
971.20	210.98
971.49	210.76
971.79	210.79
972.08	209.26
972.38	209.71
972.67	209.74
972.96	210.19
973.26	209.64
973.55	210.02
973.85	210.24
974.14	210.05
974.43	210.21
974.73	210.12
975.02	209.79
975.31	210.10
975.61	210.12
975.90	210.05
976.19	210.02
976.49	210.07
976.78	210.24
977.07	210.10
977.37	210.19
977.66	210.50
977.95	210.24
978.24	210.33
978.54	210.55
978.83	210.33
979.12	210.12
979.42	210.38
979.71	210.26
980.00	210.14
980.29	210.24
980.59	210.07
980.88	210.62
981.17	210.71
981.46	210.55
981.76	210.43
982.05	211.10
982.34	211.17
982.63	211.36
982.93	211.29
983.22	211.79
983.51	211.95
983.80	212.17
984.09	212.38
984.39	212.36
984.68	212.14
984.97	212.00
985.26	211.98
985.55	212.05
985.85	211.38
986.14	211.83
986.43	212.19
986.72	212.02
987.01	211.38
987.30	211.38
987.59	211.33
987.89	211.62
988.18	211.21
988.47	211.05
988.76	210.64
989.05	210.19
989.34	209.90
989.63	210.31
989.92	209.88
990.22	209.81
990.51	209.74
990.80	209.67
991.09	210.02
991.38	210.31
991.67	210.26
991.96	210.45
992.25	210.38
992.54	209.98
992.83	210.10
993.12	210.12
993.41	210.36
993.70	211.19
993.99	211.50
994.28	211.48
994.58	211.88
994.87	211.79
995.16	211.86
995.45	211.55
995.74	211.05
996.03	211.50
996.32	211.62
996.61	212.24
996.90	212.07
997.19	211.98
997.48	211.76
997.77	211.55
998.06	211.48
998.34	211.21
998.63	211.36
998.92	211.50
999.21	211.48
999.50	211.45
999.79	210.62
1000.08	210.50
1000.37	210.40
1000.66	210.02
1000.95	210.90
1001.24	211.10
1001.53	211.64
1001.82	211.62
1002.11	210.98
1002.40	211.21
1002.68	211.43
1002.97	212.90
1003.26	212.69
1003.55	212.33
1003.84	212.55
1004.13	213.36
1004.42	213.40
1004.71	213.33
1004.99	213.26
1005.28	214.00
1005.57	213.67
1005.86	213.74
1006.15	213.60
1006.44	213.55
1006.72	213.83
1007.01	213.12
1007.30	213.33
1007.59	212.93
1007.88	212.67
1008.17	212.86
1008.45	212.31
1008.74	211.43
1009.03	210.33
1009.32	210.40
1009.60	210.57
1009.89	210.36
1010.18	209.64
1010.47	209.57
1010.76	209.50
1011.04	209.24
1011.33	209.45
1011.62	209.83
1011.91	209.93
1012.19	209.83
1012.48	210.00
1012.77	209.93
1013.05	210.98
1013.34	210.74
1013.63	210.88
1013.92	211.17
1014.20	211.12
1014.49	211.38
1014.78	211.69
1015.06	211.31
1015.35	211.21
1015.64	211.45
1015.92	211.71
1016.21	211.67
1016.50	211.52
1016.78	211.83
1017.07	212.14
1017.36	211.36
1017.64	211.00
1017.93	211.21
1018.22	211.14
1018.50	211.02
1018.79	210.90
1019.08	209.86
1019.36	209.98
1019.65	209.62
1019.93	210.05
1020.22	210.33
1020.51	211.40
1020.79	211.33
1021.08	209.50
1021.36	208.50
1021.65	210.00
1021.94	208.50
1022.22	209.50
1022.51	206.00
1022.79	219.00
1023.08	214.00
1023.36	235.00
1023.65	211.50
>>>>>End Processed Spectral Data<<<<<
