SpectraSuite Data File
++++++++++++++++++++++++++++++++++++
Date: Tue Apr 02 18:45:30 EDT 2013
User: group
Dark Spectrum Present: No
Reference Spectrum Present: No
Number of Sampled Component Spectra: 1
Spectrometers: USB2E7196
Integration Time (usec): 580000 (USB2E7196)
Spectra Averaged: 2 (USB2E7196)
Boxcar Smoothing: 10 (USB2E7196)
Correct for Electrical Dark: No (USB2E7196)
Strobe/Lamp Enabled: No (USB2E7196)
Correct for Detector Non-linearity: No (USB2E7196)
Correct for Stray Light: No (USB2E7196)
Number of Pixels in Processed Spectrum: 2048
>>>>>Begin Processed Spectral Data<<<<<
339.09	0.00
339.48	196.00
339.86	192.50
340.24	193.00
340.63	200.50
341.01	232.50
341.39	199.50
341.78	206.50
342.16	209.00
342.54	202.50
342.93	197.98
343.31	207.81
343.69	208.38
344.07	209.26
344.46	210.26
344.84	210.71
345.22	209.52
345.60	210.21
345.99	210.48
346.37	210.62
346.75	210.90
347.13	210.93
347.52	211.43
347.90	211.83
348.28	211.67
348.66	212.31
349.05	211.93
349.43	212.21
349.81	212.38
350.19	212.40
350.57	212.64
350.96	212.88
351.34	213.33
351.72	213.33
352.10	213.40
352.48	213.10
352.87	213.00
353.25	213.00
353.63	212.74
354.01	212.67
354.39	212.74
354.77	213.07
355.15	213.60
355.54	213.21
355.92	212.74
356.30	212.81
356.68	213.98
357.06	213.90
357.44	213.64
357.82	213.48
358.20	214.60
358.58	214.36
358.97	214.45
359.35	214.69
359.73	215.40
360.11	215.33
360.49	215.48
360.87	215.57
361.25	215.98
361.63	216.55
362.01	216.83
362.39	216.90
362.77	216.86
363.15	216.86
363.53	216.86
363.91	217.02
364.29	216.95
364.67	215.02
365.05	215.43
365.43	215.88
365.81	216.26
366.19	216.43
366.57	217.24
366.95	217.17
367.33	216.74
367.71	216.48
368.09	216.86
368.47	216.95
368.85	216.79
369.23	217.21
369.61	216.64
369.99	217.14
370.37	217.17
370.75	218.29
371.13	217.79
371.51	217.45
371.89	217.71
372.27	217.81
372.65	217.93
373.03	217.71
373.41	217.50
373.78	217.45
374.16	216.24
374.54	215.71
374.92	215.67
375.30	215.62
375.68	215.31
376.06	215.33
376.44	215.24
376.82	215.79
377.19	215.45
377.57	215.38
377.95	214.81
378.33	214.74
378.71	213.38
379.09	213.67
379.47	213.98
379.84	213.76
380.22	213.74
380.60	213.52
380.98	213.52
381.36	213.19
381.73	212.67
382.11	213.00
382.49	212.86
382.87	212.52
383.25	212.52
383.62	214.74
384.00	214.12
384.38	214.10
384.76	214.12
385.13	214.98
385.51	215.05
385.89	214.62
386.27	214.69
386.64	214.98
387.02	214.76
387.40	214.62
387.78	214.74
388.15	214.67
388.53	214.40
388.91	214.36
389.29	214.45
389.66	214.81
390.04	214.62
390.42	215.21
390.79	215.26
391.17	215.29
391.55	213.12
391.92	213.38
392.30	213.45
392.68	212.86
393.05	212.64
393.43	212.88
393.81	213.19
394.18	212.76
394.56	212.76
394.94	213.10
395.31	212.95
395.69	213.52
396.06	213.86
396.44	214.02
396.82	213.79
397.19	214.74
397.57	214.62
397.95	214.90
398.32	213.98
398.70	214.21
399.07	214.71
399.45	214.76
399.82	214.50
400.20	214.69
400.58	215.00
400.95	214.02
401.33	214.29
401.70	215.76
402.08	216.19
402.45	216.31
402.83	216.83
403.20	217.00
403.58	216.79
403.95	217.21
404.33	217.76
404.71	218.14
405.08	219.52
405.46	220.07
405.83	220.33
406.21	221.17
406.58	221.76
406.96	221.86
407.33	222.17
407.70	223.05
408.08	225.19
408.45	225.98
408.83	227.05
409.20	227.52
409.58	227.19
409.95	228.14
410.33	229.07
410.70	229.55
411.08	230.90
411.45	231.74
411.82	232.48
412.20	233.90
412.57	236.33
412.95	235.95
413.32	237.50
413.69	238.76
414.07	240.17
414.44	241.62
414.82	243.71
415.19	246.38
415.56	248.62
415.94	249.55
416.31	252.62
416.68	255.38
417.06	258.74
417.43	262.07
417.81	265.60
418.18	269.26
418.55	272.57
418.93	276.62
419.30	281.02
419.67	285.64
420.04	289.95
420.42	294.14
420.79	301.43
421.16	306.90
421.54	313.74
421.91	320.12
422.28	326.40
422.66	333.12
423.03	340.60
423.40	347.52
423.77	354.88
424.15	361.50
424.52	369.12
424.89	377.52
425.26	385.07
425.64	392.50
426.01	400.60
426.38	409.31
426.75	418.90
427.13	428.40
427.50	437.98
427.87	447.95
428.24	457.62
428.61	465.45
428.99	477.00
429.36	487.45
429.73	498.67
430.10	510.45
430.47	521.71
430.85	532.57
431.22	545.38
431.59	559.95
431.96	572.74
432.33	586.86
432.70	600.38
433.08	616.31
433.45	631.52
433.82	646.62
434.19	663.76
434.56	680.17
434.93	695.64
435.30	711.83
435.68	729.64
436.05	746.76
436.42	763.83
436.79	779.02
437.16	796.07
437.53	812.90
437.90	829.98
438.27	848.38
438.64	866.38
439.01	883.17
439.38	896.50
439.75	911.26
440.13	927.74
440.50	943.98
440.87	956.48
441.24	970.07
441.61	984.38
441.98	994.62
442.35	1006.40
442.72	1018.86
443.09	1031.57
443.46	1038.90
443.83	1044.02
444.20	1049.05
444.57	1055.21
444.94	1058.43
445.31	1062.74
445.68	1068.57
446.05	1069.33
446.42	1067.88
446.79	1066.00
447.16	1064.29
447.53	1063.76
447.90	1057.29
448.27	1050.05
448.64	1041.81
449.01	1035.64
449.37	1024.67
449.74	1014.36
450.11	1002.93
450.48	988.79
450.85	973.00
451.22	960.83
451.59	949.12
451.96	937.19
452.33	921.81
452.70	908.21
453.07	891.26
453.43	871.79
453.80	855.55
454.17	840.17
454.54	825.31
454.91	809.55
455.28	793.05
455.65	778.52
456.02	767.31
456.38	754.81
456.75	739.00
457.12	725.88
457.49	713.29
457.86	699.40
458.23	689.64
458.59	678.38
458.96	666.31
459.33	656.00
459.70	645.79
460.07	637.40
460.43	627.71
460.80	619.05
461.17	611.81
461.54	603.57
461.91	595.38
462.27	587.57
462.64	580.29
463.01	572.86
463.38	566.57
463.74	555.81
464.11	549.31
464.48	543.79
464.85	537.88
465.21	534.05
465.58	529.02
465.95	522.07
466.32	516.38
466.68	510.90
467.05	505.86
467.42	501.07
467.78	496.00
468.15	491.02
468.52	487.31
468.88	481.83
469.25	477.10
469.62	473.69
469.98	469.45
470.35	466.40
470.72	462.98
471.08	457.98
471.45	455.83
471.82	453.05
472.18	449.38
472.55	447.00
472.92	442.76
473.28	439.64
473.65	437.07
474.02	435.14
474.38	433.26
474.75	431.40
475.11	428.88
475.48	427.26
475.85	425.60
476.21	423.52
476.58	422.55
476.94	421.43
477.31	419.95
477.67	418.83
478.04	417.40
478.41	416.98
478.77	418.79
479.14	417.02
479.50	416.26
479.87	415.93
480.23	415.40
480.60	415.02
480.96	415.14
481.33	415.64
481.69	415.38
482.06	415.33
482.42	415.60
482.79	416.17
483.15	416.29
483.52	417.14
483.88	417.55
484.25	418.14
484.61	418.67
484.98	419.71
485.34	421.12
485.71	422.69
486.07	423.83
486.44	423.52
486.80	425.38
487.17	426.40
487.53	428.90
487.90	430.90
488.26	434.05
488.62	436.95
488.99	438.79
489.35	441.57
489.72	444.57
490.08	447.19
490.44	449.67
490.81	452.71
491.17	455.90
491.54	459.71
491.90	463.29
492.26	467.45
492.63	470.71
492.99	474.36
493.36	478.21
493.72	482.33
494.08	486.43
494.45	491.05
494.81	496.62
495.17	501.29
495.54	506.88
495.90	510.88
496.26	515.48
496.63	521.24
496.99	526.74
497.35	532.14
497.72	537.93
498.08	543.79
498.44	550.21
498.80	556.57
499.17	562.76
499.53	568.81
499.89	575.24
500.26	582.36
500.62	589.43
500.98	597.10
501.34	603.76
501.71	611.57
502.07	618.50
502.43	625.48
502.79	632.07
503.16	638.98
503.52	646.71
503.88	653.64
504.24	661.07
504.60	668.29
504.97	676.12
505.33	683.93
505.69	692.90
506.05	700.00
506.41	707.55
506.78	715.02
507.14	722.26
507.50	730.12
507.86	737.90
508.22	745.43
508.59	752.26
508.95	760.50
509.31	768.83
509.67	777.48
510.03	785.29
510.39	793.12
510.75	800.60
511.12	807.83
511.48	815.93
511.84	823.67
512.20	831.48
512.56	839.40
512.92	846.86
513.28	853.76
513.64	861.48
514.00	868.36
514.37	875.76
514.73	883.81
515.09	891.40
515.45	898.33
515.81	905.14
516.17	912.21
516.53	918.60
516.89	923.81
517.25	929.00
517.61	936.14
517.97	942.38
518.33	948.98
518.69	955.21
519.05	961.93
519.41	967.48
519.77	974.90
520.13	979.88
520.49	985.10
520.85	991.12
521.21	998.17
521.57	1004.36
521.93	1009.95
522.29	1014.71
522.65	1019.12
523.01	1024.90
523.37	1029.79
523.73	1034.31
524.09	1039.67
524.45	1044.81
524.81	1050.60
525.17	1054.90
525.53	1059.60
525.89	1064.29
526.25	1069.26
526.61	1072.93
526.97	1077.60
527.33	1080.90
527.68	1087.48
528.04	1092.45
528.40	1096.00
528.76	1099.05
529.12	1103.00
529.48	1107.29
529.84	1112.10
530.20	1116.79
530.56	1121.07
530.91	1125.71
531.27	1131.19
531.63	1135.33
531.99	1138.95
532.35	1141.93
532.71	1145.79
533.07	1150.55
533.42	1156.62
533.78	1160.57
534.14	1165.19
534.50	1169.33
534.86	1173.62
535.21	1176.07
535.57	1179.90
535.93	1184.05
536.29	1188.93
536.65	1192.55
537.00	1195.76
537.36	1199.14
537.72	1202.45
538.08	1205.33
538.44	1208.14
538.79	1210.95
539.15	1214.00
539.51	1217.93
539.87	1221.79
540.22	1225.19
540.58	1227.79
540.94	1229.17
541.29	1232.17
541.65	1234.19
542.01	1236.90
542.37	1239.69
542.72	1241.21
543.08	1243.74
543.44	1246.57
543.79	1247.71
544.15	1250.90
544.51	1254.74
544.87	1256.93
545.22	1259.31
545.58	1262.62
545.94	1265.52
546.29	1268.19
546.65	1270.60
547.01	1272.33
547.36	1274.81
547.72	1276.38
548.07	1279.45
548.43	1281.62
548.79	1284.36
549.14	1286.98
549.50	1289.38
549.86	1290.90
550.21	1293.71
550.57	1297.26
550.92	1299.38
551.28	1302.98
551.64	1305.76
551.99	1308.12
552.35	1310.90
552.70	1314.14
553.06	1316.98
553.41	1319.36
553.77	1323.67
554.13	1327.67
554.48	1332.29
554.84	1336.90
555.19	1341.79
555.55	1346.43
555.90	1349.43
556.26	1353.07
556.61	1356.74
556.97	1360.38
557.32	1363.90
557.68	1368.00
558.03	1370.33
558.39	1374.21
558.74	1377.48
559.10	1380.79
559.45	1385.10
559.81	1389.50
560.16	1393.95
560.52	1397.43
560.87	1403.50
561.23	1406.36
561.58	1412.10
561.94	1415.33
562.29	1419.02
562.64	1423.40
563.00	1426.57
563.35	1431.64
563.71	1436.00
564.06	1441.71
564.42	1446.26
564.77	1452.90
565.12	1458.81
565.48	1466.29
565.83	1472.17
566.19	1477.88
566.54	1482.74
566.89	1487.29
567.25	1494.19
567.60	1500.62
567.96	1508.60
568.31	1513.81
568.66	1520.33
569.02	1523.52
569.37	1529.74
569.72	1534.81
570.08	1539.14
570.43	1544.33
570.78	1550.43
571.14	1556.76
571.49	1562.26
571.84	1568.43
572.20	1573.10
572.55	1578.26
572.90	1581.76
573.26	1586.31
573.61	1590.81
573.96	1596.57
574.31	1601.19
574.67	1604.36
575.02	1608.12
575.37	1610.43
575.72	1613.26
576.08	1616.88
576.43	1621.19
576.78	1624.48
577.13	1628.95
577.49	1632.90
577.84	1637.40
578.19	1641.07
578.54	1644.93
578.90	1648.45
579.25	1651.45
579.60	1653.98
579.95	1657.40
580.30	1661.40
580.66	1665.40
581.01	1669.29
581.36	1672.24
581.71	1675.98
582.06	1681.19
582.42	1684.60
582.77	1687.86
583.12	1692.69
583.47	1696.43
583.82	1700.33
584.17	1703.98
584.53	1707.52
584.88	1710.62
585.23	1713.69
585.58	1715.55
585.93	1717.74
586.28	1721.31
586.63	1724.98
586.98	1728.50
587.34	1731.62
587.69	1733.50
588.04	1735.40
588.39	1737.50
588.74	1738.95
589.09	1741.31
589.44	1741.40
589.79	1743.36
590.14	1745.24
590.49	1746.21
590.84	1746.93
591.19	1749.12
591.54	1751.10
591.89	1752.38
592.25	1756.69
592.60	1757.21
592.95	1759.95
593.30	1761.67
593.65	1761.69
594.00	1761.24
594.35	1768.55
594.70	1768.64
595.05	1769.90
595.40	1770.98
595.75	1771.57
596.10	1773.62
596.45	1774.86
596.80	1776.07
597.15	1777.76
597.50	1778.74
597.85	1780.57
598.19	1781.38
598.54	1781.36
598.89	1782.21
599.24	1782.86
599.59	1782.10
599.94	1783.40
600.29	1784.02
600.64	1783.45
600.99	1784.10
601.34	1786.24
601.69	1781.14
602.04	1780.55
602.39	1780.67
602.74	1780.62
603.08	1780.43
603.43	1782.02
603.78	1782.00
604.13	1781.69
604.48	1779.76
604.83	1779.67
605.18	1779.31
605.53	1779.21
605.87	1778.83
606.22	1777.95
606.57	1776.40
606.92	1773.67
607.27	1772.57
607.62	1770.48
607.96	1770.50
608.31	1769.52
608.66	1767.86
609.01	1765.74
609.36	1765.60
609.70	1763.52
610.05	1761.71
610.40	1760.12
610.75	1757.17
611.10	1754.86
611.44	1751.57
611.79	1750.38
612.14	1748.00
612.49	1744.55
612.83	1742.29
613.18	1738.60
613.53	1736.10
613.88	1734.12
614.22	1731.69
614.57	1728.67
614.92	1725.50
615.27	1722.02
615.61	1717.88
615.96	1714.29
616.31	1710.29
616.65	1707.14
617.00	1705.12
617.35	1701.81
617.70	1699.83
618.04	1695.86
618.39	1691.95
618.74	1689.45
619.08	1685.12
619.43	1681.64
619.78	1678.55
620.12	1674.64
620.47	1671.57
620.82	1666.86
621.16	1661.40
621.51	1659.12
621.85	1654.43
622.20	1650.40
622.55	1646.12
622.89	1642.95
623.24	1640.74
623.59	1637.52
623.93	1633.43
624.28	1628.55
624.62	1627.10
624.97	1623.76
625.32	1620.24
625.66	1616.69
626.01	1613.88
626.35	1610.24
626.70	1606.29
627.04	1603.14
627.39	1599.02
627.73	1596.33
628.08	1593.40
628.43	1590.93
628.77	1586.05
629.12	1583.40
629.46	1580.52
629.81	1577.17
630.15	1572.48
630.50	1566.81
630.84	1562.29
631.19	1557.88
631.53	1553.86
631.88	1546.40
632.22	1540.05
632.57	1535.48
632.91	1530.48
633.26	1524.81
633.60	1519.67
633.95	1514.14
634.29	1507.67
634.64	1503.74
634.98	1498.40
635.32	1493.90
635.67	1490.00
636.01	1486.38
636.36	1481.07
636.70	1476.29
637.05	1470.83
637.39	1466.60
637.73	1462.40
638.08	1458.14
638.42	1453.60
638.77	1449.55
639.11	1445.33
639.45	1441.21
639.80	1436.02
640.14	1431.17
640.49	1426.81
640.83	1421.76
641.17	1417.86
641.52	1413.67
641.86	1407.88
642.20	1403.07
642.55	1397.48
642.89	1391.74
643.23	1385.71
643.58	1381.62
643.92	1374.88
644.26	1370.19
644.61	1365.50
644.95	1359.93
645.29	1354.40
645.64	1348.62
645.98	1342.83
646.32	1337.83
646.66	1331.67
647.01	1326.29
647.35	1321.26
647.69	1315.64
648.04	1311.45
648.38	1305.64
648.72	1300.02
649.06	1294.62
649.41	1288.40
649.75	1282.05
650.09	1276.40
650.43	1270.31
650.78	1263.33
651.12	1257.69
651.46	1251.38
651.80	1245.00
652.14	1238.31
652.49	1232.19
652.83	1226.33
653.17	1219.14
653.51	1212.86
653.85	1206.69
654.20	1200.26
654.54	1193.17
654.88	1186.38
655.22	1179.86
655.56	1173.26
655.90	1167.12
656.25	1160.76
656.59	1154.31
656.93	1148.76
657.27	1142.64
657.61	1136.26
657.95	1130.62
658.29	1124.76
658.64	1118.81
658.98	1112.29
659.32	1105.29
659.66	1099.19
660.00	1093.48
660.34	1087.50
660.68	1081.00
661.02	1075.14
661.36	1068.88
661.70	1063.45
662.05	1057.52
662.39	1051.29
662.73	1045.98
663.07	1041.45
663.41	1035.43
663.75	1029.76
664.09	1023.69
664.43	1016.90
664.77	1010.74
665.11	1003.81
665.45	998.50
665.79	992.81
666.13	986.81
666.47	981.57
666.81	975.74
667.15	969.48
667.49	964.00
667.83	959.24
668.17	953.05
668.51	947.48
668.85	941.31
669.19	936.86
669.53	931.00
669.87	924.93
670.21	917.57
670.55	911.67
670.89	907.07
671.23	901.64
671.57	896.86
671.91	891.69
672.25	887.02
672.58	882.40
672.92	876.40
673.26	872.05
673.60	867.45
673.94	862.02
674.28	857.19
674.62	852.88
674.96	847.40
675.30	842.79
675.64	837.69
675.97	833.45
676.31	828.31
676.65	822.90
676.99	818.40
677.33	813.64
677.67	809.14
678.01	803.38
678.34	798.10
678.68	793.50
679.02	788.48
679.36	783.07
679.70	776.93
680.04	772.64
680.37	767.05
680.71	761.67
681.05	757.19
681.39	752.19
681.73	746.93
682.06	742.05
682.40	737.45
682.74	733.00
683.08	728.36
683.42	722.76
683.75	718.36
684.09	712.57
684.43	708.07
684.77	702.98
685.10	697.71
685.44	693.57
685.78	688.81
686.12	684.36
686.45	680.17
686.79	675.57
687.13	671.17
687.46	666.86
687.80	662.95
688.14	658.17
688.48	654.10
688.81	649.67
689.15	645.55
689.49	640.67
689.82	636.33
690.16	631.31
690.50	626.95
690.83	622.71
691.17	619.02
691.51	614.21
691.84	610.48
692.18	606.98
692.52	602.64
692.85	598.60
693.19	595.64
693.52	591.21
693.86	587.12
694.20	582.79
694.53	578.48
694.87	574.40
695.21	570.10
695.54	565.76
695.88	561.36
696.21	556.55
696.55	552.83
696.88	548.93
697.22	545.29
697.56	541.93
697.89	538.07
698.23	534.71
698.56	531.50
698.90	527.95
699.23	523.52
699.57	520.21
699.90	516.21
700.24	511.36
700.58	508.12
700.91	505.14
701.25	503.55
701.58	500.95
701.92	497.95
702.25	495.05
702.59	491.64
702.92	488.95
703.26	486.12
703.59	483.12
703.93	481.98
704.26	478.93
704.60	475.79
704.93	472.24
705.26	468.57
705.60	465.55
705.93	461.88
706.27	459.81
706.60	456.98
706.94	455.00
707.27	451.93
707.61	449.29
707.94	446.17
708.27	441.38
708.61	437.88
708.94	435.05
709.28	432.76
709.61	429.79
709.94	427.50
710.28	425.36
710.61	422.64
710.95	417.74
711.28	416.88
711.61	414.17
711.95	412.60
712.28	410.40
712.61	408.17
712.95	407.19
713.28	405.67
713.61	403.14
713.95	400.02
714.28	398.29
714.61	396.00
714.95	394.31
715.28	392.17
715.61	389.81
715.95	387.76
716.28	385.36
716.61	384.02
716.95	380.86
717.28	378.69
717.61	376.40
717.94	374.67
718.28	371.17
718.61	369.17
718.94	367.10
719.27	364.93
719.61	362.83
719.94	360.05
720.27	357.02
720.60	354.95
720.94	353.07
721.27	351.07
721.60	349.31
721.93	347.07
722.27	346.19
722.60	345.00
722.93	343.21
723.26	341.76
723.59	339.43
723.93	338.43
724.26	336.90
724.59	335.79
724.92	334.26
725.25	333.19
725.59	331.69
725.92	330.33
726.25	329.19
726.58	327.69
726.91	326.26
727.24	325.38
727.57	324.12
727.91	322.67
728.24	321.69
728.57	320.19
728.90	319.48
729.23	317.14
729.56	316.81
729.89	315.31
730.22	313.86
730.55	312.81
730.89	312.00
731.22	310.74
731.55	309.33
731.88	308.36
732.21	307.02
732.54	305.98
732.87	304.88
733.20	303.69
733.53	303.05
733.86	302.07
734.19	300.81
734.52	299.76
734.85	299.90
735.18	298.57
735.51	298.48
735.84	297.21
736.17	297.00
736.50	295.02
736.83	296.83
737.16	295.71
737.49	295.19
737.82	293.74
738.15	293.14
738.48	292.14
738.81	291.14
739.14	289.86
739.47	288.95
739.80	288.10
740.13	287.43
740.46	286.17
740.79	285.24
741.12	284.29
741.45	283.43
741.78	281.90
742.11	281.98
742.44	280.69
742.77	280.29
743.10	279.50
743.43	278.71
743.75	275.43
744.08	277.62
744.41	276.57
744.74	275.86
745.07	274.67
745.40	274.38
745.73	274.36
746.06	273.86
746.39	273.33
746.71	272.19
747.04	271.05
747.37	270.24
747.70	270.05
748.03	269.52
748.36	269.02
748.68	268.17
749.01	266.76
749.34	266.02
749.67	265.36
750.00	264.88
750.33	265.86
750.65	265.36
750.98	262.19
751.31	261.62
751.64	261.31
751.97	261.74
752.29	261.12
752.62	259.64
752.95	259.21
753.28	258.52
753.60	257.95
753.93	257.93
754.26	257.81
754.59	256.67
754.91	255.86
755.24	255.62
755.57	254.93
755.90	254.43
756.22	253.83
756.55	253.00
756.88	252.12
757.20	250.17
757.53	249.12
757.86	248.57
758.19	248.12
758.51	247.57
758.84	246.10
759.17	245.33
759.49	245.12
759.82	245.67
760.15	245.33
760.47	244.81
760.80	244.19
761.13	244.10
761.45	243.71
761.78	243.45
762.11	242.69
762.43	242.29
762.76	241.81
763.08	241.71
763.41	241.62
763.74	241.40
764.06	241.07
764.39	240.83
764.71	240.14
765.04	239.71
765.37	239.14
765.69	238.81
766.02	238.71
766.34	238.19
766.67	236.60
767.00	236.90
767.32	237.86
767.65	238.62
767.97	237.64
768.30	237.50
768.62	236.95
768.95	236.45
769.27	236.10
769.60	236.31
769.92	235.69
770.25	235.02
770.57	234.26
770.90	234.14
771.22	233.69
771.55	233.93
771.87	233.62
772.20	233.33
772.52	234.83
772.85	236.90
773.17	236.83
773.50	237.12
773.82	236.33
774.15	234.79
774.47	233.33
774.80	233.19
775.12	233.05
775.45	232.90
775.77	232.88
776.09	232.83
776.42	232.36
776.74	232.79
777.07	232.52
777.39	232.60
777.72	232.33
778.04	232.55
778.36	232.12
778.69	232.00
779.01	232.07
779.33	229.88
779.66	227.62
779.98	227.29
780.31	226.88
780.63	227.48
780.95	227.83
781.28	227.71
781.60	227.38
781.92	227.12
782.25	226.76
782.57	226.48
782.89	226.26
783.22	226.21
783.54	225.55
783.86	225.52
784.19	225.07
784.51	225.12
784.83	224.55
785.16	224.36
785.48	224.31
785.80	224.40
786.12	224.95
786.45	224.64
786.77	224.88
787.09	224.81
787.42	224.05
787.74	224.17
788.06	224.00
788.38	223.93
788.71	223.62
789.03	223.74
789.35	224.24
789.67	223.71
789.99	223.55
790.32	223.38
790.64	223.62
790.96	225.26
791.28	224.52
791.61	224.43
791.93	224.19
792.25	224.14
792.57	225.07
792.89	224.14
793.21	224.21
793.54	223.90
793.86	223.45
794.18	223.50
794.50	222.98
794.82	222.93
795.14	222.98
795.47	223.45
795.79	223.45
796.11	222.74
796.43	222.55
796.75	222.50
797.07	222.29
797.39	221.88
797.71	220.45
798.04	220.79
798.36	220.98
798.68	221.24
799.00	221.36
799.32	220.26
799.64	220.90
799.96	220.62
800.28	220.93
800.60	220.90
800.92	220.95
801.24	220.95
801.56	221.02
801.89	220.69
802.21	220.81
802.53	220.33
802.85	220.50
803.17	221.79
803.49	221.33
803.81	221.12
804.13	221.10
804.45	220.76
804.77	220.50
805.09	220.31
805.41	219.76
805.73	219.17
806.05	218.55
806.37	218.40
806.69	218.00
807.01	217.83
807.33	217.95
807.65	217.14
807.97	217.95
808.28	217.79
808.60	217.67
808.92	217.05
809.24	218.36
809.56	218.38
809.88	217.29
810.20	217.33
810.52	217.62
810.84	217.29
811.16	217.10
811.48	217.00
811.80	217.86
812.12	217.98
812.43	218.36
812.75	218.67
813.07	218.29
813.39	218.69
813.71	218.17
814.03	218.05
814.35	218.10
814.67	217.10
814.98	216.93
815.30	217.07
815.62	216.71
815.94	215.50
816.26	215.36
816.58	215.12
816.89	215.26
817.21	214.93
817.53	214.93
817.85	214.98
818.17	215.05
818.48	214.26
818.80	214.76
819.12	214.52
819.44	214.05
819.76	213.74
820.07	213.76
820.39	213.83
820.71	213.88
821.03	213.98
821.34	213.93
821.66	214.31
821.98	214.81
822.30	214.83
822.61	215.76
822.93	215.50
823.25	215.67
823.57	215.57
823.88	216.07
824.20	216.38
824.52	216.88
824.83	216.86
825.15	216.50
825.47	216.29
825.79	216.40
826.10	216.50
826.42	216.74
826.74	217.05
827.05	217.12
827.37	216.98
827.69	216.93
828.00	216.88
828.32	216.69
828.64	216.10
828.95	216.98
829.27	216.76
829.58	216.74
829.90	216.95
830.22	216.90
830.53	216.43
830.85	216.14
831.17	215.50
831.48	215.38
831.80	215.74
832.11	215.52
832.43	215.52
832.75	215.64
833.06	216.74
833.38	216.02
833.69	215.76
834.01	215.93
834.32	215.76
834.64	215.60
834.96	215.50
835.27	215.64
835.59	215.02
835.90	214.36
836.22	214.38
836.53	213.93
836.85	213.64
837.16	215.71
837.48	215.76
837.79	216.38
838.11	216.55
838.42	216.21
838.74	216.40
839.05	215.93
839.37	215.71
839.68	214.26
840.00	214.24
840.31	214.64
840.63	214.50
840.94	214.29
841.26	214.24
841.57	214.33
841.88	214.40
842.20	214.24
842.51	214.26
842.83	214.21
843.14	216.10
843.46	216.29
843.77	215.17
844.08	214.83
844.40	214.21
844.71	213.93
845.03	213.90
845.34	213.76
845.65	213.83
845.97	213.88
846.28	214.12
846.60	214.26
846.91	214.07
847.22	214.02
847.54	214.45
847.85	214.60
848.16	214.21
848.48	213.98
848.79	214.81
849.10	214.88
849.42	214.98
849.73	213.19
850.04	213.05
850.36	212.31
850.67	212.88
850.98	212.83
851.30	213.05
851.61	212.93
851.92	213.12
852.23	213.64
852.55	213.71
852.86	213.90
853.17	213.90
853.49	214.17
853.80	214.64
854.11	215.14
854.42	215.29
854.74	215.00
855.05	215.12
855.36	214.07
855.67	214.40
855.99	214.43
856.30	216.86
856.61	216.95
856.92	217.00
857.23	217.00
857.55	217.05
857.86	216.95
858.17	217.45
858.48	216.88
858.79	216.48
859.11	216.60
859.42	216.29
859.73	216.02
860.04	215.95
860.35	215.17
860.66	214.29
860.98	214.24
861.29	214.55
861.60	214.26
861.91	214.69
862.22	214.07
862.53	213.71
862.84	211.21
863.16	211.83
863.47	211.21
863.78	210.81
864.09	211.02
864.40	211.12
864.71	210.93
865.02	211.48
865.33	211.31
865.64	210.98
865.95	210.90
866.27	212.31
866.58	212.12
866.89	212.33
867.20	212.45
867.51	212.00
867.82	211.98
868.13	212.76
868.44	212.45
868.75	213.14
869.06	213.45
869.37	213.81
869.68	212.83
869.99	213.40
870.30	213.38
870.61	213.50
870.92	213.21
871.23	213.19
871.54	213.36
871.85	213.74
872.16	214.10
872.47	214.17
872.78	212.98
873.09	213.26
873.40	213.36
873.71	213.36
874.02	213.62
874.33	213.71
874.64	212.98
874.95	213.21
875.26	212.69
875.56	212.52
875.87	212.36
876.18	212.62
876.49	214.48
876.80	214.50
877.11	214.10
877.42	214.10
877.73	214.14
878.04	213.74
878.35	213.88
878.66	213.76
878.96	213.50
879.27	213.29
879.58	212.98
879.89	212.81
880.20	213.52
880.51	213.57
880.82	213.31
881.12	213.57
881.43	213.14
881.74	212.90
882.05	212.95
882.36	213.19
882.67	213.19
882.97	211.33
883.28	211.14
883.59	211.19
883.90	211.62
884.21	211.90
884.51	211.95
884.82	211.52
885.13	211.45
885.44	211.83
885.74	212.07
886.05	212.21
886.36	212.05
886.67	211.33
886.98	212.21
887.28	212.48
887.59	212.52
887.90	212.71
888.20	212.57
888.51	212.90
888.82	212.19
889.13	212.33
889.43	213.86
889.74	213.76
890.05	213.74
890.35	213.21
890.66	212.71
890.97	212.48
891.28	212.31
891.58	212.50
891.89	212.19
892.20	211.76
892.50	211.45
892.81	211.55
893.12	211.55
893.42	210.52
893.73	210.52
894.04	210.57
894.34	210.83
894.65	210.90
894.95	210.62
895.26	211.02
895.57	212.02
895.87	209.81
896.18	210.40
896.48	210.45
896.79	210.55
897.10	210.79
897.40	211.02
897.71	211.19
898.01	211.10
898.32	211.64
898.63	211.52
898.93	211.71
899.24	211.64
899.54	211.57
899.85	211.43
900.15	211.50
900.46	211.33
900.76	211.48
901.07	211.43
901.38	211.29
901.68	211.45
901.99	210.36
902.29	210.81
902.60	210.64
902.90	210.57
903.21	210.67
903.51	210.81
903.82	211.00
904.12	211.14
904.43	211.07
904.73	210.74
905.03	210.90
905.34	212.79
905.64	212.81
905.95	213.00
906.25	213.21
906.56	213.10
906.86	213.12
907.17	212.86
907.47	213.02
907.77	212.88
908.08	212.55
908.38	212.62
908.69	212.60
908.99	212.90
909.30	213.07
909.60	212.95
909.90	212.83
910.21	212.50
910.51	212.10
910.81	212.36
911.12	212.64
911.42	212.98
911.73	210.79
912.03	210.98
912.33	211.26
912.64	211.29
912.94	211.26
913.24	210.90
913.55	210.86
913.85	210.79
914.15	211.26
914.46	211.43
914.76	211.29
915.06	211.36
915.37	210.86
915.67	210.64
915.97	210.67
916.27	210.29
916.58	210.26
916.88	210.38
917.18	210.26
917.49	211.43
917.79	211.19
918.09	211.62
918.39	212.10
918.70	211.88
919.00	211.93
919.30	212.71
919.60	212.71
919.91	212.31
920.21	212.31
920.51	211.86
920.81	211.88
921.12	212.29
921.42	212.17
921.72	212.48
922.02	212.43
922.32	212.88
922.63	212.88
922.93	213.69
923.23	213.88
923.53	213.40
923.83	212.07
924.13	212.21
924.44	212.24
924.74	212.71
925.04	213.17
925.34	213.12
925.64	212.33
925.94	212.33
926.24	213.67
926.55	213.60
926.85	213.88
927.15	213.81
927.45	213.74
927.75	213.86
928.05	213.86
928.35	213.90
928.65	214.12
928.95	214.57
929.26	213.86
929.56	214.12
929.86	214.64
930.16	214.48
930.46	214.48
930.76	214.45
931.06	213.38
931.36	212.71
931.66	213.02
931.96	213.24
932.26	213.38
932.56	212.62
932.86	212.81
933.16	213.10
933.46	213.02
933.76	212.74
934.06	213.10
934.36	213.76
934.66	213.62
934.96	213.12
935.26	213.14
935.56	213.64
935.86	213.00
936.16	212.55
936.46	212.48
936.76	212.31
937.06	211.98
937.36	212.12
937.66	212.07
937.96	211.93
938.26	211.76
938.56	211.64
938.86	211.67
939.16	211.95
939.46	211.76
939.76	211.71
940.06	211.86
940.35	211.45
940.65	210.33
940.95	210.74
941.25	210.33
941.55	210.24
941.85	209.79
942.15	210.55
942.45	211.24
942.75	211.17
943.04	211.21
943.34	211.52
943.64	211.38
943.94	211.38
944.24	211.43
944.54	211.29
944.84	211.19
945.13	210.79
945.43	210.52
945.73	210.57
946.03	210.38
946.33	210.05
946.62	210.17
946.92	210.31
947.22	210.57
947.52	210.64
947.82	210.79
948.11	210.76
948.41	210.26
948.71	209.76
949.01	209.81
949.31	209.90
949.60	209.86
949.90	210.00
950.20	209.90
950.50	209.86
950.79	209.79
951.09	210.36
951.39	210.43
951.69	210.02
951.98	210.38
952.28	210.67
952.58	210.64
952.87	210.57
953.17	210.76
953.47	210.36
953.76	210.62
954.06	210.31
954.36	210.00
954.66	209.86
954.95	210.33
955.25	210.57
955.55	210.62
955.84	210.07
956.14	210.31
956.44	210.38
956.73	209.86
957.03	210.31
957.32	210.07
957.62	210.07
957.92	210.74
958.21	210.19
958.51	212.57
958.81	212.93
959.10	212.81
959.40	213.29
959.69	213.14
959.99	213.40
960.29	213.36
960.58	213.29
960.88	214.10
961.17	213.74
961.47	214.00
961.76	213.83
962.06	214.38
962.36	214.07
962.65	214.38
962.95	214.81
963.24	214.45
963.54	214.67
963.83	214.71
964.13	214.60
964.42	214.52
964.72	212.50
965.01	212.55
965.31	212.48
965.60	211.86
965.90	213.21
966.19	212.83
966.49	213.07
966.78	212.93
967.08	212.60
967.37	212.71
967.67	212.19
967.96	212.50
968.26	212.45
968.55	212.71
968.85	212.55
969.14	212.36
969.43	212.33
969.73	212.02
970.02	211.98
970.32	211.74
970.61	211.71
970.91	211.38
971.20	211.07
971.49	210.88
971.79	211.17
972.08	209.88
972.38	210.07
972.67	209.76
972.96	210.33
973.26	210.07
973.55	210.67
973.85	210.60
974.14	210.45
974.43	210.67
974.73	210.31
975.02	210.12
975.31	210.07
975.61	209.69
975.90	209.38
976.19	209.21
976.49	209.52
976.78	209.62
977.07	209.81
977.37	209.79
977.66	210.12
977.95	209.88
978.24	210.00
978.54	210.36
978.83	210.36
979.12	210.17
979.42	210.12
979.71	209.62
980.00	209.95
980.29	209.98
980.59	209.60
980.88	210.43
981.17	210.33
981.46	210.36
981.76	210.60
982.05	211.33
982.34	211.55
982.63	211.26
982.93	211.17
983.22	211.71
983.51	211.81
983.80	212.10
984.09	212.33
984.39	212.02
984.68	211.71
984.97	211.95
985.26	211.64
985.55	212.00
985.85	211.62
986.14	211.69
986.43	212.00
986.72	211.69
987.01	210.69
987.30	210.90
987.59	210.64
987.89	210.69
988.18	210.19
988.47	209.83
988.76	209.62
989.05	209.40
989.34	208.86
989.63	209.38
989.92	208.98
990.22	208.69
990.51	208.88
990.80	208.81
991.09	208.88
991.38	209.36
991.67	208.98
991.96	208.88
992.25	208.71
992.54	208.17
992.83	208.26
993.12	208.48
993.41	208.50
993.70	209.71
993.99	210.14
994.28	210.38
994.58	211.02
994.87	210.98
995.16	211.21
995.45	211.00
995.74	210.48
996.03	211.02
996.32	211.21
996.61	211.62
996.90	211.40
997.19	211.26
997.48	211.05
997.77	210.98
998.06	211.17
998.34	211.21
998.63	211.36
998.92	211.48
999.21	211.76
999.50	212.07
999.79	211.38
1000.08	211.43
1000.37	211.31
1000.66	211.02
1000.95	211.71
1001.24	211.81
1001.53	212.07
1001.82	212.02
1002.11	211.57
1002.40	211.86
1002.68	212.24
1002.97	213.93
1003.26	213.71
1003.55	213.43
1003.84	213.57
1004.13	214.26
1004.42	214.10
1004.71	214.31
1004.99	214.29
1005.28	214.83
1005.57	214.43
1005.86	214.05
1006.15	213.83
1006.44	213.60
1006.72	213.67
1007.01	213.33
1007.30	213.29
1007.59	213.05
1007.88	213.00
1008.17	213.10
1008.45	212.62
1008.74	211.67
1009.03	210.74
1009.32	210.81
1009.60	210.88
1009.89	210.88
1010.18	210.19
1010.47	210.24
1010.76	209.95
1011.04	210.07
1011.33	209.86
1011.62	210.24
1011.91	210.57
1012.19	210.62
1012.48	210.71
1012.77	210.67
1013.05	211.48
1013.34	211.40
1013.63	211.45
1013.92	211.31
1014.20	210.95
1014.49	211.02
1014.78	211.33
1015.06	210.64
1015.35	210.64
1015.64	210.95
1015.92	211.24
1016.21	211.14
1016.50	210.95
1016.78	211.45
1017.07	211.57
1017.36	211.26
1017.64	210.98
1017.93	211.07
1018.22	210.88
1018.50	211.00
1018.79	211.12
1019.08	210.05
1019.36	210.02
1019.65	209.88
1019.93	210.52
1020.22	210.93
1020.51	211.83
1020.79	211.76
1021.08	207.50
1021.36	210.00
1021.65	214.00
1021.94	206.50
1022.22	208.00
1022.51	208.50
1022.79	217.50
1023.08	212.50
1023.36	230.00
1023.65	209.00
>>>>>End Processed Spectral Data<<<<<
