SpectraSuite Data File
++++++++++++++++++++++++++++++++++++
Date: Tue Apr 02 18:39:26 EDT 2013
User: group
Dark Spectrum Present: No
Reference Spectrum Present: No
Number of Sampled Component Spectra: 1
Spectrometers: USB2E7196
Integration Time (usec): 580000 (USB2E7196)
Spectra Averaged: 2 (USB2E7196)
Boxcar Smoothing: 10 (USB2E7196)
Correct for Electrical Dark: No (USB2E7196)
Strobe/Lamp Enabled: No (USB2E7196)
Correct for Detector Non-linearity: No (USB2E7196)
Correct for Stray Light: No (USB2E7196)
Number of Pixels in Processed Spectrum: 2048
>>>>>Begin Processed Spectral Data<<<<<
339.09	0.00
339.48	197.00
339.86	192.50
340.24	197.00
340.63	201.00
341.01	229.50
341.39	200.50
341.78	206.00
342.16	211.00
342.54	203.50
342.93	197.29
343.31	207.00
343.69	207.40
344.07	208.12
344.46	208.64
344.84	209.19
345.22	208.17
345.60	208.71
345.99	209.05
346.37	208.95
346.75	209.14
347.13	209.38
347.52	209.76
347.90	210.45
348.28	210.45
348.66	210.98
349.05	210.33
349.43	210.57
349.81	210.98
350.19	211.10
350.57	211.19
350.96	211.48
351.34	211.90
351.72	211.95
352.10	212.00
352.48	212.07
352.87	211.86
353.25	211.93
353.63	211.83
354.01	211.64
354.39	211.67
354.77	211.90
355.15	212.48
355.54	212.26
355.92	211.74
356.30	211.74
356.68	213.10
357.06	213.45
357.44	213.21
357.82	213.21
358.20	214.07
358.58	213.81
358.97	213.81
359.35	214.17
359.73	214.60
360.11	214.71
360.49	214.69
360.87	214.74
361.25	215.00
361.63	215.67
362.01	215.98
362.39	216.21
362.77	216.48
363.15	216.26
363.53	216.19
363.91	216.31
364.29	216.38
364.67	214.48
365.05	214.33
365.43	214.55
365.81	214.86
366.19	215.05
366.57	216.10
366.95	216.26
367.33	215.81
367.71	215.74
368.09	216.07
368.47	216.21
368.85	216.14
369.23	216.48
369.61	215.76
369.99	216.29
370.37	216.40
370.75	217.24
371.13	216.81
371.51	216.64
371.89	216.83
372.27	217.02
372.65	216.95
373.03	217.14
373.41	216.93
373.78	216.81
374.16	215.69
374.54	214.98
374.92	214.67
375.30	214.60
375.68	214.57
376.06	214.57
376.44	214.40
376.82	214.71
377.19	214.50
377.57	214.48
377.95	213.67
378.33	213.40
378.71	211.93
379.09	212.14
379.47	212.33
379.84	211.88
380.22	211.48
380.60	211.40
380.98	211.33
381.36	211.45
381.73	211.17
382.11	211.67
382.49	211.81
382.87	211.74
383.25	211.95
383.62	214.31
384.00	214.00
384.38	214.00
384.76	214.29
385.13	215.31
385.51	215.33
385.89	215.12
386.27	215.33
386.64	215.88
387.02	215.67
387.40	215.52
387.78	215.71
388.15	215.90
388.53	215.71
388.91	215.88
389.29	215.43
389.66	215.79
390.04	215.43
390.42	215.67
390.79	215.88
391.17	215.83
391.55	213.57
391.92	213.62
392.30	214.02
392.68	213.76
393.05	213.26
393.43	213.31
393.81	213.74
394.18	213.40
394.56	213.29
394.94	213.83
395.31	213.86
395.69	214.69
396.06	215.10
396.44	215.43
396.82	215.17
397.19	216.52
397.57	216.21
397.95	216.74
398.32	216.19
398.70	216.48
399.07	216.90
399.45	216.71
399.82	216.83
400.20	216.33
400.58	216.38
400.95	215.83
401.33	216.57
401.70	218.02
402.08	218.24
402.45	218.45
402.83	219.00
403.20	219.21
403.58	218.95
403.95	219.55
404.33	220.17
404.71	220.79
405.08	221.93
405.46	222.19
405.83	222.45
406.21	223.10
406.58	223.29
406.96	223.69
407.33	224.21
407.70	224.95
408.08	227.40
408.45	228.21
408.83	229.40
409.20	229.67
409.58	229.14
409.95	230.26
410.33	231.40
410.70	231.74
411.08	233.17
411.45	234.48
411.82	235.26
412.20	236.60
412.57	238.90
412.95	238.69
413.32	240.83
413.69	242.26
414.07	244.29
414.44	246.38
414.82	248.31
415.19	251.17
415.56	253.38
415.94	254.98
416.31	257.95
416.68	261.00
417.06	264.36
417.43	267.93
417.81	271.83
418.18	275.71
418.55	280.10
418.93	284.45
419.30	288.93
419.67	293.71
420.04	298.69
420.42	303.26
420.79	310.88
421.16	316.83
421.54	324.55
421.91	331.07
422.28	338.02
422.66	345.31
423.03	354.00
423.40	361.71
423.77	369.43
424.15	377.12
424.52	385.12
424.89	394.76
425.26	403.55
425.64	411.69
426.01	420.57
426.38	430.07
426.75	440.17
427.13	450.79
427.50	461.64
427.87	472.64
428.24	483.76
428.61	493.31
428.99	506.33
429.36	517.98
429.73	530.29
430.10	542.21
430.47	554.98
430.85	566.60
431.22	580.64
431.59	597.02
431.96	611.67
432.33	627.55
432.70	642.64
433.08	660.36
433.45	677.60
433.82	694.90
434.19	713.86
434.56	732.48
434.93	749.55
435.30	767.71
435.68	786.83
436.05	805.50
436.42	824.43
436.79	841.24
437.16	860.76
437.53	881.24
437.90	901.69
438.27	922.02
438.64	941.57
439.01	960.40
439.38	976.07
439.75	992.38
440.13	1010.76
440.50	1028.40
440.87	1042.62
441.24	1056.86
441.61	1073.43
441.98	1084.81
442.35	1097.83
442.72	1112.43
443.09	1125.98
443.46	1135.38
443.83	1141.64
444.20	1146.76
444.57	1154.05
444.94	1156.52
445.31	1159.71
445.68	1165.90
446.05	1167.00
446.42	1165.98
446.79	1164.43
447.16	1161.55
447.53	1159.95
447.90	1152.62
448.27	1144.93
448.64	1135.69
449.01	1129.38
449.37	1116.79
449.74	1105.21
450.11	1092.52
450.48	1075.81
450.85	1058.69
451.22	1043.79
451.59	1030.79
451.96	1017.95
452.33	1000.24
452.70	985.17
453.07	966.52
453.43	944.45
453.80	926.14
454.17	908.62
454.54	891.38
454.91	874.05
455.28	856.26
455.65	840.24
456.02	827.29
456.38	813.26
456.75	795.52
457.12	780.40
457.49	766.36
457.86	750.86
458.23	739.67
458.59	726.48
458.96	713.74
459.33	701.71
459.70	690.19
460.07	681.33
460.43	670.33
460.80	660.64
461.17	652.33
461.54	643.07
461.91	634.10
462.27	625.21
462.64	616.95
463.01	608.60
463.38	601.50
463.74	590.17
464.11	582.69
464.48	576.79
464.85	570.00
465.21	565.10
465.58	560.05
465.95	552.79
466.32	547.62
466.68	541.57
467.05	535.55
467.42	529.71
467.78	523.29
468.15	517.95
468.52	513.40
468.88	507.74
469.25	502.93
469.62	499.38
469.98	494.98
470.35	491.76
470.72	488.17
471.08	482.67
471.45	479.64
471.82	476.48
472.18	472.64
472.55	470.24
472.92	466.14
473.28	462.74
473.65	459.64
474.02	456.69
474.38	454.55
474.75	452.76
475.11	450.43
475.48	448.88
475.85	447.05
476.21	445.05
476.58	443.71
476.94	442.55
477.31	440.93
477.67	440.02
478.04	438.76
478.41	437.88
478.77	439.33
479.14	437.98
479.50	437.00
479.87	436.90
480.23	436.38
480.60	435.79
480.96	435.33
481.33	436.55
481.69	436.50
482.06	436.74
482.42	437.00
482.79	437.69
483.15	437.83
483.52	438.83
483.88	439.43
484.25	439.81
484.61	440.36
484.98	441.05
485.34	442.31
485.71	443.69
486.07	444.93
486.44	445.02
486.80	447.12
487.17	448.83
487.53	451.12
487.90	453.40
488.26	456.71
488.62	459.83
488.99	461.83
489.35	465.07
489.72	468.05
490.08	471.21
490.44	473.79
490.81	477.81
491.17	481.45
491.54	486.02
491.90	490.33
492.26	494.38
492.63	498.86
492.99	503.07
493.36	507.43
493.72	512.79
494.08	517.57
494.45	522.19
494.81	528.43
495.17	533.62
495.54	539.45
495.90	544.57
496.26	550.40
496.63	556.74
496.99	562.40
497.35	568.69
497.72	575.10
498.08	581.74
498.44	588.33
498.80	594.83
499.17	601.60
499.53	608.64
499.89	616.45
500.26	623.88
500.62	631.50
500.98	639.93
501.34	647.43
501.71	655.95
502.07	664.31
502.43	671.69
502.79	679.57
503.16	688.17
503.52	696.45
503.88	704.00
504.24	712.40
504.60	721.88
504.97	731.17
505.33	739.83
505.69	749.24
506.05	758.00
506.41	767.26
506.78	775.79
507.14	784.55
507.50	793.74
507.86	802.90
508.22	812.05
508.59	820.76
508.95	830.24
509.31	840.60
509.67	849.93
510.03	859.19
510.39	868.48
510.75	876.86
511.12	886.21
511.48	896.14
511.84	904.93
512.20	913.52
512.56	922.05
512.92	931.64
513.28	940.71
513.64	949.31
514.00	958.14
514.37	967.33
514.73	976.33
515.09	985.05
515.45	993.79
515.81	1002.69
516.17	1010.36
516.53	1018.17
516.89	1024.52
517.25	1032.57
517.61	1040.36
517.97	1047.79
518.33	1056.12
518.69	1064.33
519.05	1072.31
519.41	1080.45
519.77	1089.60
520.13	1097.79
520.49	1104.88
520.85	1112.33
521.21	1120.10
521.57	1127.10
521.93	1133.67
522.29	1140.90
522.65	1147.74
523.01	1155.38
523.37	1161.69
523.73	1168.43
524.09	1175.40
524.45	1182.31
524.81	1189.10
525.17	1196.62
525.53	1202.95
525.89	1208.74
526.25	1214.76
526.61	1220.02
526.97	1225.71
527.33	1230.83
527.68	1238.55
528.04	1244.12
528.40	1249.62
528.76	1255.67
529.12	1261.98
529.48	1269.60
529.84	1276.07
530.20	1282.02
530.56	1287.52
530.91	1293.83
531.27	1301.14
531.63	1307.10
531.99	1312.76
532.35	1317.81
532.71	1322.93
533.07	1329.81
533.42	1338.48
533.78	1344.21
534.14	1350.98
534.50	1356.38
534.86	1362.69
535.21	1366.05
535.57	1372.67
535.93	1378.38
536.29	1384.86
536.65	1390.17
537.00	1394.74
537.36	1398.93
537.72	1404.26
538.08	1409.17
538.44	1413.79
538.79	1418.33
539.15	1422.55
539.51	1427.33
539.87	1432.95
540.22	1437.55
540.58	1441.71
540.94	1444.31
541.29	1449.07
541.65	1452.60
542.01	1457.38
542.37	1460.95
542.72	1464.60
543.08	1467.43
543.44	1471.98
543.79	1475.24
544.15	1480.14
544.51	1484.83
544.87	1489.45
545.22	1493.14
545.58	1497.57
545.94	1501.45
546.29	1504.45
546.65	1509.05
547.01	1512.62
547.36	1516.50
547.72	1520.83
548.07	1524.40
548.43	1527.60
548.79	1530.98
549.14	1534.02
549.50	1537.52
549.86	1540.62
550.21	1544.98
550.57	1549.07
550.92	1551.48
551.28	1555.07
551.64	1558.12
551.99	1560.95
552.35	1564.17
552.70	1567.10
553.06	1570.12
553.41	1573.86
553.77	1579.90
554.13	1583.83
554.48	1588.60
554.84	1593.40
555.19	1597.17
555.55	1603.10
555.90	1606.38
556.26	1610.93
556.61	1616.00
556.97	1619.52
557.32	1623.50
557.68	1627.07
558.03	1631.50
558.39	1636.14
558.74	1640.69
559.10	1644.60
559.45	1648.83
559.81	1653.36
560.16	1657.21
560.52	1661.02
560.87	1665.71
561.23	1667.86
561.58	1673.93
561.94	1677.21
562.29	1680.14
562.64	1684.19
563.00	1686.36
563.35	1691.48
563.71	1695.90
564.06	1701.17
564.42	1706.36
564.77	1711.48
565.12	1717.31
565.48	1724.74
565.83	1729.76
566.19	1734.57
566.54	1738.48
566.89	1742.38
567.25	1748.21
567.60	1754.17
567.96	1761.52
568.31	1765.88
568.66	1770.81
569.02	1772.90
569.37	1777.17
569.72	1780.95
570.08	1784.43
570.43	1787.71
570.78	1791.69
571.14	1794.67
571.49	1797.31
571.84	1800.26
572.20	1802.88
572.55	1805.52
572.90	1804.62
573.26	1806.86
573.61	1808.88
573.96	1812.36
574.31	1815.24
574.67	1816.26
575.02	1817.60
575.37	1816.55
575.72	1818.00
576.08	1818.76
576.43	1819.83
576.78	1820.71
577.13	1822.62
577.49	1824.60
577.84	1826.90
578.19	1827.05
578.54	1828.36
578.90	1828.81
579.25	1829.81
579.60	1830.10
579.95	1829.76
580.30	1830.79
580.66	1832.33
581.01	1831.79
581.36	1831.69
581.71	1832.07
582.06	1832.55
582.42	1832.95
582.77	1832.71
583.12	1832.17
583.47	1832.29
583.82	1831.86
584.17	1832.21
584.53	1831.98
584.88	1830.52
585.23	1830.26
585.58	1829.79
585.93	1827.98
586.28	1827.02
586.63	1826.00
586.98	1825.93
587.34	1825.52
587.69	1825.05
588.04	1823.24
588.39	1822.67
588.74	1819.76
589.09	1817.88
589.44	1815.52
589.79	1813.90
590.14	1813.05
590.49	1811.67
590.84	1809.79
591.19	1809.52
591.54	1807.40
591.89	1803.81
592.25	1803.93
592.60	1801.21
592.95	1799.55
593.30	1797.98
593.65	1796.45
594.00	1793.43
594.35	1796.69
594.70	1792.83
595.05	1789.98
595.40	1785.98
595.75	1782.24
596.10	1781.83
596.45	1778.90
596.80	1776.98
597.15	1774.48
597.50	1771.10
597.85	1769.67
598.19	1766.90
598.54	1762.76
598.89	1760.00
599.24	1758.95
599.59	1754.62
599.94	1752.12
600.29	1749.36
600.64	1746.36
600.99	1742.57
601.34	1740.43
601.69	1730.95
602.04	1728.36
602.39	1724.83
602.74	1723.33
603.08	1720.40
603.43	1717.40
603.78	1715.02
604.13	1711.40
604.48	1707.24
604.83	1704.76
605.18	1700.55
605.53	1697.69
605.87	1693.64
606.22	1689.90
606.57	1685.31
606.92	1680.95
607.27	1677.33
607.62	1673.81
607.96	1670.29
608.31	1667.38
608.66	1663.12
609.01	1659.10
609.36	1655.60
609.70	1651.14
610.05	1645.95
610.40	1642.07
610.75	1636.31
611.10	1630.81
611.44	1625.19
611.79	1621.00
612.14	1615.17
612.49	1608.86
612.83	1602.76
613.18	1598.10
613.53	1592.55
613.88	1586.57
614.22	1580.90
614.57	1574.60
614.92	1568.14
615.27	1561.90
615.61	1554.93
615.96	1549.29
616.31	1543.45
616.65	1537.81
617.00	1532.67
617.35	1527.38
617.70	1520.98
618.04	1515.12
618.39	1508.33
618.74	1502.19
619.08	1495.93
619.43	1490.64
619.78	1485.14
620.12	1480.24
620.47	1474.29
620.82	1467.52
621.16	1461.31
621.51	1456.05
621.85	1449.64
622.20	1443.05
622.55	1436.19
622.89	1430.05
623.24	1424.36
623.59	1418.24
623.93	1412.19
624.28	1405.62
624.62	1401.62
624.97	1397.19
625.32	1390.71
625.66	1385.60
626.01	1380.05
626.35	1374.79
626.70	1368.57
627.04	1362.55
627.39	1355.69
627.73	1350.62
628.08	1346.33
628.43	1341.40
628.77	1335.50
629.12	1329.98
629.46	1324.71
629.81	1319.29
630.15	1313.55
630.50	1306.69
630.84	1300.48
631.19	1293.60
631.53	1288.00
631.88	1278.50
632.22	1270.64
632.57	1264.95
632.91	1258.36
633.26	1252.52
633.60	1245.40
633.95	1238.64
634.29	1232.10
634.64	1225.88
634.98	1218.26
635.32	1211.83
635.67	1205.31
636.01	1198.95
636.36	1192.05
636.70	1186.31
637.05	1180.33
637.39	1174.00
637.73	1168.55
638.08	1163.10
638.42	1157.83
638.77	1152.38
639.11	1147.29
639.45	1141.62
639.80	1135.07
640.14	1129.31
640.49	1122.60
640.83	1116.79
641.17	1111.05
641.52	1105.38
641.86	1099.26
642.20	1094.38
642.55	1087.02
642.89	1081.00
643.23	1074.67
643.58	1069.45
643.92	1062.02
644.26	1055.45
644.61	1049.98
644.95	1042.86
645.29	1036.02
645.64	1029.40
645.98	1021.74
646.32	1015.31
646.66	1008.64
647.01	1002.48
647.35	996.26
647.69	990.07
648.04	983.79
648.38	977.67
648.72	971.05
649.06	964.81
649.41	958.12
649.75	952.14
650.09	945.93
650.43	939.33
650.78	932.26
651.12	926.74
651.46	920.48
651.80	913.67
652.14	907.86
652.49	902.38
652.83	896.48
653.17	890.26
653.51	883.93
653.85	877.76
654.20	872.10
654.54	865.52
654.88	859.07
655.22	853.48
655.56	847.05
655.90	841.14
656.25	835.55
656.59	829.48
656.93	824.10
657.27	818.93
657.61	813.00
657.95	807.48
658.29	801.45
658.64	796.24
658.98	790.88
659.32	785.38
659.66	779.36
660.00	773.36
660.34	768.62
660.68	763.26
661.02	758.19
661.36	752.12
661.70	746.90
662.05	742.19
662.39	737.14
662.73	733.02
663.07	729.31
663.41	724.10
663.75	718.43
664.09	713.07
664.43	707.07
664.77	702.29
665.11	697.33
665.45	692.38
665.79	687.81
666.13	682.88
666.47	677.43
666.81	672.86
667.15	667.81
667.49	663.00
667.83	659.40
668.17	654.86
668.51	650.60
668.85	646.43
669.19	642.79
669.53	636.81
669.87	631.17
670.21	625.50
670.55	621.10
670.89	617.69
671.23	613.62
671.57	609.55
671.91	605.29
672.25	601.05
672.58	597.55
672.92	592.81
673.26	588.90
673.60	584.76
673.94	580.24
674.28	576.45
674.62	573.05
674.96	568.48
675.30	564.50
675.64	560.69
675.97	556.81
676.31	552.33
676.65	549.17
676.99	546.60
677.33	542.71
677.67	538.71
678.01	534.50
678.34	530.62
678.68	527.36
679.02	523.64
679.36	520.00
679.70	515.93
680.04	512.52
680.37	508.83
680.71	505.93
681.05	503.12
681.39	499.62
681.73	495.83
682.06	492.29
682.40	488.79
682.74	485.81
683.08	483.50
683.42	480.07
683.75	477.17
684.09	473.40
684.43	470.36
684.77	467.40
685.10	464.48
685.44	461.88
685.78	458.55
686.12	455.67
686.45	452.88
686.79	449.38
687.13	447.00
687.46	443.74
687.80	441.40
688.14	438.26
688.48	435.74
688.81	432.88
689.15	430.93
689.49	428.67
689.82	426.10
690.16	422.10
690.50	419.50
690.83	416.88
691.17	413.93
691.51	411.52
691.84	409.48
692.18	407.07
692.52	404.74
692.85	402.81
693.19	401.33
693.52	399.40
693.86	397.33
694.20	394.81
694.53	392.93
694.87	390.43
695.21	388.17
695.54	385.88
695.88	383.19
696.21	379.90
696.55	377.60
696.88	375.19
697.22	373.57
697.56	372.05
697.89	369.21
698.23	367.67
698.56	365.62
698.90	363.81
699.23	361.55
699.57	359.38
699.90	356.88
700.24	354.45
700.58	352.31
700.91	350.95
701.25	350.76
701.58	349.57
701.92	348.10
702.25	346.43
702.59	344.62
702.92	343.29
703.26	342.02
703.59	340.38
703.93	340.50
704.26	339.02
704.60	337.17
704.93	335.88
705.26	334.19
705.60	332.98
705.93	330.71
706.27	329.55
706.60	328.69
706.94	328.57
707.27	327.12
707.61	325.93
707.94	324.43
708.27	321.67
708.61	319.74
708.94	318.10
709.28	316.86
709.61	315.38
709.94	314.33
710.28	313.26
710.61	311.86
710.95	309.10
711.28	308.95
711.61	307.71
711.95	307.07
712.28	305.69
712.61	304.45
712.95	304.52
713.28	304.57
713.61	302.88
713.95	300.67
714.28	299.64
714.61	298.38
714.95	297.40
715.28	296.02
715.61	294.90
715.95	294.02
716.28	292.76
716.61	292.55
716.95	291.26
717.28	290.24
717.61	289.33
717.94	288.00
718.28	285.71
718.61	284.79
718.94	283.31
719.27	282.38
719.61	281.55
719.94	279.90
720.27	278.05
720.60	277.24
720.94	276.76
721.27	275.98
721.60	275.64
721.93	274.52
722.27	274.19
722.60	273.83
722.93	272.90
723.26	272.50
723.59	271.48
723.93	271.00
724.26	270.45
724.59	269.81
724.92	269.69
725.25	269.88
725.59	269.17
725.92	269.21
726.25	268.43
726.58	267.76
726.91	267.17
727.24	267.02
727.57	266.48
727.91	265.55
728.24	265.26
728.57	264.02
728.90	264.00
729.23	263.10
729.56	263.21
729.89	262.62
730.22	261.83
730.55	261.05
730.89	260.71
731.22	259.93
731.55	259.26
731.88	258.71
732.21	257.64
732.54	257.05
732.87	256.31
733.20	256.07
733.53	256.00
733.86	255.74
734.19	254.67
734.52	254.67
734.85	255.50
735.18	254.86
735.51	255.12
735.84	254.88
736.17	254.88
736.50	253.38
736.83	255.36
737.16	255.10
737.49	254.76
737.82	253.88
738.15	253.86
738.48	253.50
738.81	253.02
739.14	252.36
739.47	252.07
739.80	251.48
740.13	251.52
740.46	250.60
740.79	250.02
741.12	249.64
741.45	248.76
741.78	247.36
742.11	247.26
742.44	246.50
742.77	246.26
743.10	245.57
743.43	245.21
743.75	242.64
744.08	245.00
744.41	244.31
744.74	244.00
745.07	243.07
745.40	243.21
745.73	243.43
746.06	243.57
746.39	243.36
746.71	242.90
747.04	242.12
747.37	241.83
747.70	241.90
748.03	241.74
748.36	241.55
748.68	241.24
749.01	240.36
749.34	240.24
749.67	239.76
750.00	239.83
750.33	241.17
750.65	241.24
750.98	238.36
751.31	238.17
751.64	238.24
751.97	239.38
752.29	238.95
752.62	237.83
752.95	237.19
753.28	236.64
753.60	236.62
753.93	237.05
754.26	236.88
754.59	236.21
754.91	235.76
755.24	235.50
755.57	235.24
755.90	235.05
756.22	234.64
756.55	234.19
756.88	233.60
757.20	231.98
757.53	231.33
757.86	231.05
758.19	231.40
758.51	231.10
758.84	229.62
759.17	229.05
759.49	229.14
759.82	230.02
760.15	229.88
760.47	229.55
760.80	228.50
761.13	228.55
761.45	228.05
761.78	228.07
762.11	227.88
762.43	227.62
762.76	227.36
763.08	227.45
763.41	227.29
763.74	227.29
764.06	227.19
764.39	226.98
764.71	226.48
765.04	225.81
765.37	225.45
765.69	225.52
766.02	225.38
766.34	225.12
766.67	224.05
767.00	224.52
767.32	225.74
767.65	227.07
767.97	226.76
768.30	226.98
768.62	226.69
768.95	226.36
769.27	226.19
769.60	226.55
769.92	225.90
770.25	225.52
770.57	225.00
770.90	224.74
771.22	224.50
771.55	224.83
771.87	224.98
772.20	225.10
772.52	226.67
772.85	229.02
773.17	228.90
773.50	229.02
773.82	228.69
774.15	227.38
774.47	226.10
774.80	225.83
775.12	225.48
775.45	225.21
775.77	225.36
776.09	225.40
776.42	225.21
776.74	225.93
777.07	225.83
777.39	225.81
777.72	225.69
778.04	225.83
778.36	225.48
778.69	225.67
779.01	225.57
779.33	223.64
779.66	221.48
779.98	221.26
780.31	221.02
780.63	221.55
780.95	221.95
781.28	221.74
781.60	221.64
781.92	221.69
782.25	221.62
782.57	221.45
782.89	220.98
783.22	221.10
783.54	220.36
783.86	220.45
784.19	220.52
784.51	221.31
784.83	221.00
785.16	220.95
785.48	220.74
785.80	220.74
786.12	220.98
786.45	220.69
786.77	220.93
787.09	220.88
787.42	220.14
787.74	220.07
788.06	220.14
788.38	220.00
788.71	219.55
789.03	219.76
789.35	220.05
789.67	219.83
789.99	219.45
790.32	219.14
790.64	219.33
790.96	220.76
791.28	219.71
791.61	219.62
791.93	219.69
792.25	219.55
792.57	220.81
792.89	220.19
793.21	220.31
793.54	220.00
793.86	219.83
794.18	220.12
794.50	219.83
794.82	219.88
795.14	220.33
795.47	221.17
795.79	221.12
796.11	220.55
796.43	220.79
796.75	220.98
797.07	221.17
797.39	221.00
797.71	219.60
798.04	219.62
798.36	219.71
798.68	219.67
799.00	219.90
799.32	218.83
799.64	219.45
799.96	219.57
800.28	220.02
800.60	220.00
800.92	219.90
801.24	219.55
801.56	219.79
801.89	219.29
802.21	219.26
802.53	219.05
802.85	219.48
803.17	220.36
803.49	219.93
803.81	220.10
804.13	220.02
804.45	219.74
804.77	220.10
805.09	220.12
805.41	219.86
805.73	219.36
806.05	218.86
806.37	218.76
806.69	218.52
807.01	218.48
807.33	218.57
807.65	217.98
807.97	218.95
808.28	218.52
808.60	218.33
808.92	217.83
809.24	219.29
809.56	218.98
809.88	218.05
810.20	218.10
810.52	218.26
810.84	217.93
811.16	217.76
811.48	217.69
811.80	218.45
812.12	218.38
812.43	218.69
812.75	218.90
813.07	218.50
813.39	218.76
813.71	218.29
814.03	217.93
814.35	217.88
814.67	217.05
814.98	216.95
815.30	217.05
815.62	216.76
815.94	214.88
816.26	214.95
816.58	214.76
816.89	214.83
817.21	214.26
817.53	214.62
817.85	214.50
818.17	214.50
818.48	213.57
818.80	214.17
819.12	214.02
819.44	213.36
819.76	213.21
820.07	213.02
820.39	212.88
820.71	212.98
821.03	213.10
821.34	212.98
821.66	213.24
821.98	213.48
822.30	213.38
822.61	214.86
822.93	214.67
823.25	214.57
823.57	214.40
823.88	214.83
824.20	214.40
824.52	214.98
824.83	214.81
825.15	214.69
825.47	214.57
825.79	214.26
826.10	214.57
826.42	214.52
826.74	214.52
827.05	214.45
827.37	214.60
827.69	214.40
828.00	214.64
828.32	214.64
828.64	214.36
828.95	215.45
829.27	214.64
829.58	214.69
829.90	215.12
830.22	215.10
830.53	214.64
830.85	214.71
831.17	214.02
831.48	214.05
831.80	214.19
832.11	213.98
832.43	214.19
832.75	214.12
833.06	215.26
833.38	214.83
833.69	214.90
834.01	214.86
834.32	214.69
834.64	214.24
834.96	214.21
835.27	214.14
835.59	213.60
835.90	213.50
836.22	213.60
836.53	213.14
836.85	212.98
837.16	215.02
837.48	215.14
837.79	215.93
838.11	215.98
838.42	215.98
838.74	216.17
839.05	216.05
839.37	215.86
839.68	214.69
840.00	214.69
840.31	215.00
840.63	214.81
840.94	214.76
841.26	214.62
841.57	214.50
841.88	214.83
842.20	214.48
842.51	214.29
842.83	213.95
843.14	216.00
843.46	216.10
843.77	215.24
844.08	214.90
844.40	214.55
844.71	214.19
845.03	213.86
845.34	213.67
845.65	213.50
845.97	213.50
846.28	213.52
846.60	213.50
846.91	213.19
847.22	213.38
847.54	213.79
847.85	214.02
848.16	213.81
848.48	213.55
848.79	214.60
849.10	214.69
849.42	214.98
849.73	212.81
850.04	213.05
850.36	212.14
850.67	212.67
850.98	212.33
851.30	212.74
851.61	212.93
851.92	212.95
852.23	213.83
852.55	214.07
852.86	214.12
853.17	214.71
853.49	215.14
853.80	215.43
854.11	215.69
854.42	216.10
854.74	215.95
855.05	216.14
855.36	214.86
855.67	215.00
855.99	214.86
856.30	217.29
856.61	216.95
856.92	217.05
857.23	216.93
857.55	216.98
857.86	216.60
858.17	216.81
858.48	216.36
858.79	215.74
859.11	215.93
859.42	215.90
859.73	215.29
860.04	215.14
860.35	214.57
860.66	213.88
860.98	213.64
861.29	214.00
861.60	213.64
861.91	214.26
862.22	213.98
862.53	213.69
862.84	211.29
863.16	211.88
863.47	211.33
863.78	211.21
864.09	211.33
864.40	211.76
864.71	211.60
865.02	212.14
865.33	211.88
865.64	211.45
865.95	211.50
866.27	212.76
866.58	212.50
866.89	212.60
867.20	212.71
867.51	212.45
867.82	212.31
868.13	213.12
868.44	212.48
868.75	212.88
869.06	213.12
869.37	213.50
869.68	212.76
869.99	213.48
870.30	213.43
870.61	213.50
870.92	213.17
871.23	213.00
871.54	212.93
871.85	213.50
872.16	213.71
872.47	213.43
872.78	212.36
873.09	212.57
873.40	212.45
873.71	212.43
874.02	212.62
874.33	212.60
874.64	212.07
874.95	212.62
875.26	212.07
875.56	212.24
875.87	212.07
876.18	212.26
876.49	214.21
876.80	213.93
877.11	213.48
877.42	213.43
877.73	213.57
878.04	213.31
878.35	212.98
878.66	213.00
878.96	213.00
879.27	213.05
879.58	212.86
879.89	212.88
880.20	213.64
880.51	213.52
880.82	213.24
881.12	213.19
881.43	212.67
881.74	212.57
882.05	212.17
882.36	212.50
882.67	212.60
882.97	210.12
883.28	210.21
883.59	210.36
883.90	210.52
884.21	211.05
884.51	211.14
884.82	210.90
885.13	210.81
885.44	210.83
885.74	210.81
886.05	210.76
886.36	210.86
886.67	210.05
886.98	210.93
887.28	211.40
887.59	211.43
887.90	211.60
888.20	211.57
888.51	212.24
888.82	211.83
889.13	212.10
889.43	213.76
889.74	213.76
890.05	213.81
890.35	213.60
890.66	213.19
890.97	213.14
891.28	213.17
891.58	213.52
891.89	213.81
892.20	213.55
892.50	213.38
892.81	213.19
893.12	213.14
893.42	212.24
893.73	212.29
894.04	212.24
894.34	212.26
894.65	212.40
894.95	212.07
895.26	211.98
895.57	212.93
895.87	211.43
896.18	211.71
896.48	211.86
896.79	211.88
897.10	212.02
897.40	211.95
897.71	212.14
898.01	211.76
898.32	211.88
898.63	211.88
898.93	212.05
899.24	212.05
899.54	212.12
899.85	212.12
900.15	211.88
900.46	211.81
900.76	212.10
901.07	211.93
901.38	211.69
901.68	212.05
901.99	210.88
902.29	210.88
902.60	210.64
902.90	210.64
903.21	210.67
903.51	210.38
903.82	210.81
904.12	211.00
904.43	211.17
904.73	211.10
905.03	211.31
905.34	213.31
905.64	213.21
905.95	213.31
906.25	213.40
906.56	213.38
906.86	213.52
907.17	213.40
907.47	213.60
907.77	213.67
908.08	213.24
908.38	213.50
908.69	213.55
908.99	213.95
909.30	213.83
909.60	213.98
909.90	214.26
910.21	213.57
910.51	213.29
910.81	213.31
911.12	213.31
911.42	213.26
911.73	211.14
912.03	211.50
912.33	211.81
912.64	211.74
912.94	211.64
913.24	211.38
913.55	211.21
913.85	211.17
914.15	211.57
914.46	211.93
914.76	211.60
915.06	211.50
915.37	211.14
915.67	211.21
915.97	211.02
916.27	210.69
916.58	211.00
916.88	210.81
917.18	210.79
917.49	212.00
917.79	211.90
918.09	212.33
918.39	212.83
918.70	212.67
919.00	212.57
919.30	213.50
919.60	213.38
919.91	213.24
920.21	213.31
920.51	212.86
920.81	212.69
921.12	213.07
921.42	213.12
921.72	213.40
922.02	213.31
922.32	213.76
922.63	213.74
922.93	214.79
923.23	214.93
923.53	214.83
923.83	213.48
924.13	213.62
924.44	213.60
924.74	213.86
925.04	214.21
925.34	214.17
925.64	213.31
925.94	213.43
926.24	214.40
926.55	214.12
926.85	214.52
927.15	214.69
927.45	214.45
927.75	214.40
928.05	214.36
928.35	214.26
928.65	214.38
928.95	214.69
929.26	213.74
929.56	214.05
929.86	214.14
930.16	213.95
930.46	214.02
930.76	213.83
931.06	212.81
931.36	212.38
931.66	212.90
931.96	213.19
932.26	213.40
932.56	212.76
932.86	213.05
933.16	212.95
933.46	212.60
933.76	212.38
934.06	212.76
934.36	213.38
934.66	213.50
934.96	213.14
935.26	213.19
935.56	213.24
935.86	212.79
936.16	212.57
936.46	212.71
936.76	212.33
937.06	212.14
937.36	212.45
937.66	212.71
937.96	212.43
938.26	211.98
938.56	211.79
938.86	211.83
939.16	212.36
939.46	212.55
939.76	212.74
940.06	212.69
940.35	212.24
940.65	211.17
940.95	211.24
941.25	210.95
941.55	210.50
941.85	210.67
942.15	211.07
942.45	211.64
942.75	211.67
943.04	211.90
943.34	212.21
943.64	211.88
943.94	211.38
944.24	211.50
944.54	211.69
944.84	211.64
945.13	211.26
945.43	210.71
945.73	210.48
946.03	210.38
946.33	210.00
946.62	209.74
946.92	209.74
947.22	209.93
947.52	210.12
947.82	210.71
948.11	210.50
948.41	210.19
948.71	209.52
949.01	209.43
949.31	209.26
949.60	209.38
949.90	209.86
950.20	209.69
950.50	209.86
950.79	209.64
951.09	209.95
951.39	210.05
951.69	209.76
951.98	210.02
952.28	210.19
952.58	210.69
952.87	210.86
953.17	211.10
953.47	210.81
953.76	210.74
954.06	210.50
954.36	210.26
954.66	209.98
954.95	210.71
955.25	210.67
955.55	210.98
955.84	210.64
956.14	210.71
956.44	210.88
956.73	210.26
957.03	210.45
957.32	210.40
957.62	210.29
957.92	210.69
958.21	210.50
958.51	212.57
958.81	212.64
959.10	212.93
959.40	213.43
959.69	213.48
959.99	213.83
960.29	213.67
960.58	213.69
960.88	214.74
961.17	214.21
961.47	214.76
961.76	214.45
962.06	214.74
962.36	214.57
962.65	214.64
962.95	214.64
963.24	214.38
963.54	214.26
963.83	214.57
964.13	214.62
964.42	214.14
964.72	212.76
965.01	212.88
965.31	212.64
965.60	212.26
965.90	213.60
966.19	213.10
966.49	213.14
966.78	213.12
967.08	212.71
967.37	212.95
967.67	212.36
967.96	212.67
968.26	212.43
968.55	212.43
968.85	212.45
969.14	212.76
969.43	212.86
969.73	212.95
970.02	212.88
970.32	212.67
970.61	212.98
970.91	212.24
971.20	212.07
971.49	211.93
971.79	211.98
972.08	210.60
972.38	210.90
972.67	210.64
972.96	210.88
973.26	210.52
973.55	211.12
973.85	211.17
974.14	211.07
974.43	211.38
974.73	211.24
975.02	211.00
975.31	210.98
975.61	211.05
975.90	210.81
976.19	210.52
976.49	210.79
976.78	210.90
977.07	210.83
977.37	211.05
977.66	211.26
977.95	210.79
978.24	210.83
978.54	211.26
978.83	211.45
979.12	211.45
979.42	211.38
979.71	210.98
980.00	210.86
980.29	210.90
980.59	210.50
980.88	210.98
981.17	211.12
981.46	211.10
981.76	210.93
982.05	211.50
982.34	211.76
982.63	211.67
982.93	211.57
983.22	212.17
983.51	211.95
983.80	212.19
984.09	212.76
984.39	212.79
984.68	212.38
984.97	212.36
985.26	211.95
985.55	212.40
985.85	211.88
986.14	212.33
986.43	212.57
986.72	212.60
987.01	212.00
987.30	211.90
987.59	211.67
987.89	211.74
988.18	211.17
988.47	210.88
988.76	210.74
989.05	210.40
989.34	210.12
989.63	210.48
989.92	210.55
990.22	210.24
990.51	209.90
990.80	209.69
991.09	209.95
991.38	210.26
991.67	210.00
991.96	210.00
992.25	209.90
992.54	209.33
992.83	209.26
993.12	209.26
993.41	209.93
993.70	210.83
993.99	211.26
994.28	211.38
994.58	211.71
994.87	211.40
995.16	211.48
995.45	211.26
995.74	210.69
996.03	210.69
996.32	210.90
996.61	211.45
996.90	211.55
997.19	211.17
997.48	211.52
997.77	211.38
998.06	211.50
998.34	211.26
998.63	211.48
998.92	211.64
999.21	211.88
999.50	211.48
999.79	210.71
1000.08	210.57
1000.37	210.69
1000.66	210.33
1000.95	211.10
1001.24	211.29
1001.53	211.69
1001.82	211.60
1002.11	211.21
1002.40	211.50
1002.68	211.90
1002.97	213.14
1003.26	213.14
1003.55	212.69
1003.84	212.83
1004.13	213.52
1004.42	213.71
1004.71	213.69
1004.99	213.50
1005.28	214.02
1005.57	213.86
1005.86	213.79
1006.15	213.76
1006.44	213.57
1006.72	213.90
1007.01	213.52
1007.30	213.43
1007.59	213.05
1007.88	213.10
1008.17	213.21
1008.45	212.86
1008.74	211.86
1009.03	210.90
1009.32	210.81
1009.60	210.69
1009.89	210.43
1010.18	209.43
1010.47	208.95
1010.76	208.86
1011.04	208.83
1011.33	208.88
1011.62	209.19
1011.91	209.26
1012.19	209.19
1012.48	209.19
1012.77	209.19
1013.05	209.93
1013.34	209.95
1013.63	209.83
1013.92	209.95
1014.20	209.79
1014.49	209.76
1014.78	210.10
1015.06	209.62
1015.35	209.57
1015.64	209.93
1015.92	210.33
1016.21	210.64
1016.50	210.90
1016.78	211.21
1017.07	211.24
1017.36	210.79
1017.64	210.36
1017.93	210.60
1018.22	210.29
1018.50	210.12
1018.79	209.93
1019.08	209.19
1019.36	209.29
1019.65	209.17
1019.93	209.71
1020.22	210.00
1020.51	211.24
1020.79	210.93
1021.08	203.50
1021.36	205.00
1021.65	208.50
1021.94	211.50
1022.22	210.50
1022.51	206.00
1022.79	220.00
1023.08	213.50
1023.36	238.00
1023.65	202.00
>>>>>End Processed Spectral Data<<<<<
