SpectraSuite Data File
++++++++++++++++++++++++++++++++++++
Date: Tue Apr 02 18:41:14 EDT 2013
User: group
Dark Spectrum Present: No
Reference Spectrum Present: No
Number of Sampled Component Spectra: 1
Spectrometers: USB2E7196
Integration Time (usec): 580000 (USB2E7196)
Spectra Averaged: 2 (USB2E7196)
Boxcar Smoothing: 10 (USB2E7196)
Correct for Electrical Dark: No (USB2E7196)
Strobe/Lamp Enabled: No (USB2E7196)
Correct for Detector Non-linearity: No (USB2E7196)
Correct for Stray Light: No (USB2E7196)
Number of Pixels in Processed Spectrum: 2048
>>>>>Begin Processed Spectral Data<<<<<
339.09	0.00
339.48	194.50
339.86	193.50
340.24	195.00
340.63	200.00
341.01	229.00
341.39	201.00
341.78	212.50
342.16	215.50
342.54	205.00
342.93	199.00
343.31	208.81
343.69	209.38
344.07	210.26
344.46	211.24
344.84	211.98
345.22	211.10
345.60	211.76
345.99	211.79
346.37	211.69
346.75	211.98
347.13	212.00
347.52	212.02
347.90	212.86
348.28	212.79
348.66	213.55
349.05	213.14
349.43	213.43
349.81	213.62
350.19	213.76
350.57	213.86
350.96	214.07
351.34	214.48
351.72	214.71
352.10	214.43
352.48	214.19
352.87	213.95
353.25	213.90
353.63	213.62
354.01	213.45
354.39	213.36
354.77	213.43
355.15	213.93
355.54	214.07
355.92	213.31
356.30	213.36
356.68	214.31
357.06	214.36
357.44	213.98
357.82	213.83
358.20	214.60
358.58	214.88
358.97	214.90
359.35	215.00
359.73	215.33
360.11	215.64
360.49	215.90
360.87	215.98
361.25	216.38
361.63	217.05
362.01	217.36
362.39	217.36
362.77	217.40
363.15	217.26
363.53	217.26
363.91	217.38
364.29	217.29
364.67	215.31
365.05	215.48
365.43	216.02
365.81	216.21
366.19	216.24
366.57	216.83
366.95	216.81
367.33	216.29
367.71	216.24
368.09	216.38
368.47	216.24
368.85	216.24
369.23	216.69
369.61	216.00
369.99	216.57
370.37	216.83
370.75	217.88
371.13	217.52
371.51	217.14
371.89	217.31
372.27	217.33
372.65	217.60
373.03	217.57
373.41	217.38
373.78	217.19
374.16	216.31
374.54	215.40
374.92	215.31
375.30	215.62
375.68	215.29
376.06	215.40
376.44	215.40
376.82	215.33
377.19	215.02
377.57	214.86
377.95	213.88
378.33	213.67
378.71	212.55
379.09	212.93
379.47	212.98
379.84	212.79
380.22	212.76
380.60	212.55
380.98	212.55
381.36	212.00
381.73	211.81
382.11	211.93
382.49	211.98
382.87	211.64
383.25	211.64
383.62	213.98
384.00	213.62
384.38	213.64
384.76	214.40
385.13	215.00
385.51	215.31
385.89	215.24
386.27	215.29
386.64	215.43
387.02	215.12
387.40	215.21
387.78	215.40
388.15	215.60
388.53	215.48
388.91	215.55
389.29	215.60
389.66	215.95
390.04	215.86
390.42	216.55
390.79	216.88
391.17	216.88
391.55	214.86
391.92	214.93
392.30	215.00
392.68	214.43
393.05	214.12
393.43	214.21
393.81	214.38
394.18	214.10
394.56	214.19
394.94	214.69
395.31	214.55
395.69	215.10
396.06	215.33
396.44	215.55
396.82	215.36
397.19	216.55
397.57	216.29
397.95	216.64
398.32	215.98
398.70	216.07
399.07	216.67
399.45	216.33
399.82	216.33
400.20	216.26
400.58	216.33
400.95	215.86
401.33	216.00
401.70	217.52
402.08	217.88
402.45	217.83
402.83	218.31
403.20	218.50
403.58	218.26
403.95	218.55
404.33	219.19
404.71	219.43
405.08	220.40
405.46	220.74
405.83	221.02
406.21	221.31
406.58	221.86
406.96	221.98
407.33	222.83
407.70	223.55
408.08	225.67
408.45	226.33
408.83	227.45
409.20	227.95
409.58	227.64
409.95	228.81
410.33	229.90
410.70	230.19
411.08	231.38
411.45	232.90
411.82	233.62
412.20	235.05
412.57	237.55
412.95	237.31
413.32	239.33
413.69	240.90
414.07	242.62
414.44	244.57
414.82	246.76
415.19	248.98
415.56	251.48
415.94	253.10
416.31	256.14
416.68	259.02
417.06	262.48
417.43	265.76
417.81	269.29
418.18	273.17
418.55	277.10
418.93	281.36
419.30	285.29
419.67	290.12
420.04	294.79
420.42	299.36
420.79	306.93
421.16	312.52
421.54	319.57
421.91	326.24
422.28	332.26
422.66	338.93
423.03	347.48
423.40	354.26
423.77	361.19
424.15	368.48
424.52	376.33
424.89	385.38
425.26	393.07
425.64	400.88
426.01	409.00
426.38	418.12
426.75	427.69
427.13	437.48
427.50	447.17
427.87	457.52
428.24	467.69
428.61	476.21
428.99	487.95
429.36	498.90
429.73	510.17
430.10	522.62
430.47	534.60
430.85	545.05
431.22	557.93
431.59	572.98
431.96	586.38
432.33	600.86
432.70	614.71
433.08	631.17
433.45	647.38
433.82	663.26
434.19	680.50
434.56	697.55
434.93	714.14
435.30	730.95
435.68	749.17
436.05	766.74
436.42	784.21
436.79	800.62
437.16	818.29
437.53	837.05
437.90	854.90
438.27	873.00
438.64	892.12
439.01	910.29
439.38	924.71
439.75	939.60
440.13	957.48
440.50	973.62
440.87	987.64
441.24	1000.76
441.61	1016.38
441.98	1027.43
442.35	1040.29
442.72	1053.19
443.09	1066.79
443.46	1074.33
443.83	1080.14
444.20	1085.98
444.57	1091.48
444.94	1094.81
445.31	1098.45
445.68	1104.31
446.05	1106.17
446.42	1104.79
446.79	1103.24
447.16	1101.45
447.53	1100.90
447.90	1094.07
448.27	1087.60
448.64	1078.57
449.01	1073.10
449.37	1061.26
449.74	1050.17
450.11	1038.50
450.48	1023.17
450.85	1007.19
451.22	994.02
451.59	981.71
451.96	969.05
452.33	953.74
452.70	939.52
453.07	921.95
453.43	901.36
453.80	884.38
454.17	867.40
454.54	851.26
454.91	834.67
455.28	817.38
455.65	801.95
456.02	790.12
456.38	777.10
456.75	760.81
457.12	746.74
457.49	733.62
457.86	719.10
458.23	709.17
458.59	696.71
458.96	684.90
459.33	673.79
459.70	663.33
460.07	654.31
460.43	643.50
460.80	634.12
461.17	627.05
461.54	618.69
461.91	611.05
462.27	602.95
462.64	595.69
463.01	588.50
463.38	581.79
463.74	570.81
464.11	563.86
464.48	557.64
464.85	551.33
465.21	546.98
465.58	541.43
465.95	534.50
466.32	529.76
466.68	524.00
467.05	518.76
467.42	513.14
467.78	507.88
468.15	503.21
468.52	499.74
468.88	493.76
469.25	488.95
469.62	485.26
469.98	481.24
470.35	477.50
470.72	473.81
471.08	468.76
471.45	466.00
471.82	463.40
472.18	459.79
472.55	457.36
472.92	453.24
473.28	450.14
473.65	446.88
474.02	443.50
474.38	441.40
474.75	439.21
475.11	436.52
475.48	434.57
475.85	432.50
476.21	430.05
476.58	428.90
476.94	427.60
477.31	426.00
477.67	424.67
478.04	423.50
478.41	422.50
478.77	423.62
479.14	421.95
479.50	421.00
479.87	420.74
480.23	420.74
480.60	420.29
480.96	420.19
481.33	421.05
481.69	421.50
482.06	421.69
482.42	421.86
482.79	422.62
483.15	422.95
483.52	424.21
483.88	424.86
484.25	425.19
484.61	425.86
484.98	426.62
485.34	428.31
485.71	429.74
486.07	431.33
486.44	431.07
486.80	433.24
487.17	434.60
487.53	436.88
487.90	438.67
488.26	442.14
488.62	445.12
488.99	447.19
489.35	449.43
489.72	451.98
490.08	454.64
490.44	457.71
490.81	461.02
491.17	463.79
491.54	467.67
491.90	471.64
492.26	475.14
492.63	479.00
492.99	482.21
493.36	486.45
493.72	490.79
494.08	495.26
494.45	499.81
494.81	505.45
495.17	509.79
495.54	515.31
495.90	519.81
496.26	524.93
496.63	530.26
496.99	535.95
497.35	541.40
497.72	547.57
498.08	553.26
498.44	559.50
498.80	566.71
499.17	572.50
499.53	579.21
499.89	586.19
500.26	593.17
500.62	599.88
500.98	607.00
501.34	614.26
501.71	621.98
502.07	628.93
502.43	635.83
502.79	643.24
503.16	650.07
503.52	657.62
503.88	664.38
504.24	672.64
504.60	680.55
504.97	688.83
505.33	696.43
505.69	704.95
506.05	713.12
506.41	720.48
506.78	728.88
507.14	735.98
507.50	744.40
507.86	752.40
508.22	760.79
508.59	768.17
508.95	776.43
509.31	785.45
509.67	793.62
510.03	801.31
510.39	808.93
510.75	816.81
511.12	824.60
511.48	833.45
511.84	841.26
512.20	849.26
512.56	857.60
512.92	866.31
513.28	874.69
513.64	882.50
514.00	890.24
514.37	897.76
514.73	906.36
515.09	914.05
515.45	921.50
515.81	929.14
516.17	937.12
516.53	943.95
516.89	949.95
517.25	957.21
517.61	965.07
517.97	972.36
518.33	980.02
518.69	987.40
519.05	993.83
519.41	1000.50
519.77	1008.45
520.13	1013.79
520.49	1018.81
520.85	1024.02
521.21	1030.64
521.57	1037.79
521.93	1043.69
522.29	1049.81
522.65	1055.00
523.01	1061.45
523.37	1067.07
523.73	1072.88
524.09	1078.60
524.45	1083.55
524.81	1088.52
525.17	1093.33
525.53	1098.64
525.89	1103.48
526.25	1108.71
526.61	1113.45
526.97	1117.76
527.33	1121.43
527.68	1128.29
528.04	1134.31
528.40	1139.33
528.76	1143.38
529.12	1147.14
529.48	1152.26
529.84	1156.24
530.20	1160.76
530.56	1165.33
530.91	1169.93
531.27	1174.26
531.63	1179.17
531.99	1183.48
532.35	1188.24
532.71	1192.19
533.07	1196.74
533.42	1202.83
533.78	1206.86
534.14	1211.43
534.50	1216.24
534.86	1221.50
535.21	1224.50
535.57	1228.38
535.93	1232.52
536.29	1238.12
536.65	1242.31
537.00	1246.05
537.36	1250.38
537.72	1254.57
538.08	1257.81
538.44	1261.43
538.79	1265.36
539.15	1268.40
539.51	1273.00
539.87	1277.00
540.22	1281.19
540.58	1285.00
540.94	1287.64
541.29	1291.71
541.65	1294.57
542.01	1297.86
542.37	1300.43
542.72	1303.40
543.08	1306.31
543.44	1309.05
543.79	1310.43
544.15	1314.00
544.51	1318.02
544.87	1320.95
545.22	1325.21
545.58	1329.29
545.94	1332.14
546.29	1335.29
546.65	1338.52
547.01	1342.07
547.36	1345.26
547.72	1347.74
548.07	1351.74
548.43	1354.00
548.79	1355.64
549.14	1359.19
549.50	1363.83
549.86	1366.45
550.21	1370.12
550.57	1374.29
550.92	1377.81
551.28	1381.64
551.64	1385.19
551.99	1388.38
552.35	1392.05
552.70	1394.71
553.06	1398.36
553.41	1402.07
553.77	1407.12
554.13	1410.19
554.48	1414.26
554.84	1418.83
555.19	1423.95
555.55	1428.24
555.90	1432.81
556.26	1438.26
556.61	1442.76
556.97	1444.64
557.32	1449.71
557.68	1453.88
558.03	1457.83
558.39	1462.86
558.74	1467.21
559.10	1471.52
559.45	1476.05
559.81	1481.17
560.16	1485.24
560.52	1490.33
560.87	1496.29
561.23	1499.90
561.58	1507.07
561.94	1511.62
562.29	1515.40
562.64	1520.14
563.00	1524.07
563.35	1529.02
563.71	1533.52
564.06	1538.76
564.42	1545.71
564.77	1552.05
565.12	1558.60
565.48	1565.76
565.83	1571.36
566.19	1578.07
566.54	1583.29
566.89	1588.00
567.25	1594.07
567.60	1601.50
567.96	1608.50
568.31	1615.29
568.66	1622.31
569.02	1626.10
569.37	1630.55
569.72	1636.88
570.08	1641.52
570.43	1646.24
570.78	1651.69
571.14	1657.17
571.49	1662.26
571.84	1666.05
572.20	1669.76
572.55	1672.93
572.90	1676.48
573.26	1680.88
573.61	1684.40
573.96	1688.98
574.31	1694.07
574.67	1698.21
575.02	1701.76
575.37	1703.74
575.72	1705.19
576.08	1707.67
576.43	1711.02
576.78	1714.55
577.13	1716.67
577.49	1720.12
577.84	1723.33
578.19	1726.67
578.54	1729.40
578.90	1732.24
579.25	1735.48
579.60	1738.19
579.95	1741.14
580.30	1743.88
580.66	1747.19
581.01	1749.79
581.36	1751.95
581.71	1753.86
582.06	1757.31
582.42	1759.52
582.77	1761.00
583.12	1763.45
583.47	1766.05
583.82	1769.05
584.17	1771.83
584.53	1774.98
584.88	1777.57
585.23	1780.74
585.58	1782.12
585.93	1784.45
586.28	1787.12
586.63	1789.55
586.98	1791.64
587.34	1794.71
587.69	1795.81
588.04	1796.67
588.39	1797.60
588.74	1798.76
589.09	1801.02
589.44	1799.93
589.79	1800.88
590.14	1802.90
590.49	1804.50
590.84	1804.55
591.19	1805.88
591.54	1806.45
591.89	1806.38
592.25	1808.40
592.60	1808.57
592.95	1809.52
593.30	1810.36
593.65	1810.07
594.00	1808.86
594.35	1813.95
594.70	1812.74
595.05	1813.21
595.40	1813.17
595.75	1813.55
596.10	1813.86
596.45	1813.83
596.80	1814.07
597.15	1813.79
597.50	1812.05
597.85	1811.48
598.19	1810.79
598.54	1809.67
598.89	1809.24
599.24	1810.02
599.59	1809.05
599.94	1807.71
600.29	1806.71
600.64	1806.26
600.99	1805.33
601.34	1806.26
601.69	1800.36
602.04	1799.67
602.39	1797.98
602.74	1796.60
603.08	1795.14
603.43	1794.67
603.78	1792.55
604.13	1791.00
604.48	1788.86
604.83	1789.19
605.18	1788.67
605.53	1787.90
605.87	1785.17
606.22	1782.62
606.57	1779.50
606.92	1776.33
607.27	1775.19
607.62	1772.71
607.96	1770.93
608.31	1769.81
608.66	1766.81
609.01	1764.71
609.36	1762.88
609.70	1760.19
610.05	1757.64
610.40	1754.55
610.75	1750.93
611.10	1748.57
611.44	1745.19
611.79	1742.00
612.14	1737.69
612.49	1732.38
612.83	1728.57
613.18	1725.50
613.53	1721.64
613.88	1717.33
614.22	1712.86
614.57	1707.60
614.92	1703.05
615.27	1697.60
615.61	1692.00
615.96	1687.21
616.31	1682.05
616.65	1677.60
617.00	1673.90
617.35	1669.24
617.70	1665.67
618.04	1660.74
618.39	1655.38
618.74	1650.19
619.08	1645.21
619.43	1640.67
619.78	1636.50
620.12	1631.74
620.47	1627.40
620.82	1622.40
621.16	1617.12
621.51	1613.07
621.85	1608.64
622.20	1603.33
622.55	1597.45
622.89	1592.95
623.24	1588.45
623.59	1583.50
623.93	1577.88
624.28	1572.93
624.62	1570.12
624.97	1566.31
625.32	1561.21
625.66	1556.19
626.01	1551.79
626.35	1548.38
626.70	1543.17
627.04	1539.60
627.39	1534.00
627.73	1529.79
628.08	1526.55
628.43	1522.52
628.77	1518.45
629.12	1514.60
629.46	1510.76
629.81	1507.00
630.15	1500.90
630.50	1495.52
630.84	1489.24
631.19	1483.76
631.53	1477.52
631.88	1469.86
632.22	1462.64
632.57	1457.43
632.91	1451.29
633.26	1446.29
633.60	1439.83
633.95	1434.50
634.29	1427.69
634.64	1421.93
634.98	1415.60
635.32	1410.24
635.67	1405.31
636.01	1398.90
636.36	1391.93
636.70	1387.43
637.05	1381.69
637.39	1377.00
637.73	1371.55
638.08	1368.00
638.42	1362.83
638.77	1357.86
639.11	1352.50
639.45	1347.36
639.80	1341.69
640.14	1336.83
640.49	1330.90
640.83	1324.26
641.17	1317.93
641.52	1312.50
641.86	1307.07
642.20	1302.48
642.55	1295.07
642.89	1288.21
643.23	1281.07
643.58	1275.88
643.92	1267.88
644.26	1261.43
644.61	1254.43
644.95	1247.62
645.29	1240.50
645.64	1234.76
645.98	1227.74
646.32	1221.95
646.66	1214.64
647.01	1208.10
647.35	1201.98
647.69	1195.64
648.04	1190.07
648.38	1184.43
648.72	1177.26
649.06	1170.90
649.41	1162.69
649.75	1155.60
650.09	1149.64
650.43	1144.17
650.78	1136.90
651.12	1130.26
651.46	1123.60
651.80	1117.36
652.14	1111.24
652.49	1104.86
652.83	1096.98
653.17	1090.38
653.51	1083.02
653.85	1076.57
654.20	1069.74
654.54	1061.95
654.88	1054.45
655.22	1048.64
655.56	1041.57
655.90	1035.19
656.25	1028.36
656.59	1022.40
656.93	1016.38
657.27	1010.10
657.61	1002.79
657.95	996.19
658.29	990.48
658.64	985.02
658.98	978.29
659.32	971.71
659.66	965.10
660.00	959.43
660.34	952.52
660.68	946.45
661.02	940.45
661.36	934.57
661.70	929.62
662.05	924.29
662.39	917.76
662.73	912.05
663.07	907.26
663.41	901.19
663.75	894.86
664.09	889.14
664.43	882.60
664.77	876.64
665.11	870.79
665.45	864.98
665.79	858.50
666.13	852.93
666.47	846.86
666.81	840.74
667.15	834.74
667.49	830.43
667.83	825.71
668.17	820.14
668.51	814.43
668.85	809.12
669.19	804.71
669.53	798.48
669.87	792.50
670.21	785.95
670.55	781.00
670.89	777.02
671.23	772.17
671.57	767.21
671.91	763.12
672.25	758.64
672.58	754.50
672.92	749.02
673.26	744.57
673.60	740.26
673.94	736.05
674.28	731.50
674.62	726.69
674.96	721.38
675.30	717.12
675.64	712.81
675.97	708.10
676.31	702.38
676.65	697.86
676.99	694.50
677.33	689.83
677.67	685.21
678.01	679.60
678.34	674.86
678.68	671.17
679.02	666.19
679.36	661.26
679.70	655.67
680.04	651.45
680.37	646.86
680.71	641.95
681.05	637.67
681.39	633.24
681.73	628.50
682.06	624.02
682.40	619.69
682.74	615.50
683.08	610.90
683.42	606.45
683.75	602.52
684.09	597.57
684.43	593.50
684.77	589.45
685.10	585.40
685.44	581.57
685.78	576.55
686.12	572.45
686.45	568.69
686.79	564.45
687.13	560.86
687.46	556.88
687.80	553.71
688.14	549.52
688.48	546.10
688.81	542.38
689.15	539.02
689.49	534.95
689.82	531.33
690.16	527.21
690.50	523.45
690.83	519.71
691.17	515.79
691.51	512.05
691.84	508.45
692.18	504.57
692.52	500.83
692.85	498.12
693.19	494.98
693.52	491.71
693.86	488.45
694.20	484.83
694.53	481.43
694.87	477.69
695.21	474.29
695.54	470.33
695.88	466.71
696.21	462.57
696.55	459.38
696.88	455.83
697.22	452.90
697.56	450.45
697.89	447.10
698.23	444.36
698.56	441.43
698.90	438.55
699.23	435.55
699.57	432.64
699.90	429.26
700.24	426.26
700.58	423.12
700.91	420.43
701.25	419.50
701.58	417.31
701.92	415.17
702.25	412.86
702.59	410.55
702.92	408.26
703.26	406.12
703.59	403.98
703.93	403.60
704.26	401.33
704.60	398.71
704.93	396.38
705.26	394.26
705.60	392.26
705.93	389.57
706.27	387.95
706.60	386.45
706.94	385.21
707.27	382.81
707.61	380.98
707.94	379.24
708.27	375.43
708.61	373.02
708.94	371.02
709.28	369.05
709.61	366.83
709.94	365.26
710.28	363.43
710.61	361.38
710.95	357.64
711.28	357.48
711.61	355.76
711.95	354.86
712.28	352.71
712.61	350.83
712.95	350.45
713.28	349.62
713.61	347.60
713.95	345.60
714.28	344.00
714.61	342.17
714.95	340.38
715.28	338.29
715.61	336.43
715.95	335.05
716.28	333.33
716.61	332.48
716.95	330.45
717.28	328.79
717.61	327.14
717.94	325.81
718.28	322.60
718.61	321.26
718.94	319.45
719.27	318.29
719.61	317.05
719.94	314.76
720.27	312.26
720.60	310.60
720.94	308.86
721.27	307.76
721.60	306.90
721.93	305.55
722.27	305.60
722.60	304.83
722.93	303.10
723.26	302.10
723.59	300.57
723.93	300.00
724.26	299.24
724.59	298.38
724.92	297.33
725.25	296.93
725.59	295.81
725.92	295.21
726.25	294.10
726.58	293.14
726.91	292.33
727.24	291.86
727.57	291.00
727.91	289.74
728.24	289.05
728.57	287.76
728.90	287.10
729.23	285.33
729.56	285.60
729.89	285.10
730.22	284.21
730.55	283.50
730.89	282.71
731.22	281.93
731.55	281.00
731.88	280.50
732.21	279.62
732.54	278.86
732.87	277.69
733.20	277.07
733.53	276.19
733.86	275.60
734.19	274.40
734.52	273.95
734.85	275.12
735.18	274.17
735.51	274.14
735.84	273.81
736.17	273.81
736.50	272.10
736.83	273.76
737.16	273.26
737.49	272.62
737.82	271.67
738.15	271.31
738.48	270.93
738.81	269.83
739.14	268.76
739.47	268.17
739.80	267.29
740.13	266.69
740.46	266.14
740.79	265.33
741.12	264.71
741.45	264.00
741.78	262.00
742.11	262.05
742.44	261.12
742.77	260.52
743.10	259.38
743.43	258.57
743.75	255.88
744.08	257.79
744.41	257.14
744.74	256.45
745.07	255.24
745.40	254.88
745.73	255.36
746.06	255.17
746.39	254.71
746.71	254.38
747.04	253.86
747.37	253.36
747.70	253.21
748.03	253.10
748.36	252.88
748.68	252.69
749.01	251.76
749.34	251.40
749.67	251.21
750.00	251.48
750.33	252.43
750.65	252.05
750.98	248.93
751.31	248.67
751.64	248.71
751.97	249.69
752.29	248.95
752.62	247.71
752.95	247.02
753.28	246.55
753.60	245.95
753.93	246.05
754.26	245.83
754.59	244.90
754.91	243.88
755.24	243.31
755.57	242.76
755.90	242.24
756.22	241.71
756.55	240.98
756.88	240.19
757.20	238.43
757.53	237.45
757.86	237.36
758.19	237.24
758.51	236.69
758.84	235.24
759.17	234.81
759.49	234.38
759.82	235.38
760.15	235.31
760.47	235.12
760.80	234.12
761.13	234.07
761.45	233.90
761.78	233.76
762.11	233.81
762.43	233.38
762.76	233.17
763.08	232.88
763.41	233.00
763.74	232.95
764.06	232.86
764.39	232.88
764.71	232.62
765.04	231.83
765.37	231.67
765.69	231.38
766.02	231.29
766.34	231.24
766.67	230.05
767.00	230.00
767.32	230.95
767.65	232.02
767.97	231.76
768.30	231.45
768.62	231.55
768.95	230.86
769.27	230.60
769.60	230.60
769.92	230.36
770.25	229.71
770.57	229.07
770.90	228.79
771.22	228.67
771.55	228.57
771.87	228.86
772.20	228.60
772.52	230.19
772.85	232.31
773.17	232.14
773.50	231.98
773.82	231.67
774.15	230.60
774.47	229.17
774.80	228.67
775.12	228.71
775.45	228.48
775.77	228.62
776.09	228.83
776.42	228.81
776.74	229.19
777.07	228.88
777.39	228.93
777.72	228.93
778.04	228.83
778.36	228.60
778.69	228.40
779.01	228.33
779.33	226.64
779.66	224.43
779.98	224.02
780.31	224.00
780.63	224.45
780.95	224.64
781.28	224.76
781.60	224.74
781.92	224.45
782.25	224.45
782.57	224.17
782.89	223.81
783.22	223.57
783.54	223.10
783.86	223.36
784.19	223.12
784.51	223.62
784.83	223.17
785.16	222.90
785.48	223.00
785.80	222.95
786.12	222.88
786.45	222.62
786.77	222.86
787.09	222.52
787.42	221.74
787.74	221.64
788.06	221.40
788.38	221.17
788.71	220.98
789.03	220.79
789.35	220.83
789.67	220.40
789.99	220.33
790.32	220.17
790.64	220.14
790.96	221.67
791.28	220.67
791.61	220.50
791.93	220.69
792.25	220.40
792.57	221.71
792.89	221.10
793.21	221.24
793.54	220.88
793.86	220.79
794.18	220.98
794.50	220.45
794.82	220.55
795.14	220.74
795.47	221.12
795.79	220.98
796.11	220.79
796.43	220.74
796.75	220.76
797.07	220.71
797.39	220.33
797.71	218.90
798.04	219.36
798.36	219.64
798.68	219.45
799.00	219.55
799.32	218.07
799.64	218.57
799.96	218.45
800.28	218.95
800.60	218.71
800.92	218.64
801.24	218.71
801.56	218.69
801.89	218.24
802.21	218.19
802.53	218.00
802.85	218.33
803.17	219.45
803.49	219.00
803.81	218.64
804.13	218.64
804.45	218.50
804.77	218.40
805.09	218.36
805.41	218.07
805.73	217.60
806.05	217.36
806.37	217.10
806.69	217.12
807.01	216.67
807.33	216.79
807.65	216.14
807.97	216.81
808.28	216.69
808.60	216.67
808.92	216.45
809.24	217.60
809.56	217.36
809.88	216.69
810.20	216.76
810.52	217.31
810.84	217.02
811.16	216.86
811.48	216.76
811.80	217.60
812.12	217.67
812.43	218.02
812.75	218.50
813.07	218.62
813.39	218.40
813.71	218.24
814.03	217.86
814.35	217.98
814.67	217.26
814.98	217.02
815.30	217.26
815.62	216.95
815.94	215.71
816.26	215.48
816.58	214.93
816.89	215.12
817.21	214.88
817.53	215.05
817.85	215.24
818.17	215.00
818.48	213.98
818.80	214.17
819.12	213.86
819.44	213.36
819.76	212.95
820.07	213.05
820.39	213.00
820.71	213.29
821.03	213.43
821.34	213.36
821.66	213.79
821.98	213.71
822.30	213.81
822.61	214.90
822.93	214.88
823.25	214.83
823.57	214.79
823.88	214.83
824.20	215.10
824.52	215.21
824.83	215.31
825.15	215.14
825.47	215.21
825.79	215.45
826.10	215.36
826.42	215.38
826.74	215.55
827.05	215.55
827.37	215.88
827.69	215.64
828.00	215.76
828.32	215.52
828.64	215.50
828.95	216.36
829.27	215.81
829.58	215.71
829.90	215.93
830.22	215.90
830.53	215.60
830.85	215.12
831.17	214.62
831.48	214.67
831.80	214.55
832.11	214.33
832.43	214.07
832.75	214.00
833.06	215.21
833.38	214.74
833.69	214.48
834.01	214.24
834.32	214.33
834.64	214.21
834.96	214.19
835.27	214.10
835.59	213.57
835.90	213.26
836.22	213.38
836.53	212.98
836.85	212.95
837.16	214.93
837.48	215.05
837.79	215.74
838.11	215.64
838.42	215.88
838.74	216.05
839.05	215.83
839.37	215.83
839.68	214.52
840.00	214.55
840.31	214.98
840.63	214.79
840.94	214.64
841.26	214.19
841.57	214.19
841.88	214.33
842.20	214.10
842.51	213.88
842.83	213.83
843.14	215.81
843.46	215.79
843.77	214.79
844.08	214.64
844.40	213.95
844.71	213.88
845.03	213.60
845.34	213.52
845.65	213.60
845.97	213.45
846.28	213.60
846.60	213.38
846.91	213.10
847.22	213.07
847.54	213.48
847.85	213.57
848.16	213.36
848.48	213.00
848.79	213.83
849.10	214.17
849.42	214.12
849.73	212.17
850.04	212.00
850.36	211.29
850.67	211.74
850.98	211.74
851.30	212.02
851.61	212.10
851.92	212.02
852.23	212.88
852.55	213.31
852.86	213.50
853.17	213.90
853.49	214.36
853.80	214.74
854.11	214.79
854.42	215.17
854.74	214.95
855.05	215.19
855.36	214.14
855.67	214.29
855.99	214.48
856.30	217.12
856.61	217.10
856.92	217.12
857.23	217.00
857.55	216.79
857.86	216.90
858.17	217.40
858.48	217.02
858.79	216.24
859.11	216.50
859.42	216.21
859.73	216.00
860.04	215.88
860.35	215.26
860.66	214.81
860.98	214.90
861.29	215.29
861.60	215.00
861.91	215.64
862.22	215.07
862.53	214.69
862.84	212.24
863.16	212.52
863.47	212.14
863.78	211.79
864.09	212.00
864.40	211.98
864.71	211.88
865.02	212.29
865.33	212.21
865.64	211.64
865.95	211.62
866.27	212.86
866.58	212.60
866.89	213.26
867.20	213.07
867.51	212.57
867.82	212.29
868.13	213.00
868.44	212.33
868.75	212.67
869.06	212.79
869.37	213.00
869.68	212.33
869.99	212.62
870.30	213.00
870.61	213.36
870.92	212.79
871.23	212.48
871.54	212.74
871.85	213.14
872.16	213.33
872.47	213.31
872.78	212.07
873.09	212.29
873.40	211.79
873.71	212.17
874.02	212.24
874.33	212.10
874.64	211.62
874.95	212.07
875.26	211.93
875.56	211.88
875.87	211.67
876.18	211.88
876.49	213.90
876.80	213.71
877.11	213.17
877.42	213.36
877.73	213.48
878.04	213.12
878.35	212.95
878.66	213.14
878.96	213.12
879.27	213.10
879.58	212.98
879.89	212.95
880.20	213.14
880.51	213.24
880.82	213.45
881.12	213.88
881.43	213.50
881.74	213.26
882.05	213.26
882.36	213.36
882.67	213.60
882.97	211.33
883.28	211.19
883.59	211.26
883.90	211.26
884.21	211.40
884.51	211.17
884.82	210.90
885.13	210.83
885.44	210.74
885.74	210.71
886.05	210.60
886.36	210.69
886.67	210.10
886.98	211.12
887.28	211.36
887.59	211.05
887.90	210.88
888.20	210.79
888.51	211.33
888.82	211.05
889.13	211.02
889.43	212.55
889.74	212.50
890.05	212.52
890.35	212.57
890.66	212.45
890.97	212.48
891.28	212.33
891.58	212.19
891.89	212.33
892.20	212.14
892.50	211.98
892.81	211.76
893.12	211.81
893.42	210.81
893.73	210.71
894.04	210.76
894.34	210.90
894.65	211.07
894.95	210.62
895.26	211.17
895.57	212.17
895.87	210.38
896.18	210.67
896.48	210.88
896.79	210.76
897.10	211.00
897.40	211.00
897.71	211.38
898.01	211.31
898.32	211.60
898.63	211.76
898.93	212.02
899.24	212.10
899.54	212.21
899.85	212.33
900.15	212.29
900.46	212.29
900.76	212.79
901.07	212.50
901.38	212.69
901.68	212.60
901.99	211.45
902.29	211.76
902.60	211.57
902.90	211.14
903.21	211.05
903.51	210.76
903.82	211.26
904.12	211.10
904.43	211.29
904.73	211.12
905.03	211.12
905.34	212.90
905.64	212.81
905.95	212.76
906.25	212.52
906.56	212.48
906.86	212.52
907.17	212.19
907.47	212.40
907.77	212.29
908.08	212.00
908.38	212.26
908.69	212.40
908.99	212.52
909.30	212.95
909.60	213.10
909.90	213.26
910.21	212.62
910.51	212.57
910.81	212.52
911.12	212.74
911.42	212.55
911.73	210.52
912.03	210.79
912.33	211.24
912.64	211.29
912.94	210.88
913.24	210.40
913.55	210.21
913.85	210.07
914.15	210.21
914.46	210.50
914.76	210.10
915.06	209.90
915.37	209.88
915.67	209.71
915.97	209.62
916.27	209.12
916.58	209.48
916.88	209.31
917.18	209.10
917.49	210.19
917.79	210.40
918.09	210.81
918.39	211.31
918.70	210.98
919.00	210.79
919.30	212.05
919.60	212.12
919.91	211.86
920.21	212.14
920.51	211.76
920.81	211.38
921.12	212.02
921.42	212.14
921.72	212.36
922.02	212.33
922.32	212.86
922.63	213.19
922.93	214.05
923.23	214.26
923.53	213.93
923.83	212.79
924.13	212.95
924.44	212.86
924.74	213.14
925.04	213.48
925.34	213.62
925.64	212.60
925.94	212.76
926.24	214.00
926.55	213.76
926.85	213.88
927.15	214.05
927.45	213.88
927.75	213.74
928.05	213.64
928.35	213.48
928.65	213.81
928.95	213.71
929.26	213.00
929.56	213.45
929.86	213.88
930.16	213.86
930.46	213.83
930.76	214.00
931.06	213.00
931.36	212.88
931.66	213.24
931.96	213.55
932.26	213.43
932.56	212.71
932.86	212.88
933.16	212.83
933.46	212.71
933.76	212.57
934.06	213.52
934.36	213.95
934.66	214.07
934.96	213.74
935.26	214.05
935.56	214.36
935.86	213.62
936.16	213.50
936.46	213.29
936.76	212.83
937.06	212.45
937.36	212.60
937.66	212.71
937.96	212.45
938.26	212.31
938.56	212.24
938.86	212.60
939.16	213.05
939.46	213.60
939.76	213.52
940.06	213.45
940.35	212.38
940.65	211.81
940.95	212.07
941.25	211.55
941.55	211.21
941.85	211.19
942.15	211.88
942.45	212.29
942.75	212.21
943.04	212.48
943.34	212.95
943.64	212.95
943.94	212.48
944.24	212.74
944.54	212.98
944.84	212.95
945.13	212.43
945.43	212.12
945.73	211.93
946.03	211.90
946.33	211.62
946.62	211.71
946.92	211.38
947.22	211.21
947.52	211.33
947.82	211.79
948.11	211.43
948.41	211.02
948.71	210.60
949.01	210.69
949.31	210.57
949.60	210.33
949.90	210.62
950.20	210.57
950.50	210.79
950.79	210.48
951.09	210.74
951.39	210.67
951.69	210.24
951.98	210.48
952.28	210.81
952.58	210.98
952.87	210.93
953.17	211.43
953.47	211.43
953.76	211.31
954.06	210.83
954.36	210.60
954.66	210.40
954.95	211.10
955.25	211.29
955.55	211.52
955.84	211.26
956.14	211.26
956.44	211.29
956.73	210.74
957.03	210.69
957.32	210.71
957.62	210.55
957.92	211.29
958.21	210.95
958.51	213.17
958.81	213.31
959.10	213.50
959.40	213.83
959.69	213.83
959.99	214.10
960.29	214.05
960.58	213.93
960.88	214.88
961.17	214.67
961.47	214.76
961.76	214.50
962.06	215.00
962.36	214.76
962.65	214.76
962.95	214.81
963.24	214.79
963.54	215.05
963.83	215.36
964.13	214.90
964.42	214.62
964.72	212.81
965.01	212.93
965.31	212.74
965.60	212.21
965.90	213.52
966.19	213.24
966.49	213.50
966.78	213.43
967.08	213.26
967.37	213.21
967.67	213.02
967.96	213.26
968.26	213.14
968.55	213.43
968.85	213.45
969.14	213.48
969.43	213.43
969.73	213.07
970.02	212.83
970.32	213.07
970.61	213.07
970.91	212.69
971.20	212.24
971.49	212.29
971.79	212.62
972.08	211.29
972.38	211.29
972.67	211.12
972.96	211.50
973.26	211.02
973.55	211.52
973.85	211.31
974.14	211.29
974.43	211.21
974.73	210.95
975.02	210.83
975.31	210.88
975.61	211.05
975.90	211.02
976.19	211.00
976.49	211.07
976.78	211.19
977.07	211.12
977.37	211.43
977.66	211.36
977.95	211.07
978.24	211.19
978.54	211.64
978.83	211.45
979.12	211.31
979.42	211.21
979.71	210.83
980.00	210.69
980.29	210.74
980.59	210.62
980.88	211.07
981.17	210.95
981.46	210.90
981.76	210.67
982.05	211.21
982.34	211.14
982.63	211.02
982.93	211.05
983.22	211.67
983.51	211.50
983.80	212.14
984.09	212.43
984.39	212.14
984.68	211.79
984.97	211.88
985.26	211.74
985.55	212.10
985.85	211.64
986.14	212.14
986.43	212.31
986.72	211.95
987.01	211.43
987.30	211.62
987.59	211.43
987.89	211.64
988.18	211.00
988.47	210.81
988.76	210.64
989.05	210.24
989.34	209.76
989.63	210.52
989.92	210.24
990.22	209.88
990.51	209.95
990.80	209.95
991.09	210.07
991.38	210.36
991.67	209.90
991.96	209.76
992.25	209.76
992.54	209.36
992.83	209.76
993.12	209.74
993.41	210.17
993.70	211.02
993.99	211.24
994.28	211.52
994.58	211.90
994.87	211.67
995.16	211.71
995.45	211.64
995.74	210.95
996.03	210.90
996.32	211.29
996.61	211.88
996.90	211.98
997.19	212.17
997.48	212.10
997.77	211.81
998.06	211.88
998.34	211.76
998.63	211.86
998.92	211.60
999.21	211.79
999.50	211.60
999.79	210.86
1000.08	210.98
1000.37	210.86
1000.66	210.71
1000.95	211.07
1001.24	211.29
1001.53	211.36
1001.82	211.17
1002.11	210.88
1002.40	211.17
1002.68	211.38
1002.97	212.74
1003.26	212.29
1003.55	212.02
1003.84	212.29
1004.13	213.24
1004.42	213.05
1004.71	212.98
1004.99	213.17
1005.28	213.64
1005.57	213.45
1005.86	213.19
1006.15	213.05
1006.44	212.76
1006.72	213.07
1007.01	212.83
1007.30	212.74
1007.59	212.60
1007.88	212.62
1008.17	212.79
1008.45	212.05
1008.74	211.24
1009.03	210.29
1009.32	210.40
1009.60	210.33
1009.89	210.21
1010.18	209.14
1010.47	209.10
1010.76	209.02
1011.04	208.88
1011.33	208.88
1011.62	209.19
1011.91	209.48
1012.19	209.26
1012.48	209.29
1012.77	209.12
1013.05	210.21
1013.34	210.31
1013.63	210.26
1013.92	210.33
1014.20	209.93
1014.49	210.00
1014.78	210.31
1015.06	209.64
1015.35	209.76
1015.64	210.26
1015.92	210.79
1016.21	211.14
1016.50	211.07
1016.78	211.57
1017.07	211.62
1017.36	211.26
1017.64	210.64
1017.93	210.79
1018.22	210.71
1018.50	210.88
1018.79	210.74
1019.08	209.67
1019.36	209.88
1019.65	209.74
1019.93	210.31
1020.22	211.02
1020.51	212.24
1020.79	211.86
1021.08	206.50
1021.36	209.50
1021.65	207.50
1021.94	208.50
1022.22	212.50
1022.51	208.00
1022.79	219.50
1023.08	217.50
1023.36	235.50
1023.65	205.00
>>>>>End Processed Spectral Data<<<<<
