SpectraSuite Data File
++++++++++++++++++++++++++++++++++++
Date: Tue Apr 02 18:45:39 EDT 2013
User: group
Dark Spectrum Present: No
Reference Spectrum Present: No
Number of Sampled Component Spectra: 1
Spectrometers: USB2E7196
Integration Time (usec): 580000 (USB2E7196)
Spectra Averaged: 2 (USB2E7196)
Boxcar Smoothing: 10 (USB2E7196)
Correct for Electrical Dark: No (USB2E7196)
Strobe/Lamp Enabled: No (USB2E7196)
Correct for Detector Non-linearity: No (USB2E7196)
Correct for Stray Light: No (USB2E7196)
Number of Pixels in Processed Spectrum: 2048
>>>>>Begin Processed Spectral Data<<<<<
339.09	0.00
339.48	191.50
339.86	192.00
340.24	196.50
340.63	195.00
341.01	230.00
341.39	202.50
341.78	205.50
342.16	210.00
342.54	207.00
342.93	197.64
343.31	207.50
343.69	208.14
344.07	208.74
344.46	209.50
344.84	210.29
345.22	209.21
345.60	209.57
345.99	209.95
346.37	209.86
346.75	210.12
347.13	210.29
347.52	210.26
347.90	211.14
348.28	211.14
348.66	211.45
349.05	211.05
349.43	211.50
349.81	211.83
350.19	211.88
350.57	212.07
350.96	212.33
351.34	212.62
351.72	213.02
352.10	213.43
352.48	213.26
352.87	213.26
353.25	213.43
353.63	213.50
354.01	213.48
354.39	213.60
354.77	213.57
355.15	214.17
355.54	214.05
355.92	213.62
356.30	213.86
356.68	215.05
357.06	215.43
357.44	214.98
357.82	214.74
358.20	215.52
358.58	215.38
358.97	215.38
359.35	215.76
359.73	216.10
360.11	215.95
360.49	216.10
360.87	216.12
361.25	216.38
361.63	217.21
362.01	217.26
362.39	217.02
362.77	217.17
363.15	216.88
363.53	217.17
363.91	217.19
364.29	217.14
364.67	215.33
365.05	215.24
365.43	215.76
365.81	216.07
366.19	216.19
366.57	217.02
366.95	216.86
367.33	216.38
367.71	216.19
368.09	216.64
368.47	216.55
368.85	216.45
369.23	216.79
369.61	215.76
369.99	216.26
370.37	216.86
370.75	217.93
371.13	217.50
371.51	217.14
371.89	217.14
372.27	217.36
372.65	217.55
373.03	217.60
373.41	217.14
373.78	217.14
374.16	215.98
374.54	215.19
374.92	214.69
375.30	214.57
375.68	214.07
376.06	213.93
376.44	214.14
376.82	214.19
377.19	214.02
377.57	213.90
377.95	213.26
378.33	212.93
378.71	211.67
379.09	212.26
379.47	212.48
379.84	212.50
380.22	212.24
380.60	211.90
380.98	211.74
381.36	211.71
381.73	211.40
382.11	211.98
382.49	212.05
382.87	212.29
383.25	212.45
383.62	215.17
384.00	214.83
384.38	214.64
384.76	215.10
385.13	215.83
385.51	216.12
385.89	216.02
386.27	216.21
386.64	216.33
387.02	215.71
387.40	215.69
387.78	215.67
388.15	215.69
388.53	215.71
388.91	215.79
389.29	215.55
389.66	215.71
390.04	215.38
390.42	215.69
390.79	215.81
391.17	215.74
391.55	213.36
391.92	213.48
392.30	213.67
392.68	213.14
393.05	212.95
393.43	213.02
393.81	213.14
394.18	212.88
394.56	212.95
394.94	213.67
395.31	213.43
395.69	213.98
396.06	214.33
396.44	214.60
396.82	214.40
397.19	215.81
397.57	215.62
397.95	216.00
398.32	215.64
398.70	215.81
399.07	216.36
399.45	216.31
399.82	216.33
400.20	215.93
400.58	216.10
400.95	215.29
401.33	215.50
401.70	216.95
402.08	217.17
402.45	217.33
402.83	217.64
403.20	217.95
403.58	217.83
403.95	218.14
404.33	218.57
404.71	218.83
405.08	220.05
405.46	220.31
405.83	220.60
406.21	220.90
406.58	221.21
406.96	221.33
407.33	222.00
407.70	222.88
408.08	225.24
408.45	225.98
408.83	227.31
409.20	227.88
409.58	227.38
409.95	228.38
410.33	229.14
410.70	229.45
411.08	230.81
411.45	231.86
411.82	232.71
412.20	234.38
412.57	236.86
412.95	236.17
413.32	238.05
413.69	239.40
414.07	240.93
414.44	242.93
414.82	244.86
415.19	247.19
415.56	249.26
415.94	250.45
416.31	253.40
416.68	255.86
417.06	259.02
417.43	262.36
417.81	265.95
418.18	269.76
418.55	273.57
418.93	277.36
419.30	281.31
419.67	285.71
420.04	289.93
420.42	294.29
420.79	301.45
421.16	306.93
421.54	313.90
421.91	319.76
422.28	325.50
422.66	332.07
423.03	339.86
423.40	346.64
423.77	353.81
424.15	360.62
424.52	368.14
424.89	376.60
425.26	384.29
425.64	391.74
426.01	399.76
426.38	408.45
426.75	417.88
427.13	427.48
427.50	437.12
427.87	446.55
428.24	456.36
428.61	464.55
428.99	475.60
429.36	485.62
429.73	497.36
430.10	509.36
430.47	521.14
430.85	531.12
431.22	543.50
431.59	558.38
431.96	571.10
432.33	585.48
432.70	599.48
433.08	616.17
433.45	631.45
433.82	646.17
434.19	663.67
434.56	680.79
434.93	696.29
435.30	711.76
435.68	729.50
436.05	746.74
436.42	763.55
436.79	779.14
437.16	796.88
437.53	814.81
437.90	832.33
438.27	849.88
438.64	868.38
439.01	885.81
439.38	899.36
439.75	914.14
440.13	930.64
440.50	946.55
440.87	958.10
441.24	972.17
441.61	987.19
441.98	997.43
442.35	1008.52
442.72	1021.81
443.09	1034.52
443.46	1042.40
443.83	1047.45
444.20	1052.19
444.57	1058.21
444.94	1060.52
445.31	1063.76
445.68	1069.17
446.05	1070.45
446.42	1069.24
446.79	1067.76
447.16	1065.45
447.53	1064.90
447.90	1058.40
448.27	1051.74
448.64	1043.81
449.01	1037.43
449.37	1026.21
449.74	1014.81
450.11	1003.76
450.48	988.62
450.85	973.67
451.22	960.21
451.59	948.17
451.96	936.52
452.33	921.05
452.70	907.60
453.07	890.88
453.43	871.26
453.80	854.83
454.17	838.90
454.54	823.19
454.91	807.62
455.28	791.26
455.65	776.76
456.02	764.79
456.38	751.83
456.75	735.67
457.12	722.76
457.49	710.64
457.86	696.57
458.23	686.88
458.59	675.57
458.96	664.00
459.33	653.33
459.70	643.67
460.07	635.52
460.43	626.00
460.80	617.43
461.17	610.50
461.54	602.60
461.91	594.76
462.27	586.79
462.64	579.88
463.01	572.40
463.38	565.95
463.74	555.33
464.11	549.21
464.48	543.48
464.85	537.31
465.21	533.12
465.58	528.17
465.95	521.33
466.32	516.05
466.68	511.05
467.05	506.40
467.42	501.24
467.78	496.10
468.15	491.19
468.52	487.19
468.88	481.29
469.25	476.38
469.62	473.17
469.98	469.14
470.35	465.33
470.72	462.05
471.08	457.24
471.45	454.81
471.82	451.95
472.18	448.55
472.55	446.21
472.92	442.33
473.28	439.38
473.65	436.38
474.02	433.81
474.38	432.12
474.75	429.86
475.11	427.62
475.48	425.64
475.85	423.81
476.21	421.83
476.58	421.00
476.94	420.31
477.31	419.02
477.67	418.00
478.04	417.19
478.41	416.19
478.77	417.40
479.14	416.07
479.50	415.17
479.87	414.98
480.23	414.33
480.60	413.71
480.96	413.55
481.33	414.55
481.69	414.48
482.06	414.48
482.42	415.12
482.79	415.55
483.15	416.05
483.52	417.29
483.88	418.10
484.25	418.36
484.61	419.00
484.98	419.43
485.34	421.36
485.71	422.67
486.07	424.10
486.44	423.64
486.80	425.29
487.17	427.29
487.53	429.67
487.90	431.86
488.26	435.19
488.62	438.33
488.99	440.07
489.35	442.86
489.72	445.29
490.08	447.67
490.44	450.14
490.81	453.29
491.17	455.86
491.54	459.21
491.90	463.02
492.26	466.48
492.63	470.17
492.99	473.36
493.36	477.64
493.72	481.76
494.08	486.36
494.45	491.17
494.81	495.90
495.17	500.17
495.54	504.93
495.90	509.14
496.26	514.02
496.63	519.67
496.99	525.07
497.35	530.98
497.72	536.64
498.08	542.69
498.44	549.10
498.80	555.69
499.17	561.48
499.53	568.07
499.89	574.79
500.26	582.00
500.62	589.07
500.98	595.83
501.34	602.83
501.71	610.55
502.07	617.43
502.43	624.21
502.79	630.98
503.16	638.24
503.52	645.40
503.88	652.12
504.24	659.40
504.60	667.12
504.97	675.14
505.33	682.71
505.69	691.19
506.05	698.69
506.41	706.52
506.78	714.36
507.14	721.48
507.50	729.26
507.86	736.74
508.22	744.64
508.59	752.40
508.95	760.71
509.31	769.05
509.67	776.93
510.03	784.69
510.39	792.17
510.75	800.21
511.12	808.50
511.48	816.57
511.84	824.12
512.20	831.50
512.56	839.14
512.92	847.40
513.28	854.69
513.64	861.52
514.00	869.02
514.37	876.81
514.73	884.45
515.09	892.48
515.45	899.43
515.81	905.98
516.17	912.40
516.53	918.83
516.89	923.71
517.25	930.12
517.61	937.26
517.97	944.48
518.33	950.50
518.69	956.76
519.05	963.21
519.41	969.33
519.77	976.31
520.13	981.83
520.49	987.36
520.85	992.17
521.21	999.76
521.57	1005.31
521.93	1010.21
522.29	1015.45
522.65	1020.05
523.01	1025.88
523.37	1030.98
523.73	1036.38
524.09	1040.81
524.45	1046.02
524.81	1050.38
525.17	1054.71
525.53	1059.07
525.89	1063.60
526.25	1068.26
526.61	1072.38
526.97	1076.76
527.33	1080.24
527.68	1086.14
528.04	1090.60
528.40	1094.60
528.76	1098.10
529.12	1102.64
529.48	1107.12
529.84	1111.45
530.20	1115.10
530.56	1119.31
530.91	1124.29
531.27	1128.31
531.63	1133.24
531.99	1137.33
532.35	1141.83
532.71	1145.83
533.07	1150.79
533.42	1157.62
533.78	1161.86
534.14	1166.19
534.50	1170.26
534.86	1175.10
535.21	1177.43
535.57	1181.52
535.93	1185.81
536.29	1189.76
536.65	1192.93
537.00	1196.79
537.36	1200.45
537.72	1204.31
538.08	1207.64
538.44	1210.26
538.79	1214.31
539.15	1217.17
539.51	1221.24
539.87	1224.36
540.22	1227.31
540.58	1230.57
540.94	1231.95
541.29	1234.36
541.65	1236.50
542.01	1239.81
542.37	1242.00
542.72	1243.74
543.08	1245.76
543.44	1248.83
543.79	1249.02
544.15	1252.29
544.51	1255.71
544.87	1258.14
545.22	1260.81
545.58	1263.10
545.94	1265.14
546.29	1267.81
546.65	1270.14
547.01	1272.45
547.36	1275.64
547.72	1278.40
548.07	1280.64
548.43	1282.76
548.79	1284.69
549.14	1287.62
549.50	1290.17
549.86	1291.67
550.21	1294.50
550.57	1297.60
550.92	1299.81
551.28	1304.60
551.64	1306.90
551.99	1309.10
552.35	1312.12
552.70	1314.74
553.06	1318.24
553.41	1321.67
553.77	1326.12
554.13	1330.00
554.48	1333.86
554.84	1337.62
555.19	1341.95
555.55	1346.74
555.90	1349.83
556.26	1354.38
556.61	1357.62
556.97	1360.69
557.32	1365.31
557.68	1369.14
558.03	1372.60
558.39	1376.29
558.74	1380.48
559.10	1384.05
559.45	1388.21
559.81	1392.55
560.16	1397.48
560.52	1401.81
560.87	1406.74
561.23	1408.45
561.58	1413.86
561.94	1417.36
562.29	1420.50
562.64	1424.38
563.00	1427.12
563.35	1431.86
563.71	1436.76
564.06	1441.74
564.42	1446.88
564.77	1452.31
565.12	1458.83
565.48	1466.21
565.83	1473.14
566.19	1478.57
566.54	1483.62
566.89	1488.50
567.25	1494.31
567.60	1500.60
567.96	1506.90
568.31	1513.71
568.66	1520.71
569.02	1524.74
569.37	1530.07
569.72	1536.74
570.08	1541.36
570.43	1546.83
570.78	1553.00
571.14	1557.26
571.49	1562.71
571.84	1568.95
572.20	1573.79
572.55	1578.69
572.90	1582.17
573.26	1585.50
573.61	1588.83
573.96	1594.86
574.31	1599.60
574.67	1603.52
575.02	1606.14
575.37	1609.00
575.72	1611.33
576.08	1615.00
576.43	1619.26
576.78	1623.05
577.13	1626.14
577.49	1630.48
577.84	1634.74
578.19	1638.12
578.54	1643.62
578.90	1648.24
579.25	1650.79
579.60	1653.95
579.95	1656.05
580.30	1658.76
580.66	1663.45
581.01	1667.86
581.36	1670.67
581.71	1674.48
582.06	1678.33
582.42	1682.45
582.77	1685.62
583.12	1689.07
583.47	1692.45
583.82	1695.57
584.17	1698.79
584.53	1702.79
584.88	1705.71
585.23	1709.05
585.58	1711.31
585.93	1712.48
586.28	1714.90
586.63	1717.67
586.98	1721.24
587.34	1726.10
587.69	1729.81
588.04	1732.24
588.39	1734.86
588.74	1736.33
589.09	1738.38
589.44	1739.64
589.79	1741.71
590.14	1744.02
590.49	1746.24
590.84	1747.76
591.19	1749.74
591.54	1751.69
591.89	1752.95
592.25	1757.02
592.60	1757.57
592.95	1759.14
593.30	1762.07
593.65	1762.67
594.00	1764.29
594.35	1771.19
594.70	1771.10
595.05	1772.02
595.40	1772.10
595.75	1772.40
596.10	1774.10
596.45	1775.52
596.80	1776.71
597.15	1778.50
597.50	1779.29
597.85	1780.14
598.19	1780.40
598.54	1781.12
598.89	1781.88
599.24	1782.93
599.59	1781.24
599.94	1781.83
600.29	1783.07
600.64	1782.69
600.99	1783.12
601.34	1783.67
601.69	1777.57
602.04	1776.86
602.39	1776.10
602.74	1777.48
603.08	1777.86
603.43	1778.33
603.78	1776.60
604.13	1775.48
604.48	1774.00
604.83	1774.12
605.18	1773.21
605.53	1773.74
605.87	1771.88
606.22	1771.26
606.57	1769.95
606.92	1768.60
607.27	1767.74
607.62	1767.02
607.96	1766.43
608.31	1766.38
608.66	1765.57
609.01	1764.40
609.36	1763.95
609.70	1762.79
610.05	1760.29
610.40	1758.64
610.75	1755.90
611.10	1755.69
611.44	1753.29
611.79	1751.88
612.14	1749.26
612.49	1745.88
612.83	1742.79
613.18	1741.36
613.53	1738.36
613.88	1735.19
614.22	1732.88
614.57	1729.33
614.92	1725.10
615.27	1721.17
615.61	1716.45
615.96	1712.24
616.31	1709.38
616.65	1707.88
617.00	1705.38
617.35	1702.71
617.70	1699.29
618.04	1696.10
618.39	1692.07
618.74	1690.17
619.08	1685.02
619.43	1680.74
619.78	1678.50
620.12	1675.93
620.47	1672.24
620.82	1668.36
621.16	1663.88
621.51	1661.31
621.85	1658.05
622.20	1654.00
622.55	1649.76
622.89	1646.90
623.24	1643.33
623.59	1638.81
623.93	1633.86
624.28	1629.10
624.62	1626.50
624.97	1623.26
625.32	1619.60
625.66	1616.14
626.01	1612.05
626.35	1610.14
626.70	1607.29
627.04	1603.67
627.39	1597.86
627.73	1594.57
628.08	1591.57
628.43	1588.57
628.77	1584.00
629.12	1580.64
629.46	1577.90
629.81	1574.95
630.15	1569.90
630.50	1565.29
630.84	1561.07
631.19	1555.95
631.53	1551.86
631.88	1544.14
632.22	1538.36
632.57	1534.50
632.91	1528.62
633.26	1524.40
633.60	1518.74
633.95	1513.33
634.29	1508.00
634.64	1504.81
634.98	1500.00
635.32	1495.88
635.67	1491.93
636.01	1487.57
636.36	1482.67
636.70	1478.88
637.05	1473.40
637.39	1469.36
637.73	1465.43
638.08	1461.90
638.42	1457.19
638.77	1452.81
639.11	1449.33
639.45	1444.40
639.80	1438.31
640.14	1434.50
640.49	1429.40
640.83	1424.17
641.17	1420.07
641.52	1415.33
641.86	1409.10
642.20	1405.24
642.55	1400.10
642.89	1393.86
643.23	1387.93
643.58	1382.88
643.92	1376.38
644.26	1371.43
644.61	1366.57
644.95	1361.50
645.29	1354.67
645.64	1349.88
645.98	1343.48
646.32	1338.19
646.66	1332.21
647.01	1326.62
647.35	1320.90
647.69	1315.02
648.04	1310.60
648.38	1304.90
648.72	1299.98
649.06	1294.76
649.41	1287.40
649.75	1280.55
650.09	1275.00
650.43	1268.62
650.78	1262.10
651.12	1255.26
651.46	1249.14
651.80	1242.40
652.14	1235.76
652.49	1230.90
652.83	1224.64
653.17	1218.50
653.51	1212.36
653.85	1207.64
654.20	1201.40
654.54	1194.81
654.88	1188.81
655.22	1182.26
655.56	1175.29
655.90	1168.29
656.25	1162.26
656.59	1155.98
656.93	1149.45
657.27	1144.10
657.61	1138.71
657.95	1133.48
658.29	1127.88
658.64	1122.88
658.98	1117.76
659.32	1111.14
659.66	1104.31
660.00	1097.62
660.34	1092.05
660.68	1085.90
661.02	1079.38
661.36	1074.14
661.70	1068.52
662.05	1061.93
662.39	1056.21
662.73	1051.26
663.07	1046.10
663.41	1040.12
663.75	1034.24
664.09	1028.86
664.43	1022.55
664.77	1016.38
665.11	1010.17
665.45	1004.00
665.79	997.38
666.13	990.90
666.47	985.67
666.81	979.98
667.15	974.45
667.49	969.02
667.83	963.55
668.17	957.57
668.51	951.57
668.85	946.17
669.19	941.95
669.53	936.12
669.87	929.74
670.21	923.74
670.55	918.33
670.89	914.10
671.23	908.88
671.57	903.36
671.91	897.76
672.25	891.69
672.58	887.74
672.92	882.19
673.26	876.57
673.60	871.45
673.94	866.45
674.28	861.31
674.62	856.07
674.96	850.57
675.30	845.86
675.64	840.21
675.97	834.93
676.31	829.62
676.65	823.67
676.99	819.79
677.33	814.43
677.67	809.50
678.01	803.10
678.34	798.31
678.68	793.64
679.02	788.93
679.36	784.10
679.70	777.95
680.04	773.19
680.37	768.50
680.71	763.07
681.05	758.29
681.39	753.55
681.73	748.83
682.06	744.14
682.40	739.31
682.74	734.90
683.08	730.31
683.42	724.83
683.75	720.57
684.09	714.93
684.43	710.67
684.77	705.43
685.10	701.10
685.44	696.24
685.78	691.02
686.12	686.10
686.45	681.90
686.79	677.67
687.13	673.55
687.46	669.40
687.80	665.43
688.14	660.43
688.48	656.02
688.81	651.43
689.15	648.12
689.49	643.83
689.82	640.10
690.16	634.95
690.50	630.74
690.83	626.07
691.17	621.79
691.51	616.86
691.84	613.52
692.18	609.57
692.52	605.12
692.85	601.71
693.19	598.45
693.52	594.17
693.86	589.83
694.20	585.24
694.53	580.62
694.87	576.33
695.21	572.12
695.54	567.88
695.88	563.81
696.21	558.05
696.55	554.19
696.88	550.19
697.22	546.76
697.56	543.24
697.89	539.81
698.23	536.00
698.56	532.60
698.90	528.26
699.23	524.24
699.57	520.69
699.90	516.50
700.24	512.45
700.58	508.98
700.91	506.02
701.25	504.52
701.58	501.88
701.92	499.40
702.25	496.48
702.59	493.17
702.92	489.67
703.26	487.10
703.59	483.50
703.93	481.98
704.26	479.19
704.60	476.07
704.93	472.62
705.26	469.50
705.60	466.81
705.93	463.69
706.27	461.31
706.60	458.48
706.94	456.67
707.27	453.52
707.61	450.74
707.94	447.62
708.27	443.19
708.61	440.12
708.94	436.90
709.28	434.31
709.61	431.40
709.94	429.19
710.28	426.55
710.61	424.24
710.95	419.74
711.28	418.17
711.61	415.81
711.95	413.71
712.28	411.45
712.61	408.74
712.95	407.79
713.28	406.07
713.61	403.50
713.95	400.79
714.28	398.90
714.61	396.79
714.95	394.90
715.28	392.10
715.61	389.50
715.95	387.52
716.28	385.31
716.61	383.69
716.95	381.31
717.28	379.26
717.61	377.24
717.94	375.26
718.28	371.81
718.61	369.83
718.94	367.83
719.27	365.67
719.61	363.83
719.94	360.98
720.27	358.19
720.60	356.26
720.94	354.14
721.27	352.43
721.60	350.95
721.93	348.57
722.27	347.95
722.60	346.74
722.93	344.45
723.26	343.19
723.59	341.24
723.93	339.71
724.26	338.45
724.59	337.07
724.92	335.79
725.25	335.05
725.59	333.55
725.92	332.19
726.25	330.86
726.58	329.79
726.91	328.62
727.24	327.50
727.57	326.60
727.91	325.12
728.24	323.74
728.57	322.26
728.90	321.69
729.23	319.67
729.56	319.24
729.89	318.19
730.22	316.67
730.55	315.45
730.89	314.24
731.22	312.88
731.55	311.57
731.88	310.31
732.21	308.93
732.54	307.24
732.87	306.43
733.20	305.57
733.53	304.38
733.86	303.50
734.19	302.14
734.52	301.00
734.85	301.36
735.18	300.33
735.51	299.74
735.84	298.55
736.17	298.24
736.50	296.33
736.83	297.64
737.16	296.86
737.49	296.45
737.82	295.69
738.15	294.95
738.48	293.95
738.81	293.02
739.14	291.81
739.47	291.02
739.80	290.07
740.13	289.21
740.46	288.12
740.79	286.60
741.12	285.81
741.45	284.86
741.78	282.93
742.11	282.60
742.44	281.36
742.77	281.12
743.10	280.10
743.43	279.31
743.75	276.55
744.08	278.31
744.41	277.24
744.74	276.05
745.07	274.74
745.40	274.57
745.73	274.67
746.06	274.26
746.39	273.98
746.71	272.98
747.04	271.98
747.37	271.24
747.70	271.21
748.03	270.76
748.36	270.29
748.68	269.62
749.01	268.33
749.34	267.74
749.67	266.98
750.00	266.55
750.33	267.69
750.65	267.31
750.98	264.24
751.31	263.79
751.64	263.36
751.97	264.33
752.29	263.31
752.62	261.90
752.95	261.19
753.28	260.33
753.60	259.64
753.93	259.88
754.26	259.60
754.59	258.29
754.91	257.29
755.24	256.62
755.57	256.05
755.90	255.45
756.22	254.76
756.55	253.71
756.88	252.64
757.20	250.62
757.53	249.52
757.86	249.10
758.19	248.67
758.51	248.31
758.84	246.62
759.17	246.24
759.49	245.90
759.82	246.38
760.15	246.05
760.47	245.76
760.80	244.62
761.13	244.52
761.45	244.21
761.78	244.02
762.11	243.81
762.43	243.29
762.76	243.05
763.08	242.95
763.41	242.88
763.74	243.02
764.06	242.45
764.39	242.24
764.71	241.55
765.04	240.71
765.37	240.38
765.69	239.90
766.02	239.38
766.34	239.05
766.67	237.98
767.00	238.19
767.32	239.05
767.65	240.12
767.97	239.36
768.30	239.21
768.62	238.79
768.95	238.26
769.27	238.07
769.60	237.93
769.92	237.33
770.25	236.62
770.57	235.60
770.90	235.45
771.22	235.12
771.55	235.02
771.87	234.69
772.20	234.36
772.52	235.86
772.85	238.19
773.17	238.14
773.50	237.86
773.82	237.07
774.15	235.52
774.47	233.88
774.80	233.45
775.12	233.19
775.45	232.98
775.77	232.88
776.09	232.90
776.42	232.67
776.74	233.02
777.07	232.64
777.39	232.76
777.72	232.19
778.04	232.12
778.36	231.60
778.69	231.69
779.01	231.62
779.33	229.86
779.66	227.24
779.98	226.50
780.31	226.14
780.63	226.98
780.95	227.36
781.28	227.24
781.60	227.00
781.92	226.76
782.25	226.60
782.57	226.45
782.89	225.81
783.22	225.43
783.54	224.64
783.86	224.95
784.19	224.67
784.51	225.19
784.83	224.81
785.16	224.90
785.48	224.98
785.80	224.93
786.12	225.07
786.45	225.00
786.77	225.19
787.09	225.12
787.42	223.83
787.74	223.71
788.06	223.57
788.38	223.52
788.71	223.26
789.03	223.05
789.35	223.17
789.67	223.14
789.99	223.36
790.32	223.21
790.64	223.02
790.96	224.67
791.28	223.88
791.61	223.69
791.93	223.50
792.25	223.38
792.57	224.64
792.89	224.02
793.21	224.12
793.54	223.93
793.86	223.60
794.18	223.98
794.50	223.64
794.82	223.48
795.14	223.57
795.47	224.00
795.79	224.02
796.11	223.36
796.43	223.17
796.75	222.95
797.07	223.07
797.39	223.14
797.71	221.57
798.04	221.88
798.36	221.90
798.68	221.64
799.00	221.69
799.32	220.38
799.64	221.00
799.96	220.79
800.28	221.00
800.60	220.95
800.92	220.81
801.24	220.43
801.56	220.60
801.89	220.55
802.21	220.62
802.53	220.43
802.85	220.88
803.17	221.86
803.49	221.57
803.81	221.55
804.13	221.14
804.45	220.79
804.77	220.74
805.09	220.88
805.41	220.83
805.73	220.36
806.05	220.19
806.37	219.62
806.69	219.26
807.01	219.00
807.33	219.19
807.65	218.60
807.97	219.62
808.28	219.26
808.60	219.21
808.92	218.79
809.24	219.98
809.56	219.67
809.88	218.83
810.20	218.93
810.52	219.14
810.84	219.07
811.16	218.95
811.48	218.69
811.80	219.12
812.12	219.19
812.43	219.38
812.75	219.55
813.07	219.31
813.39	219.57
813.71	219.38
814.03	218.95
814.35	218.90
814.67	218.12
814.98	218.00
815.30	217.48
815.62	217.07
815.94	215.67
816.26	215.76
816.58	215.48
816.89	215.52
817.21	215.02
817.53	214.95
817.85	214.93
818.17	215.07
818.48	214.26
818.80	214.71
819.12	214.57
819.44	214.07
819.76	213.88
820.07	213.93
820.39	213.98
820.71	214.38
821.03	214.38
821.34	214.02
821.66	214.50
821.98	214.88
822.30	214.86
822.61	216.24
822.93	215.93
823.25	215.67
823.57	215.29
823.88	215.57
824.20	215.52
824.52	216.02
824.83	215.67
825.15	215.43
825.47	215.31
825.79	215.45
826.10	215.10
826.42	215.24
826.74	215.55
827.05	215.40
827.37	215.29
827.69	215.36
828.00	215.52
828.32	215.36
828.64	215.19
828.95	216.21
829.27	215.60
829.58	215.57
829.90	215.93
830.22	216.33
830.53	215.81
830.85	215.86
831.17	215.26
831.48	215.14
831.80	215.31
832.11	215.21
832.43	214.90
832.75	214.98
833.06	215.95
833.38	214.83
833.69	214.60
834.01	214.64
834.32	214.43
834.64	214.24
834.96	214.36
835.27	214.43
835.59	213.90
835.90	213.33
836.22	213.31
836.53	213.02
836.85	212.86
837.16	214.88
837.48	214.74
837.79	215.43
838.11	215.67
838.42	215.88
838.74	215.81
839.05	215.67
839.37	215.71
839.68	214.64
840.00	214.86
840.31	215.26
840.63	214.98
840.94	214.83
841.26	214.71
841.57	214.43
841.88	214.71
842.20	214.33
842.51	214.14
842.83	214.29
843.14	215.93
843.46	215.71
843.77	214.71
844.08	214.86
844.40	214.24
844.71	214.17
845.03	213.79
845.34	213.86
845.65	213.95
845.97	214.00
846.28	213.88
846.60	213.98
846.91	213.57
847.22	213.71
847.54	214.31
847.85	214.43
848.16	214.48
848.48	213.88
848.79	214.69
849.10	215.05
849.42	215.24
849.73	213.64
850.04	213.69
850.36	212.90
850.67	213.19
850.98	213.19
851.30	213.26
851.61	213.36
851.92	213.33
852.23	213.64
852.55	213.69
852.86	213.79
853.17	214.07
853.49	214.71
853.80	215.14
854.11	215.45
854.42	215.67
854.74	215.36
855.05	215.45
855.36	214.21
855.67	214.12
855.99	213.95
856.30	216.10
856.61	216.02
856.92	216.36
857.23	216.10
857.55	215.90
857.86	215.83
858.17	216.17
858.48	215.69
858.79	215.33
859.11	215.48
859.42	215.33
859.73	215.07
860.04	214.93
860.35	214.36
860.66	213.55
860.98	213.60
861.29	214.02
861.60	213.88
861.91	214.40
862.22	214.14
862.53	213.86
862.84	211.67
863.16	212.26
863.47	211.67
863.78	211.64
864.09	211.90
864.40	212.12
864.71	212.05
865.02	212.43
865.33	212.31
865.64	211.93
865.95	211.98
866.27	213.24
866.58	213.00
866.89	213.12
867.20	213.12
867.51	212.76
867.82	212.33
868.13	213.17
868.44	212.86
868.75	213.29
869.06	213.24
869.37	213.57
869.68	212.90
869.99	213.43
870.30	213.52
870.61	213.79
870.92	213.52
871.23	213.43
871.54	213.45
871.85	213.86
872.16	214.33
872.47	214.33
872.78	212.98
873.09	213.14
873.40	212.95
873.71	213.14
874.02	213.07
874.33	213.00
874.64	212.55
874.95	213.05
875.26	212.40
875.56	212.40
875.87	212.07
876.18	212.02
876.49	213.88
876.80	213.62
877.11	213.21
877.42	213.26
877.73	213.45
878.04	213.19
878.35	213.19
878.66	213.24
878.96	213.10
879.27	213.17
879.58	213.17
879.89	213.24
880.20	213.74
880.51	213.69
880.82	213.95
881.12	213.86
881.43	213.19
881.74	213.21
882.05	213.36
882.36	213.74
882.67	213.95
882.97	211.81
883.28	211.76
883.59	211.71
883.90	212.00
884.21	212.14
884.51	212.10
884.82	211.74
885.13	211.43
885.44	211.38
885.74	211.43
886.05	211.45
886.36	211.36
886.67	210.50
886.98	211.55
887.28	211.52
887.59	211.50
887.90	211.79
888.20	211.81
888.51	212.19
888.82	211.60
889.13	211.76
889.43	213.60
889.74	213.43
890.05	213.36
890.35	212.86
890.66	212.64
890.97	212.43
891.28	212.43
891.58	212.81
891.89	213.12
892.20	213.02
892.50	212.62
892.81	212.71
893.12	212.90
893.42	212.02
893.73	212.29
894.04	212.43
894.34	212.50
894.65	212.45
894.95	212.05
895.26	212.17
895.57	213.10
895.87	211.05
896.18	211.33
896.48	211.64
896.79	211.79
897.10	211.86
897.40	212.00
897.71	212.19
898.01	212.07
898.32	211.93
898.63	211.90
898.93	212.07
899.24	211.93
899.54	211.79
899.85	211.74
900.15	211.40
900.46	211.29
900.76	211.62
901.07	211.76
901.38	211.90
901.68	212.24
901.99	210.83
902.29	210.98
902.60	210.83
902.90	210.67
903.21	210.81
903.51	210.64
903.82	211.24
904.12	211.38
904.43	211.14
904.73	211.29
905.03	211.33
905.34	213.29
905.64	213.40
905.95	213.45
906.25	213.48
906.56	213.60
906.86	213.69
907.17	213.29
907.47	213.21
907.77	212.90
908.08	212.52
908.38	212.90
908.69	213.17
908.99	213.69
909.30	213.71
909.60	213.79
909.90	213.93
910.21	213.14
910.51	212.71
910.81	212.81
911.12	212.81
911.42	212.90
911.73	210.90
912.03	210.86
912.33	211.38
912.64	211.43
912.94	211.21
913.24	210.98
913.55	210.90
913.85	210.67
914.15	211.31
914.46	211.50
914.76	211.26
915.06	211.10
915.37	210.81
915.67	210.71
915.97	210.52
916.27	210.00
916.58	210.36
916.88	210.45
917.18	210.29
917.49	211.81
917.79	211.76
918.09	211.86
918.39	212.31
918.70	212.12
919.00	212.00
919.30	213.12
919.60	212.98
919.91	212.88
920.21	213.19
920.51	212.60
920.81	212.57
921.12	212.93
921.42	212.83
921.72	212.90
922.02	213.21
922.32	213.50
922.63	213.52
922.93	214.55
923.23	214.62
923.53	214.48
923.83	213.07
924.13	213.02
924.44	212.98
924.74	213.38
925.04	213.76
925.34	213.81
925.64	212.95
925.94	213.05
926.24	214.07
926.55	213.98
926.85	214.50
927.15	214.40
927.45	214.57
927.75	214.33
928.05	214.38
928.35	213.95
928.65	214.24
928.95	214.55
929.26	213.60
929.56	213.93
929.86	214.26
930.16	214.36
930.46	214.19
930.76	214.24
931.06	213.31
931.36	212.74
931.66	213.07
931.96	212.98
932.26	212.93
932.56	212.07
932.86	212.17
933.16	211.98
933.46	211.79
933.76	211.14
934.06	212.00
934.36	212.57
934.66	212.50
934.96	212.21
935.26	212.45
935.56	212.62
935.86	211.98
936.16	211.74
936.46	211.40
936.76	211.52
937.06	211.33
937.36	211.48
937.66	211.55
937.96	211.33
938.26	211.02
938.56	211.02
938.86	211.31
939.16	211.74
939.46	211.76
939.76	211.93
940.06	212.02
940.35	211.43
940.65	210.52
940.95	210.74
941.25	210.33
941.55	210.05
941.85	209.93
942.15	210.69
942.45	211.29
942.75	211.14
943.04	211.21
943.34	211.57
943.64	211.36
943.94	211.07
944.24	211.24
944.54	211.52
944.84	211.43
945.13	211.12
945.43	210.64
945.73	210.81
946.03	210.74
946.33	210.60
946.62	210.33
946.92	210.31
947.22	210.40
947.52	210.62
947.82	210.76
948.11	210.52
948.41	209.98
948.71	209.36
949.01	209.55
949.31	209.36
949.60	209.19
949.90	209.67
950.20	209.76
950.50	209.62
950.79	209.43
951.09	209.90
951.39	210.07
951.69	209.81
951.98	210.05
952.28	210.24
952.58	210.26
952.87	210.52
953.17	210.86
953.47	210.74
953.76	210.76
954.06	210.60
954.36	210.60
954.66	210.45
954.95	211.10
955.25	211.29
955.55	211.48
955.84	211.17
956.14	211.12
956.44	211.21
956.73	210.95
957.03	211.05
957.32	210.74
957.62	210.40
957.92	210.95
958.21	210.64
958.51	212.90
958.81	213.24
959.10	213.48
959.40	213.67
959.69	213.62
959.99	213.79
960.29	213.79
960.58	213.67
960.88	214.52
961.17	214.24
961.47	214.17
961.76	214.17
962.06	214.67
962.36	214.36
962.65	214.40
962.95	214.45
963.24	214.38
963.54	214.71
963.83	214.95
964.13	214.71
964.42	214.40
964.72	212.81
965.01	212.86
965.31	212.43
965.60	212.05
965.90	213.48
966.19	212.95
966.49	213.00
966.78	213.02
967.08	212.86
967.37	212.76
967.67	212.69
967.96	212.86
968.26	212.64
968.55	213.07
968.85	213.12
969.14	213.24
969.43	213.19
969.73	212.81
970.02	212.71
970.32	212.64
970.61	212.33
970.91	211.60
971.20	211.26
971.49	211.14
971.79	211.38
972.08	209.90
972.38	210.05
972.67	210.02
972.96	210.29
973.26	209.86
973.55	210.48
973.85	210.43
974.14	210.14
974.43	210.50
974.73	210.07
975.02	209.88
975.31	209.74
975.61	209.69
975.90	209.57
976.19	209.31
976.49	209.62
976.78	210.10
977.07	210.33
977.37	210.40
977.66	210.71
977.95	210.36
978.24	210.48
978.54	210.88
978.83	210.57
979.12	210.55
979.42	210.55
979.71	210.14
980.00	209.83
980.29	210.14
980.59	209.45
980.88	209.86
981.17	209.88
981.46	209.86
981.76	209.90
982.05	210.64
982.34	210.71
982.63	210.64
982.93	210.55
983.22	210.83
983.51	210.86
983.80	211.00
984.09	211.31
984.39	211.31
984.68	211.12
984.97	211.40
985.26	211.12
985.55	211.43
985.85	211.02
986.14	211.64
986.43	211.71
986.72	211.71
987.01	211.19
987.30	211.02
987.59	210.95
987.89	211.02
988.18	210.36
988.47	210.43
988.76	210.17
989.05	209.88
989.34	209.52
989.63	210.43
989.92	209.86
990.22	209.50
990.51	209.21
990.80	209.10
991.09	209.14
991.38	209.21
991.67	208.74
991.96	208.69
992.25	208.64
992.54	208.14
992.83	208.31
993.12	208.45
993.41	209.00
993.70	209.83
993.99	210.14
994.28	210.36
994.58	210.62
994.87	210.50
995.16	210.64
995.45	210.57
995.74	209.40
996.03	210.19
996.32	210.55
996.61	211.19
996.90	211.05
997.19	211.02
997.48	211.29
997.77	211.21
998.06	211.36
998.34	210.98
998.63	211.17
998.92	211.21
999.21	211.31
999.50	211.21
999.79	210.62
1000.08	210.67
1000.37	210.76
1000.66	210.52
1000.95	211.00
1001.24	211.07
1001.53	211.31
1001.82	211.60
1002.11	210.98
1002.40	211.02
1002.68	211.36
1002.97	212.95
1003.26	212.79
1003.55	212.43
1003.84	212.64
1004.13	213.36
1004.42	213.45
1004.71	213.52
1004.99	213.31
1005.28	214.05
1005.57	213.95
1005.86	213.90
1006.15	213.69
1006.44	213.67
1006.72	214.14
1007.01	213.98
1007.30	213.95
1007.59	213.83
1007.88	213.79
1008.17	214.02
1008.45	213.86
1008.74	213.14
1009.03	212.12
1009.32	212.10
1009.60	212.07
1009.89	211.93
1010.18	210.86
1010.47	210.81
1010.76	210.67
1011.04	210.86
1011.33	210.83
1011.62	211.00
1011.91	211.05
1012.19	211.02
1012.48	210.88
1012.77	210.38
1013.05	211.07
1013.34	211.07
1013.63	211.07
1013.92	211.31
1014.20	211.05
1014.49	211.05
1014.78	211.33
1015.06	210.74
1015.35	210.69
1015.64	211.05
1015.92	211.43
1016.21	211.93
1016.50	211.95
1016.78	212.26
1017.07	212.24
1017.36	211.60
1017.64	211.14
1017.93	211.33
1018.22	211.14
1018.50	211.00
1018.79	211.26
1019.08	210.67
1019.36	210.67
1019.65	210.31
1019.93	210.88
1020.22	211.14
1020.51	212.19
1020.79	211.74
1021.08	206.00
1021.36	206.50
1021.65	212.50
1021.94	214.50
1022.22	209.50
1022.51	206.00
1022.79	225.50
1023.08	210.50
1023.36	234.00
1023.65	205.00
>>>>>End Processed Spectral Data<<<<<
