SpectraSuite Data File
++++++++++++++++++++++++++++++++++++
Date: Tue Apr 02 18:38:11 EDT 2013
User: group
Dark Spectrum Present: No
Reference Spectrum Present: No
Number of Sampled Component Spectra: 1
Spectrometers: USB2E7196
Integration Time (usec): 580000 (USB2E7196)
Spectra Averaged: 2 (USB2E7196)
Boxcar Smoothing: 10 (USB2E7196)
Correct for Electrical Dark: No (USB2E7196)
Strobe/Lamp Enabled: No (USB2E7196)
Correct for Detector Non-linearity: No (USB2E7196)
Correct for Stray Light: No (USB2E7196)
Number of Pixels in Processed Spectrum: 2048
>>>>>Begin Processed Spectral Data<<<<<
339.09	0.00
339.48	191.50
339.86	196.00
340.24	196.00
340.63	195.50
341.01	233.50
341.39	202.00
341.78	212.00
342.16	213.00
342.54	205.00
342.93	199.50
343.31	209.40
343.69	210.29
344.07	210.93
344.46	211.71
344.84	212.26
345.22	211.19
345.60	211.67
345.99	211.64
346.37	211.62
346.75	211.93
347.13	211.79
347.52	211.79
347.90	212.62
348.28	212.67
348.66	213.14
349.05	212.52
349.43	213.02
349.81	212.93
350.19	212.83
350.57	212.81
350.96	212.86
351.34	213.14
351.72	213.17
352.10	213.19
352.48	212.93
352.87	213.12
353.25	213.14
353.63	213.26
354.01	212.98
354.39	212.90
354.77	212.76
355.15	213.40
355.54	213.10
355.92	212.40
356.30	212.64
356.68	213.60
357.06	213.57
357.44	213.05
357.82	213.05
358.20	213.88
358.58	213.95
358.97	213.90
359.35	214.17
359.73	214.48
360.11	214.48
360.49	214.83
360.87	214.79
361.25	214.83
361.63	215.48
362.01	215.88
362.39	215.83
362.77	215.98
363.15	215.50
363.53	215.45
363.91	215.29
364.29	215.02
364.67	213.05
365.05	213.07
365.43	213.40
365.81	213.45
366.19	213.48
366.57	214.07
366.95	214.05
367.33	213.50
367.71	213.38
368.09	213.76
368.47	213.69
368.85	213.52
369.23	214.00
369.61	212.95
369.99	213.43
370.37	213.76
370.75	214.81
371.13	214.71
371.51	214.60
371.89	214.95
372.27	215.10
372.65	215.45
373.03	215.57
373.41	215.26
373.78	215.24
374.16	214.24
374.54	213.74
374.92	213.50
375.30	213.62
375.68	213.00
376.06	213.00
376.44	212.93
376.82	213.17
377.19	213.05
377.57	213.14
377.95	212.38
378.33	212.29
378.71	210.95
379.09	211.17
379.47	211.60
379.84	211.48
380.22	211.26
380.60	210.98
380.98	211.05
381.36	210.81
381.73	210.50
382.11	211.05
382.49	211.14
382.87	211.00
383.25	211.02
383.62	213.62
384.00	213.26
384.38	213.19
384.76	213.69
385.13	214.36
385.51	214.33
385.89	214.19
386.27	214.21
386.64	214.74
387.02	214.52
387.40	214.31
387.78	214.43
388.15	214.79
388.53	214.64
388.91	214.64
389.29	214.81
389.66	215.60
390.04	215.24
390.42	215.67
390.79	215.88
391.17	215.93
391.55	213.83
391.92	213.93
392.30	214.36
392.68	213.90
393.05	213.86
393.43	214.14
393.81	214.64
394.18	214.50
394.56	214.43
394.94	215.02
395.31	214.93
395.69	215.69
396.06	215.81
396.44	216.24
396.82	215.93
397.19	217.12
397.57	216.74
397.95	217.40
398.32	216.81
398.70	217.10
399.07	217.57
399.45	217.48
399.82	217.29
400.20	217.10
400.58	217.05
400.95	216.07
401.33	216.50
401.70	217.88
402.08	217.95
402.45	218.14
402.83	218.69
403.20	219.10
403.58	218.81
403.95	219.19
404.33	219.43
404.71	219.86
405.08	221.02
405.46	221.33
405.83	221.50
406.21	221.93
406.58	222.45
406.96	222.57
407.33	223.57
407.70	224.64
408.08	226.98
408.45	228.02
408.83	229.55
409.20	229.86
409.58	229.60
409.95	230.90
410.33	231.90
410.70	232.26
411.08	233.45
411.45	234.55
411.82	235.50
412.20	237.33
412.57	240.07
412.95	239.88
413.32	242.14
413.69	243.71
414.07	245.57
414.44	247.74
414.82	250.38
415.19	252.76
415.56	255.21
415.94	256.74
416.31	260.07
416.68	263.26
417.06	267.31
417.43	271.43
417.81	275.29
418.18	279.69
418.55	284.10
418.93	288.79
419.30	293.88
419.67	299.33
420.04	304.69
420.42	309.55
420.79	317.62
421.16	323.74
421.54	331.86
421.91	339.05
422.28	345.86
422.66	353.31
423.03	361.90
423.40	369.93
423.77	378.19
424.15	386.31
424.52	395.12
424.89	405.24
425.26	413.71
425.64	422.17
426.01	431.52
426.38	441.95
426.75	452.98
427.13	464.05
427.50	475.19
427.87	486.76
428.24	499.12
428.61	509.33
428.99	522.62
429.36	535.24
429.73	548.40
430.10	562.38
430.47	576.38
430.85	589.71
431.22	604.69
431.59	621.88
431.96	636.93
432.33	653.83
432.70	670.40
433.08	690.12
433.45	708.62
433.82	727.55
434.19	747.95
434.56	768.07
434.93	786.05
435.30	804.83
435.68	825.98
436.05	846.50
436.42	866.93
436.79	886.10
437.16	906.62
437.53	929.19
437.90	950.60
438.27	971.95
438.64	994.12
439.01	1015.79
439.38	1033.29
439.75	1052.38
440.13	1072.60
440.50	1091.64
440.87	1107.67
441.24	1123.98
441.61	1141.31
441.98	1154.02
442.35	1168.57
442.72	1185.76
443.09	1202.83
443.46	1211.74
443.83	1218.24
444.20	1224.29
444.57	1232.19
444.94	1236.00
445.31	1239.00
445.68	1245.57
446.05	1247.64
446.42	1246.21
446.79	1243.64
447.16	1241.40
447.53	1239.86
447.90	1232.24
448.27	1224.76
448.64	1214.57
449.01	1207.95
449.37	1195.14
449.74	1182.67
450.11	1168.79
450.48	1150.67
450.85	1130.95
451.22	1116.02
451.59	1101.71
451.96	1087.74
452.33	1069.17
452.70	1053.38
453.07	1033.60
453.43	1010.45
453.80	990.67
454.17	971.48
454.54	953.43
454.91	933.57
455.28	914.31
455.65	896.83
456.02	881.48
456.38	865.83
456.75	846.95
457.12	830.88
457.49	816.10
457.86	799.79
458.23	788.12
458.59	774.62
458.96	760.98
459.33	747.98
459.70	735.55
460.07	725.19
460.43	712.83
460.80	702.62
461.17	693.93
461.54	684.00
461.91	674.86
462.27	664.64
462.64	657.10
463.01	647.95
463.38	640.36
463.74	628.76
464.11	620.69
464.48	614.07
464.85	606.64
465.21	600.83
465.58	594.74
465.95	586.36
466.32	580.36
466.68	574.19
467.05	568.26
467.42	562.38
467.78	556.50
468.15	550.57
468.52	546.21
468.88	539.31
469.25	534.12
469.62	529.79
469.98	525.48
470.35	521.00
470.72	516.76
471.08	511.24
471.45	507.95
471.82	504.90
472.18	500.83
472.55	497.86
472.92	493.26
473.28	490.07
473.65	487.14
474.02	484.29
474.38	482.14
474.75	479.88
475.11	477.12
475.48	475.02
475.85	473.21
476.21	471.29
476.58	470.38
476.94	468.98
477.31	467.52
477.67	466.40
478.04	465.21
478.41	465.07
478.77	466.19
479.14	464.95
479.50	463.98
479.87	463.62
480.23	463.43
480.60	463.36
480.96	463.55
481.33	464.29
481.69	464.26
482.06	464.07
482.42	465.19
482.79	466.05
483.15	466.36
483.52	467.52
483.88	468.19
484.25	469.02
484.61	470.21
484.98	471.10
485.34	473.17
485.71	475.24
486.07	476.71
486.44	477.10
486.80	479.36
487.17	481.62
487.53	484.40
487.90	487.40
488.26	491.40
488.62	494.90
488.99	498.00
489.35	501.33
489.72	504.76
490.08	507.95
490.44	511.43
490.81	516.14
491.17	520.48
491.54	525.62
491.90	530.81
492.26	535.26
492.63	540.17
492.99	544.33
493.36	549.33
493.72	554.62
494.08	560.55
494.45	566.76
494.81	573.67
495.17	579.81
495.54	586.60
495.90	592.88
496.26	598.93
496.63	605.71
496.99	613.36
497.35	620.79
497.72	628.71
498.08	636.71
498.44	644.45
498.80	652.69
499.17	660.48
499.53	668.76
499.89	677.93
500.26	686.93
500.62	696.69
500.98	706.71
501.34	716.19
501.71	725.50
502.07	735.12
502.43	744.02
502.79	753.48
503.16	762.21
503.52	771.76
503.88	780.86
504.24	791.10
504.60	801.02
504.97	811.50
505.33	821.07
505.69	831.81
506.05	841.60
506.41	851.50
506.78	861.83
507.14	871.07
507.50	880.52
507.86	891.19
508.22	901.19
508.59	910.33
508.95	920.02
509.31	931.14
509.67	941.02
510.03	950.76
510.39	960.64
510.75	971.38
511.12	981.57
511.48	991.90
511.84	1001.45
512.20	1011.26
512.56	1021.10
512.92	1031.48
513.28	1041.31
513.64	1051.02
514.00	1061.10
514.37	1070.36
514.73	1080.29
515.09	1090.17
515.45	1098.83
515.81	1107.81
516.17	1117.19
516.53	1126.12
516.89	1133.83
517.25	1142.74
517.61	1151.98
517.97	1160.19
518.33	1168.00
518.69	1176.62
519.05	1185.71
519.41	1194.02
519.77	1202.79
520.13	1210.00
520.49	1216.79
520.85	1223.52
521.21	1231.93
521.57	1238.64
521.93	1244.60
522.29	1252.12
522.65	1258.55
523.01	1265.36
523.37	1271.98
523.73	1278.38
524.09	1284.19
524.45	1289.90
524.81	1295.45
525.17	1300.79
525.53	1306.24
525.89	1311.67
526.25	1316.55
526.61	1320.88
526.97	1325.10
527.33	1329.60
527.68	1335.64
528.04	1339.69
528.40	1344.07
528.76	1347.05
529.12	1351.38
529.48	1357.02
529.84	1360.33
530.20	1364.10
530.56	1368.50
530.91	1372.24
531.27	1376.12
531.63	1380.74
531.99	1383.93
532.35	1386.76
532.71	1390.05
533.07	1394.05
533.42	1399.74
533.78	1403.17
534.14	1406.36
534.50	1409.71
534.86	1413.43
535.21	1415.10
535.57	1419.69
535.93	1421.88
536.29	1426.24
536.65	1429.05
537.00	1430.24
537.36	1432.86
537.72	1435.60
538.08	1437.21
538.44	1438.38
538.79	1440.10
539.15	1441.17
539.51	1443.00
539.87	1445.55
540.22	1447.31
540.58	1448.71
540.94	1447.79
541.29	1448.33
541.65	1448.07
542.01	1449.19
542.37	1448.74
542.72	1448.81
543.08	1448.45
543.44	1449.10
543.79	1447.62
544.15	1448.26
544.51	1449.98
544.87	1450.48
545.22	1451.12
545.58	1450.69
545.94	1450.81
546.29	1450.76
546.65	1449.74
547.01	1448.88
547.36	1447.67
547.72	1446.12
548.07	1445.02
548.43	1443.76
548.79	1442.19
549.14	1442.00
549.50	1440.38
549.86	1437.55
550.21	1437.33
550.57	1436.74
550.92	1435.02
551.28	1433.57
551.64	1431.40
551.99	1429.05
552.35	1426.83
552.70	1424.62
553.06	1424.21
553.41	1422.90
553.77	1420.95
554.13	1420.67
554.48	1420.64
554.84	1419.67
555.19	1418.38
555.55	1418.52
555.90	1418.00
556.26	1417.00
556.61	1415.45
556.97	1413.43
557.32	1412.95
557.68	1410.43
558.03	1408.57
558.39	1407.55
558.74	1406.88
559.10	1405.31
559.45	1403.67
559.81	1402.90
560.16	1400.95
560.52	1398.62
560.87	1397.02
561.23	1395.33
561.58	1395.07
561.94	1392.55
562.29	1390.93
562.64	1390.14
563.00	1386.60
563.35	1384.02
563.71	1382.74
564.06	1381.71
564.42	1380.93
564.77	1379.95
565.12	1379.14
565.48	1379.26
565.83	1378.60
566.19	1376.90
566.54	1374.69
566.89	1373.24
567.25	1371.64
567.60	1372.05
567.96	1373.00
568.31	1372.88
568.66	1371.71
569.02	1368.62
569.37	1366.19
569.72	1364.90
570.08	1362.38
570.43	1360.76
570.78	1358.93
571.14	1356.81
571.49	1354.76
571.84	1352.40
572.20	1350.36
572.55	1348.52
572.90	1344.17
573.26	1341.64
573.61	1339.05
573.96	1337.71
574.31	1335.29
574.67	1331.71
575.02	1327.45
575.37	1322.19
575.72	1317.81
576.08	1314.17
576.43	1310.17
576.78	1307.12
577.13	1302.67
577.49	1299.83
577.84	1296.69
578.19	1293.21
578.54	1290.17
578.90	1286.90
579.25	1283.50
579.60	1278.64
579.95	1273.55
580.30	1269.90
580.66	1265.45
581.01	1261.24
581.36	1256.29
581.71	1251.93
582.06	1249.43
582.42	1245.55
582.77	1241.10
583.12	1236.98
583.47	1232.57
583.82	1228.50
584.17	1225.05
584.53	1221.95
584.88	1217.57
585.23	1214.24
585.58	1210.07
585.93	1205.29
586.28	1201.81
586.63	1198.52
586.98	1195.50
587.34	1193.29
587.69	1188.95
588.04	1184.88
588.39	1180.81
588.74	1176.52
589.09	1173.36
589.44	1167.95
589.79	1163.83
590.14	1160.21
590.49	1156.05
590.84	1152.55
591.19	1149.29
591.54	1145.12
591.89	1140.67
592.25	1138.36
592.60	1132.90
592.95	1128.43
593.30	1123.88
593.65	1118.76
594.00	1113.19
594.35	1114.90
594.70	1108.79
595.05	1104.64
595.40	1100.26
595.75	1095.40
596.10	1091.52
596.45	1086.48
596.80	1082.38
597.15	1077.52
597.50	1072.24
597.85	1068.21
598.19	1063.50
598.54	1058.31
598.89	1053.14
599.24	1048.93
599.59	1043.12
599.94	1038.62
600.29	1034.83
600.64	1030.50
600.99	1026.86
601.34	1023.26
601.69	1012.24
602.04	1008.10
602.39	1003.45
602.74	999.40
603.08	995.76
603.43	992.02
603.78	987.71
604.13	983.02
604.48	978.45
604.83	974.76
605.18	970.48
605.53	966.55
605.87	961.88
606.22	958.07
606.57	953.64
606.92	948.52
607.27	944.98
607.62	940.31
607.96	936.40
608.31	930.83
608.66	926.76
609.01	922.48
609.36	918.52
609.70	914.00
610.05	909.00
610.40	904.31
610.75	899.19
611.10	894.86
611.44	890.52
611.79	886.38
612.14	881.55
612.49	876.36
612.83	871.24
613.18	867.26
613.53	863.07
613.88	857.90
614.22	853.62
614.57	848.76
614.92	843.93
615.27	839.83
615.61	835.52
615.96	830.24
616.31	825.81
616.65	821.76
617.00	817.29
617.35	813.17
617.70	808.62
618.04	804.48
618.39	799.88
618.74	795.64
619.08	791.86
619.43	788.62
619.78	784.74
620.12	780.98
620.47	777.36
620.82	772.50
621.16	768.55
621.51	765.81
621.85	761.45
622.20	758.36
622.55	754.02
622.89	750.10
623.24	747.12
623.59	743.36
623.93	739.83
624.28	736.55
624.62	735.64
624.97	733.40
625.32	729.71
625.66	726.14
626.01	722.55
626.35	718.69
626.70	714.29
627.04	711.38
627.39	707.90
627.73	705.29
628.08	702.45
628.43	699.05
628.77	694.55
629.12	691.31
629.46	687.83
629.81	684.45
630.15	680.67
630.50	676.55
630.84	673.26
631.19	668.88
631.53	665.45
631.88	658.95
632.22	654.31
632.57	651.02
632.91	647.07
633.26	643.52
633.60	639.52
633.95	636.21
634.29	632.10
634.64	628.86
634.98	624.81
635.32	622.00
635.67	618.90
636.01	615.83
636.36	612.17
636.70	609.48
637.05	605.90
637.39	603.40
637.73	600.71
638.08	598.40
638.42	595.43
638.77	592.36
639.11	589.60
639.45	586.74
639.80	583.55
640.14	581.43
640.49	578.38
640.83	575.40
641.17	572.40
641.52	569.45
641.86	566.74
642.20	564.19
642.55	560.48
642.89	556.83
643.23	553.71
643.58	551.67
643.92	547.79
644.26	544.98
644.61	542.00
644.95	538.57
645.29	535.07
645.64	533.21
645.98	530.19
646.32	527.64
646.66	524.31
647.01	521.45
647.35	518.52
647.69	516.10
648.04	514.52
648.38	512.14
648.72	509.21
649.06	505.95
649.41	502.33
649.75	499.79
650.09	497.60
650.43	494.83
650.78	491.71
651.12	489.19
651.46	486.29
651.80	483.64
652.14	481.19
652.49	479.02
652.83	475.93
653.17	473.31
653.51	470.12
653.85	468.10
654.20	465.64
654.54	462.79
654.88	459.76
655.22	457.40
655.56	454.45
655.90	452.43
656.25	450.10
656.59	447.98
656.93	445.90
657.27	444.17
657.61	441.86
657.95	440.29
658.29	437.67
658.64	436.29
658.98	433.81
659.32	431.48
659.66	429.05
660.00	427.00
660.34	424.76
660.68	423.31
661.02	421.52
661.36	419.50
661.70	417.98
662.05	416.71
662.39	414.74
662.73	413.95
663.07	413.17
663.41	411.33
663.75	409.05
664.09	407.21
664.43	404.81
664.77	403.36
665.11	400.83
665.45	399.86
665.79	398.31
666.13	396.81
666.47	395.19
666.81	393.38
667.15	391.43
667.49	390.55
667.83	389.74
668.17	388.19
668.51	386.95
668.85	385.57
669.19	384.55
669.53	382.40
669.87	380.38
670.21	378.05
670.55	376.88
670.89	376.79
671.23	375.33
671.57	374.12
671.91	372.79
672.25	371.79
672.58	370.83
672.92	368.71
673.26	367.45
673.60	366.33
673.94	365.57
674.28	364.76
674.62	363.67
674.96	361.90
675.30	360.62
675.64	359.57
675.97	358.17
676.31	356.55
676.65	355.19
676.99	354.33
677.33	353.00
677.67	351.83
678.01	349.62
678.34	348.07
678.68	347.60
679.02	346.14
679.36	344.81
679.70	342.98
680.04	342.05
680.37	340.86
680.71	339.48
681.05	338.14
681.39	336.90
681.73	335.45
682.06	333.98
682.40	332.52
682.74	331.43
683.08	330.98
683.42	329.55
683.75	328.74
684.09	327.43
684.43	326.43
684.77	325.19
685.10	324.24
685.44	323.43
685.78	321.93
686.12	321.24
686.45	320.07
686.79	319.05
687.13	318.55
687.46	317.50
687.80	316.95
688.14	315.62
688.48	314.67
688.81	313.93
689.15	313.52
689.49	312.57
689.82	311.60
690.16	309.57
690.50	308.74
690.83	307.79
691.17	306.33
691.51	305.38
691.84	304.45
692.18	303.55
692.52	302.64
692.85	301.76
693.19	301.26
693.52	300.48
693.86	299.60
694.20	298.57
694.53	297.90
694.87	296.86
695.21	295.81
695.54	294.90
695.88	293.45
696.21	292.00
696.55	291.12
696.88	289.88
697.22	289.10
697.56	288.50
697.89	287.48
698.23	287.62
698.56	286.57
698.90	286.05
699.23	285.40
699.57	284.83
699.90	283.79
700.24	282.43
700.58	282.14
700.91	281.76
701.25	282.55
701.58	282.48
701.92	282.29
702.25	281.81
702.59	281.05
702.92	280.57
703.26	280.17
703.59	279.76
703.93	281.33
704.26	281.14
704.60	280.38
704.93	279.64
705.26	278.17
705.60	278.07
705.93	276.90
706.27	276.95
706.60	276.76
706.94	277.21
707.27	276.45
707.61	275.62
707.94	274.90
708.27	272.98
708.61	271.67
708.94	270.74
709.28	270.57
709.61	269.86
709.94	269.60
710.28	268.81
710.61	268.19
710.95	265.43
711.28	266.17
711.61	265.79
711.95	265.88
712.28	265.26
712.61	264.50
712.95	265.55
713.28	265.52
713.61	264.57
713.95	262.90
714.28	262.43
714.61	262.07
714.95	261.36
715.28	260.40
715.61	259.81
715.95	259.57
716.28	258.57
716.61	258.67
716.95	257.64
717.28	257.29
717.61	256.90
717.94	256.45
718.28	254.40
718.61	253.88
718.94	252.98
719.27	252.86
719.61	252.81
719.94	251.43
720.27	249.98
720.60	249.45
720.94	249.45
721.27	249.48
721.60	249.12
721.93	248.76
722.27	249.29
722.60	249.21
722.93	248.36
723.26	248.21
723.59	247.31
723.93	247.52
724.26	247.26
724.59	246.64
724.92	246.36
725.25	246.71
725.59	246.19
725.92	246.21
726.25	245.88
726.58	245.48
726.91	245.26
727.24	245.36
727.57	245.00
727.91	244.57
728.24	244.40
728.57	243.71
728.90	243.74
729.23	242.71
729.56	243.50
729.89	243.50
730.22	243.26
730.55	242.88
730.89	242.52
731.22	242.14
731.55	242.00
731.88	241.81
732.21	241.21
732.54	240.88
732.87	240.38
733.20	240.31
733.53	240.05
733.86	239.98
734.19	239.19
734.52	239.38
734.85	240.31
735.18	239.29
735.51	240.14
735.84	239.93
736.17	240.48
736.50	238.76
736.83	240.93
737.16	240.64
737.49	240.50
737.82	240.00
738.15	240.21
738.48	239.90
738.81	239.71
739.14	239.19
739.47	238.74
739.80	238.69
740.13	238.52
740.46	237.93
740.79	237.14
741.12	237.07
741.45	236.45
741.78	235.29
742.11	236.05
742.44	234.95
742.77	235.26
743.10	234.52
743.43	234.43
743.75	232.17
744.08	234.69
744.41	234.55
744.74	234.71
745.07	233.93
745.40	234.21
745.73	234.79
746.06	234.79
746.39	234.93
746.71	234.43
747.04	233.98
747.37	233.74
747.70	233.71
748.03	233.69
748.36	233.67
748.68	233.52
749.01	232.81
749.34	232.74
749.67	232.07
750.00	231.95
750.33	233.48
750.65	233.21
750.98	230.57
751.31	230.43
751.64	230.14
751.97	231.31
752.29	230.83
752.62	229.79
752.95	229.57
753.28	229.26
753.60	228.88
753.93	229.45
754.26	229.69
754.59	229.33
754.91	228.98
755.24	228.95
755.57	228.57
755.90	228.26
756.22	227.76
756.55	227.57
756.88	227.14
757.20	225.38
757.53	224.81
757.86	224.71
758.19	224.67
758.51	224.43
758.84	223.19
759.17	223.05
759.49	223.12
759.82	223.83
760.15	224.02
760.47	224.10
760.80	223.33
761.13	223.33
761.45	223.05
761.78	223.00
762.11	223.00
762.43	223.02
762.76	223.02
763.08	223.48
763.41	223.33
763.74	223.50
764.06	223.43
764.39	223.50
764.71	223.33
765.04	223.17
765.37	223.00
765.69	222.71
766.02	222.43
766.34	222.17
766.67	221.48
767.00	221.64
767.32	222.79
767.65	223.88
767.97	223.57
768.30	223.79
768.62	223.40
768.95	223.00
769.27	222.71
769.60	223.00
769.92	222.67
770.25	222.29
770.57	221.83
770.90	221.62
771.22	221.40
771.55	221.14
771.87	221.29
772.20	221.19
772.52	223.05
772.85	225.45
773.17	225.40
773.50	225.10
773.82	224.52
774.15	223.43
774.47	222.07
774.80	222.14
775.12	221.86
775.45	221.98
775.77	222.02
776.09	222.14
776.42	222.05
776.74	222.38
777.07	222.17
777.39	222.19
777.72	222.05
778.04	222.07
778.36	221.88
778.69	221.64
779.01	221.74
779.33	219.93
779.66	217.64
779.98	217.55
780.31	217.62
780.63	218.50
780.95	218.74
781.28	218.88
781.60	218.36
781.92	218.69
782.25	218.69
782.57	218.52
782.89	218.33
783.22	218.24
783.54	217.74
783.86	217.90
784.19	217.71
784.51	218.45
784.83	218.29
785.16	218.33
785.48	218.52
785.80	218.55
786.12	218.71
786.45	218.79
786.77	218.81
787.09	218.76
787.42	217.90
787.74	217.90
788.06	217.64
788.38	217.60
788.71	216.98
789.03	216.93
789.35	217.19
789.67	216.69
789.99	216.71
790.32	216.45
790.64	216.86
790.96	218.71
791.28	217.88
791.61	217.71
791.93	217.79
792.25	217.45
792.57	218.76
792.89	218.19
793.21	218.33
793.54	218.21
793.86	218.17
794.18	218.52
794.50	218.17
794.82	218.33
795.14	218.71
795.47	219.29
795.79	219.50
796.11	219.10
796.43	219.24
796.75	219.21
797.07	219.57
797.39	219.45
797.71	217.81
798.04	217.86
798.36	218.17
798.68	218.07
799.00	218.21
799.32	216.95
799.64	217.55
799.96	217.31
800.28	217.69
800.60	217.26
800.92	217.48
801.24	217.40
801.56	217.33
801.89	217.17
802.21	217.07
802.53	216.69
802.85	217.12
803.17	218.14
803.49	217.69
803.81	217.38
804.13	217.00
804.45	216.69
804.77	216.86
805.09	216.83
805.41	216.57
805.73	216.14
806.05	215.86
806.37	215.76
806.69	215.45
807.01	215.12
807.33	215.48
807.65	214.62
807.97	215.50
808.28	215.43
808.60	215.24
808.92	215.14
809.24	216.48
809.56	216.10
809.88	215.29
810.20	215.55
810.52	216.02
810.84	215.83
811.16	215.90
811.48	215.88
811.80	216.55
812.12	216.48
812.43	216.93
812.75	217.10
813.07	216.71
813.39	216.98
813.71	216.86
814.03	216.55
814.35	216.62
814.67	215.74
814.98	215.64
815.30	215.76
815.62	215.38
815.94	213.93
816.26	214.24
816.58	213.83
816.89	213.83
817.21	213.31
817.53	213.57
817.85	213.57
818.17	213.40
818.48	212.43
818.80	212.79
819.12	212.64
819.44	212.26
819.76	212.00
820.07	211.95
820.39	211.90
820.71	212.29
821.03	212.24
821.34	212.31
821.66	212.79
821.98	213.19
822.30	213.10
822.61	214.50
822.93	214.21
823.25	214.40
823.57	214.26
823.88	214.62
824.20	214.43
824.52	214.76
824.83	214.83
825.15	214.86
825.47	215.02
825.79	215.19
826.10	215.02
826.42	215.24
826.74	215.29
827.05	215.38
827.37	215.26
827.69	215.17
828.00	215.19
828.32	215.00
828.64	214.55
828.95	215.81
829.27	215.33
829.58	215.21
829.90	215.62
830.22	215.98
830.53	215.62
830.85	215.69
831.17	215.02
831.48	215.17
831.80	215.21
832.11	214.95
832.43	214.67
832.75	214.95
833.06	216.14
833.38	215.71
833.69	215.45
834.01	215.50
834.32	215.64
834.64	215.45
834.96	215.17
835.27	215.21
835.59	214.24
835.90	213.57
836.22	213.62
836.53	213.10
836.85	213.02
837.16	214.90
837.48	214.88
837.79	215.64
838.11	215.79
838.42	215.86
838.74	216.05
839.05	215.79
839.37	215.81
839.68	214.67
840.00	214.67
840.31	215.38
840.63	215.29
840.94	215.10
841.26	214.90
841.57	215.17
841.88	215.24
842.20	215.14
842.51	214.95
842.83	215.12
843.14	217.02
843.46	216.86
843.77	215.69
844.08	215.62
844.40	215.10
844.71	214.93
845.03	214.81
845.34	214.76
845.65	214.79
845.97	214.71
846.28	214.69
846.60	214.83
846.91	214.31
847.22	214.21
847.54	214.62
847.85	214.93
848.16	214.64
848.48	214.17
848.79	215.05
849.10	215.33
849.42	215.17
849.73	213.26
850.04	213.12
850.36	212.38
850.67	212.52
850.98	212.64
851.30	212.79
851.61	212.50
851.92	212.50
852.23	213.24
852.55	213.17
852.86	213.38
853.17	213.57
853.49	214.05
853.80	214.55
854.11	214.69
854.42	214.86
854.74	214.69
855.05	214.93
855.36	213.90
855.67	214.02
855.99	214.17
856.30	216.71
856.61	216.55
856.92	216.71
857.23	216.88
857.55	216.48
857.86	216.26
858.17	216.76
858.48	216.26
858.79	215.95
859.11	216.14
859.42	216.02
859.73	215.86
860.04	215.71
860.35	214.95
860.66	214.21
860.98	214.07
861.29	214.33
861.60	214.24
861.91	214.86
862.22	214.40
862.53	213.95
862.84	211.52
863.16	212.17
863.47	212.10
863.78	211.74
864.09	212.12
864.40	212.31
864.71	212.29
865.02	212.43
865.33	211.83
865.64	211.67
865.95	211.64
866.27	212.88
866.58	212.69
866.89	212.83
867.20	213.05
867.51	212.74
867.82	212.67
868.13	213.40
868.44	212.76
868.75	213.40
869.06	213.52
869.37	213.62
869.68	212.76
869.99	212.93
870.30	213.36
870.61	213.43
870.92	213.17
871.23	212.83
871.54	213.43
871.85	214.19
872.16	214.50
872.47	214.21
872.78	212.98
873.09	212.93
873.40	212.98
873.71	212.93
874.02	213.07
874.33	212.98
874.64	212.19
874.95	212.69
875.26	212.14
875.56	212.29
875.87	212.19
876.18	212.26
876.49	214.29
876.80	213.79
877.11	213.36
877.42	213.14
877.73	213.43
878.04	213.00
878.35	213.02
878.66	212.90
878.96	213.05
879.27	213.07
879.58	213.00
879.89	212.86
880.20	213.67
880.51	213.64
880.82	213.64
881.12	213.88
881.43	213.26
881.74	212.95
882.05	212.64
882.36	212.95
882.67	213.17
882.97	210.79
883.28	210.71
883.59	210.95
883.90	211.38
884.21	211.60
884.51	211.50
884.82	210.86
885.13	210.86
885.44	210.71
885.74	210.64
886.05	210.81
886.36	210.88
886.67	209.93
886.98	210.74
887.28	210.90
887.59	210.98
887.90	211.26
888.20	211.14
888.51	211.88
888.82	211.36
889.13	211.43
889.43	213.29
889.74	213.29
890.05	213.19
890.35	212.95
890.66	212.52
890.97	212.45
891.28	212.36
891.58	212.24
891.89	212.36
892.20	212.12
892.50	211.90
892.81	211.67
893.12	211.88
893.42	211.07
893.73	211.21
894.04	211.10
894.34	211.17
894.65	211.26
894.95	210.81
895.26	211.10
895.57	212.00
895.87	210.10
896.18	210.45
896.48	210.50
896.79	210.52
897.10	210.71
897.40	210.86
897.71	211.31
898.01	211.21
898.32	211.40
898.63	211.50
898.93	211.64
899.24	211.74
899.54	211.55
899.85	211.50
900.15	211.26
900.46	211.36
900.76	211.55
901.07	211.64
901.38	211.62
901.68	211.57
901.99	210.43
902.29	210.74
902.60	210.55
902.90	210.50
903.21	210.55
903.51	210.45
903.82	210.88
904.12	210.90
904.43	211.14
904.73	210.90
905.03	211.05
905.34	212.90
905.64	213.10
905.95	213.21
906.25	213.14
906.56	213.10
906.86	213.24
907.17	212.95
907.47	213.10
907.77	213.14
908.08	212.98
908.38	213.12
908.69	213.33
908.99	213.81
909.30	213.81
909.60	213.76
909.90	213.95
910.21	213.38
910.51	213.00
910.81	212.83
911.12	213.07
911.42	213.14
911.73	211.14
912.03	211.10
912.33	211.52
912.64	211.62
912.94	211.48
913.24	211.10
913.55	211.00
913.85	210.74
914.15	210.83
914.46	211.26
914.76	211.33
915.06	211.19
915.37	210.71
915.67	210.79
915.97	210.98
916.27	210.45
916.58	210.62
916.88	210.40
917.18	210.31
917.49	211.81
917.79	211.50
918.09	211.62
918.39	212.43
918.70	212.21
919.00	212.19
919.30	213.05
919.60	212.88
919.91	212.81
920.21	212.95
920.51	212.74
920.81	212.43
921.12	212.62
921.42	212.48
921.72	212.74
922.02	212.64
922.32	212.67
922.63	213.02
922.93	213.83
923.23	214.26
923.53	214.12
923.83	212.62
924.13	212.98
924.44	213.12
924.74	213.14
925.04	213.69
925.34	213.76
925.64	213.31
925.94	213.60
926.24	214.64
926.55	214.55
926.85	214.69
927.15	214.81
927.45	214.88
927.75	214.93
928.05	214.88
928.35	214.86
928.65	215.19
928.95	215.26
929.26	214.57
929.56	214.83
929.86	215.10
930.16	214.88
930.46	214.76
930.76	214.64
931.06	213.69
931.36	212.88
931.66	213.19
931.96	213.24
932.26	213.17
932.56	212.45
932.86	212.60
933.16	212.62
933.46	212.45
933.76	212.10
934.06	212.67
934.36	213.31
934.66	213.26
934.96	213.07
935.26	212.98
935.56	213.19
935.86	212.95
936.16	212.95
936.46	212.93
936.76	212.79
937.06	212.45
937.36	212.74
937.66	212.95
937.96	212.64
938.26	212.17
938.56	212.14
938.86	212.14
939.16	212.50
939.46	212.69
939.76	212.55
940.06	212.57
940.35	211.81
940.65	210.64
940.95	210.81
941.25	210.17
941.55	210.24
941.85	209.95
942.15	210.38
942.45	210.62
942.75	210.50
943.04	210.62
943.34	211.12
943.64	210.81
943.94	210.40
944.24	210.64
944.54	210.71
944.84	210.60
945.13	210.38
945.43	210.10
945.73	209.95
946.03	209.95
946.33	209.74
946.62	209.62
946.92	209.83
947.22	209.95
947.52	210.33
947.82	210.52
948.11	210.57
948.41	209.95
948.71	209.69
949.01	210.00
949.31	209.81
949.60	209.76
949.90	210.05
950.20	210.38
950.50	210.19
950.79	210.21
951.09	210.38
951.39	210.43
951.69	209.88
951.98	210.14
952.28	210.31
952.58	210.55
952.87	210.67
953.17	211.05
953.47	210.71
953.76	210.52
954.06	210.10
954.36	209.81
954.66	209.88
954.95	210.26
955.25	210.52
955.55	210.90
955.84	210.33
956.14	210.55
956.44	210.64
956.73	210.38
957.03	210.55
957.32	210.62
957.62	210.60
957.92	211.29
958.21	211.36
958.51	213.81
958.81	213.88
959.10	214.14
959.40	214.57
959.69	214.86
959.99	215.12
960.29	215.21
960.58	215.21
960.88	215.62
961.17	215.48
961.47	215.21
961.76	214.90
962.06	215.52
962.36	215.29
962.65	215.24
962.95	215.26
963.24	214.95
963.54	215.00
963.83	215.12
964.13	215.17
964.42	214.40
964.72	212.64
965.01	213.00
965.31	212.90
965.60	212.45
965.90	213.48
966.19	213.02
966.49	213.17
966.78	213.17
967.08	213.17
967.37	212.93
967.67	212.74
967.96	213.07
968.26	212.98
968.55	213.29
968.85	213.24
969.14	213.26
969.43	213.40
969.73	213.17
970.02	213.10
970.32	212.90
970.61	213.12
970.91	212.45
971.20	212.02
971.49	211.69
971.79	211.90
972.08	210.60
972.38	210.93
972.67	210.60
972.96	210.81
973.26	210.43
973.55	211.29
973.85	211.10
974.14	211.00
974.43	211.24
974.73	210.79
975.02	210.57
975.31	210.50
975.61	210.40
975.90	210.40
976.19	210.19
976.49	210.33
976.78	210.40
977.07	210.48
977.37	210.12
977.66	210.55
977.95	210.19
978.24	210.52
978.54	210.93
978.83	210.86
979.12	210.81
979.42	210.74
979.71	210.24
980.00	210.29
980.29	210.36
980.59	209.93
980.88	210.45
981.17	210.29
981.46	210.48
981.76	210.45
982.05	211.00
982.34	211.19
982.63	211.05
982.93	210.95
983.22	211.55
983.51	211.95
983.80	211.95
984.09	212.17
984.39	211.98
984.68	211.52
984.97	211.45
985.26	211.19
985.55	211.43
985.85	211.02
986.14	211.50
986.43	211.74
986.72	211.52
987.01	210.93
987.30	211.02
987.59	210.83
987.89	210.90
988.18	210.38
988.47	210.26
988.76	210.14
989.05	210.00
989.34	209.76
989.63	210.17
989.92	210.05
990.22	209.60
990.51	209.36
990.80	209.36
991.09	209.57
991.38	209.81
991.67	209.55
991.96	209.50
992.25	209.48
992.54	209.12
992.83	209.10
993.12	209.10
993.41	209.55
993.70	210.45
993.99	211.02
994.28	211.19
994.58	211.48
994.87	211.33
995.16	211.45
995.45	211.17
995.74	210.60
996.03	210.83
996.32	211.33
996.61	212.10
996.90	212.14
997.19	212.43
997.48	212.33
997.77	212.07
998.06	212.31
998.34	212.00
998.63	211.95
998.92	212.19
999.21	212.43
999.50	212.50
999.79	211.69
1000.08	211.38
1000.37	211.43
1000.66	211.21
1000.95	211.93
1001.24	212.00
1001.53	212.36
1001.82	212.45
1002.11	212.05
1002.40	212.21
1002.68	212.19
1002.97	213.55
1003.26	213.17
1003.55	213.12
1003.84	213.45
1004.13	213.93
1004.42	213.76
1004.71	213.74
1004.99	213.71
1005.28	214.12
1005.57	214.10
1005.86	214.02
1006.15	213.95
1006.44	213.81
1006.72	213.90
1007.01	213.55
1007.30	213.62
1007.59	213.26
1007.88	213.12
1008.17	213.36
1008.45	212.98
1008.74	212.60
1009.03	211.81
1009.32	211.83
1009.60	211.83
1009.89	211.74
1010.18	210.79
1010.47	210.95
1010.76	210.81
1011.04	210.48
1011.33	210.60
1011.62	210.55
1011.91	210.76
1012.19	210.67
1012.48	210.74
1012.77	210.60
1013.05	211.40
1013.34	211.45
1013.63	211.38
1013.92	211.43
1014.20	211.12
1014.49	211.07
1014.78	211.12
1015.06	210.24
1015.35	210.29
1015.64	210.40
1015.92	210.64
1016.21	211.02
1016.50	210.95
1016.78	211.29
1017.07	211.71
1017.36	211.21
1017.64	210.64
1017.93	210.88
1018.22	210.95
1018.50	210.79
1018.79	210.81
1019.08	209.69
1019.36	209.48
1019.65	209.07
1019.93	209.60
1020.22	210.00
1020.51	210.95
1020.79	210.45
1021.08	211.00
1021.36	207.50
1021.65	209.00
1021.94	206.50
1022.22	206.50
1022.51	202.50
1022.79	219.00
1023.08	215.00
1023.36	231.50
1023.65	202.00
>>>>>End Processed Spectral Data<<<<<
