SpectraSuite Data File
++++++++++++++++++++++++++++++++++++
Date: Tue Apr 02 18:37:45 EDT 2013
User: group
Dark Spectrum Present: No
Reference Spectrum Present: No
Number of Sampled Component Spectra: 1
Spectrometers: USB2E7196
Integration Time (usec): 580000 (USB2E7196)
Spectra Averaged: 2 (USB2E7196)
Boxcar Smoothing: 10 (USB2E7196)
Correct for Electrical Dark: No (USB2E7196)
Strobe/Lamp Enabled: No (USB2E7196)
Correct for Detector Non-linearity: No (USB2E7196)
Correct for Stray Light: No (USB2E7196)
Number of Pixels in Processed Spectrum: 2048
>>>>>Begin Processed Spectral Data<<<<<
339.09	0.00
339.48	198.50
339.86	197.00
340.24	197.00
340.63	199.50
341.01	233.00
341.39	201.50
341.78	207.50
342.16	214.50
342.54	206.00
342.93	199.14
343.31	208.88
343.69	209.26
344.07	209.74
344.46	210.45
344.84	210.93
345.22	209.79
345.60	210.19
345.99	210.31
346.37	210.40
346.75	210.57
347.13	210.69
347.52	210.93
347.90	211.17
348.28	211.12
348.66	211.64
349.05	211.14
349.43	211.36
349.81	211.55
350.19	211.50
350.57	211.52
350.96	211.74
351.34	212.14
351.72	212.33
352.10	212.50
352.48	212.43
352.87	212.48
353.25	212.36
353.63	212.38
354.01	212.36
354.39	212.26
354.77	212.31
355.15	212.93
355.54	212.76
355.92	212.55
356.30	212.64
356.68	213.83
357.06	214.05
357.44	213.76
357.82	213.71
358.20	214.57
358.58	214.69
358.97	214.79
359.35	215.10
359.73	215.45
360.11	215.10
360.49	215.31
360.87	215.26
361.25	215.88
361.63	216.62
362.01	216.93
362.39	216.57
362.77	216.98
363.15	216.69
363.53	216.79
363.91	216.81
364.29	216.81
364.67	215.00
365.05	215.00
365.43	215.24
365.81	215.43
366.19	215.60
366.57	216.36
366.95	216.48
367.33	215.79
367.71	215.69
368.09	216.43
368.47	216.21
368.85	216.07
369.23	216.40
369.61	215.50
369.99	215.98
370.37	216.38
370.75	217.10
371.13	216.81
371.51	216.29
371.89	216.48
372.27	216.55
372.65	216.62
373.03	216.55
373.41	216.62
373.78	216.48
374.16	215.19
374.54	214.52
374.92	214.26
375.30	214.55
375.68	214.45
376.06	214.55
376.44	214.50
376.82	214.64
377.19	214.33
377.57	214.55
377.95	213.83
378.33	213.69
378.71	212.52
379.09	212.62
379.47	213.24
379.84	212.98
380.22	212.88
380.60	212.55
380.98	212.50
381.36	212.29
381.73	212.14
382.11	212.69
382.49	212.88
382.87	212.60
383.25	212.71
383.62	214.95
384.00	214.60
384.38	214.79
384.76	215.40
385.13	216.12
385.51	216.29
385.89	216.14
386.27	216.43
386.64	216.74
387.02	216.67
387.40	216.33
387.78	216.33
388.15	216.10
388.53	216.00
388.91	215.88
389.29	215.74
389.66	215.83
390.04	215.76
390.42	216.10
390.79	216.17
391.17	216.07
391.55	213.64
391.92	213.76
392.30	213.98
392.68	213.45
393.05	213.43
393.43	213.17
393.81	213.45
394.18	212.93
394.56	213.02
394.94	213.45
395.31	213.52
395.69	214.29
396.06	214.95
396.44	215.26
396.82	215.05
397.19	216.50
397.57	216.31
397.95	216.57
398.32	215.95
398.70	216.38
399.07	216.93
399.45	217.14
399.82	216.93
400.20	216.83
400.58	216.98
400.95	216.19
401.33	216.69
401.70	218.05
402.08	218.43
402.45	218.40
402.83	219.12
403.20	219.36
403.58	219.19
403.95	219.33
404.33	219.74
404.71	220.31
405.08	221.10
405.46	221.40
405.83	221.76
406.21	222.02
406.58	222.48
406.96	222.57
407.33	223.12
407.70	223.98
408.08	225.98
408.45	226.55
408.83	227.90
409.20	228.48
409.58	227.95
409.95	229.14
410.33	230.24
410.70	230.52
411.08	231.90
411.45	233.29
411.82	234.52
412.20	236.26
412.57	238.81
412.95	238.62
413.32	240.86
413.69	242.40
414.07	244.48
414.44	246.36
414.82	248.64
415.19	251.36
415.56	253.98
415.94	255.50
416.31	258.93
416.68	261.64
417.06	265.40
417.43	269.62
417.81	273.60
418.18	278.02
418.55	282.40
418.93	287.14
419.30	291.98
419.67	297.14
420.04	302.62
420.42	307.71
420.79	315.81
421.16	322.33
421.54	330.29
421.91	337.52
422.28	344.62
422.66	352.76
423.03	361.88
423.40	369.50
423.77	377.86
424.15	386.17
424.52	395.10
424.89	405.55
425.26	414.67
425.64	423.60
426.01	433.05
426.38	443.64
426.75	454.26
427.13	464.76
427.50	476.17
427.87	487.74
428.24	500.05
428.61	510.64
428.99	523.55
429.36	536.12
429.73	549.79
430.10	563.10
430.47	576.40
430.85	588.69
431.22	604.12
431.59	621.21
431.96	636.38
432.33	653.67
432.70	669.62
433.08	689.17
433.45	707.55
433.82	725.93
434.19	745.95
434.56	766.60
434.93	786.29
435.30	805.64
435.68	826.88
436.05	846.98
436.42	867.07
436.79	886.67
437.16	907.69
437.53	928.69
437.90	950.38
438.27	972.40
438.64	995.19
439.01	1015.90
439.38	1033.86
439.75	1052.12
440.13	1072.57
440.50	1091.64
440.87	1106.76
441.24	1123.62
441.61	1142.02
441.98	1155.76
442.35	1169.98
442.72	1185.64
443.09	1201.74
443.46	1210.69
443.83	1217.62
444.20	1224.00
444.57	1231.50
444.94	1235.40
445.31	1240.79
445.68	1248.10
446.05	1249.98
446.42	1248.29
446.79	1246.86
447.16	1244.45
447.53	1243.19
447.90	1235.71
448.27	1228.24
448.64	1218.74
449.01	1210.79
449.37	1196.98
449.74	1183.55
450.11	1170.24
450.48	1152.90
450.85	1133.76
451.22	1119.00
451.59	1105.19
451.96	1091.07
452.33	1072.31
452.70	1055.67
453.07	1034.76
453.43	1011.76
453.80	991.67
454.17	972.76
454.54	954.67
454.91	935.40
455.28	916.12
455.65	898.31
456.02	883.86
456.38	868.21
456.75	849.83
457.12	834.43
457.49	819.33
457.86	802.19
458.23	789.45
458.59	775.57
458.96	761.60
459.33	748.52
459.70	735.81
460.07	726.05
460.43	714.50
460.80	704.33
461.17	695.38
461.54	685.60
461.91	676.24
462.27	665.79
462.64	657.50
463.01	648.93
463.38	640.76
463.74	628.52
464.11	620.74
464.48	613.98
464.85	606.55
465.21	601.19
465.58	595.55
465.95	588.19
466.32	582.60
466.68	576.12
467.05	570.40
467.42	564.81
467.78	558.52
468.15	552.45
468.52	547.98
468.88	541.40
469.25	535.90
469.62	531.76
469.98	527.55
470.35	523.17
470.72	519.14
471.08	513.90
471.45	510.57
471.82	507.33
472.18	502.83
472.55	499.57
472.92	495.24
473.28	491.93
473.65	488.33
474.02	485.05
474.38	482.86
474.75	480.24
475.11	477.31
475.48	475.52
475.85	473.93
476.21	471.45
476.58	470.05
476.94	469.05
477.31	467.43
477.67	466.26
478.04	465.24
478.41	464.31
478.77	465.95
479.14	464.86
479.50	463.93
479.87	464.05
480.23	463.62
480.60	463.57
480.96	463.19
481.33	464.33
481.69	464.76
482.06	464.57
482.42	464.74
482.79	465.64
483.15	465.79
483.52	466.69
483.88	467.71
484.25	468.45
484.61	469.67
484.98	470.71
485.34	473.29
485.71	474.90
486.07	477.05
486.44	477.07
486.80	479.62
487.17	481.93
487.53	484.81
487.90	488.00
488.26	491.36
488.62	494.74
488.99	497.17
489.35	500.88
489.72	505.02
490.08	508.69
490.44	512.26
490.81	516.62
491.17	520.48
491.54	525.02
491.90	530.21
492.26	534.90
492.63	540.19
492.99	544.64
493.36	550.14
493.72	555.62
494.08	561.26
494.45	567.36
494.81	573.83
495.17	579.67
495.54	586.48
495.90	593.02
496.26	600.02
496.63	607.14
496.99	613.76
497.35	620.67
497.72	628.43
498.08	636.36
498.44	644.40
498.80	652.93
499.17	660.62
499.53	668.83
499.89	678.07
500.26	686.88
500.62	695.55
500.98	704.79
501.34	713.86
501.71	723.21
502.07	731.93
502.43	741.31
502.79	750.52
503.16	759.52
503.52	768.26
503.88	777.12
504.24	786.90
504.60	796.83
504.97	807.60
505.33	817.62
505.69	828.71
506.05	838.74
506.41	848.74
506.78	859.50
507.14	869.19
507.50	879.12
507.86	888.81
508.22	899.07
508.59	909.02
508.95	919.21
509.31	930.24
509.67	940.76
510.03	950.60
510.39	961.38
510.75	971.40
511.12	981.98
511.48	992.69
511.84	1002.69
512.20	1012.93
512.56	1022.40
512.92	1032.79
513.28	1042.33
513.64	1051.62
514.00	1061.05
514.37	1070.64
514.73	1080.67
515.09	1089.69
515.45	1099.86
515.81	1108.88
516.17	1117.76
516.53	1126.21
516.89	1133.98
517.25	1143.00
517.61	1151.86
517.97	1159.40
518.33	1167.93
518.69	1177.17
519.05	1185.55
519.41	1194.40
519.77	1202.88
520.13	1211.00
520.49	1217.62
520.85	1224.52
521.21	1232.64
521.57	1240.05
521.93	1245.71
522.29	1253.38
522.65	1259.48
523.01	1266.02
523.37	1271.90
523.73	1278.36
524.09	1283.83
524.45	1289.98
524.81	1296.50
525.17	1302.17
525.53	1307.95
525.89	1313.55
526.25	1318.67
526.61	1323.14
526.97	1327.81
527.33	1332.50
527.68	1338.07
528.04	1342.60
528.40	1345.64
528.76	1349.81
529.12	1354.29
529.48	1359.81
529.84	1362.52
530.20	1367.52
530.56	1370.71
530.91	1375.00
531.27	1378.93
531.63	1383.86
531.99	1387.10
532.35	1389.24
532.71	1392.02
533.07	1395.90
533.42	1401.05
533.78	1403.95
534.14	1407.79
534.50	1410.19
534.86	1413.07
535.21	1414.62
535.57	1418.62
535.93	1421.88
536.29	1425.19
536.65	1428.14
537.00	1429.86
537.36	1432.45
537.72	1434.43
538.08	1437.00
538.44	1438.86
538.79	1440.69
539.15	1442.24
539.51	1444.55
539.87	1445.67
540.22	1447.69
540.58	1449.07
540.94	1448.60
541.29	1450.48
541.65	1450.52
542.01	1452.02
542.37	1452.64
542.72	1453.40
543.08	1452.60
543.44	1453.24
543.79	1452.38
544.15	1451.90
544.51	1452.62
544.87	1452.64
545.22	1452.64
545.58	1451.48
545.94	1451.31
546.29	1451.29
546.65	1451.00
547.01	1449.64
547.36	1449.38
547.72	1448.21
548.07	1447.14
548.43	1446.57
548.79	1443.90
549.14	1443.07
549.50	1441.19
549.86	1439.45
550.21	1437.81
550.57	1437.43
550.92	1435.40
551.28	1434.45
551.64	1434.12
551.99	1433.17
552.35	1432.14
552.70	1430.05
553.06	1429.45
553.41	1428.19
553.77	1427.55
554.13	1426.55
554.48	1426.29
554.84	1425.98
555.19	1425.36
555.55	1425.40
555.90	1423.81
556.26	1423.02
556.61	1420.88
556.97	1418.86
557.32	1417.79
557.68	1416.81
558.03	1415.19
558.39	1415.07
558.74	1413.57
559.10	1410.40
559.45	1408.93
559.81	1407.02
560.16	1405.38
560.52	1404.29
560.87	1402.81
561.23	1400.05
561.58	1399.69
561.94	1397.86
562.29	1395.62
562.64	1393.90
563.00	1390.95
563.35	1389.17
563.71	1387.38
564.06	1386.69
564.42	1385.60
564.77	1384.14
565.12	1382.40
565.48	1382.86
565.83	1381.69
566.19	1380.14
566.54	1379.17
566.89	1376.90
567.25	1375.98
567.60	1376.74
567.96	1376.67
568.31	1375.71
568.66	1374.90
569.02	1370.83
569.37	1368.64
569.72	1367.55
570.08	1365.62
570.43	1363.67
570.78	1361.67
571.14	1360.98
571.49	1358.83
571.84	1356.74
572.20	1354.21
572.55	1352.74
572.90	1348.21
573.26	1345.48
573.61	1342.57
573.96	1339.83
574.31	1337.14
574.67	1333.93
575.02	1329.88
575.37	1324.81
575.72	1320.48
576.08	1316.81
576.43	1314.10
576.78	1311.10
577.13	1306.69
577.49	1303.21
577.84	1299.93
578.19	1296.45
578.54	1292.29
578.90	1288.90
579.25	1286.05
579.60	1281.88
579.95	1277.31
580.30	1273.60
580.66	1270.67
581.01	1267.00
581.36	1263.31
581.71	1259.74
582.06	1256.64
582.42	1252.60
582.77	1248.38
583.12	1244.98
583.47	1240.38
583.82	1236.12
584.17	1231.67
584.53	1228.64
584.88	1224.26
585.23	1221.14
585.58	1216.76
585.93	1212.10
586.28	1208.10
586.63	1204.14
586.98	1200.69
587.34	1196.93
587.69	1192.26
588.04	1186.57
588.39	1182.88
588.74	1177.40
589.09	1172.67
589.44	1166.76
589.79	1162.12
590.14	1158.05
590.49	1153.02
590.84	1148.31
591.19	1144.17
591.54	1140.07
591.89	1134.74
592.25	1132.67
592.60	1126.90
592.95	1122.57
593.30	1118.33
593.65	1113.88
594.00	1108.31
594.35	1109.38
594.70	1104.57
595.05	1100.60
595.40	1096.93
595.75	1091.79
596.10	1088.79
596.45	1085.02
596.80	1081.60
597.15	1076.95
597.50	1072.33
597.85	1069.02
598.19	1064.98
598.54	1060.79
598.89	1056.29
599.24	1052.98
599.59	1046.62
599.94	1042.40
600.29	1038.19
600.64	1034.17
600.99	1030.52
601.34	1027.00
601.69	1017.29
602.04	1013.05
602.39	1008.52
602.74	1003.81
603.08	999.45
603.43	995.98
603.78	991.29
604.13	986.57
604.48	982.14
604.83	978.45
605.18	973.76
605.53	969.62
605.87	964.98
606.22	960.24
606.57	954.98
606.92	950.26
607.27	945.71
607.62	941.19
607.96	937.07
608.31	932.55
608.66	928.52
609.01	923.98
609.36	919.88
609.70	915.64
610.05	911.52
610.40	907.31
610.75	901.64
611.10	897.95
611.44	893.67
611.79	889.64
612.14	885.71
612.49	880.74
612.83	876.07
613.18	871.60
613.53	867.33
613.88	862.64
614.22	857.95
614.57	853.43
614.92	848.62
615.27	843.67
615.61	838.43
615.96	833.26
616.31	828.88
616.65	824.10
617.00	820.12
617.35	815.21
617.70	810.45
618.04	806.64
618.39	801.57
618.74	797.64
619.08	793.24
619.43	787.90
619.78	783.81
620.12	780.29
620.47	776.64
620.82	772.14
621.16	768.10
621.51	765.52
621.85	761.76
622.20	758.21
622.55	753.79
622.89	749.83
623.24	746.45
623.59	742.57
623.93	739.14
624.28	735.52
624.62	734.19
624.97	732.48
625.32	728.45
625.66	724.93
626.01	721.02
626.35	717.86
626.70	714.76
627.04	712.24
627.39	708.43
627.73	705.83
628.08	703.17
628.43	699.74
628.77	695.33
629.12	691.93
629.46	688.52
629.81	685.50
630.15	681.74
630.50	677.93
630.84	674.43
631.19	671.07
631.53	667.10
631.88	660.90
632.22	655.90
632.57	652.83
632.91	649.14
633.26	645.83
633.60	642.02
633.95	638.52
634.29	634.43
634.64	630.90
634.98	626.36
635.32	623.43
635.67	620.40
636.01	617.40
636.36	614.00
636.70	611.21
637.05	607.90
637.39	604.95
637.73	602.17
638.08	599.50
638.42	595.90
638.77	593.29
639.11	590.69
639.45	587.60
639.80	584.02
640.14	581.07
640.49	577.74
640.83	574.24
641.17	571.43
641.52	568.62
641.86	565.86
642.20	563.45
642.55	559.76
642.89	557.07
643.23	553.98
643.58	551.98
643.92	548.21
644.26	545.33
644.61	542.57
644.95	539.55
645.29	535.88
645.64	533.81
645.98	530.48
646.32	528.14
646.66	525.21
647.01	522.29
647.35	520.24
647.69	517.79
648.04	515.69
648.38	513.07
648.72	510.38
649.06	507.24
649.41	504.29
649.75	501.40
650.09	498.74
650.43	496.21
650.78	492.83
651.12	490.43
651.46	488.36
651.80	485.98
652.14	482.79
652.49	480.83
652.83	477.50
653.17	475.12
653.51	472.00
653.85	469.98
654.20	468.14
654.54	465.21
654.88	462.38
655.22	460.79
655.56	457.93
655.90	455.36
656.25	453.48
656.59	450.98
656.93	449.24
657.27	447.67
657.61	445.05
657.95	443.10
658.29	440.86
658.64	438.48
658.98	436.21
659.32	434.36
659.66	432.12
660.00	430.52
660.34	428.57
660.68	426.69
661.02	424.45
661.36	421.95
661.70	420.00
662.05	418.17
662.39	416.48
662.73	415.52
663.07	414.74
663.41	413.02
663.75	411.05
664.09	409.12
664.43	406.43
664.77	404.55
665.11	402.79
665.45	401.00
665.79	399.64
666.13	397.55
666.47	396.10
666.81	394.43
667.15	392.24
667.49	391.10
667.83	390.14
668.17	388.26
668.51	386.71
668.85	385.45
669.19	384.71
669.53	382.17
669.87	379.79
670.21	377.57
670.55	376.21
670.89	375.57
671.23	373.95
671.57	372.79
671.91	371.67
672.25	370.21
672.58	369.69
672.92	367.48
673.26	366.52
673.60	365.31
673.94	364.29
674.28	363.45
674.62	362.07
674.96	360.24
675.30	359.14
675.64	358.33
675.97	357.00
676.31	355.33
676.65	353.74
676.99	353.64
677.33	352.05
677.67	350.50
678.01	348.33
678.34	347.31
678.68	346.19
679.02	344.79
679.36	343.26
679.70	341.43
680.04	340.81
680.37	339.81
680.71	338.43
681.05	337.02
681.39	335.95
681.73	334.38
682.06	333.05
682.40	332.10
682.74	331.10
683.08	330.29
683.42	328.62
683.75	327.98
684.09	325.79
684.43	324.88
684.77	323.95
685.10	323.14
685.44	322.17
685.78	320.86
686.12	319.98
686.45	319.02
686.79	317.74
687.13	316.83
687.46	315.76
687.80	315.21
688.14	313.88
688.48	313.02
688.81	312.26
689.15	312.14
689.49	311.05
689.82	310.10
690.16	308.67
690.50	308.00
690.83	306.60
691.17	305.52
691.51	304.55
691.84	303.38
692.18	302.40
692.52	301.38
692.85	300.95
693.19	300.55
693.52	299.74
693.86	299.05
694.20	297.98
694.53	297.26
694.87	295.88
695.21	294.93
695.54	293.69
695.88	292.60
696.21	291.24
696.55	290.43
696.88	289.69
697.22	288.79
697.56	288.19
697.89	287.57
698.23	287.33
698.56	286.50
698.90	286.17
699.23	285.21
699.57	284.52
699.90	283.14
700.24	281.79
700.58	281.12
700.91	280.81
701.25	281.67
701.58	281.55
701.92	281.62
702.25	281.05
702.59	280.55
702.92	279.86
703.26	278.90
703.59	278.24
703.93	278.98
704.26	278.33
704.60	277.64
704.93	276.88
705.26	275.98
705.60	275.81
705.93	274.86
706.27	275.07
706.60	274.74
706.94	275.29
707.27	274.88
707.61	274.36
707.94	273.36
708.27	271.10
708.61	269.69
708.94	268.86
709.28	268.88
709.61	268.05
709.94	267.95
710.28	267.60
710.61	267.14
710.95	264.86
711.28	266.00
711.61	265.50
711.95	265.57
712.28	264.81
712.61	264.21
712.95	264.93
713.28	265.21
713.61	264.26
713.95	262.90
714.28	262.48
714.61	261.74
714.95	261.17
715.28	260.60
715.61	259.81
715.95	259.17
716.28	258.24
716.61	258.17
716.95	257.05
717.28	256.57
717.61	256.00
717.94	255.55
718.28	253.31
718.61	252.60
718.94	251.81
719.27	251.38
719.61	250.71
719.94	249.55
720.27	247.83
720.60	247.55
720.94	247.12
721.27	246.81
721.60	246.95
721.93	246.60
722.27	246.93
722.60	247.21
722.93	246.88
723.26	246.60
723.59	245.83
723.93	246.07
724.26	245.93
724.59	245.48
724.92	245.26
725.25	245.81
725.59	245.64
725.92	245.60
726.25	245.33
726.58	245.19
726.91	244.57
727.24	244.69
727.57	244.36
727.91	243.74
728.24	243.48
728.57	242.69
728.90	242.76
729.23	241.74
729.56	242.14
729.89	241.81
730.22	241.57
730.55	241.52
730.89	241.40
731.22	240.98
731.55	240.71
731.88	240.64
732.21	239.93
732.54	239.67
732.87	239.48
733.20	239.50
733.53	239.29
733.86	239.21
734.19	238.50
734.52	238.60
734.85	239.95
735.18	239.50
735.51	240.38
735.84	239.98
736.17	240.52
736.50	239.26
736.83	241.52
737.16	241.07
737.49	240.64
737.82	239.93
738.15	240.02
738.48	239.93
738.81	239.33
739.14	238.71
739.47	238.17
739.80	237.57
740.13	237.71
740.46	237.05
740.79	236.48
741.12	236.36
741.45	235.93
741.78	234.64
742.11	235.02
742.44	233.76
742.77	234.02
743.10	233.29
743.43	232.88
743.75	230.43
744.08	233.19
744.41	233.02
744.74	232.76
745.07	232.14
745.40	232.21
745.73	232.93
746.06	233.00
746.39	233.21
746.71	232.93
747.04	232.10
747.37	232.14
747.70	232.57
748.03	232.79
748.36	233.05
748.68	232.90
749.01	232.14
749.34	232.33
749.67	231.93
750.00	231.90
750.33	233.48
750.65	233.48
750.98	230.60
751.31	230.43
751.64	230.62
751.97	231.67
752.29	231.45
752.62	230.43
752.95	230.21
753.28	230.02
753.60	229.90
753.93	230.50
754.26	230.24
754.59	229.67
754.91	229.19
755.24	228.60
755.57	228.14
755.90	227.90
756.22	227.38
756.55	226.98
756.88	226.57
757.20	225.00
757.53	224.38
757.86	224.36
758.19	224.50
758.51	224.31
758.84	223.40
759.17	223.14
759.49	223.17
759.82	224.19
760.15	224.19
760.47	224.17
760.80	223.43
761.13	223.69
761.45	223.21
761.78	222.90
762.11	222.76
762.43	222.71
762.76	222.76
763.08	223.02
763.41	223.14
763.74	223.19
764.06	223.14
764.39	223.05
764.71	222.79
765.04	222.26
765.37	222.05
765.69	221.81
766.02	221.76
766.34	221.67
766.67	220.69
767.00	220.98
767.32	221.76
767.65	223.10
767.97	222.76
768.30	222.86
768.62	222.86
768.95	222.55
769.27	222.48
769.60	222.71
769.92	222.55
770.25	222.14
770.57	221.76
770.90	221.50
771.22	221.24
771.55	221.26
771.87	221.43
772.20	221.19
772.52	222.48
772.85	224.71
773.17	224.64
773.50	224.43
773.82	223.83
774.15	222.90
774.47	221.57
774.80	221.36
775.12	221.26
775.45	221.14
775.77	221.38
776.09	221.52
776.42	221.50
776.74	221.81
777.07	221.74
777.39	221.74
777.72	221.81
778.04	222.17
778.36	221.83
778.69	221.74
779.01	221.74
779.33	220.10
779.66	217.74
779.98	217.48
780.31	217.55
780.63	218.40
780.95	218.60
781.28	218.50
781.60	218.48
781.92	218.55
782.25	218.57
782.57	218.26
782.89	218.07
783.22	217.93
783.54	217.52
783.86	217.79
784.19	217.74
784.51	218.19
784.83	217.81
785.16	217.74
785.48	217.81
785.80	217.90
786.12	217.98
786.45	217.74
786.77	218.07
787.09	217.81
787.42	216.95
787.74	217.12
788.06	217.02
788.38	216.79
788.71	216.71
789.03	216.71
789.35	217.26
789.67	216.93
789.99	216.98
790.32	216.98
790.64	217.21
790.96	218.71
791.28	217.88
791.61	217.86
791.93	218.12
792.25	217.86
792.57	219.26
792.89	219.14
793.21	219.40
793.54	219.07
793.86	218.88
794.18	219.21
794.50	218.62
794.82	218.60
795.14	219.05
795.47	219.29
795.79	219.38
796.11	218.60
796.43	218.71
796.75	218.45
797.07	218.33
797.39	217.98
797.71	216.74
798.04	216.93
798.36	216.88
798.68	216.74
799.00	217.10
799.32	215.95
799.64	216.48
799.96	216.57
800.28	217.02
800.60	217.00
800.92	216.88
801.24	216.81
801.56	216.76
801.89	216.36
802.21	216.43
802.53	216.10
802.85	216.88
803.17	217.88
803.49	217.52
803.81	217.38
804.13	217.29
804.45	217.05
804.77	217.21
805.09	217.55
805.41	217.52
805.73	217.05
806.05	216.55
806.37	216.21
806.69	216.07
807.01	215.71
807.33	215.76
807.65	215.24
807.97	216.21
808.28	216.07
808.60	216.29
808.92	216.24
809.24	217.74
809.56	217.29
809.88	216.36
810.20	216.38
810.52	216.69
810.84	216.48
811.16	216.14
811.48	216.05
811.80	216.50
812.12	216.45
812.43	216.95
812.75	217.14
813.07	216.83
813.39	216.98
813.71	216.76
814.03	216.67
814.35	216.76
814.67	215.93
814.98	215.90
815.30	215.86
815.62	215.29
815.94	213.88
816.26	213.79
816.58	213.71
816.89	214.17
817.21	213.67
817.53	213.86
817.85	213.95
818.17	213.71
818.48	212.90
818.80	213.33
819.12	212.86
819.44	212.52
819.76	212.33
820.07	212.05
820.39	212.12
820.71	212.50
821.03	212.36
821.34	212.36
821.66	212.76
821.98	213.10
822.30	213.33
822.61	214.50
822.93	214.43
823.25	214.36
823.57	214.14
823.88	214.67
824.20	214.62
824.52	215.02
824.83	215.07
825.15	215.12
825.47	214.90
825.79	215.24
826.10	215.40
826.42	215.57
826.74	215.88
827.05	215.69
827.37	215.45
827.69	215.33
828.00	215.40
828.32	215.29
828.64	214.95
828.95	215.69
829.27	215.02
829.58	215.05
829.90	215.33
830.22	215.26
830.53	214.90
830.85	214.67
831.17	214.43
831.48	214.48
831.80	214.40
832.11	214.31
832.43	213.81
832.75	213.79
833.06	214.98
833.38	214.29
833.69	214.36
834.01	214.45
834.32	214.43
834.64	214.24
834.96	214.33
835.27	214.14
835.59	213.45
835.90	212.95
836.22	212.88
836.53	212.43
836.85	212.33
837.16	214.33
837.48	214.48
837.79	215.05
838.11	215.02
838.42	215.05
838.74	215.21
839.05	215.43
839.37	215.21
839.68	213.76
840.00	213.83
840.31	214.00
840.63	213.88
840.94	213.74
841.26	213.40
841.57	213.36
841.88	213.67
842.20	213.52
842.51	213.33
842.83	213.48
843.14	215.29
843.46	215.38
843.77	214.21
844.08	214.07
844.40	213.43
844.71	213.50
845.03	213.36
845.34	213.21
845.65	213.02
845.97	213.24
846.28	213.38
846.60	213.57
846.91	213.26
847.22	213.21
847.54	213.81
847.85	214.12
848.16	213.88
848.48	213.43
848.79	214.52
849.10	214.98
849.42	215.17
849.73	213.14
850.04	212.90
850.36	212.10
850.67	212.74
850.98	212.64
851.30	212.62
851.61	212.64
851.92	212.71
852.23	213.36
852.55	213.36
852.86	213.74
853.17	214.05
853.49	214.55
853.80	214.79
854.11	214.90
854.42	215.26
854.74	215.02
855.05	215.21
855.36	213.95
855.67	214.24
855.99	214.12
856.30	216.88
856.61	216.81
856.92	216.90
857.23	216.67
857.55	216.43
857.86	216.67
858.17	217.00
858.48	216.52
858.79	216.24
859.11	216.48
859.42	216.07
859.73	215.50
860.04	215.26
860.35	214.76
860.66	214.14
860.98	213.86
861.29	214.05
861.60	213.86
861.91	214.57
862.22	213.76
862.53	213.36
862.84	210.74
863.16	211.38
863.47	211.14
863.78	210.67
864.09	211.14
864.40	211.05
864.71	210.95
865.02	211.43
865.33	211.19
865.64	210.74
865.95	211.05
866.27	212.45
866.58	212.31
866.89	212.83
867.20	212.76
867.51	212.36
867.82	212.26
868.13	212.83
868.44	212.19
868.75	212.88
869.06	213.07
869.37	213.33
869.68	212.71
869.99	213.00
870.30	213.19
870.61	213.31
870.92	212.90
871.23	212.76
871.54	212.93
871.85	213.26
872.16	213.62
872.47	213.45
872.78	212.40
873.09	212.62
873.40	212.48
873.71	212.69
874.02	212.90
874.33	212.81
874.64	212.21
874.95	212.50
875.26	211.90
875.56	211.86
875.87	211.74
876.18	211.74
876.49	213.52
876.80	213.38
877.11	212.76
877.42	213.02
877.73	212.95
878.04	212.60
878.35	212.43
878.66	212.50
878.96	212.24
879.27	212.10
879.58	212.24
879.89	211.93
880.20	212.52
880.51	212.88
880.82	212.98
881.12	213.24
881.43	212.98
881.74	212.95
882.05	212.83
882.36	213.14
882.67	213.62
882.97	211.62
883.28	211.60
883.59	211.50
883.90	211.71
884.21	212.17
884.51	212.02
884.82	211.83
885.13	211.62
885.44	211.90
885.74	211.93
886.05	211.74
886.36	211.98
886.67	211.33
886.98	212.05
887.28	212.33
887.59	212.21
887.90	212.26
888.20	212.26
888.51	212.76
888.82	212.40
889.13	212.10
889.43	213.50
889.74	213.40
890.05	213.55
890.35	213.52
890.66	213.10
890.97	212.98
891.28	212.71
891.58	212.74
891.89	212.45
892.20	212.29
892.50	212.05
892.81	211.69
893.12	211.67
893.42	210.76
893.73	210.62
894.04	210.98
894.34	211.12
894.65	211.00
894.95	210.60
895.26	210.74
895.57	211.71
895.87	210.24
896.18	210.69
896.48	210.95
896.79	210.81
897.10	211.24
897.40	211.19
897.71	211.81
898.01	211.90
898.32	212.43
898.63	212.43
898.93	212.64
899.24	212.90
899.54	212.86
899.85	212.55
900.15	212.52
900.46	212.24
900.76	212.45
901.07	212.52
901.38	212.60
901.68	212.50
901.99	211.45
902.29	211.62
902.60	211.45
902.90	211.21
903.21	211.14
903.51	210.98
903.82	211.64
904.12	211.45
904.43	211.48
904.73	211.10
905.03	211.17
905.34	213.05
905.64	212.64
905.95	212.64
906.25	212.86
906.56	212.93
906.86	213.14
907.17	213.00
907.47	213.07
907.77	212.79
908.08	212.43
908.38	212.71
908.69	213.05
908.99	213.40
909.30	213.55
909.60	213.52
909.90	213.50
910.21	212.98
910.51	212.74
910.81	212.95
911.12	213.02
911.42	213.12
911.73	211.05
912.03	211.52
912.33	211.93
912.64	211.86
912.94	211.67
913.24	211.10
913.55	211.00
913.85	210.93
914.15	211.55
914.46	212.07
914.76	211.79
915.06	211.31
915.37	210.76
915.67	210.74
915.97	210.64
916.27	210.02
916.58	210.00
916.88	209.98
917.18	209.62
917.49	211.05
917.79	210.95
918.09	211.36
918.39	211.67
918.70	211.50
919.00	211.76
919.30	212.69
919.60	212.98
919.91	212.74
920.21	212.98
920.51	212.43
920.81	212.31
921.12	212.86
921.42	212.88
921.72	213.10
922.02	213.17
922.32	213.74
922.63	214.17
922.93	215.26
923.23	215.36
923.53	215.10
923.83	213.67
924.13	213.74
924.44	213.33
924.74	213.79
925.04	214.07
925.34	213.74
925.64	212.76
925.94	212.45
926.24	213.62
926.55	213.38
926.85	213.88
927.15	213.69
927.45	213.57
927.75	213.45
928.05	213.62
928.35	213.52
928.65	213.67
928.95	213.95
929.26	213.17
929.56	213.43
929.86	213.74
930.16	213.71
930.46	213.64
930.76	213.95
931.06	212.86
931.36	212.43
931.66	212.83
931.96	213.10
932.26	213.29
932.56	212.31
932.86	212.26
933.16	212.17
933.46	212.12
933.76	211.67
934.06	212.21
934.36	212.71
934.66	212.60
934.96	212.14
935.26	212.12
935.56	212.36
935.86	212.07
936.16	211.74
936.46	211.55
936.76	211.62
937.06	211.31
937.36	211.55
937.66	211.67
937.96	211.40
938.26	211.21
938.56	211.19
938.86	211.52
939.16	212.14
939.46	212.24
939.76	212.43
940.06	212.40
940.35	211.79
940.65	210.74
940.95	210.88
941.25	210.52
941.55	210.17
941.85	209.88
942.15	210.38
942.45	210.90
942.75	210.90
943.04	210.93
943.34	211.57
943.64	211.38
943.94	211.05
944.24	211.26
944.54	211.10
944.84	211.21
945.13	210.69
945.43	210.12
945.73	209.95
946.03	209.67
946.33	209.67
946.62	209.71
946.92	209.67
947.22	209.71
947.52	209.74
947.82	209.98
948.11	209.90
948.41	209.38
948.71	208.90
949.01	209.29
949.31	209.02
949.60	208.69
949.90	208.88
950.20	208.81
950.50	208.60
950.79	208.52
951.09	208.69
951.39	208.79
951.69	208.67
951.98	209.21
952.28	209.31
952.58	209.31
952.87	209.31
953.17	209.76
953.47	209.57
953.76	209.74
954.06	209.40
954.36	209.07
954.66	209.21
954.95	209.71
955.25	209.69
955.55	210.12
955.84	209.90
956.14	210.12
956.44	210.55
956.73	210.19
957.03	210.48
957.32	210.48
957.62	210.43
957.92	210.88
958.21	210.52
958.51	212.98
958.81	213.45
959.10	213.90
959.40	214.55
959.69	214.81
959.99	215.05
960.29	215.21
960.58	215.14
960.88	215.81
961.17	215.45
961.47	215.62
961.76	215.31
962.06	215.69
962.36	215.69
962.65	215.45
962.95	215.79
963.24	215.67
963.54	215.71
963.83	215.81
964.13	215.93
964.42	215.55
964.72	214.05
965.01	213.83
965.31	213.55
965.60	212.93
965.90	214.19
966.19	213.86
966.49	213.98
966.78	214.12
967.08	213.88
967.37	214.26
967.67	213.86
967.96	214.31
968.26	214.10
968.55	214.45
968.85	214.64
969.14	214.57
969.43	214.62
969.73	214.40
970.02	214.36
970.32	213.98
970.61	213.98
970.91	213.07
971.20	212.67
971.49	212.52
971.79	212.86
972.08	211.31
972.38	211.38
972.67	211.29
972.96	211.81
973.26	211.45
973.55	211.98
973.85	211.86
974.14	211.57
974.43	211.76
974.73	211.07
975.02	210.86
975.31	210.93
975.61	211.00
975.90	210.93
976.19	211.02
976.49	211.14
976.78	211.38
977.07	211.60
977.37	211.95
977.66	212.26
977.95	211.81
978.24	212.00
978.54	212.55
978.83	212.43
979.12	212.12
979.42	212.17
979.71	211.71
980.00	211.81
980.29	211.88
980.59	211.38
980.88	212.10
981.17	212.02
981.46	212.14
981.76	211.86
982.05	212.29
982.34	212.14
982.63	212.19
982.93	212.02
983.22	212.55
983.51	212.48
983.80	212.43
984.09	212.81
984.39	212.55
984.68	212.12
984.97	212.29
985.26	212.12
985.55	212.21
985.85	211.55
986.14	211.79
986.43	212.05
986.72	212.14
987.01	211.50
987.30	211.52
987.59	211.31
987.89	211.48
988.18	210.98
988.47	210.90
988.76	210.76
989.05	210.71
989.34	210.19
989.63	210.62
989.92	210.40
990.22	209.86
990.51	209.88
990.80	209.93
991.09	210.07
991.38	210.17
991.67	209.81
991.96	209.64
992.25	209.83
992.54	209.21
992.83	208.98
993.12	208.79
993.41	209.00
993.70	209.71
993.99	210.05
994.28	210.36
994.58	210.62
994.87	210.29
995.16	210.14
995.45	210.02
995.74	209.45
996.03	209.93
996.32	210.40
996.61	211.00
996.90	210.67
997.19	210.36
997.48	210.57
997.77	210.55
998.06	211.07
998.34	210.79
998.63	210.98
998.92	211.12
999.21	211.64
999.50	211.74
999.79	211.24
1000.08	211.17
1000.37	211.19
1000.66	210.95
1000.95	211.64
1001.24	211.64
1001.53	211.83
1001.82	211.50
1002.11	210.83
1002.40	210.90
1002.68	211.14
1002.97	212.79
1003.26	212.74
1003.55	212.26
1003.84	212.52
1004.13	213.29
1004.42	213.02
1004.71	213.14
1004.99	213.33
1005.28	213.64
1005.57	213.55
1005.86	213.10
1006.15	213.02
1006.44	212.74
1006.72	212.90
1007.01	212.40
1007.30	212.26
1007.59	212.14
1007.88	212.17
1008.17	212.43
1008.45	212.14
1008.74	211.52
1009.03	210.36
1009.32	210.38
1009.60	210.52
1009.89	210.17
1010.18	209.17
1010.47	209.00
1010.76	208.76
1011.04	208.81
1011.33	209.79
1011.62	210.02
1011.91	210.19
1012.19	210.24
1012.48	210.48
1012.77	210.52
1013.05	211.48
1013.34	211.71
1013.63	211.83
1013.92	212.33
1014.20	212.17
1014.49	212.29
1014.78	212.33
1015.06	211.79
1015.35	211.71
1015.64	212.05
1015.92	212.38
1016.21	212.67
1016.50	212.83
1016.78	213.10
1017.07	213.12
1017.36	211.48
1017.64	210.88
1017.93	211.24
1018.22	211.17
1018.50	210.98
1018.79	210.90
1019.08	210.05
1019.36	210.21
1019.65	209.93
1019.93	210.24
1020.22	210.60
1020.51	211.48
1020.79	211.26
1021.08	211.50
1021.36	209.00
1021.65	211.00
1021.94	208.50
1022.22	211.50
1022.51	207.00
1022.79	218.50
1023.08	214.00
1023.36	233.00
1023.65	205.50
>>>>>End Processed Spectral Data<<<<<
