SpectraSuite Data File
++++++++++++++++++++++++++++++++++++
Date: Tue Apr 02 18:42:45 EDT 2013
User: group
Dark Spectrum Present: No
Reference Spectrum Present: No
Number of Sampled Component Spectra: 1
Spectrometers: USB2E7196
Integration Time (usec): 580000 (USB2E7196)
Spectra Averaged: 2 (USB2E7196)
Boxcar Smoothing: 10 (USB2E7196)
Correct for Electrical Dark: No (USB2E7196)
Strobe/Lamp Enabled: No (USB2E7196)
Correct for Detector Non-linearity: No (USB2E7196)
Correct for Stray Light: No (USB2E7196)
Number of Pixels in Processed Spectrum: 2048
>>>>>Begin Processed Spectral Data<<<<<
339.09	0.00
339.48	192.50
339.86	197.50
340.24	196.50
340.63	197.00
341.01	231.50
341.39	198.50
341.78	206.00
342.16	212.50
342.54	207.50
342.93	198.71
343.31	208.48
343.69	209.17
344.07	209.60
344.46	210.24
344.84	211.00
345.22	209.86
345.60	210.57
345.99	210.74
346.37	210.64
346.75	210.83
347.13	211.05
347.52	211.14
347.90	211.90
348.28	212.00
348.66	212.52
349.05	212.00
349.43	212.29
349.81	212.52
350.19	212.60
350.57	212.55
350.96	212.67
351.34	213.14
351.72	213.26
352.10	213.36
352.48	213.19
352.87	213.07
353.25	213.10
353.63	212.83
354.01	213.00
354.39	213.12
354.77	213.10
355.15	213.71
355.54	213.55
355.92	212.88
356.30	212.71
356.68	213.83
357.06	213.60
357.44	213.12
357.82	212.83
358.20	213.60
358.58	213.74
358.97	213.69
359.35	214.12
359.73	214.48
360.11	214.55
360.49	214.81
360.87	214.71
361.25	215.02
361.63	215.83
362.01	215.79
362.39	215.76
362.77	215.83
363.15	215.64
363.53	215.74
363.91	215.67
364.29	215.81
364.67	214.07
365.05	214.21
365.43	214.50
365.81	215.02
366.19	215.21
366.57	215.93
366.95	215.67
367.33	214.83
367.71	215.02
368.09	215.52
368.47	215.36
368.85	215.29
369.23	215.55
369.61	214.67
369.99	215.10
370.37	215.14
370.75	216.02
371.13	215.52
371.51	215.10
371.89	215.33
372.27	215.52
372.65	215.64
373.03	215.79
373.41	215.60
373.78	215.31
374.16	214.10
374.54	213.45
374.92	213.64
375.30	213.81
375.68	213.36
376.06	213.29
376.44	213.36
376.82	213.62
377.19	213.40
377.57	213.52
377.95	213.07
378.33	212.95
378.71	211.76
379.09	212.29
379.47	212.57
379.84	212.38
380.22	212.05
380.60	211.64
380.98	211.60
381.36	211.60
381.73	211.17
382.11	211.57
382.49	211.74
382.87	211.26
383.25	211.52
383.62	213.81
384.00	213.33
384.38	213.52
384.76	213.86
385.13	214.86
385.51	215.07
385.89	214.79
386.27	214.81
386.64	215.24
387.02	214.90
387.40	214.86
387.78	215.05
388.15	215.05
388.53	215.02
388.91	214.93
389.29	215.07
389.66	215.50
390.04	215.24
390.42	215.52
390.79	215.74
391.17	215.50
391.55	213.24
391.92	213.38
392.30	213.67
392.68	213.45
393.05	213.17
393.43	212.95
393.81	213.19
394.18	212.95
394.56	213.19
394.94	213.60
395.31	213.60
395.69	214.10
396.06	214.50
396.44	214.81
396.82	214.83
397.19	215.69
397.57	215.57
397.95	216.02
398.32	215.48
398.70	215.81
399.07	216.33
399.45	216.33
399.82	216.38
400.20	215.81
400.58	215.79
400.95	215.07
401.33	215.62
401.70	217.00
402.08	217.21
402.45	217.12
402.83	217.71
403.20	217.86
403.58	217.64
403.95	218.05
404.33	218.31
404.71	218.40
405.08	219.48
405.46	219.79
405.83	220.40
406.21	220.95
406.58	221.52
406.96	221.71
407.33	222.17
407.70	223.00
408.08	225.40
408.45	226.24
408.83	227.29
409.20	227.79
409.58	227.60
409.95	228.81
410.33	229.93
410.70	230.02
411.08	231.36
411.45	232.50
411.82	233.31
412.20	235.02
412.57	237.48
412.95	237.33
413.32	239.19
413.69	240.52
414.07	241.88
414.44	243.50
414.82	245.67
415.19	248.19
415.56	250.31
415.94	251.36
416.31	253.93
416.68	256.86
417.06	260.17
417.43	263.67
417.81	267.05
418.18	270.26
418.55	274.21
418.93	278.29
419.30	282.71
419.67	287.19
420.04	291.67
420.42	296.02
420.79	302.88
421.16	308.60
421.54	315.43
421.91	322.10
422.28	328.38
422.66	334.62
423.03	342.40
423.40	349.07
423.77	356.64
424.15	363.76
424.52	371.14
424.89	379.57
425.26	387.17
425.64	394.88
426.01	403.88
426.38	412.57
426.75	422.07
427.13	431.00
427.50	440.50
427.87	450.31
428.24	459.93
428.61	468.64
428.99	480.24
429.36	490.31
429.73	501.88
430.10	513.74
430.47	525.40
430.85	535.76
431.22	548.64
431.59	563.17
431.96	576.05
432.33	590.36
432.70	603.90
433.08	620.60
433.45	635.90
433.82	651.10
434.19	668.12
434.56	684.69
434.93	700.81
435.30	716.95
435.68	735.02
436.05	752.19
436.42	769.48
436.79	784.74
437.16	801.88
437.53	819.45
437.90	836.88
438.27	854.88
438.64	873.40
439.01	890.57
439.38	904.93
439.75	919.79
440.13	936.86
440.50	952.90
440.87	965.24
441.24	978.55
441.61	993.12
441.98	1004.26
442.35	1016.67
442.72	1029.36
443.09	1043.55
443.46	1050.83
443.83	1056.64
444.20	1060.76
444.57	1067.12
444.94	1071.29
445.31	1074.48
445.68	1080.31
446.05	1081.67
446.42	1080.57
446.79	1078.95
447.16	1076.38
447.53	1076.02
447.90	1069.76
448.27	1063.55
448.64	1054.98
449.01	1048.67
449.37	1036.93
449.74	1026.36
450.11	1015.17
450.48	1000.74
450.85	983.93
451.22	971.45
451.59	959.98
451.96	948.50
452.33	932.52
452.70	917.76
453.07	900.69
453.43	881.00
453.80	864.98
454.17	849.71
454.54	834.38
454.91	818.26
455.28	801.52
455.65	786.17
456.02	774.24
456.38	761.50
456.75	746.17
457.12	733.38
457.49	720.12
457.86	705.69
458.23	695.40
458.59	683.86
458.96	671.50
459.33	660.31
459.70	650.12
460.07	642.19
460.43	632.55
460.80	624.19
461.17	616.57
461.54	607.90
461.91	599.29
462.27	591.40
462.64	584.36
463.01	577.10
463.38	570.40
463.74	559.67
464.11	553.10
464.48	547.45
464.85	541.12
465.21	536.38
465.58	531.26
465.95	524.57
466.32	519.50
466.68	514.52
467.05	509.40
467.42	504.33
467.78	498.19
468.15	493.17
468.52	489.36
468.88	483.86
469.25	479.12
469.62	475.40
469.98	471.12
470.35	467.79
470.72	464.21
471.08	459.90
471.45	457.26
471.82	454.48
472.18	450.62
472.55	448.05
472.92	444.79
473.28	441.67
473.65	438.76
474.02	436.29
474.38	434.12
474.75	431.83
475.11	429.29
475.48	428.00
475.85	426.38
476.21	424.38
476.58	423.24
476.94	421.95
477.31	420.38
477.67	419.57
478.04	417.83
478.41	416.79
478.77	417.62
479.14	416.45
479.50	415.71
479.87	415.55
480.23	415.21
480.60	414.62
480.96	414.38
481.33	415.19
481.69	415.07
482.06	415.17
482.42	415.98
482.79	416.83
483.15	417.05
483.52	418.17
483.88	418.67
484.25	419.45
484.61	420.36
484.98	420.98
485.34	422.10
485.71	424.52
486.07	425.95
486.44	426.38
486.80	427.57
487.17	429.05
487.53	431.52
487.90	433.74
488.26	436.69
488.62	439.69
488.99	441.76
489.35	444.50
489.72	447.45
490.08	449.38
490.44	451.74
490.81	455.29
491.17	457.81
491.54	461.24
491.90	464.90
492.26	468.67
492.63	472.55
492.99	476.02
493.36	479.60
493.72	484.36
494.08	488.67
494.45	493.74
494.81	498.48
495.17	502.98
495.54	508.60
495.90	512.88
496.26	517.93
496.63	523.48
496.99	528.64
497.35	534.50
497.72	541.02
498.08	546.86
498.44	552.83
498.80	559.38
499.17	565.64
499.53	571.12
499.89	578.14
500.26	585.33
500.62	592.52
500.98	600.62
501.34	607.12
501.71	613.81
502.07	620.83
502.43	627.95
502.79	634.40
503.16	640.90
503.52	648.05
503.88	654.93
504.24	662.19
504.60	669.31
504.97	676.67
505.33	683.86
505.69	692.64
506.05	700.81
506.41	708.74
506.78	716.57
507.14	724.88
507.50	732.50
507.86	740.26
508.22	748.02
508.59	754.36
508.95	762.64
509.31	772.05
509.67	779.48
510.03	787.48
510.39	795.33
510.75	803.29
511.12	811.24
511.48	818.76
511.84	826.69
512.20	835.02
512.56	842.62
512.92	851.07
513.28	857.88
513.64	864.81
514.00	871.60
514.37	879.14
514.73	886.43
515.09	893.74
515.45	900.83
515.81	907.83
516.17	914.60
516.53	921.10
516.89	926.43
517.25	934.00
517.61	940.95
517.97	947.57
518.33	953.50
518.69	960.71
519.05	967.52
519.41	973.45
519.77	980.60
520.13	986.67
520.49	991.88
520.85	998.26
521.21	1004.55
521.57	1011.88
521.93	1016.98
522.29	1022.55
522.65	1027.38
523.01	1032.90
523.37	1038.64
523.73	1044.98
524.09	1050.05
524.45	1055.07
524.81	1059.33
525.17	1063.79
525.53	1068.67
525.89	1073.76
526.25	1078.71
526.61	1082.45
526.97	1086.40
527.33	1090.93
527.68	1096.90
528.04	1101.60
528.40	1105.60
528.76	1109.83
529.12	1113.29
529.48	1118.21
529.84	1122.88
530.20	1127.74
530.56	1131.93
530.91	1135.93
531.27	1139.93
531.63	1144.02
531.99	1147.86
532.35	1152.12
532.71	1156.26
533.07	1161.14
533.42	1167.62
533.78	1171.43
534.14	1176.36
534.50	1181.05
534.86	1184.95
535.21	1187.62
535.57	1192.19
535.93	1195.52
536.29	1200.19
536.65	1204.36
537.00	1207.90
537.36	1211.31
537.72	1215.07
538.08	1219.60
538.44	1222.38
538.79	1225.74
539.15	1229.74
539.51	1234.17
539.87	1238.19
540.22	1241.86
540.58	1245.02
540.94	1246.45
541.29	1249.48
541.65	1251.86
542.01	1255.24
542.37	1257.07
542.72	1259.00
543.08	1260.86
543.44	1264.19
543.79	1266.05
544.15	1268.55
544.51	1272.12
544.87	1275.00
545.22	1277.55
545.58	1279.00
545.94	1282.14
546.29	1285.14
546.65	1287.45
547.01	1289.43
547.36	1291.52
547.72	1294.00
548.07	1297.79
548.43	1300.00
548.79	1302.05
549.14	1305.26
549.50	1308.60
549.86	1311.57
550.21	1314.76
550.57	1318.52
550.92	1320.83
551.28	1323.93
551.64	1326.50
551.99	1328.86
552.35	1331.55
552.70	1334.93
553.06	1338.31
553.41	1341.36
553.77	1345.86
554.13	1350.07
554.48	1354.88
554.84	1359.07
555.19	1363.00
555.55	1366.74
555.90	1370.57
556.26	1374.90
556.61	1378.45
556.97	1380.81
557.32	1385.31
557.68	1389.81
558.03	1393.48
558.39	1398.57
558.74	1402.86
559.10	1406.90
559.45	1411.50
559.81	1416.74
560.16	1419.81
560.52	1425.14
560.87	1429.79
561.23	1433.05
561.58	1438.36
561.94	1441.88
562.29	1446.10
562.64	1450.79
563.00	1454.62
563.35	1459.71
563.71	1464.90
564.06	1470.40
564.42	1476.02
564.77	1481.33
565.12	1487.64
565.48	1494.43
565.83	1500.14
566.19	1505.38
566.54	1511.38
566.89	1516.62
567.25	1522.52
567.60	1529.79
567.96	1536.98
568.31	1544.05
568.66	1550.07
569.02	1553.88
569.37	1559.33
569.72	1564.98
570.08	1570.45
570.43	1575.24
570.78	1580.55
571.14	1585.29
571.49	1589.98
571.84	1595.57
572.20	1599.62
572.55	1604.21
572.90	1607.52
573.26	1611.45
573.61	1616.36
573.96	1621.02
574.31	1624.05
574.67	1627.83
575.02	1630.74
575.37	1632.67
575.72	1635.33
576.08	1638.48
576.43	1642.07
576.78	1646.05
577.13	1649.88
577.49	1653.52
577.84	1657.71
578.19	1660.98
578.54	1665.52
578.90	1669.74
579.25	1673.83
579.60	1677.62
579.95	1679.76
580.30	1683.17
580.66	1686.90
581.01	1689.76
581.36	1692.76
581.71	1696.76
582.06	1700.52
582.42	1705.05
582.77	1707.38
583.12	1710.50
583.47	1714.00
583.82	1717.29
584.17	1719.69
584.53	1723.05
584.88	1726.05
585.23	1729.00
585.58	1731.76
585.93	1733.40
586.28	1735.26
586.63	1737.57
586.98	1740.38
587.34	1744.36
587.69	1746.62
588.04	1749.14
588.39	1752.31
588.74	1753.14
589.09	1755.93
589.44	1755.69
589.79	1757.74
590.14	1760.43
590.49	1761.83
590.84	1762.88
591.19	1765.17
591.54	1767.50
591.89	1768.05
592.25	1770.21
592.60	1771.29
592.95	1772.02
593.30	1774.10
593.65	1775.07
594.00	1774.31
594.35	1780.67
594.70	1779.50
595.05	1780.57
595.40	1780.74
595.75	1780.98
596.10	1782.74
596.45	1784.17
596.80	1786.00
597.15	1786.21
597.50	1786.00
597.85	1787.21
598.19	1787.38
598.54	1786.76
598.89	1786.21
599.24	1787.36
599.59	1786.05
599.94	1786.07
600.29	1786.93
600.64	1785.50
600.99	1785.07
601.34	1786.17
601.69	1780.10
602.04	1779.76
602.39	1779.00
602.74	1778.83
603.08	1777.43
603.43	1778.52
603.78	1775.17
604.13	1774.71
604.48	1773.10
604.83	1773.40
605.18	1772.69
605.53	1772.57
605.87	1771.14
606.22	1770.00
606.57	1767.98
606.92	1767.00
607.27	1766.19
607.62	1765.52
607.96	1765.64
608.31	1766.05
608.66	1764.76
609.01	1763.64
609.36	1763.10
609.70	1761.26
610.05	1759.05
610.40	1757.48
610.75	1753.71
611.10	1754.81
611.44	1751.95
611.79	1750.40
612.14	1747.98
612.49	1744.07
612.83	1740.67
613.18	1738.71
613.53	1735.60
613.88	1731.90
614.22	1727.83
614.57	1723.90
614.92	1720.36
615.27	1716.57
615.61	1711.55
615.96	1707.76
616.31	1703.67
616.65	1700.83
617.00	1697.67
617.35	1694.00
617.70	1690.60
618.04	1686.62
618.39	1680.60
618.74	1677.14
619.08	1671.95
619.43	1666.95
619.78	1663.64
620.12	1659.74
620.47	1655.74
620.82	1651.86
621.16	1647.50
621.51	1644.98
621.85	1640.43
622.20	1635.29
622.55	1630.50
622.89	1627.14
623.24	1624.38
623.59	1620.52
623.93	1615.43
624.28	1611.33
624.62	1609.69
624.97	1606.10
625.32	1601.93
625.66	1598.02
626.01	1593.69
626.35	1590.67
626.70	1587.57
627.04	1584.33
627.39	1580.67
627.73	1577.76
628.08	1574.21
628.43	1570.67
628.77	1565.95
629.12	1562.07
629.46	1558.76
629.81	1554.88
630.15	1549.83
630.50	1544.02
630.84	1539.55
631.19	1534.69
631.53	1529.14
631.88	1521.55
632.22	1515.10
632.57	1510.86
632.91	1505.62
633.26	1501.19
633.60	1495.57
633.95	1489.14
634.29	1482.88
634.64	1477.45
634.98	1471.17
635.32	1466.45
635.67	1462.67
636.01	1457.14
636.36	1452.02
636.70	1447.64
637.05	1442.50
637.39	1437.76
637.73	1432.64
638.08	1427.86
638.42	1422.86
638.77	1418.64
639.11	1413.55
639.45	1408.52
639.80	1402.83
640.14	1397.95
640.49	1392.50
640.83	1388.29
641.17	1383.79
641.52	1378.29
641.86	1373.00
642.20	1369.19
642.55	1362.50
642.89	1355.17
643.23	1349.67
643.58	1344.64
643.92	1336.50
644.26	1330.40
644.61	1324.52
644.95	1318.17
645.29	1311.17
645.64	1305.69
645.98	1299.19
646.32	1294.17
646.66	1287.45
647.01	1280.64
647.35	1275.50
647.69	1268.95
648.04	1262.33
648.38	1256.02
648.72	1249.67
649.06	1243.45
649.41	1235.43
649.75	1228.93
650.09	1223.29
650.43	1217.12
650.78	1210.31
651.12	1204.62
651.46	1198.12
651.80	1191.33
652.14	1185.24
652.49	1178.90
652.83	1172.12
653.17	1165.64
653.51	1158.05
653.85	1152.43
654.20	1146.36
654.54	1138.33
654.88	1131.71
655.22	1125.29
655.56	1118.93
655.90	1112.38
656.25	1105.36
656.59	1099.43
656.93	1093.26
657.27	1087.93
657.61	1081.12
657.95	1075.26
658.29	1069.00
658.64	1062.90
658.98	1056.31
659.32	1049.45
659.66	1043.05
660.00	1036.67
660.34	1030.57
660.68	1024.74
661.02	1018.50
661.36	1012.19
661.70	1006.14
662.05	1000.45
662.39	994.00
662.73	988.02
663.07	983.05
663.41	977.62
663.75	971.26
664.09	965.74
664.43	958.52
664.77	952.67
665.11	945.67
665.45	939.90
665.79	934.10
666.13	928.64
666.47	922.67
666.81	917.64
667.15	911.71
667.49	906.69
667.83	901.60
668.17	896.26
668.51	890.90
668.85	886.43
669.19	881.12
669.53	874.81
669.87	868.95
670.21	863.14
670.55	857.05
670.89	851.79
671.23	846.31
671.57	840.86
671.91	835.74
672.25	830.40
672.58	825.86
672.92	819.62
673.26	814.38
673.60	809.36
673.94	804.05
674.28	799.14
674.62	793.50
674.96	787.69
675.30	782.55
675.64	777.10
675.97	771.17
676.31	765.36
676.65	760.74
676.99	756.48
677.33	751.26
677.67	747.33
678.01	741.95
678.34	737.00
678.68	732.67
679.02	727.33
679.36	722.52
679.70	717.12
680.04	712.45
680.37	707.60
680.71	703.17
681.05	698.62
681.39	694.10
681.73	688.55
682.06	683.93
682.40	679.07
682.74	675.10
683.08	671.38
683.42	666.71
683.75	662.38
684.09	656.98
684.43	652.93
684.77	647.74
685.10	643.33
685.44	638.79
685.78	634.14
686.12	630.12
686.45	625.50
686.79	620.50
687.13	617.07
687.46	612.93
687.80	608.88
688.14	604.64
688.48	600.40
688.81	596.86
689.15	593.71
689.49	589.31
689.82	585.12
690.16	579.98
690.50	575.76
690.83	571.48
691.17	567.43
691.51	563.05
691.84	558.95
692.18	554.95
692.52	550.64
692.85	547.24
693.19	544.40
693.52	541.07
693.86	537.60
694.20	533.69
694.53	529.62
694.87	525.90
695.21	521.93
695.54	518.02
695.88	513.93
696.21	508.88
696.55	505.64
696.88	502.05
697.22	498.62
697.56	495.93
697.89	492.55
698.23	489.69
698.56	486.19
698.90	483.55
699.23	479.88
699.57	477.26
699.90	473.31
700.24	469.33
700.58	466.14
700.91	463.29
701.25	461.62
701.58	459.52
701.92	456.88
702.25	453.71
702.59	451.02
702.92	448.33
703.26	445.86
703.59	443.29
703.93	442.50
704.26	440.50
704.60	437.52
704.93	434.55
705.26	431.36
705.60	429.45
705.93	426.17
706.27	424.19
706.60	421.86
706.94	420.52
707.27	417.24
707.61	414.71
707.94	412.00
708.27	408.10
708.61	404.95
708.94	402.38
709.28	400.29
709.61	397.57
709.94	395.69
710.28	393.76
710.61	391.29
710.95	386.88
711.28	385.90
711.61	383.69
711.95	382.33
712.28	380.14
712.61	377.62
712.95	376.55
713.28	375.50
713.61	373.17
713.95	370.43
714.28	369.14
714.61	367.05
714.95	365.05
715.28	362.93
715.61	361.07
715.95	359.10
716.28	357.21
716.61	355.60
716.95	353.29
717.28	351.38
717.61	349.76
717.94	348.29
718.28	344.67
718.61	342.76
718.94	340.36
719.27	338.93
719.61	337.38
719.94	334.88
720.27	331.93
720.60	330.19
720.94	328.40
721.27	326.88
721.60	325.93
721.93	324.45
722.27	323.86
722.60	322.86
722.93	321.50
723.26	320.26
723.59	318.98
723.93	318.00
724.26	316.62
724.59	315.07
724.92	314.14
725.25	313.95
725.59	312.98
725.92	312.55
726.25	311.50
726.58	310.43
726.91	309.64
727.24	309.19
727.57	308.19
727.91	307.02
728.24	306.14
728.57	304.62
728.90	304.05
729.23	302.14
729.56	301.69
729.89	300.43
730.22	299.00
730.55	297.95
730.89	297.12
731.22	296.33
731.55	295.26
731.88	294.21
732.21	292.69
732.54	291.52
732.87	290.19
733.20	289.10
733.53	288.29
733.86	287.57
734.19	286.19
734.52	285.38
734.85	286.12
735.18	285.21
735.51	285.31
735.84	284.50
736.17	284.31
736.50	282.83
736.83	284.71
737.16	283.90
737.49	283.12
737.82	282.10
738.15	281.24
738.48	280.55
738.81	279.55
739.14	278.76
739.47	278.10
739.80	277.60
740.13	277.07
740.46	275.76
740.79	274.62
741.12	274.14
741.45	273.17
741.78	271.33
742.11	270.95
742.44	269.86
742.77	269.67
743.10	268.67
743.43	267.93
743.75	265.00
744.08	267.29
744.41	266.40
744.74	265.81
745.07	264.86
745.40	264.71
745.73	265.00
746.06	264.43
746.39	263.95
746.71	262.93
747.04	262.00
747.37	261.71
747.70	261.67
748.03	261.12
748.36	261.02
748.68	260.36
749.01	259.29
749.34	258.31
749.67	257.36
750.00	257.24
750.33	258.07
750.65	257.69
750.98	254.62
751.31	254.33
751.64	253.93
751.97	254.74
752.29	254.02
752.62	252.45
752.95	251.83
753.28	250.98
753.60	250.48
753.93	250.90
754.26	250.31
754.59	249.19
754.91	248.67
755.24	247.83
755.57	247.40
755.90	247.02
756.22	246.76
756.55	246.14
756.88	245.31
757.20	243.52
757.53	242.43
757.86	242.05
758.19	241.67
758.51	241.17
758.84	239.81
759.17	239.24
759.49	239.19
759.82	240.02
760.15	240.10
760.47	239.86
760.80	238.57
761.13	238.67
761.45	238.40
761.78	238.12
762.11	238.10
762.43	237.88
762.76	237.40
763.08	237.43
763.41	237.31
763.74	237.19
764.06	236.81
764.39	236.69
764.71	236.21
765.04	235.98
765.37	235.36
765.69	234.98
766.02	234.67
766.34	234.05
766.67	233.10
767.00	233.17
767.32	234.07
767.65	235.31
767.97	234.57
768.30	234.33
768.62	233.98
768.95	233.52
769.27	233.14
769.60	233.45
769.92	232.86
770.25	232.14
770.57	231.48
770.90	231.29
771.22	230.95
771.55	230.98
771.87	230.79
772.20	230.69
772.52	232.43
772.85	234.88
773.17	235.05
773.50	234.67
773.82	234.14
774.15	232.86
774.47	231.62
774.80	231.62
775.12	231.60
775.45	231.33
775.77	231.12
776.09	231.17
776.42	230.60
776.74	231.05
777.07	230.98
777.39	230.95
777.72	230.60
778.04	230.64
778.36	230.43
778.69	230.29
779.01	230.38
779.33	228.24
779.66	225.55
779.98	225.33
780.31	225.17
780.63	225.88
780.95	226.02
781.28	225.90
781.60	225.52
781.92	225.21
782.25	225.19
782.57	225.00
782.89	224.43
783.22	224.26
783.54	223.67
783.86	223.71
784.19	223.57
784.51	224.14
784.83	223.83
785.16	223.48
785.48	223.17
785.80	222.98
786.12	223.17
786.45	223.36
786.77	223.36
787.09	223.21
787.42	222.38
787.74	222.43
788.06	222.19
788.38	222.21
788.71	221.93
789.03	221.69
789.35	222.07
789.67	221.98
789.99	221.93
790.32	221.55
790.64	221.76
790.96	223.55
791.28	222.81
791.61	222.86
791.93	223.05
792.25	223.07
792.57	224.64
792.89	224.00
793.21	224.07
793.54	223.50
793.86	223.19
794.18	223.33
794.50	222.83
794.82	222.64
795.14	222.64
795.47	223.05
795.79	223.17
796.11	222.50
796.43	222.38
796.75	222.48
797.07	222.48
797.39	222.14
797.71	220.29
798.04	220.45
798.36	220.33
798.68	220.29
799.00	220.12
799.32	218.57
799.64	219.26
799.96	219.14
800.28	219.69
800.60	219.60
800.92	219.60
801.24	219.45
801.56	219.74
801.89	219.76
802.21	219.93
802.53	219.64
802.85	220.29
803.17	221.12
803.49	220.60
803.81	220.48
804.13	220.55
804.45	220.50
804.77	220.60
805.09	220.31
805.41	220.02
805.73	219.79
806.05	219.48
806.37	218.98
806.69	218.50
807.01	218.19
807.33	218.31
807.65	217.69
807.97	218.69
808.28	218.33
808.60	217.98
808.92	217.38
809.24	218.67
809.56	217.90
809.88	217.10
810.20	217.29
810.52	217.76
810.84	217.33
811.16	217.00
811.48	216.76
811.80	217.52
812.12	217.48
812.43	217.90
812.75	218.07
813.07	217.98
813.39	218.17
813.71	217.81
814.03	217.57
814.35	217.57
814.67	216.52
814.98	216.17
815.30	216.26
815.62	215.95
815.94	214.38
816.26	214.64
816.58	214.24
816.89	214.55
817.21	213.88
817.53	213.95
817.85	214.12
818.17	214.10
818.48	213.57
818.80	214.00
819.12	213.55
819.44	213.19
819.76	212.95
820.07	212.83
820.39	212.98
820.71	213.12
821.03	213.12
821.34	213.24
821.66	213.88
821.98	214.02
822.30	214.17
822.61	215.60
822.93	215.45
823.25	215.74
823.57	215.48
823.88	216.10
824.20	216.02
824.52	216.43
824.83	216.50
825.15	216.26
825.47	216.05
825.79	216.57
826.10	216.36
826.42	216.24
826.74	216.67
827.05	216.52
827.37	216.57
827.69	216.48
828.00	216.43
828.32	216.24
828.64	216.07
828.95	216.95
829.27	216.36
829.58	216.31
829.90	216.67
830.22	216.76
830.53	216.38
830.85	216.21
831.17	215.52
831.48	215.31
831.80	215.38
832.11	215.17
832.43	214.83
832.75	215.14
833.06	216.60
833.38	215.88
833.69	216.00
834.01	216.10
834.32	215.86
834.64	215.64
834.96	215.62
835.27	215.67
835.59	215.17
835.90	214.76
836.22	214.86
836.53	214.31
836.85	214.12
837.16	216.14
837.48	216.24
837.79	216.83
838.11	217.26
838.42	217.40
838.74	217.62
839.05	217.36
839.37	217.31
839.68	215.83
840.00	215.83
840.31	215.93
840.63	215.79
840.94	215.71
841.26	215.60
841.57	215.69
841.88	215.79
842.20	215.36
842.51	215.05
842.83	214.98
843.14	216.83
843.46	217.00
843.77	215.93
844.08	215.83
844.40	215.29
844.71	214.86
845.03	214.52
845.34	214.64
845.65	214.64
845.97	214.69
846.28	214.86
846.60	214.83
846.91	214.64
847.22	214.69
847.54	215.07
847.85	215.26
848.16	214.81
848.48	214.43
848.79	215.40
849.10	215.69
849.42	215.71
849.73	213.71
850.04	213.45
850.36	212.62
850.67	213.00
850.98	213.05
851.30	213.19
851.61	213.12
851.92	212.71
852.23	213.29
852.55	213.38
852.86	213.60
853.17	213.95
853.49	214.31
853.80	214.48
854.11	214.64
854.42	214.81
854.74	214.60
855.05	214.71
855.36	213.43
855.67	213.62
855.99	213.48
856.30	216.00
856.61	215.90
856.92	215.76
857.23	215.74
857.55	215.69
857.86	215.50
858.17	215.79
858.48	215.71
858.79	215.36
859.11	215.38
859.42	215.33
859.73	215.26
860.04	215.05
860.35	214.45
860.66	213.79
860.98	213.88
861.29	214.24
861.60	213.90
861.91	214.74
862.22	214.17
862.53	214.17
862.84	211.62
863.16	212.19
863.47	212.10
863.78	211.83
864.09	212.02
864.40	212.10
864.71	212.00
865.02	212.19
865.33	211.62
865.64	211.07
865.95	210.83
866.27	211.57
866.58	211.43
866.89	211.55
867.20	211.60
867.51	211.33
867.82	211.14
868.13	211.90
868.44	211.31
868.75	211.95
869.06	212.00
869.37	212.40
869.68	211.90
869.99	212.31
870.30	212.43
870.61	212.45
870.92	212.19
871.23	212.02
871.54	212.45
871.85	213.14
872.16	213.50
872.47	213.45
872.78	212.48
873.09	212.88
873.40	213.00
873.71	213.24
874.02	213.00
874.33	213.12
874.64	212.64
874.95	213.07
875.26	212.57
875.56	212.48
875.87	212.38
876.18	212.36
876.49	214.05
876.80	213.90
877.11	213.55
877.42	213.52
877.73	213.64
878.04	213.10
878.35	213.19
878.66	213.48
878.96	213.60
879.27	213.55
879.58	213.29
879.89	213.24
880.20	214.05
880.51	214.31
880.82	214.24
881.12	214.24
881.43	213.69
881.74	213.40
882.05	213.45
882.36	213.79
882.67	213.67
882.97	211.71
883.28	211.48
883.59	211.40
883.90	211.67
884.21	212.02
884.51	212.10
884.82	211.69
885.13	211.48
885.44	211.33
885.74	211.29
886.05	211.14
886.36	211.12
886.67	210.14
886.98	210.93
887.28	211.05
887.59	211.26
887.90	211.26
888.20	211.24
888.51	211.40
888.82	210.71
889.13	211.02
889.43	212.40
889.74	212.36
890.05	212.26
890.35	211.98
890.66	211.67
890.97	211.33
891.28	211.10
891.58	211.17
891.89	211.14
892.20	211.10
892.50	211.17
892.81	210.98
893.12	210.90
893.42	209.86
893.73	209.88
894.04	209.81
894.34	210.00
894.65	209.95
894.95	209.79
895.26	210.21
895.57	210.98
895.87	209.00
896.18	209.50
896.48	209.88
896.79	210.00
897.10	210.33
897.40	210.69
897.71	210.93
898.01	210.83
898.32	210.95
898.63	211.05
898.93	210.88
899.24	210.74
899.54	210.81
899.85	210.86
900.15	210.69
900.46	210.71
900.76	210.95
901.07	211.07
901.38	211.10
901.68	211.00
901.99	210.02
902.29	210.48
902.60	210.21
902.90	210.00
903.21	210.02
903.51	209.57
903.82	209.81
904.12	210.02
904.43	210.07
904.73	210.10
905.03	210.10
905.34	212.17
905.64	212.31
905.95	212.48
906.25	212.48
906.56	212.40
906.86	212.50
907.17	212.45
907.47	212.69
907.77	212.57
908.08	212.29
908.38	212.29
908.69	212.43
908.99	212.81
909.30	213.10
909.60	213.38
909.90	213.64
910.21	213.19
910.51	213.00
910.81	213.00
911.12	213.05
911.42	213.17
911.73	210.88
912.03	210.98
912.33	211.14
912.64	211.02
912.94	211.12
913.24	210.55
913.55	210.21
913.85	210.02
914.15	210.50
914.46	210.79
914.76	210.93
915.06	210.83
915.37	210.31
915.67	210.02
915.97	209.69
916.27	209.31
916.58	209.36
916.88	209.19
917.18	209.12
917.49	210.60
917.79	210.57
918.09	211.29
918.39	211.88
918.70	211.86
919.00	211.86
919.30	212.64
919.60	212.71
919.91	212.69
920.21	212.60
920.51	212.17
920.81	212.29
921.12	212.31
921.42	212.19
921.72	212.69
922.02	212.81
922.32	213.33
922.63	213.40
922.93	214.36
923.23	214.45
923.53	214.05
923.83	212.71
924.13	213.02
924.44	212.81
924.74	212.98
925.04	213.40
925.34	213.62
925.64	212.86
925.94	213.02
926.24	214.12
926.55	213.90
926.85	214.24
927.15	214.05
927.45	214.45
927.75	214.57
928.05	214.40
928.35	214.19
928.65	214.31
928.95	214.48
929.26	213.88
929.56	214.24
929.86	214.71
930.16	214.67
930.46	214.26
930.76	214.38
931.06	213.48
931.36	213.02
931.66	213.50
931.96	213.79
932.26	213.93
932.56	213.14
932.86	213.45
933.16	213.33
933.46	213.14
933.76	212.52
934.06	213.07
934.36	213.88
934.66	214.17
934.96	213.95
935.26	214.31
935.56	214.29
935.86	213.88
936.16	213.57
936.46	213.31
936.76	213.29
937.06	212.74
937.36	212.98
937.66	212.95
937.96	212.62
938.26	212.10
938.56	211.90
938.86	211.90
939.16	212.31
939.46	212.50
939.76	212.62
940.06	212.67
940.35	211.98
940.65	210.79
940.95	210.88
941.25	210.45
941.55	209.95
941.85	209.98
942.15	210.52
942.45	211.24
942.75	211.21
943.04	211.31
943.34	211.93
943.64	211.74
943.94	211.57
944.24	211.67
944.54	211.79
944.84	211.64
945.13	211.43
945.43	211.14
945.73	210.74
946.03	210.57
946.33	210.29
946.62	210.19
946.92	210.29
947.22	210.48
947.52	210.43
947.82	210.90
948.11	210.52
948.41	210.12
948.71	209.64
949.01	209.48
949.31	209.36
949.60	209.21
949.90	209.64
950.20	209.67
950.50	209.38
950.79	209.38
951.09	209.93
951.39	209.79
951.69	209.52
951.98	210.26
952.28	210.43
952.58	210.57
952.87	210.71
953.17	210.98
953.47	210.52
953.76	210.45
954.06	210.02
954.36	209.83
954.66	209.67
954.95	210.00
955.25	210.40
955.55	210.64
955.84	210.29
956.14	210.45
956.44	210.62
956.73	210.55
957.03	210.55
957.32	210.21
957.62	210.29
957.92	210.76
958.21	210.29
958.51	212.79
958.81	213.19
959.10	213.29
959.40	213.76
959.69	213.88
959.99	214.33
960.29	214.31
960.58	214.57
960.88	215.52
961.17	215.17
961.47	215.48
961.76	215.17
962.06	215.62
962.36	215.31
962.65	215.17
962.95	215.17
963.24	215.12
963.54	215.43
963.83	215.57
964.13	215.29
964.42	215.02
964.72	213.07
965.01	213.05
965.31	213.02
965.60	212.26
965.90	213.45
966.19	212.90
966.49	213.21
966.78	212.93
967.08	212.55
967.37	212.76
967.67	212.21
967.96	212.52
968.26	212.52
968.55	212.74
968.85	212.71
969.14	212.83
969.43	212.88
969.73	212.67
970.02	212.62
970.32	212.74
970.61	212.64
970.91	212.05
971.20	211.67
971.49	211.43
971.79	211.81
972.08	210.45
972.38	210.79
972.67	210.48
972.96	210.81
973.26	210.29
973.55	210.81
973.85	210.88
974.14	210.83
974.43	210.95
974.73	210.50
975.02	210.48
975.31	210.31
975.61	210.36
975.90	210.21
976.19	209.86
976.49	210.05
976.78	210.26
977.07	210.38
977.37	210.62
977.66	211.12
977.95	210.88
978.24	211.19
978.54	211.90
978.83	211.86
979.12	211.86
979.42	212.02
979.71	211.50
980.00	211.17
980.29	211.07
980.59	210.60
980.88	211.38
981.17	211.17
981.46	211.40
981.76	211.24
982.05	211.79
982.34	212.17
982.63	212.10
982.93	212.07
983.22	212.57
983.51	212.57
983.80	212.69
984.09	212.93
984.39	212.88
984.68	212.26
984.97	212.43
985.26	212.17
985.55	212.29
985.85	211.98
986.14	212.64
986.43	212.90
986.72	212.83
987.01	212.17
987.30	212.26
987.59	212.00
987.89	212.26
988.18	211.60
988.47	211.48
988.76	211.29
989.05	211.17
989.34	210.79
989.63	211.43
989.92	210.90
990.22	210.69
990.51	210.64
990.80	210.76
991.09	210.74
991.38	211.14
991.67	210.90
991.96	210.76
992.25	210.67
992.54	210.38
992.83	210.50
993.12	210.36
993.41	210.83
993.70	211.62
993.99	211.83
994.28	212.26
994.58	212.67
994.87	212.50
995.16	212.38
995.45	212.29
995.74	211.43
996.03	211.90
996.32	212.38
996.61	212.76
996.90	212.50
997.19	212.62
997.48	212.43
997.77	212.36
998.06	212.62
998.34	212.45
998.63	212.38
998.92	212.48
999.21	212.81
999.50	212.86
999.79	212.17
1000.08	212.19
1000.37	212.36
1000.66	211.86
1000.95	212.31
1001.24	212.48
1001.53	212.81
1001.82	212.67
1002.11	212.24
1002.40	212.17
1002.68	212.45
1002.97	214.10
1003.26	213.88
1003.55	213.71
1003.84	214.00
1004.13	214.57
1004.42	214.43
1004.71	214.31
1004.99	214.12
1005.28	214.62
1005.57	214.19
1005.86	214.19
1006.15	214.02
1006.44	213.40
1006.72	213.88
1007.01	213.83
1007.30	213.88
1007.59	213.69
1007.88	213.74
1008.17	213.83
1008.45	213.50
1008.74	212.48
1009.03	211.40
1009.32	211.24
1009.60	211.33
1009.89	211.00
1010.18	210.14
1010.47	210.07
1010.76	210.21
1011.04	210.19
1011.33	210.29
1011.62	210.55
1011.91	210.62
1012.19	210.69
1012.48	210.81
1012.77	210.45
1013.05	210.81
1013.34	210.86
1013.63	210.71
1013.92	210.95
1014.20	210.74
1014.49	210.86
1014.78	211.24
1015.06	210.60
1015.35	210.67
1015.64	210.71
1015.92	211.19
1016.21	211.60
1016.50	211.81
1016.78	211.98
1017.07	212.05
1017.36	211.29
1017.64	210.90
1017.93	210.98
1018.22	210.79
1018.50	210.69
1018.79	210.69
1019.08	210.21
1019.36	210.21
1019.65	210.05
1019.93	210.50
1020.22	210.90
1020.51	212.07
1020.79	211.95
1021.08	209.50
1021.36	206.00
1021.65	209.00
1021.94	213.00
1022.22	211.00
1022.51	207.00
1022.79	220.00
1023.08	214.50
1023.36	239.50
1023.65	208.50
>>>>>End Processed Spectral Data<<<<<
