SpectraSuite Data File
++++++++++++++++++++++++++++++++++++
Date: Tue Apr 02 18:38:42 EDT 2013
User: group
Dark Spectrum Present: No
Reference Spectrum Present: No
Number of Sampled Component Spectra: 1
Spectrometers: USB2E7196
Integration Time (usec): 580000 (USB2E7196)
Spectra Averaged: 2 (USB2E7196)
Boxcar Smoothing: 10 (USB2E7196)
Correct for Electrical Dark: No (USB2E7196)
Strobe/Lamp Enabled: No (USB2E7196)
Correct for Detector Non-linearity: No (USB2E7196)
Correct for Stray Light: No (USB2E7196)
Number of Pixels in Processed Spectrum: 2048
>>>>>Begin Processed Spectral Data<<<<<
339.09	0.00
339.48	191.00
339.86	191.50
340.24	194.50
340.63	199.00
341.01	229.50
341.39	202.00
341.78	205.00
342.16	212.00
342.54	206.50
342.93	197.60
343.31	207.31
343.69	208.12
344.07	208.88
344.46	209.81
344.84	210.43
345.22	209.43
345.60	209.95
345.99	210.31
346.37	210.45
346.75	210.60
347.13	210.90
347.52	211.00
347.90	211.76
348.28	212.07
348.66	212.71
349.05	212.24
349.43	212.50
349.81	212.69
350.19	213.07
350.57	213.24
350.96	213.26
351.34	213.74
351.72	213.86
352.10	214.10
352.48	213.86
352.87	213.88
353.25	214.05
353.63	213.83
354.01	213.93
354.39	214.10
354.77	213.93
355.15	214.33
355.54	214.26
355.92	213.64
356.30	213.64
356.68	214.81
357.06	214.88
357.44	214.52
357.82	214.69
358.20	215.50
358.58	215.67
358.97	215.83
359.35	216.24
359.73	216.64
360.11	216.69
360.49	217.00
360.87	217.10
361.25	217.36
361.63	218.38
362.01	218.40
362.39	218.19
362.77	218.79
363.15	218.71
363.53	219.02
363.91	219.29
364.29	219.33
364.67	217.43
365.05	217.79
365.43	218.02
365.81	218.17
366.19	218.45
366.57	219.38
366.95	219.38
367.33	218.83
367.71	218.69
368.09	219.05
368.47	218.93
368.85	218.83
369.23	219.40
369.61	218.50
369.99	219.00
370.37	219.21
370.75	220.12
371.13	219.93
371.51	219.19
371.89	219.12
372.27	219.12
372.65	219.33
373.03	218.95
373.41	218.81
373.78	218.86
374.16	217.62
374.54	216.55
374.92	216.10
375.30	216.12
375.68	215.74
376.06	215.71
376.44	215.52
376.82	215.62
377.19	215.17
377.57	215.14
377.95	214.67
378.33	214.43
378.71	213.05
379.09	213.02
379.47	213.64
379.84	213.40
380.22	213.29
380.60	212.93
380.98	212.88
381.36	212.88
381.73	212.60
382.11	213.07
382.49	213.05
382.87	213.17
383.25	213.40
383.62	215.86
384.00	215.40
384.38	215.60
384.76	216.00
385.13	217.17
385.51	217.14
385.89	216.64
386.27	216.69
386.64	217.12
387.02	217.02
387.40	216.79
387.78	216.83
388.15	216.95
388.53	216.93
388.91	217.07
389.29	216.95
389.66	217.10
390.04	217.02
390.42	217.50
390.79	217.81
391.17	217.52
391.55	215.43
391.92	215.60
392.30	215.83
392.68	215.38
393.05	214.79
393.43	214.83
393.81	215.14
394.18	215.00
394.56	214.95
394.94	215.38
395.31	215.05
395.69	215.79
396.06	215.98
396.44	216.07
396.82	216.17
397.19	217.33
397.57	217.07
397.95	217.29
398.32	216.93
398.70	216.79
399.07	217.26
399.45	217.19
399.82	217.19
400.20	216.83
400.58	216.79
400.95	215.76
401.33	216.31
401.70	217.79
402.08	217.93
402.45	217.95
402.83	218.40
403.20	219.00
403.58	218.95
403.95	219.36
404.33	219.81
404.71	219.86
405.08	221.10
405.46	221.62
405.83	222.10
406.21	222.26
406.58	222.90
406.96	223.48
407.33	224.21
407.70	224.83
408.08	227.05
408.45	228.10
408.83	229.57
409.20	230.26
409.58	230.00
409.95	231.43
410.33	232.45
410.70	233.02
411.08	234.24
411.45	235.38
411.82	236.33
412.20	238.12
412.57	241.10
412.95	241.00
413.32	242.83
413.69	244.21
414.07	246.33
414.44	248.52
414.82	250.74
415.19	253.26
415.56	255.98
415.94	257.69
416.31	260.90
416.68	264.12
417.06	267.74
417.43	271.95
417.81	276.05
418.18	280.45
418.55	284.64
418.93	289.52
419.30	294.29
419.67	299.81
420.04	305.07
420.42	309.60
420.79	317.38
421.16	324.02
421.54	332.10
421.91	339.55
422.28	346.55
422.66	354.38
423.03	363.12
423.40	371.05
423.77	379.62
424.15	387.90
424.52	397.12
424.89	406.76
425.26	415.40
425.64	423.88
426.01	433.50
426.38	444.10
426.75	454.81
427.13	465.60
427.50	476.38
427.87	487.83
428.24	500.12
428.61	510.60
428.99	523.79
429.36	536.29
429.73	549.21
430.10	562.79
430.47	576.86
430.85	589.98
431.22	605.05
431.59	622.24
431.96	637.48
432.33	653.50
432.70	669.76
433.08	688.90
433.45	707.29
433.82	725.40
434.19	745.52
434.56	765.24
434.93	784.19
435.30	803.52
435.68	824.62
436.05	844.81
436.42	864.21
436.79	883.19
437.16	903.52
437.53	924.98
437.90	946.02
438.27	966.88
438.64	988.21
439.01	1008.00
439.38	1024.48
439.75	1042.38
440.13	1062.00
440.50	1081.05
440.87	1096.67
441.24	1112.76
441.61	1130.19
441.98	1142.64
442.35	1156.57
442.72	1171.45
443.09	1186.12
443.46	1194.76
443.83	1200.88
444.20	1207.24
444.57	1214.07
444.94	1217.69
445.31	1222.05
445.68	1228.48
446.05	1229.29
446.42	1227.86
446.79	1226.79
447.16	1224.31
447.53	1222.81
447.90	1215.79
448.27	1207.26
448.64	1197.00
449.01	1188.55
449.37	1175.19
449.74	1163.00
450.11	1149.64
450.48	1132.71
450.85	1114.43
451.22	1099.26
451.59	1085.02
451.96	1071.24
452.33	1052.57
452.70	1035.71
453.07	1015.43
453.43	992.43
453.80	973.76
454.17	954.83
454.54	936.19
454.91	917.26
455.28	897.90
455.65	880.69
456.02	867.43
456.38	851.55
456.75	833.55
457.12	818.12
457.49	802.17
457.86	785.50
458.23	773.52
458.59	759.95
458.96	746.45
459.33	733.88
459.70	721.48
460.07	711.95
460.43	700.81
460.80	690.19
461.17	681.81
461.54	671.83
461.91	662.62
462.27	652.90
462.64	644.62
463.01	636.19
463.38	628.21
463.74	615.86
464.11	608.45
464.48	601.67
464.85	594.00
465.21	589.07
465.58	583.62
465.95	575.76
466.32	569.95
466.68	563.93
467.05	558.05
467.42	552.00
467.78	545.43
468.15	539.62
468.52	535.07
468.88	528.48
469.25	523.00
469.62	519.07
469.98	514.90
470.35	510.83
470.72	506.62
471.08	501.21
471.45	497.83
471.82	494.93
472.18	491.17
472.55	488.74
472.92	484.74
473.28	481.12
473.65	477.79
474.02	474.76
474.38	472.24
474.75	469.81
475.11	467.12
475.48	465.55
475.85	463.48
476.21	461.60
476.58	460.31
476.94	458.76
477.31	456.86
477.67	455.38
478.04	453.93
478.41	453.12
478.77	454.21
479.14	452.88
479.50	451.86
479.87	451.83
480.23	451.07
480.60	450.31
480.96	450.45
481.33	451.43
481.69	451.57
482.06	451.86
482.42	452.29
482.79	452.67
483.15	452.93
483.52	454.12
483.88	454.67
484.25	455.17
484.61	456.57
484.98	458.00
485.34	460.21
485.71	462.55
486.07	463.79
486.44	464.14
486.80	466.43
487.17	468.40
487.53	470.93
487.90	473.69
488.26	477.31
488.62	480.60
488.99	483.12
489.35	486.76
489.72	489.76
490.08	493.19
490.44	497.00
490.81	501.33
491.17	504.98
491.54	509.36
491.90	514.24
492.26	518.67
492.63	523.12
492.99	527.05
493.36	531.52
493.72	537.57
494.08	543.24
494.45	549.57
494.81	555.50
495.17	560.88
495.54	567.21
495.90	572.83
496.26	579.07
496.63	585.74
496.99	592.79
497.35	599.79
497.72	607.62
498.08	614.74
498.44	621.98
498.80	629.83
499.17	637.76
499.53	645.29
499.89	654.19
500.26	662.88
500.62	671.74
500.98	681.48
501.34	690.24
501.71	699.17
502.07	707.55
502.43	716.93
502.79	726.26
503.16	735.67
503.52	744.95
503.88	753.81
504.24	764.00
504.60	773.10
504.97	783.71
505.33	792.95
505.69	803.43
506.05	813.95
506.41	824.50
506.78	835.07
507.14	845.19
507.50	855.02
507.86	865.36
508.22	875.71
508.59	885.38
508.95	895.81
509.31	907.57
509.67	918.33
510.03	928.93
510.39	939.74
510.75	950.26
511.12	960.88
511.48	972.17
511.84	982.31
512.20	993.48
512.56	1003.83
512.92	1014.64
513.28	1025.50
513.64	1036.31
514.00	1047.07
514.37	1057.62
514.73	1068.74
515.09	1079.21
515.45	1089.19
515.81	1099.90
516.17	1110.33
516.53	1120.12
516.89	1128.60
517.25	1139.02
517.61	1149.33
517.97	1158.60
518.33	1168.26
518.69	1178.64
519.05	1188.02
519.41	1198.48
519.77	1208.64
520.13	1217.50
520.49	1226.64
520.85	1235.57
521.21	1244.79
521.57	1253.12
521.93	1261.17
522.29	1270.24
522.65	1279.17
523.01	1288.50
523.37	1296.62
523.73	1305.17
524.09	1313.71
524.45	1321.45
524.81	1328.88
525.17	1336.62
525.53	1345.33
525.89	1353.17
526.25	1361.52
526.61	1368.81
526.97	1375.38
527.33	1382.48
527.68	1392.14
528.04	1399.29
528.40	1407.21
528.76	1414.81
529.12	1422.71
529.48	1431.81
529.84	1437.81
530.20	1444.38
530.56	1451.17
530.91	1458.31
531.27	1464.95
531.63	1472.24
531.99	1479.55
532.35	1486.26
532.71	1492.31
533.07	1498.86
533.42	1507.98
533.78	1514.64
534.14	1521.76
534.50	1528.14
534.86	1534.74
535.21	1539.12
535.57	1546.57
535.93	1551.90
536.29	1558.10
536.65	1564.33
537.00	1568.52
537.36	1575.24
537.72	1581.33
538.08	1587.19
538.44	1592.24
538.79	1597.81
539.15	1602.45
539.51	1607.64
539.87	1613.26
540.22	1619.95
540.58	1624.93
540.94	1627.02
541.29	1631.52
541.65	1635.48
542.01	1640.07
542.37	1643.79
542.72	1647.93
543.08	1650.67
543.44	1655.26
543.79	1657.98
544.15	1661.60
544.51	1666.17
544.87	1669.98
545.22	1673.88
545.58	1677.19
545.94	1680.33
546.29	1684.38
546.65	1687.71
547.01	1691.29
547.36	1695.38
547.72	1697.64
548.07	1701.00
548.43	1704.45
548.79	1707.14
549.14	1710.50
549.50	1714.29
549.86	1716.79
550.21	1719.00
550.57	1722.90
550.92	1724.48
551.28	1727.21
551.64	1729.98
551.99	1732.62
552.35	1734.38
552.70	1736.83
553.06	1739.12
553.41	1742.90
553.77	1745.98
554.13	1749.02
554.48	1752.26
554.84	1754.14
555.19	1757.17
555.55	1760.21
555.90	1761.93
556.26	1764.40
556.61	1765.93
556.97	1767.33
557.32	1770.48
557.68	1773.21
558.03	1775.12
558.39	1777.52
558.74	1779.98
559.10	1781.64
559.45	1783.95
559.81	1786.19
560.16	1787.33
560.52	1789.55
560.87	1791.83
561.23	1792.88
561.58	1796.29
561.94	1797.52
562.29	1799.14
562.64	1800.95
563.00	1801.52
563.35	1804.24
563.71	1806.07
564.06	1809.64
564.42	1811.81
564.77	1813.55
565.12	1815.81
565.48	1819.98
565.83	1823.38
566.19	1825.31
566.54	1827.00
566.89	1828.19
567.25	1831.00
567.60	1834.50
567.96	1837.98
568.31	1839.88
568.66	1841.83
569.02	1840.93
569.37	1841.31
569.72	1842.45
570.08	1842.88
570.43	1844.24
570.78	1845.12
571.14	1846.00
571.49	1845.86
571.84	1846.29
572.20	1846.60
572.55	1847.57
572.90	1845.76
573.26	1844.93
573.61	1844.52
573.96	1844.31
574.31	1844.19
574.67	1843.71
575.02	1841.38
575.37	1839.07
575.72	1837.38
576.08	1835.21
576.43	1834.67
576.78	1833.62
577.13	1831.26
577.49	1829.60
577.84	1828.12
578.19	1826.29
578.54	1824.45
578.90	1822.90
579.25	1820.52
579.60	1818.02
579.95	1814.71
580.30	1812.50
580.66	1810.33
581.01	1807.55
581.36	1804.26
581.71	1801.43
582.06	1799.50
582.42	1797.29
582.77	1794.17
583.12	1790.40
583.47	1787.14
583.82	1783.60
584.17	1780.62
584.53	1778.64
584.88	1774.83
585.23	1772.21
585.58	1767.36
585.93	1762.98
586.28	1758.88
586.63	1755.79
586.98	1753.17
587.34	1749.67
587.69	1745.45
588.04	1740.95
588.39	1736.88
588.74	1731.64
589.09	1727.50
589.44	1720.76
589.79	1716.50
590.14	1712.14
590.49	1707.90
590.84	1703.26
591.19	1699.17
591.54	1695.10
591.89	1689.43
592.25	1687.05
592.60	1681.10
592.95	1677.93
593.30	1673.98
593.65	1668.76
594.00	1662.83
594.35	1662.83
594.70	1656.98
595.05	1652.24
595.40	1647.00
595.75	1642.31
596.10	1638.76
596.45	1633.57
596.80	1629.90
597.15	1624.69
597.50	1619.31
597.85	1615.45
598.19	1610.71
598.54	1605.36
598.89	1599.81
599.24	1595.48
599.59	1588.62
599.94	1584.10
600.29	1579.26
600.64	1574.14
600.99	1569.38
601.34	1565.05
601.69	1553.71
602.04	1548.74
602.39	1542.71
602.74	1537.98
603.08	1532.52
603.43	1528.90
603.78	1523.48
604.13	1518.00
604.48	1512.81
604.83	1508.05
605.18	1501.14
605.53	1496.12
605.87	1490.24
606.22	1484.48
606.57	1478.76
606.92	1473.50
607.27	1467.88
607.62	1461.50
607.96	1455.07
608.31	1449.64
608.66	1444.57
609.01	1438.81
609.36	1433.90
609.70	1428.57
610.05	1422.05
610.40	1416.14
610.75	1408.24
611.10	1402.60
611.44	1395.81
611.79	1388.64
612.14	1382.19
612.49	1375.33
612.83	1368.05
613.18	1361.40
613.53	1355.02
613.88	1348.36
614.22	1341.14
614.57	1334.02
614.92	1327.43
615.27	1322.05
615.61	1314.76
615.96	1307.76
616.31	1300.50
616.65	1294.40
617.00	1288.05
617.35	1281.64
617.70	1274.69
618.04	1268.36
618.39	1260.88
618.74	1254.52
619.08	1248.45
619.43	1241.38
619.78	1235.79
620.12	1230.36
620.47	1224.33
620.82	1217.90
621.16	1211.26
621.51	1206.10
621.85	1199.76
622.20	1192.79
622.55	1185.33
622.89	1179.45
623.24	1173.62
623.59	1167.74
623.93	1161.64
624.28	1154.88
624.62	1151.00
624.97	1146.83
625.32	1140.55
625.66	1135.19
626.01	1129.86
626.35	1124.52
626.70	1119.14
627.04	1113.98
627.39	1107.62
627.73	1103.00
628.08	1097.83
628.43	1092.21
628.77	1086.10
629.12	1080.60
629.46	1076.02
629.81	1070.38
630.15	1064.86
630.50	1057.95
630.84	1052.21
631.19	1045.24
631.53	1039.62
631.88	1031.74
632.22	1023.76
632.57	1019.52
632.91	1012.62
633.26	1006.24
633.60	999.21
633.95	992.67
634.29	985.69
634.64	980.26
634.98	972.76
635.32	967.24
635.67	961.81
636.01	955.05
636.36	948.24
636.70	942.45
637.05	936.45
637.39	930.21
637.73	925.19
638.08	919.88
638.42	914.40
638.77	909.00
639.11	903.43
639.45	898.33
639.80	890.95
640.14	886.19
640.49	879.98
640.83	875.14
641.17	869.81
641.52	864.71
641.86	859.07
642.20	854.69
642.55	847.88
642.89	842.29
643.23	837.19
643.58	833.64
643.92	827.50
644.26	822.29
644.61	817.21
644.95	811.29
645.29	805.64
645.64	801.05
645.98	795.00
646.32	790.00
646.66	784.33
647.01	779.83
647.35	774.62
647.69	770.12
648.04	765.02
648.38	760.36
648.72	755.10
649.06	749.76
649.41	744.05
649.75	739.38
650.09	734.02
650.43	728.88
650.78	722.69
651.12	717.31
651.46	711.90
651.80	707.00
652.14	701.90
652.49	697.38
652.83	691.40
653.17	686.60
653.51	681.29
653.85	676.74
654.20	671.33
654.54	666.02
654.88	660.57
655.22	656.52
655.56	651.26
655.90	646.26
656.25	641.45
656.59	637.17
656.93	632.88
657.27	629.21
657.61	624.81
657.95	620.45
658.29	616.48
658.64	613.12
658.98	608.21
659.32	603.88
659.66	599.95
660.00	596.07
660.34	592.10
660.68	588.10
661.02	584.07
661.36	580.36
661.70	576.90
662.05	573.36
662.39	568.98
662.73	566.14
663.07	564.00
663.41	560.50
663.75	556.26
664.09	552.40
664.43	547.86
664.77	543.98
665.11	539.71
665.45	536.24
665.79	532.60
666.13	529.14
666.47	526.02
666.81	522.31
667.15	518.45
667.49	515.14
667.83	512.50
668.17	509.14
668.51	505.83
668.85	502.45
669.19	500.05
669.53	496.21
669.87	492.52
670.21	488.31
670.55	484.93
670.89	482.98
671.23	480.12
671.57	477.17
671.91	474.88
672.25	472.93
672.58	470.64
672.92	467.38
673.26	464.71
673.60	462.12
673.94	459.45
674.28	457.36
674.62	455.33
674.96	452.02
675.30	449.69
675.64	447.31
675.97	444.81
676.31	441.55
676.65	439.14
676.99	437.29
677.33	434.60
677.67	432.79
678.01	429.62
678.34	427.67
678.68	425.98
679.02	423.33
679.36	420.57
679.70	417.55
680.04	415.02
680.37	412.76
680.71	410.26
681.05	407.81
681.39	405.60
681.73	402.67
682.06	400.67
682.40	398.43
682.74	396.33
683.08	395.12
683.42	392.98
683.75	391.45
684.09	388.83
684.43	387.14
684.77	384.93
685.10	383.07
685.44	380.90
685.78	378.57
686.12	376.26
686.45	374.55
686.79	372.79
687.13	371.55
687.46	369.43
687.80	367.93
688.14	366.19
688.48	364.60
688.81	363.45
689.15	362.31
689.49	360.36
689.82	358.67
690.16	355.95
690.50	354.19
690.83	352.21
691.17	350.21
691.51	348.36
691.84	346.83
692.18	345.26
692.52	343.33
692.85	341.95
693.19	341.48
693.52	340.17
693.86	338.67
694.20	336.93
694.53	335.48
694.87	333.62
695.21	331.86
695.54	330.07
695.88	328.21
696.21	325.76
696.55	324.74
696.88	323.50
697.22	322.19
697.56	321.05
697.89	319.43
698.23	318.86
698.56	317.48
698.90	316.05
699.23	314.60
699.57	313.62
699.90	312.14
700.24	310.38
700.58	308.98
700.91	307.98
701.25	308.50
701.58	308.31
701.92	307.98
702.25	307.10
702.59	306.14
702.92	305.02
703.26	304.48
703.59	303.24
703.93	303.86
704.26	303.02
704.60	302.24
704.93	301.38
705.26	299.76
705.60	299.17
705.93	297.95
706.27	297.48
706.60	296.83
706.94	297.00
707.27	295.81
707.61	295.21
707.94	294.26
708.27	291.88
708.61	290.29
708.94	289.07
709.28	288.29
709.61	287.33
709.94	286.62
710.28	285.57
710.61	284.98
710.95	282.19
711.28	282.90
711.61	282.05
711.95	281.90
712.28	281.02
712.61	279.86
712.95	280.52
713.28	280.67
713.61	279.36
713.95	277.83
714.28	277.40
714.61	276.33
714.95	275.55
715.28	274.36
715.61	273.81
715.95	273.33
716.28	272.64
716.61	272.19
716.95	271.40
717.28	271.00
717.61	269.98
717.94	269.48
718.28	267.31
718.61	266.50
718.94	265.33
719.27	264.81
719.61	264.62
719.94	263.26
720.27	261.55
720.60	260.71
720.94	260.12
721.27	259.69
721.60	259.76
721.93	259.07
722.27	259.21
722.60	258.88
722.93	257.98
723.26	257.45
723.59	256.69
723.93	256.57
724.26	256.05
724.59	255.43
724.92	255.33
725.25	255.43
725.59	255.07
725.92	255.14
726.25	254.83
726.58	254.33
726.91	253.93
727.24	253.60
727.57	253.71
727.91	253.26
728.24	252.83
728.57	252.00
728.90	252.10
729.23	251.36
729.56	251.74
729.89	251.19
730.22	250.74
730.55	250.50
730.89	249.93
731.22	249.48
731.55	249.26
731.88	248.71
732.21	247.95
732.54	247.33
732.87	247.00
733.20	246.38
733.53	246.12
733.86	245.88
734.19	245.50
734.52	245.21
734.85	246.17
735.18	245.67
735.51	245.95
735.84	245.79
736.17	245.71
736.50	244.45
736.83	246.64
737.16	246.29
737.49	245.88
737.82	245.52
738.15	245.60
738.48	245.45
738.81	245.21
739.14	244.64
739.47	244.57
739.80	243.93
740.13	244.29
740.46	243.71
740.79	243.07
741.12	242.95
741.45	242.38
741.78	240.83
742.11	241.10
742.44	240.12
742.77	239.88
743.10	239.52
743.43	239.00
743.75	236.69
744.08	239.29
744.41	238.86
744.74	238.38
745.07	237.52
745.40	237.52
745.73	238.19
746.06	238.17
746.39	238.24
746.71	237.69
747.04	236.98
747.37	236.86
747.70	236.98
748.03	236.67
748.36	236.88
748.68	236.81
749.01	235.93
749.34	235.81
749.67	235.45
750.00	235.60
750.33	237.02
750.65	236.83
750.98	233.93
751.31	234.12
751.64	234.29
751.97	235.17
752.29	234.88
752.62	233.57
752.95	233.31
753.28	232.74
753.60	232.79
753.93	233.29
754.26	233.24
754.59	232.50
754.91	232.12
755.24	231.62
755.57	231.10
755.90	231.05
756.22	230.81
756.55	230.33
756.88	229.67
757.20	228.10
757.53	227.40
757.86	227.31
758.19	227.21
758.51	226.90
758.84	225.90
759.17	225.55
759.49	225.74
759.82	226.57
760.15	226.76
760.47	226.55
760.80	225.69
761.13	225.79
761.45	225.40
761.78	225.24
762.11	225.12
762.43	225.10
762.76	224.76
763.08	224.95
763.41	225.14
763.74	225.00
764.06	224.93
764.39	225.07
764.71	224.86
765.04	224.31
765.37	224.10
765.69	223.86
766.02	223.83
766.34	223.60
766.67	222.71
767.00	222.83
767.32	223.79
767.65	224.95
767.97	224.57
768.30	224.69
768.62	224.62
768.95	224.52
769.27	224.31
769.60	224.60
769.92	224.02
770.25	223.55
770.57	223.14
770.90	223.05
771.22	222.69
771.55	222.67
771.87	222.95
772.20	222.76
772.52	224.62
772.85	226.90
773.17	226.57
773.50	226.38
773.82	225.90
774.15	224.93
774.47	223.57
774.80	223.33
775.12	223.40
775.45	223.45
775.77	223.43
776.09	223.60
776.42	223.50
776.74	223.98
777.07	223.98
777.39	223.98
777.72	223.64
778.04	224.00
778.36	223.76
778.69	223.71
779.01	223.93
779.33	222.26
779.66	220.31
779.98	220.24
780.31	220.17
780.63	220.86
780.95	221.02
781.28	221.10
781.60	221.07
781.92	220.88
782.25	220.81
782.57	220.57
782.89	220.45
783.22	220.26
783.54	220.14
783.86	220.05
784.19	220.12
784.51	220.95
784.83	220.57
785.16	220.48
785.48	220.50
785.80	220.40
786.12	220.52
786.45	220.07
786.77	220.33
787.09	220.26
787.42	219.50
787.74	219.69
788.06	219.67
788.38	219.40
788.71	219.21
789.03	219.21
789.35	219.50
789.67	219.07
789.99	219.21
790.32	218.57
790.64	219.02
790.96	220.52
791.28	219.86
791.61	219.76
791.93	220.00
792.25	219.50
792.57	220.88
792.89	220.36
793.21	220.52
793.54	220.33
793.86	220.14
794.18	220.24
794.50	219.48
794.82	219.50
795.14	219.81
795.47	220.40
795.79	220.38
796.11	219.93
796.43	219.83
796.75	219.95
797.07	220.38
797.39	219.83
797.71	218.29
798.04	218.19
798.36	218.26
798.68	218.07
799.00	218.40
799.32	217.29
799.64	217.64
799.96	217.31
800.28	217.62
800.60	217.55
800.92	217.88
801.24	217.83
801.56	217.83
801.89	217.76
802.21	217.57
802.53	217.31
802.85	217.95
803.17	219.10
803.49	218.55
803.81	218.33
804.13	218.40
804.45	218.57
804.77	218.88
805.09	219.00
805.41	218.86
805.73	218.36
806.05	217.95
806.37	217.57
806.69	217.40
807.01	217.38
807.33	217.57
807.65	216.69
807.97	217.81
808.28	217.62
808.60	217.52
808.92	217.12
809.24	218.36
809.56	217.93
809.88	217.17
810.20	217.31
810.52	217.55
810.84	217.50
811.16	216.90
811.48	216.69
811.80	217.45
812.12	217.17
812.43	217.79
812.75	217.95
813.07	217.71
813.39	218.05
813.71	217.50
814.03	217.21
814.35	217.29
814.67	216.52
814.98	216.55
815.30	216.45
815.62	216.36
815.94	215.07
816.26	215.07
816.58	214.67
816.89	214.74
817.21	214.26
817.53	214.38
817.85	214.69
818.17	214.48
818.48	213.52
818.80	214.24
819.12	213.83
819.44	213.48
819.76	213.48
820.07	213.33
820.39	213.40
820.71	213.71
821.03	213.83
821.34	213.62
821.66	213.86
821.98	213.98
822.30	213.93
822.61	214.95
822.93	214.76
823.25	214.76
823.57	214.50
823.88	214.88
824.20	214.76
824.52	215.38
824.83	215.24
825.15	215.17
825.47	214.88
825.79	215.05
826.10	214.93
826.42	214.95
826.74	215.40
827.05	215.55
827.37	215.57
827.69	215.33
828.00	215.48
828.32	215.45
828.64	215.21
828.95	216.36
829.27	215.98
829.58	216.14
829.90	216.40
830.22	216.86
830.53	216.55
830.85	216.33
831.17	215.50
831.48	215.64
831.80	215.71
832.11	215.55
832.43	215.24
832.75	215.55
833.06	216.81
833.38	215.88
833.69	215.76
834.01	215.71
834.32	215.71
834.64	215.55
834.96	215.29
835.27	215.24
835.59	214.52
835.90	213.90
836.22	213.64
836.53	213.36
836.85	213.10
837.16	215.21
837.48	215.10
837.79	215.81
838.11	215.81
838.42	215.55
838.74	215.79
839.05	215.88
839.37	215.69
839.68	214.21
840.00	214.36
840.31	214.52
840.63	214.29
840.94	214.10
841.26	213.93
841.57	214.14
841.88	214.43
842.20	214.10
842.51	214.05
842.83	214.00
843.14	215.57
843.46	215.24
843.77	214.02
844.08	214.12
844.40	213.48
844.71	213.26
845.03	213.36
845.34	213.26
845.65	212.93
845.97	212.88
846.28	213.05
846.60	212.95
846.91	212.60
847.22	212.52
847.54	213.10
847.85	213.12
848.16	212.93
848.48	212.38
848.79	213.21
849.10	213.24
849.42	213.36
849.73	211.60
850.04	211.67
850.36	210.79
850.67	211.19
850.98	211.29
851.30	211.69
851.61	211.55
851.92	211.52
852.23	212.57
852.55	212.71
852.86	212.88
853.17	213.26
853.49	213.50
853.80	213.98
854.11	213.95
854.42	214.31
854.74	214.12
855.05	214.24
855.36	213.07
855.67	213.26
855.99	213.36
856.30	216.00
856.61	215.86
856.92	215.90
857.23	215.95
857.55	215.76
857.86	215.60
858.17	216.12
858.48	215.83
858.79	215.26
859.11	215.24
859.42	215.24
859.73	214.83
860.04	214.88
860.35	214.24
860.66	213.67
860.98	213.52
861.29	213.74
861.60	213.67
861.91	214.26
862.22	213.98
862.53	213.71
862.84	211.24
863.16	211.88
863.47	211.64
863.78	211.19
864.09	211.36
864.40	211.57
864.71	211.26
865.02	211.50
865.33	211.31
865.64	211.07
865.95	210.90
866.27	212.38
866.58	212.33
866.89	212.55
867.20	212.64
867.51	212.21
867.82	212.21
868.13	213.10
868.44	212.55
868.75	212.98
869.06	213.17
869.37	213.48
869.68	212.98
869.99	213.43
870.30	213.36
870.61	213.62
870.92	213.26
871.23	213.12
871.54	213.40
871.85	213.76
872.16	213.93
872.47	213.64
872.78	212.29
873.09	212.26
873.40	212.36
873.71	212.57
874.02	212.98
874.33	212.81
874.64	212.21
874.95	212.57
875.26	212.24
875.56	212.10
875.87	211.83
876.18	211.93
876.49	213.81
876.80	213.74
877.11	213.21
877.42	213.29
877.73	213.33
878.04	212.95
878.35	212.90
878.66	213.05
878.96	213.19
879.27	213.26
879.58	213.43
879.89	213.14
880.20	213.79
880.51	213.79
880.82	213.60
881.12	213.71
881.43	213.38
881.74	212.95
882.05	212.90
882.36	213.26
882.67	213.12
882.97	211.02
883.28	211.05
883.59	211.12
883.90	211.40
884.21	211.62
884.51	211.43
884.82	211.07
885.13	211.24
885.44	211.40
885.74	211.55
886.05	211.38
886.36	211.81
886.67	211.10
886.98	212.05
887.28	212.43
887.59	212.50
887.90	212.69
888.20	212.90
888.51	213.38
888.82	213.07
889.13	213.36
889.43	215.10
889.74	215.00
890.05	215.05
890.35	214.71
890.66	214.74
890.97	214.62
891.28	214.45
891.58	214.29
891.89	214.36
892.20	214.07
892.50	213.86
892.81	213.40
893.12	213.38
893.42	212.29
893.73	212.12
894.04	211.83
894.34	212.05
894.65	212.12
894.95	211.81
895.26	211.93
895.57	212.62
895.87	210.62
896.18	211.02
896.48	211.05
896.79	211.07
897.10	211.10
897.40	211.19
897.71	211.52
898.01	211.33
898.32	211.40
898.63	211.38
898.93	211.50
899.24	211.74
899.54	211.64
899.85	211.62
900.15	211.71
900.46	211.90
900.76	212.02
901.07	211.83
901.38	211.74
901.68	211.88
901.99	211.00
902.29	211.29
902.60	211.19
902.90	210.90
903.21	210.93
903.51	210.74
903.82	211.31
904.12	211.29
904.43	211.40
904.73	211.36
905.03	211.60
905.34	213.38
905.64	213.21
905.95	213.17
906.25	213.17
906.56	213.05
906.86	213.10
907.17	213.00
907.47	213.21
907.77	213.33
908.08	212.90
908.38	213.17
908.69	213.26
908.99	213.57
909.30	213.79
909.60	213.76
909.90	214.05
910.21	213.62
910.51	213.43
910.81	213.57
911.12	213.76
911.42	213.71
911.73	211.74
912.03	211.83
912.33	212.24
912.64	212.10
912.94	211.98
913.24	211.45
913.55	211.24
913.85	211.14
914.15	211.29
914.46	211.79
914.76	211.50
915.06	211.43
915.37	211.14
915.67	210.98
915.97	210.93
916.27	210.43
916.58	210.50
916.88	210.38
917.18	210.21
917.49	211.33
917.79	211.29
918.09	211.74
918.39	212.29
918.70	212.07
919.00	212.05
919.30	212.98
919.60	213.29
919.91	213.12
920.21	213.29
920.51	212.81
920.81	212.33
921.12	212.79
921.42	212.79
921.72	212.69
922.02	212.95
922.32	213.38
922.63	213.69
922.93	214.76
923.23	215.00
923.53	214.74
923.83	213.43
924.13	213.67
924.44	213.55
924.74	214.02
925.04	214.52
925.34	214.67
925.64	213.86
925.94	213.81
926.24	214.71
926.55	214.45
926.85	214.90
927.15	215.05
927.45	215.02
927.75	215.00
928.05	215.26
928.35	215.07
928.65	215.31
928.95	215.43
929.26	214.52
929.56	214.88
929.86	215.21
930.16	215.17
930.46	214.93
930.76	214.90
931.06	213.76
931.36	213.24
931.66	213.71
931.96	213.83
932.26	213.88
932.56	213.17
932.86	213.43
933.16	213.62
933.46	213.29
933.76	212.88
934.06	213.33
934.36	213.88
934.66	214.10
934.96	213.67
935.26	213.40
935.56	213.64
935.86	213.05
936.16	212.86
936.46	212.67
936.76	212.52
937.06	212.26
937.36	212.40
937.66	212.57
937.96	212.05
938.26	211.93
938.56	211.93
938.86	212.17
939.16	212.57
939.46	212.50
939.76	212.79
940.06	212.79
940.35	212.45
940.65	211.60
940.95	211.62
941.25	211.05
941.55	210.98
941.85	210.76
942.15	211.38
942.45	211.95
942.75	211.86
943.04	212.05
943.34	212.55
943.64	212.50
943.94	212.14
944.24	212.52
944.54	212.40
944.84	212.21
945.13	211.95
945.43	211.52
945.73	211.50
946.03	211.36
946.33	211.31
946.62	211.05
946.92	210.83
947.22	210.98
947.52	211.29
947.82	211.64
948.11	211.62
948.41	210.98
948.71	210.48
949.01	210.62
949.31	210.21
949.60	209.95
949.90	210.17
950.20	210.05
950.50	209.90
950.79	209.74
951.09	209.98
951.39	209.93
951.69	209.88
951.98	210.05
952.28	210.36
952.58	210.24
952.87	210.40
953.17	210.76
953.47	210.45
953.76	210.50
954.06	210.17
954.36	209.69
954.66	209.60
954.95	210.26
955.25	210.62
955.55	210.98
955.84	210.64
956.14	210.93
956.44	211.19
956.73	210.88
957.03	211.12
957.32	211.14
957.62	211.05
957.92	211.24
958.21	211.24
958.51	213.31
958.81	213.57
959.10	213.76
959.40	214.29
959.69	214.43
959.99	214.52
960.29	214.57
960.58	214.81
960.88	215.93
961.17	215.45
961.47	215.50
961.76	215.45
962.06	215.88
962.36	215.55
962.65	215.57
962.95	215.76
963.24	215.52
963.54	215.71
963.83	215.69
964.13	215.57
964.42	215.17
964.72	213.64
965.01	213.48
965.31	213.05
965.60	212.43
965.90	213.60
966.19	213.36
966.49	213.40
966.78	213.14
967.08	212.79
967.37	212.93
967.67	212.43
967.96	212.79
968.26	212.81
968.55	213.02
968.85	212.83
969.14	212.71
969.43	212.81
969.73	212.69
970.02	212.71
970.32	212.60
970.61	212.21
970.91	211.48
971.20	211.26
971.49	211.19
971.79	211.62
972.08	210.21
972.38	210.38
972.67	210.43
972.96	210.69
973.26	210.14
973.55	210.48
973.85	210.40
974.14	210.10
974.43	210.14
974.73	209.79
975.02	209.62
975.31	209.60
975.61	209.50
975.90	209.12
976.19	209.14
976.49	209.45
976.78	209.79
977.07	209.90
977.37	210.19
977.66	210.38
977.95	209.74
978.24	209.71
978.54	210.07
978.83	209.88
979.12	209.90
979.42	210.05
979.71	209.62
980.00	209.74
980.29	209.86
980.59	209.40
980.88	210.00
981.17	210.12
981.46	210.10
981.76	210.05
982.05	210.67
982.34	210.81
982.63	210.50
982.93	210.33
983.22	210.98
983.51	210.81
983.80	211.17
984.09	211.83
984.39	212.10
984.68	211.95
984.97	212.12
985.26	212.02
985.55	212.21
985.85	211.98
986.14	212.40
986.43	212.55
986.72	212.64
987.01	212.05
987.30	212.07
987.59	211.93
987.89	212.17
988.18	211.67
988.47	211.43
988.76	211.40
989.05	211.31
989.34	210.86
989.63	211.43
989.92	211.07
990.22	210.57
990.51	210.29
990.80	210.14
991.09	210.12
991.38	210.52
991.67	210.10
991.96	210.10
992.25	210.10
992.54	210.07
992.83	210.10
993.12	210.12
993.41	210.48
993.70	211.45
993.99	211.98
994.28	212.24
994.58	212.57
994.87	212.33
995.16	212.67
995.45	212.40
995.74	211.76
996.03	212.07
996.32	212.60
996.61	213.24
996.90	213.36
997.19	213.31
997.48	213.14
997.77	213.21
998.06	213.24
998.34	213.00
998.63	212.79
998.92	212.83
999.21	213.21
999.50	213.38
999.79	212.36
1000.08	212.07
1000.37	212.10
1000.66	211.79
1000.95	212.31
1001.24	212.40
1001.53	212.55
1001.82	212.57
1002.11	212.17
1002.40	212.31
1002.68	212.57
1002.97	213.74
1003.26	213.38
1003.55	212.95
1003.84	213.10
1004.13	213.67
1004.42	213.48
1004.71	213.31
1004.99	213.21
1005.28	213.60
1005.57	213.24
1005.86	213.33
1006.15	213.26
1006.44	213.00
1006.72	213.21
1007.01	213.05
1007.30	212.79
1007.59	212.76
1007.88	212.76
1008.17	212.98
1008.45	212.43
1008.74	211.62
1009.03	210.43
1009.32	210.55
1009.60	210.88
1009.89	210.83
1010.18	209.90
1010.47	209.88
1010.76	209.81
1011.04	209.79
1011.33	209.69
1011.62	210.12
1011.91	210.21
1012.19	210.24
1012.48	210.40
1012.77	210.48
1013.05	211.14
1013.34	211.12
1013.63	210.88
1013.92	211.00
1014.20	210.69
1014.49	210.67
1014.78	211.05
1015.06	210.71
1015.35	210.74
1015.64	210.86
1015.92	211.17
1016.21	211.48
1016.50	211.43
1016.78	211.76
1017.07	211.88
1017.36	211.52
1017.64	211.05
1017.93	211.36
1018.22	211.21
1018.50	211.05
1018.79	210.83
1019.08	210.05
1019.36	210.10
1019.65	210.05
1019.93	210.55
1020.22	211.05
1020.51	212.21
1020.79	211.79
1021.08	210.00
1021.36	208.00
1021.65	208.50
1021.94	208.50
1022.22	208.50
1022.51	206.00
1022.79	219.50
1023.08	216.50
1023.36	235.50
1023.65	205.50
>>>>>End Processed Spectral Data<<<<<
