SpectraSuite Data File
++++++++++++++++++++++++++++++++++++
Date: Tue Apr 02 18:46:32 EDT 2013
User: group
Dark Spectrum Present: No
Reference Spectrum Present: No
Number of Sampled Component Spectra: 1
Spectrometers: USB2E7196
Integration Time (usec): 580000 (USB2E7196)
Spectra Averaged: 2 (USB2E7196)
Boxcar Smoothing: 10 (USB2E7196)
Correct for Electrical Dark: No (USB2E7196)
Strobe/Lamp Enabled: No (USB2E7196)
Correct for Detector Non-linearity: No (USB2E7196)
Correct for Stray Light: No (USB2E7196)
Number of Pixels in Processed Spectrum: 2048
>>>>>Begin Processed Spectral Data<<<<<
339.09	0.00
339.48	196.50
339.86	189.00
340.24	194.50
340.63	197.50
341.01	231.50
341.39	195.50
341.78	208.50
342.16	208.50
342.54	205.00
342.93	195.79
343.31	205.55
343.69	205.86
344.07	206.62
344.46	207.45
344.84	207.88
345.22	206.60
345.60	207.40
345.99	207.33
346.37	207.45
346.75	207.57
347.13	207.62
347.52	207.86
347.90	208.62
348.28	208.98
348.66	209.31
349.05	208.74
349.43	209.26
349.81	209.50
350.19	209.67
350.57	209.90
350.96	210.26
351.34	210.55
351.72	210.76
352.10	210.93
352.48	210.98
352.87	211.02
353.25	210.98
353.63	210.52
354.01	210.69
354.39	210.74
354.77	210.76
355.15	211.52
355.54	211.45
355.92	210.95
356.30	210.79
356.68	212.21
357.06	212.45
357.44	212.02
357.82	211.83
358.20	212.81
358.58	212.90
358.97	213.05
359.35	213.64
359.73	214.24
360.11	214.43
360.49	214.29
360.87	214.50
361.25	214.95
361.63	215.95
362.01	215.98
362.39	215.98
362.77	216.31
363.15	216.24
363.53	216.38
363.91	216.57
364.29	216.69
364.67	214.83
365.05	214.95
365.43	215.43
365.81	215.88
366.19	215.88
366.57	216.74
366.95	216.55
367.33	215.79
367.71	215.71
368.09	215.98
368.47	216.26
368.85	216.21
369.23	216.74
369.61	216.07
369.99	216.81
370.37	216.98
370.75	218.19
371.13	217.71
371.51	217.69
371.89	218.12
372.27	218.29
372.65	218.52
373.03	218.69
373.41	218.52
373.78	218.29
374.16	217.26
374.54	216.74
374.92	216.55
375.30	216.64
375.68	216.05
376.06	216.31
376.44	216.24
376.82	216.43
377.19	216.36
377.57	216.29
377.95	215.74
378.33	215.64
378.71	214.10
379.09	214.14
379.47	214.26
379.84	213.93
380.22	213.71
380.60	213.50
380.98	213.36
381.36	213.12
381.73	212.95
382.11	213.40
382.49	213.43
382.87	213.31
383.25	213.50
383.62	216.05
384.00	215.45
384.38	215.43
384.76	215.88
385.13	216.67
385.51	216.64
385.89	216.38
386.27	216.31
386.64	216.67
387.02	216.55
387.40	216.48
387.78	216.60
388.15	216.69
388.53	216.45
388.91	216.36
389.29	216.50
389.66	216.67
390.04	216.33
390.42	216.43
390.79	216.60
391.17	216.33
391.55	214.24
391.92	214.31
392.30	214.33
392.68	213.74
393.05	213.50
393.43	213.71
393.81	213.67
394.18	213.45
394.56	213.40
394.94	213.79
395.31	213.38
395.69	213.83
396.06	214.21
396.44	214.52
396.82	214.62
397.19	215.67
397.57	215.48
397.95	215.71
398.32	215.33
398.70	215.64
399.07	216.36
399.45	215.98
399.82	216.19
400.20	215.93
400.58	215.71
400.95	214.88
401.33	215.12
401.70	216.71
402.08	217.05
402.45	217.24
402.83	217.79
403.20	218.19
403.58	218.14
403.95	218.52
404.33	218.98
404.71	218.98
405.08	220.05
405.46	220.50
405.83	220.83
406.21	221.02
406.58	221.31
406.96	221.48
407.33	222.12
407.70	222.60
408.08	224.81
408.45	225.86
408.83	226.88
409.20	227.36
409.58	226.71
409.95	227.83
410.33	228.76
410.70	229.10
411.08	230.36
411.45	231.43
411.82	232.21
412.20	233.48
412.57	236.05
412.95	235.43
413.32	237.48
413.69	238.88
414.07	240.69
414.44	242.57
414.82	244.76
415.19	247.19
415.56	249.12
415.94	250.36
416.31	253.00
416.68	255.74
417.06	259.26
417.43	263.10
417.81	266.38
418.18	270.02
418.55	273.67
418.93	277.57
419.30	281.50
419.67	285.69
420.04	290.14
420.42	294.31
420.79	301.57
421.16	306.83
421.54	313.50
421.91	319.76
422.28	326.00
422.66	332.07
423.03	340.45
423.40	347.57
423.77	354.83
424.15	361.60
424.52	368.90
424.89	377.29
425.26	384.88
425.64	392.36
426.01	400.60
426.38	409.52
426.75	418.98
427.13	428.62
427.50	438.38
427.87	448.52
428.24	458.29
428.61	466.62
428.99	477.93
429.36	488.64
429.73	499.95
430.10	511.52
430.47	523.45
430.85	533.14
431.22	545.88
431.59	560.76
431.96	573.98
432.33	588.50
432.70	601.95
433.08	617.79
433.45	633.31
433.82	648.26
434.19	664.33
434.56	680.95
434.93	696.05
435.30	711.81
435.68	729.24
436.05	746.14
436.42	762.76
436.79	778.00
437.16	795.50
437.53	813.50
437.90	830.74
438.27	848.33
438.64	866.33
439.01	883.29
439.38	897.02
439.75	911.38
440.13	927.50
440.50	942.86
440.87	954.81
441.24	967.31
441.61	982.31
441.98	994.19
442.35	1005.95
442.72	1018.71
443.09	1032.24
443.46	1039.83
443.83	1045.69
444.20	1051.00
444.57	1056.95
444.94	1059.95
445.31	1062.79
445.68	1068.95
446.05	1070.02
446.42	1069.07
446.79	1068.12
447.16	1065.50
447.53	1064.50
447.90	1058.48
448.27	1052.26
448.64	1044.50
449.01	1038.71
449.37	1027.52
449.74	1016.33
450.11	1005.43
450.48	991.10
450.85	975.12
451.22	961.95
451.59	949.95
451.96	938.26
452.33	923.24
452.70	909.12
453.07	892.07
453.43	872.00
453.80	856.12
454.17	840.19
454.54	824.50
454.91	808.52
455.28	793.24
455.65	778.40
456.02	767.07
456.38	754.62
456.75	739.10
457.12	725.17
457.49	712.07
457.86	697.52
458.23	687.86
458.59	676.38
458.96	664.95
459.33	654.10
459.70	643.71
460.07	635.02
460.43	625.29
460.80	616.95
461.17	609.86
461.54	601.43
461.91	593.79
462.27	585.21
462.64	578.24
463.01	570.36
463.38	564.38
463.74	553.81
464.11	547.45
464.48	542.26
464.85	536.43
465.21	532.45
465.58	527.98
465.95	520.90
466.32	515.93
466.68	510.71
467.05	505.88
467.42	500.62
467.78	495.64
468.15	490.76
468.52	486.98
468.88	481.45
469.25	476.69
469.62	473.50
469.98	469.90
470.35	466.57
470.72	463.29
471.08	457.83
471.45	455.10
471.82	451.93
472.18	448.02
472.55	445.67
472.92	441.95
473.28	438.81
473.65	436.38
474.02	433.79
474.38	431.81
474.75	429.71
475.11	427.64
475.48	425.93
475.85	423.69
476.21	421.88
476.58	420.71
476.94	419.81
477.31	418.26
477.67	417.33
478.04	416.31
478.41	415.29
478.77	417.24
479.14	416.00
479.50	415.55
479.87	415.45
480.23	415.33
480.60	414.95
480.96	414.79
481.33	415.52
481.69	415.50
482.06	416.21
482.42	417.00
482.79	417.36
483.15	417.67
483.52	419.31
483.88	419.38
484.25	420.12
484.61	421.10
484.98	421.38
485.34	422.93
485.71	424.45
486.07	425.81
486.44	425.02
486.80	426.52
487.17	428.19
487.53	430.05
487.90	432.26
488.26	435.74
488.62	438.69
488.99	440.50
489.35	443.33
489.72	445.38
490.08	447.45
490.44	450.10
490.81	453.60
491.17	456.36
491.54	460.36
491.90	463.88
492.26	467.50
492.63	471.57
492.99	474.24
493.36	478.26
493.72	483.14
494.08	487.52
494.45	492.48
494.81	497.26
495.17	501.76
495.54	506.62
495.90	511.12
496.26	515.62
496.63	521.02
496.99	526.02
497.35	532.02
497.72	538.40
498.08	544.57
498.44	550.24
498.80	556.64
499.17	562.60
499.53	569.24
499.89	575.86
500.26	582.81
500.62	590.57
500.98	597.83
501.34	604.48
501.71	612.48
502.07	619.29
502.43	626.14
502.79	633.21
503.16	640.05
503.52	647.21
503.88	654.17
504.24	661.86
504.60	669.36
504.97	677.17
505.33	684.62
505.69	693.26
506.05	700.95
506.41	708.74
506.78	716.50
507.14	723.74
507.50	731.43
507.86	739.02
508.22	746.79
508.59	753.90
508.95	761.33
509.31	769.62
509.67	777.98
510.03	785.55
510.39	794.17
510.75	802.64
511.12	809.67
511.48	817.55
511.84	825.26
512.20	832.76
512.56	840.21
512.92	847.36
513.28	854.21
513.64	861.76
514.00	869.21
514.37	876.71
514.73	884.52
515.09	892.17
515.45	899.33
515.81	905.71
516.17	913.00
516.53	919.33
516.89	924.62
517.25	931.33
517.61	938.52
517.97	944.36
518.33	950.26
518.69	957.38
519.05	963.93
519.41	970.05
519.77	977.48
520.13	983.21
520.49	989.62
520.85	995.19
521.21	1001.83
521.57	1007.71
521.93	1012.50
522.29	1017.55
522.65	1022.14
523.01	1027.67
523.37	1033.14
523.73	1038.38
524.09	1044.31
524.45	1049.83
524.81	1054.14
525.17	1058.95
525.53	1063.62
525.89	1068.12
526.25	1073.36
526.61	1077.67
526.97	1081.24
527.33	1085.26
527.68	1090.86
528.04	1094.95
528.40	1098.93
528.76	1102.55
529.12	1106.14
529.48	1111.10
529.84	1115.24
530.20	1120.36
530.56	1124.43
530.91	1128.79
531.27	1132.86
531.63	1137.21
531.99	1141.10
532.35	1145.19
532.71	1148.55
533.07	1152.88
533.42	1159.45
533.78	1162.48
534.14	1166.64
534.50	1170.67
534.86	1175.02
535.21	1177.36
535.57	1181.48
535.93	1184.95
536.29	1189.57
536.65	1193.55
537.00	1196.95
537.36	1200.90
537.72	1203.79
538.08	1207.76
538.44	1210.93
538.79	1214.48
539.15	1217.00
539.51	1220.69
539.87	1223.79
540.22	1227.43
540.58	1231.19
540.94	1231.88
541.29	1234.74
541.65	1237.48
542.01	1241.55
542.37	1243.17
542.72	1245.71
543.08	1247.33
543.44	1250.81
543.79	1251.79
544.15	1254.57
544.51	1258.10
544.87	1260.43
545.22	1263.67
545.58	1266.12
545.94	1268.17
546.29	1270.38
546.65	1273.07
547.01	1275.21
547.36	1278.26
547.72	1279.98
548.07	1281.86
548.43	1285.02
548.79	1287.26
549.14	1289.45
549.50	1291.36
549.86	1293.60
550.21	1296.88
550.57	1300.74
550.92	1302.79
551.28	1306.71
551.64	1309.19
551.99	1311.69
552.35	1314.38
552.70	1316.86
553.06	1319.33
553.41	1323.26
553.77	1327.21
554.13	1330.88
554.48	1334.81
554.84	1338.69
555.19	1343.38
555.55	1348.62
555.90	1351.26
556.26	1354.74
556.61	1358.36
556.97	1361.76
557.32	1365.74
557.68	1369.50
558.03	1373.14
558.39	1376.95
558.74	1379.76
559.10	1383.57
559.45	1388.07
559.81	1391.95
560.16	1395.40
560.52	1399.98
560.87	1404.10
561.23	1407.62
561.58	1413.10
561.94	1416.33
562.29	1420.31
562.64	1424.48
563.00	1427.90
563.35	1432.98
563.71	1438.83
564.06	1444.62
564.42	1449.74
564.77	1456.12
565.12	1461.62
565.48	1468.10
565.83	1474.29
566.19	1480.74
566.54	1485.74
566.89	1489.79
567.25	1496.31
567.60	1503.71
567.96	1511.57
568.31	1518.26
568.66	1524.57
569.02	1529.00
569.37	1534.62
569.72	1540.50
570.08	1545.79
570.43	1550.90
570.78	1557.10
571.14	1561.57
571.49	1565.90
571.84	1571.69
572.20	1575.83
572.55	1581.10
572.90	1584.76
573.26	1589.29
573.61	1593.79
573.96	1598.98
574.31	1603.62
574.67	1607.48
575.02	1610.21
575.37	1611.57
575.72	1613.95
576.08	1617.62
576.43	1620.88
576.78	1624.62
577.13	1627.40
577.49	1632.07
577.84	1636.45
578.19	1639.38
578.54	1644.48
578.90	1649.00
579.25	1652.05
579.60	1654.93
579.95	1657.40
580.30	1660.38
580.66	1665.07
581.01	1668.17
581.36	1671.93
581.71	1676.69
582.06	1680.76
582.42	1685.33
582.77	1688.43
583.12	1692.60
583.47	1695.88
583.82	1700.38
584.17	1704.02
584.53	1707.76
584.88	1710.57
585.23	1713.40
585.58	1716.10
585.93	1717.60
586.28	1720.69
586.63	1723.67
586.98	1727.67
587.34	1731.83
587.69	1734.76
588.04	1736.02
588.39	1739.19
588.74	1740.62
589.09	1743.24
589.44	1744.31
589.79	1745.57
590.14	1748.19
590.49	1750.10
590.84	1751.43
591.19	1752.33
591.54	1754.10
591.89	1754.79
592.25	1758.38
592.60	1759.88
592.95	1762.33
593.30	1765.57
593.65	1766.38
594.00	1767.76
594.35	1774.48
594.70	1774.79
595.05	1776.43
595.40	1777.83
595.75	1777.62
596.10	1779.40
596.45	1779.62
596.80	1781.90
597.15	1782.83
597.50	1784.07
597.85	1786.21
598.19	1787.74
598.54	1789.10
598.89	1789.83
599.24	1792.24
599.59	1790.83
599.94	1792.31
600.29	1792.48
600.64	1792.48
600.99	1793.33
601.34	1794.43
601.69	1788.71
602.04	1787.93
602.39	1787.52
602.74	1788.02
603.08	1788.50
603.43	1789.17
603.78	1788.81
604.13	1788.02
604.48	1787.67
604.83	1787.95
605.18	1787.21
605.53	1786.43
605.87	1785.10
606.22	1784.76
606.57	1783.38
606.92	1781.88
607.27	1780.43
607.62	1780.43
607.96	1779.31
608.31	1778.83
608.66	1777.45
609.01	1776.98
609.36	1776.93
609.70	1775.21
610.05	1772.38
610.40	1770.98
610.75	1768.83
611.10	1766.79
611.44	1763.50
611.79	1761.14
612.14	1758.67
612.49	1753.86
612.83	1751.48
613.18	1749.74
613.53	1746.93
613.88	1742.98
614.22	1740.10
614.57	1736.05
614.92	1731.62
615.27	1728.43
615.61	1723.74
615.96	1720.14
616.31	1716.14
616.65	1713.43
617.00	1711.71
617.35	1709.17
617.70	1705.52
618.04	1702.38
618.39	1699.36
618.74	1696.83
619.08	1693.74
619.43	1690.52
619.78	1689.12
620.12	1685.69
620.47	1681.50
620.82	1677.12
621.16	1673.67
621.51	1671.57
621.85	1667.21
622.20	1663.33
622.55	1658.83
622.89	1656.17
623.24	1653.38
623.59	1649.60
623.93	1645.69
624.28	1641.31
624.62	1639.29
624.97	1636.90
625.32	1632.50
625.66	1628.57
626.01	1624.38
626.35	1620.26
626.70	1614.57
627.04	1610.50
627.39	1606.69
627.73	1603.43
628.08	1600.24
628.43	1596.81
628.77	1591.29
629.12	1589.10
629.46	1586.29
629.81	1582.52
630.15	1577.98
630.50	1571.98
630.84	1567.69
631.19	1562.29
631.53	1557.52
631.88	1551.05
632.22	1544.52
632.57	1540.26
632.91	1534.95
633.26	1530.95
633.60	1526.24
633.95	1522.02
634.29	1516.71
634.64	1512.12
634.98	1507.40
635.32	1503.95
635.67	1500.48
636.01	1496.52
636.36	1490.29
636.70	1485.36
637.05	1479.98
637.39	1476.38
637.73	1472.88
638.08	1469.10
638.42	1464.90
638.77	1460.19
639.11	1455.50
639.45	1451.74
639.80	1446.07
640.14	1441.60
640.49	1436.29
640.83	1431.45
641.17	1427.36
641.52	1422.64
641.86	1417.57
642.20	1413.24
642.55	1406.81
642.89	1400.29
643.23	1394.64
643.58	1391.31
643.92	1384.81
644.26	1379.95
644.61	1373.67
644.95	1367.83
645.29	1361.17
645.64	1355.38
645.98	1350.33
646.32	1345.43
646.66	1338.98
647.01	1332.52
647.35	1327.60
647.69	1322.36
648.04	1317.40
648.38	1311.81
648.72	1305.71
649.06	1299.88
649.41	1293.24
649.75	1286.38
650.09	1281.02
650.43	1275.24
650.78	1268.05
651.12	1262.17
651.46	1256.24
651.80	1250.40
652.14	1245.05
652.49	1240.02
652.83	1234.33
653.17	1227.43
653.51	1219.98
653.85	1214.24
654.20	1209.00
654.54	1201.83
654.88	1195.26
655.22	1189.21
655.56	1182.60
655.90	1176.74
656.25	1170.40
656.59	1164.14
656.93	1159.26
657.27	1154.07
657.61	1147.05
657.95	1140.79
658.29	1135.48
658.64	1129.57
658.98	1122.95
659.32	1115.60
659.66	1108.48
660.00	1101.90
660.34	1095.98
660.68	1091.07
661.02	1085.14
661.36	1079.60
661.70	1074.10
662.05	1067.69
662.39	1062.52
662.73	1057.55
663.07	1052.05
663.41	1045.88
663.75	1040.19
664.09	1034.33
664.43	1027.40
664.77	1022.02
665.11	1016.10
665.45	1010.17
665.79	1004.67
666.13	998.81
666.47	994.12
666.81	989.33
667.15	983.62
667.49	978.74
667.83	973.69
668.17	968.45
668.51	963.38
668.85	958.31
669.19	954.38
669.53	947.60
669.87	941.02
670.21	935.88
670.55	930.57
670.89	925.60
671.23	920.24
671.57	915.05
671.91	910.10
672.25	905.50
672.58	900.71
672.92	894.98
673.26	889.81
673.60	884.31
673.94	879.38
674.28	874.83
674.62	870.05
674.96	864.55
675.30	859.19
675.64	853.57
675.97	848.57
676.31	843.07
676.65	837.86
676.99	834.07
677.33	828.19
677.67	823.31
678.01	817.57
678.34	812.62
678.68	808.26
679.02	803.83
679.36	798.50
679.70	793.21
680.04	788.76
680.37	784.00
680.71	778.40
681.05	773.05
681.39	768.24
681.73	762.69
682.06	757.88
682.40	753.79
682.74	749.21
683.08	745.24
683.42	740.00
683.75	735.21
684.09	729.52
684.43	725.02
684.77	720.00
685.10	715.10
685.44	710.55
685.78	705.90
686.12	700.64
686.45	696.40
686.79	691.93
687.13	687.31
687.46	682.71
687.80	679.38
688.14	675.10
688.48	670.40
688.81	665.79
689.15	661.64
689.49	656.64
689.82	651.95
690.16	646.29
690.50	641.64
690.83	637.55
691.17	632.43
691.51	628.05
691.84	624.14
692.18	620.12
692.52	615.79
692.85	611.40
693.19	608.26
693.52	603.76
693.86	598.90
694.20	594.50
694.53	590.33
694.87	585.55
695.21	580.86
695.54	576.88
695.88	572.26
696.21	567.14
696.55	563.05
696.88	559.07
697.22	555.24
697.56	552.12
697.89	547.81
698.23	544.74
698.56	540.48
698.90	536.76
699.23	533.10
699.57	529.29
699.90	525.62
700.24	521.07
700.58	517.76
700.91	514.88
701.25	512.76
701.58	509.83
701.92	507.10
702.25	503.71
702.59	500.07
702.92	497.26
703.26	494.29
703.59	491.05
703.93	489.86
704.26	487.05
704.60	483.64
704.93	480.69
705.26	477.69
705.60	475.60
705.93	472.26
706.27	469.64
706.60	467.05
706.94	464.48
707.27	461.45
707.61	458.69
707.94	455.31
708.27	451.36
708.61	447.86
708.94	444.74
709.28	442.26
709.61	439.76
709.94	437.12
710.28	434.93
710.61	432.57
710.95	427.95
711.28	426.74
711.61	424.05
711.95	421.93
712.28	419.33
712.61	416.38
712.95	415.31
713.28	413.81
713.61	411.07
713.95	407.95
714.28	406.17
714.61	403.50
714.95	401.24
715.28	398.43
715.61	396.33
715.95	394.40
716.28	392.17
716.61	390.17
716.95	387.79
717.28	385.07
717.61	382.52
717.94	380.69
718.28	377.02
718.61	374.95
718.94	372.50
719.27	370.60
719.61	368.67
719.94	365.71
720.27	362.45
720.60	360.31
720.94	358.67
721.27	356.76
721.60	355.21
721.93	353.81
722.27	352.79
722.60	351.21
722.93	349.31
723.26	347.81
723.59	345.67
723.93	344.50
724.26	343.36
724.59	341.57
724.92	340.38
725.25	339.48
725.59	338.02
725.92	337.10
726.25	335.60
726.58	334.26
726.91	332.71
727.24	331.74
727.57	330.38
727.91	328.86
728.24	327.79
728.57	326.40
728.90	325.21
729.23	323.38
729.56	322.98
729.89	321.69
730.22	320.24
730.55	319.05
730.89	317.64
731.22	316.50
731.55	315.43
731.88	314.26
732.21	312.64
732.54	311.29
732.87	310.14
733.20	309.02
733.53	307.95
733.86	307.31
734.19	305.95
734.52	305.60
734.85	306.12
735.18	304.55
735.51	304.12
735.84	303.31
736.17	302.95
736.50	301.31
736.83	302.69
737.16	301.74
737.49	300.93
737.82	300.05
738.15	299.19
738.48	298.48
738.81	297.33
739.14	296.12
739.47	295.45
739.80	294.60
740.13	293.95
740.46	292.88
740.79	291.74
741.12	290.93
741.45	289.48
741.78	287.36
742.11	287.07
742.44	285.86
742.77	284.90
743.10	283.83
743.43	282.71
743.75	279.40
744.08	281.40
744.41	280.21
744.74	279.40
745.07	278.21
745.40	277.67
745.73	277.52
746.06	277.02
746.39	276.45
746.71	275.40
747.04	274.24
747.37	273.38
747.70	272.90
748.03	272.14
748.36	272.05
748.68	271.24
749.01	269.86
749.34	268.86
749.67	268.19
750.00	267.93
750.33	268.81
750.65	268.40
750.98	265.14
751.31	264.83
751.64	264.29
751.97	265.10
752.29	264.55
752.62	263.05
752.95	262.17
753.28	261.26
753.60	260.48
753.93	260.38
754.26	260.14
754.59	258.88
754.91	258.33
755.24	257.31
755.57	256.67
755.90	256.05
756.22	255.57
756.55	254.71
756.88	253.52
757.20	251.74
757.53	250.69
757.86	250.24
758.19	249.88
758.51	249.29
758.84	247.29
759.17	246.36
759.49	246.31
759.82	246.86
760.15	246.52
760.47	246.12
760.80	245.26
761.13	245.10
761.45	244.79
761.78	244.21
762.11	243.98
762.43	243.48
762.76	243.19
763.08	242.95
763.41	242.74
763.74	242.69
764.06	242.21
764.39	242.17
764.71	241.67
765.04	240.93
765.37	240.45
765.69	240.14
766.02	239.88
766.34	239.26
766.67	238.29
767.00	238.31
767.32	239.19
767.65	239.88
767.97	239.26
768.30	239.17
768.62	239.12
768.95	238.50
769.27	238.17
769.60	238.19
769.92	237.69
770.25	237.33
770.57	236.67
770.90	236.26
771.22	235.81
771.55	235.33
771.87	235.31
772.20	235.17
772.52	236.55
772.85	238.81
773.17	238.57
773.50	238.00
773.82	237.67
774.15	236.26
774.47	235.07
774.80	234.62
775.12	234.52
775.45	234.12
775.77	234.26
776.09	234.31
776.42	234.14
776.74	234.62
777.07	234.17
777.39	234.02
777.72	233.62
778.04	233.48
778.36	233.40
778.69	233.24
779.01	232.79
779.33	230.90
779.66	228.43
779.98	228.12
780.31	228.24
780.63	228.50
780.95	228.81
781.28	228.83
781.60	228.55
781.92	228.10
782.25	227.98
782.57	227.69
782.89	227.40
783.22	227.00
783.54	226.48
783.86	226.45
784.19	226.12
784.51	226.76
784.83	226.55
785.16	226.43
785.48	226.29
785.80	226.29
786.12	226.55
786.45	226.33
786.77	226.57
787.09	226.24
787.42	225.62
787.74	225.62
788.06	225.12
788.38	224.90
788.71	224.57
789.03	224.62
789.35	224.64
789.67	224.31
789.99	224.43
790.32	223.88
790.64	224.05
790.96	225.45
791.28	224.57
791.61	224.40
791.93	224.19
792.25	224.14
792.57	225.57
792.89	225.00
793.21	225.07
793.54	224.52
793.86	224.38
794.18	224.31
794.50	223.60
794.82	223.64
795.14	223.83
795.47	224.17
795.79	224.21
796.11	223.57
796.43	223.29
796.75	223.19
797.07	223.29
797.39	223.31
797.71	222.00
798.04	222.29
798.36	222.17
798.68	222.31
799.00	222.40
799.32	221.29
799.64	221.76
799.96	221.64
800.28	221.90
800.60	221.57
800.92	221.79
801.24	221.74
801.56	221.98
801.89	221.90
802.21	221.95
802.53	221.33
802.85	221.76
803.17	223.07
803.49	222.45
803.81	222.36
804.13	221.93
804.45	221.67
804.77	221.60
805.09	221.86
805.41	221.36
805.73	220.69
806.05	220.00
806.37	219.67
806.69	219.40
807.01	219.05
807.33	219.38
807.65	218.69
807.97	219.67
808.28	219.36
808.60	219.05
808.92	218.86
809.24	220.14
809.56	219.81
809.88	218.60
810.20	218.95
810.52	219.14
810.84	218.93
811.16	218.81
811.48	218.62
811.80	219.24
812.12	219.38
812.43	219.98
812.75	220.12
813.07	219.90
813.39	220.05
813.71	219.81
814.03	219.45
814.35	219.40
814.67	218.45
814.98	218.26
815.30	218.33
815.62	217.95
815.94	216.43
816.26	216.38
816.58	216.26
816.89	216.14
817.21	215.83
817.53	215.90
817.85	215.76
818.17	215.52
818.48	214.38
818.80	214.86
819.12	214.50
819.44	214.21
819.76	214.05
820.07	214.12
820.39	214.29
820.71	214.45
821.03	214.38
821.34	214.21
821.66	214.55
821.98	214.79
822.30	214.76
822.61	216.19
822.93	216.10
823.25	215.95
823.57	215.88
823.88	215.95
824.20	216.02
824.52	216.43
824.83	216.45
825.15	216.19
825.47	215.71
825.79	215.81
826.10	215.79
826.42	215.60
826.74	215.69
827.05	215.67
827.37	215.67
827.69	215.62
828.00	215.71
828.32	215.57
828.64	215.26
828.95	216.31
829.27	215.74
829.58	215.69
829.90	216.10
830.22	215.95
830.53	215.67
830.85	215.50
831.17	215.00
831.48	215.05
831.80	215.24
832.11	215.10
832.43	214.79
832.75	214.79
833.06	216.14
833.38	215.43
833.69	215.17
834.01	215.36
834.32	215.43
834.64	215.10
834.96	215.14
835.27	214.95
835.59	214.24
835.90	213.88
836.22	213.88
836.53	213.40
836.85	213.38
837.16	215.24
837.48	215.29
837.79	215.88
838.11	215.88
838.42	215.81
838.74	216.17
839.05	216.07
839.37	215.88
839.68	214.48
840.00	214.36
840.31	214.74
840.63	214.38
840.94	214.12
841.26	214.12
841.57	214.00
841.88	214.38
842.20	214.10
842.51	213.67
842.83	213.86
843.14	215.88
843.46	215.95
843.77	215.19
844.08	214.93
844.40	214.29
844.71	214.29
845.03	214.24
845.34	213.93
845.65	213.86
845.97	213.90
846.28	214.19
846.60	214.62
846.91	214.48
847.22	214.57
847.54	215.26
847.85	215.38
848.16	215.21
848.48	215.05
848.79	215.86
849.10	216.26
849.42	216.14
849.73	214.17
850.04	213.88
850.36	212.90
850.67	213.45
850.98	213.57
851.30	213.74
851.61	213.69
851.92	213.76
852.23	214.38
852.55	214.45
852.86	214.29
853.17	214.31
853.49	214.67
853.80	214.90
854.11	214.64
854.42	214.93
854.74	214.64
855.05	214.57
855.36	213.36
855.67	213.36
855.99	213.52
856.30	216.19
856.61	216.38
856.92	216.40
857.23	216.21
857.55	216.05
857.86	215.98
858.17	216.29
858.48	215.98
858.79	215.57
859.11	215.93
859.42	216.00
859.73	215.67
860.04	215.45
860.35	214.90
860.66	214.38
860.98	214.31
861.29	214.81
861.60	214.50
861.91	215.31
862.22	214.95
862.53	214.50
862.84	211.86
863.16	212.43
863.47	212.14
863.78	211.93
864.09	212.17
864.40	212.29
864.71	212.17
865.02	212.48
865.33	212.21
865.64	211.81
865.95	211.57
866.27	213.07
866.58	212.90
866.89	213.10
867.20	213.19
867.51	212.74
867.82	212.36
868.13	213.19
868.44	212.60
868.75	212.93
869.06	213.10
869.37	213.14
869.68	212.29
869.99	212.71
870.30	212.93
870.61	213.05
870.92	212.60
871.23	212.57
871.54	212.88
871.85	213.50
872.16	213.88
872.47	213.90
872.78	212.48
873.09	212.76
873.40	212.57
873.71	212.55
874.02	212.81
874.33	212.83
874.64	212.17
874.95	212.81
875.26	212.43
875.56	212.26
875.87	212.21
876.18	212.31
876.49	214.33
876.80	214.00
877.11	213.48
877.42	213.71
877.73	213.98
878.04	213.60
878.35	213.55
878.66	213.36
878.96	213.45
879.27	213.57
879.58	213.29
879.89	213.26
880.20	213.98
880.51	213.90
880.82	213.86
881.12	214.10
881.43	213.29
881.74	213.29
882.05	213.14
882.36	213.24
882.67	213.10
882.97	210.74
883.28	210.45
883.59	210.52
883.90	210.43
884.21	210.55
884.51	210.33
884.82	210.05
885.13	210.02
885.44	209.93
885.74	209.95
886.05	209.98
886.36	210.05
886.67	209.21
886.98	210.31
887.28	210.43
887.59	210.43
887.90	210.71
888.20	210.31
888.51	210.74
888.82	210.52
889.13	211.05
889.43	212.64
889.74	212.74
890.05	212.93
890.35	212.88
890.66	212.48
890.97	212.55
891.28	212.21
891.58	212.21
891.89	212.07
892.20	211.93
892.50	211.74
892.81	211.69
893.12	211.67
893.42	210.55
893.73	210.55
894.04	210.60
894.34	210.52
894.65	210.71
894.95	210.76
895.26	210.83
895.57	211.38
895.87	209.64
896.18	210.05
896.48	210.29
896.79	210.19
897.10	210.55
897.40	210.60
897.71	210.90
898.01	210.81
898.32	211.36
898.63	211.17
898.93	211.26
899.24	211.43
899.54	211.45
899.85	211.43
900.15	211.67
900.46	211.52
900.76	211.79
901.07	211.57
901.38	211.43
901.68	211.76
901.99	211.14
902.29	211.33
902.60	211.26
902.90	211.02
903.21	211.17
903.51	211.05
903.82	211.50
904.12	211.48
904.43	211.62
904.73	211.24
905.03	211.52
905.34	213.67
905.64	213.33
905.95	213.50
906.25	213.40
906.56	213.26
906.86	213.07
907.17	213.10
907.47	213.40
907.77	213.07
908.08	212.62
908.38	212.60
908.69	212.88
908.99	213.38
909.30	213.38
909.60	213.38
909.90	213.69
910.21	213.02
910.51	212.86
910.81	212.90
911.12	213.26
911.42	212.95
911.73	210.76
912.03	211.05
912.33	211.36
912.64	211.33
912.94	211.19
913.24	211.12
913.55	210.76
913.85	210.60
914.15	210.98
914.46	211.24
914.76	211.17
915.06	211.00
915.37	210.40
915.67	210.12
915.97	210.19
916.27	209.45
916.58	209.60
916.88	209.55
917.18	209.50
917.49	210.76
917.79	210.95
918.09	211.14
918.39	211.69
918.70	211.55
919.00	211.71
919.30	212.55
919.60	212.29
919.91	212.45
920.21	212.62
920.51	212.29
920.81	212.24
921.12	212.29
921.42	212.33
921.72	212.33
922.02	212.55
922.32	212.74
922.63	213.00
922.93	214.19
923.23	214.10
923.53	213.79
923.83	212.38
924.13	212.60
924.44	212.83
924.74	213.12
925.04	213.43
925.34	213.21
925.64	212.33
925.94	212.48
926.24	213.38
926.55	213.19
926.85	213.62
927.15	213.29
927.45	213.45
927.75	213.38
928.05	213.67
928.35	213.52
928.65	214.02
928.95	214.14
929.26	213.36
929.56	213.81
929.86	214.21
930.16	213.98
930.46	213.90
930.76	213.83
931.06	212.88
931.36	212.45
931.66	213.10
931.96	213.26
932.26	213.52
932.56	212.81
932.86	212.95
933.16	212.79
933.46	212.93
933.76	212.50
934.06	212.98
934.36	213.62
934.66	213.74
934.96	213.36
935.26	213.57
935.56	213.55
935.86	213.10
936.16	212.86
936.46	212.86
936.76	212.71
937.06	212.19
937.36	212.07
937.66	212.10
937.96	211.55
938.26	211.10
938.56	210.88
938.86	211.07
939.16	211.67
939.46	212.00
939.76	212.10
940.06	212.45
940.35	211.98
940.65	210.90
940.95	211.17
941.25	210.71
941.55	210.07
941.85	210.12
942.15	210.69
942.45	211.07
942.75	210.98
943.04	210.93
943.34	211.55
943.64	211.38
943.94	211.10
944.24	211.26
944.54	211.45
944.84	211.38
945.13	210.83
945.43	210.38
945.73	210.17
946.03	210.10
946.33	209.64
946.62	209.43
946.92	209.55
947.22	209.40
947.52	209.38
947.82	209.69
948.11	209.38
948.41	208.81
948.71	208.31
949.01	208.40
949.31	208.43
949.60	208.14
949.90	208.64
950.20	208.55
950.50	208.55
950.79	208.31
951.09	208.60
951.39	208.67
951.69	208.38
951.98	208.69
952.28	208.76
952.58	208.60
952.87	208.76
953.17	208.95
953.47	208.64
953.76	208.67
954.06	208.48
954.36	208.36
954.66	208.40
954.95	209.07
955.25	209.40
955.55	209.36
955.84	209.12
956.14	209.36
956.44	209.83
956.73	209.52
957.03	209.62
957.32	209.52
957.62	209.55
957.92	210.05
958.21	209.90
958.51	212.48
958.81	212.88
959.10	212.83
959.40	213.24
959.69	213.62
959.99	213.90
960.29	214.02
960.58	214.00
960.88	214.79
961.17	214.45
961.47	214.40
961.76	214.19
962.06	214.62
962.36	214.14
962.65	214.00
962.95	214.29
963.24	214.31
963.54	214.60
963.83	214.93
964.13	214.81
964.42	214.12
964.72	212.12
965.01	212.17
965.31	212.17
965.60	211.64
965.90	212.83
966.19	212.43
966.49	212.52
966.78	212.36
967.08	211.98
967.37	212.10
967.67	211.93
967.96	212.36
968.26	212.33
968.55	212.76
968.85	212.69
969.14	212.60
969.43	212.74
969.73	212.48
970.02	212.24
970.32	212.17
970.61	212.29
970.91	211.71
971.20	211.43
971.49	211.21
971.79	211.36
972.08	209.90
972.38	210.14
972.67	210.02
972.96	210.38
973.26	210.07
973.55	210.67
973.85	210.71
974.14	210.50
974.43	210.55
974.73	210.12
975.02	209.95
975.31	209.93
975.61	209.81
975.90	209.83
976.19	209.45
976.49	209.52
976.78	209.67
977.07	209.62
977.37	209.67
977.66	209.81
977.95	209.64
978.24	209.74
978.54	209.95
978.83	209.74
979.12	209.52
979.42	209.62
979.71	209.02
980.00	208.67
980.29	208.86
980.59	208.38
980.88	209.02
981.17	209.00
981.46	208.83
981.76	209.05
982.05	209.81
982.34	209.98
982.63	210.07
982.93	210.21
983.22	210.88
983.51	211.10
983.80	211.64
984.09	211.81
984.39	211.86
984.68	211.76
984.97	211.93
985.26	211.69
985.55	211.83
985.85	211.40
986.14	212.05
986.43	212.60
986.72	212.43
987.01	211.76
987.30	212.00
987.59	212.17
987.89	211.90
988.18	210.76
988.47	210.81
988.76	210.57
989.05	210.40
989.34	210.02
989.63	210.60
989.92	210.12
990.22	209.88
990.51	209.64
990.80	209.31
991.09	209.60
991.38	210.05
991.67	209.69
991.96	209.81
992.25	209.62
992.54	208.93
992.83	209.14
993.12	209.24
993.41	209.29
993.70	210.14
993.99	210.67
994.28	211.19
994.58	211.17
994.87	211.10
995.16	211.05
995.45	210.76
995.74	209.98
996.03	210.29
996.32	210.74
996.61	211.31
996.90	211.43
997.19	211.17
997.48	211.07
997.77	210.98
998.06	210.90
998.34	210.67
998.63	210.69
998.92	211.02
999.21	211.38
999.50	211.62
999.79	210.83
1000.08	210.71
1000.37	210.55
1000.66	210.52
1000.95	211.17
1001.24	211.36
1001.53	211.67
1001.82	211.50
1002.11	211.02
1002.40	211.40
1002.68	211.71
1002.97	213.21
1003.26	213.26
1003.55	213.05
1003.84	213.50
1004.13	214.36
1004.42	214.45
1004.71	214.48
1004.99	214.10
1005.28	214.45
1005.57	214.19
1005.86	214.19
1006.15	214.10
1006.44	214.02
1006.72	214.36
1007.01	213.74
1007.30	213.93
1007.59	213.69
1007.88	214.02
1008.17	214.24
1008.45	213.50
1008.74	212.67
1009.03	211.60
1009.32	211.79
1009.60	211.86
1009.89	211.45
1010.18	210.60
1010.47	210.40
1010.76	210.48
1011.04	210.64
1011.33	210.71
1011.62	211.00
1011.91	210.98
1012.19	210.98
1012.48	211.05
1012.77	211.02
1013.05	211.93
1013.34	211.55
1013.63	211.40
1013.92	211.55
1014.20	211.26
1014.49	211.48
1014.78	211.86
1015.06	211.31
1015.35	210.98
1015.64	211.17
1015.92	211.62
1016.21	211.69
1016.50	211.88
1016.78	212.24
1017.07	212.07
1017.36	211.45
1017.64	211.05
1017.93	211.31
1018.22	211.31
1018.50	211.24
1018.79	210.95
1019.08	210.14
1019.36	210.45
1019.65	210.55
1019.93	210.86
1020.22	211.26
1020.51	212.17
1020.79	211.71
1021.08	210.50
1021.36	207.00
1021.65	208.00
1021.94	210.00
1022.22	213.00
1022.51	208.50
1022.79	220.00
1023.08	213.50
1023.36	233.50
1023.65	204.00
>>>>>End Processed Spectral Data<<<<<
