SpectraSuite Data File
++++++++++++++++++++++++++++++++++++
Date: Tue Apr 02 18:45:25 EDT 2013
User: group
Dark Spectrum Present: No
Reference Spectrum Present: No
Number of Sampled Component Spectra: 1
Spectrometers: USB2E7196
Integration Time (usec): 580000 (USB2E7196)
Spectra Averaged: 2 (USB2E7196)
Boxcar Smoothing: 10 (USB2E7196)
Correct for Electrical Dark: No (USB2E7196)
Strobe/Lamp Enabled: No (USB2E7196)
Correct for Detector Non-linearity: No (USB2E7196)
Correct for Stray Light: No (USB2E7196)
Number of Pixels in Processed Spectrum: 2048
>>>>>Begin Processed Spectral Data<<<<<
339.09	0.00
339.48	192.00
339.86	193.50
340.24	193.50
340.63	198.00
341.01	228.50
341.39	198.00
341.78	207.00
342.16	209.50
342.54	204.00
342.93	196.50
343.31	206.19
343.69	206.64
344.07	207.17
344.46	207.98
344.84	208.33
345.22	207.31
345.60	207.76
345.99	207.74
346.37	207.50
346.75	207.52
347.13	207.57
347.52	207.43
347.90	208.05
348.28	208.24
348.66	208.55
349.05	207.98
349.43	208.12
349.81	208.17
350.19	208.26
350.57	208.38
350.96	208.67
351.34	208.79
351.72	209.12
352.10	209.26
352.48	209.02
352.87	208.98
353.25	209.26
353.63	209.14
354.01	209.43
354.39	209.69
354.77	209.98
355.15	210.71
355.54	210.83
355.92	210.26
356.30	210.48
356.68	211.81
357.06	212.05
357.44	211.81
357.82	211.76
358.20	212.86
358.58	212.79
358.97	212.76
359.35	213.36
359.73	213.74
360.11	213.69
360.49	214.02
360.87	214.24
361.25	214.29
361.63	215.14
362.01	215.29
362.39	215.29
362.77	215.62
363.15	215.71
363.53	215.86
363.91	216.38
364.29	216.24
364.67	214.40
365.05	214.55
365.43	214.76
365.81	215.21
366.19	215.36
366.57	216.31
366.95	216.36
367.33	216.07
367.71	216.02
368.09	216.62
368.47	216.69
368.85	216.71
369.23	217.24
369.61	216.64
369.99	217.19
370.37	217.60
370.75	218.36
371.13	217.90
371.51	217.36
371.89	217.43
372.27	217.60
372.65	217.76
373.03	217.98
373.41	217.86
373.78	217.74
374.16	216.79
374.54	216.24
374.92	216.14
375.30	216.26
375.68	215.88
376.06	216.02
376.44	215.62
376.82	215.83
377.19	215.50
377.57	215.52
377.95	214.67
378.33	214.45
378.71	213.29
379.09	213.50
379.47	214.17
379.84	213.86
380.22	213.62
380.60	213.55
380.98	213.40
381.36	213.36
381.73	213.10
382.11	213.31
382.49	213.45
382.87	213.26
383.25	213.07
383.62	215.38
384.00	214.86
384.38	215.02
384.76	215.55
385.13	216.24
385.51	216.19
385.89	216.48
386.27	216.55
386.64	216.93
387.02	216.57
387.40	216.36
387.78	216.55
388.15	216.50
388.53	216.43
388.91	216.55
389.29	216.45
389.66	216.71
390.04	216.57
390.42	216.74
390.79	216.83
391.17	216.79
391.55	214.67
391.92	214.64
392.30	214.81
392.68	214.31
393.05	214.31
393.43	214.24
393.81	214.17
394.18	213.86
394.56	213.83
394.94	214.38
395.31	214.02
395.69	214.48
396.06	214.83
396.44	214.79
396.82	214.31
397.19	215.31
397.57	215.05
397.95	215.29
398.32	214.60
398.70	214.88
399.07	215.64
399.45	215.52
399.82	215.50
400.20	215.60
400.58	215.55
400.95	214.79
401.33	215.26
401.70	216.60
402.08	216.74
402.45	216.83
402.83	217.26
403.20	217.48
403.58	217.24
403.95	217.95
404.33	218.33
404.71	218.74
405.08	219.93
405.46	220.19
405.83	220.67
406.21	221.24
406.58	221.69
406.96	221.57
407.33	221.98
407.70	222.67
408.08	224.86
408.45	225.81
408.83	226.81
409.20	227.26
409.58	226.74
409.95	227.98
410.33	228.67
410.70	228.88
411.08	230.07
411.45	231.40
411.82	231.90
412.20	233.64
412.57	235.98
412.95	235.83
413.32	237.52
413.69	238.88
414.07	240.57
414.44	242.24
414.82	244.31
415.19	246.95
415.56	248.98
415.94	250.14
416.31	252.67
416.68	255.24
417.06	258.21
417.43	261.93
417.81	265.40
418.18	269.48
418.55	273.48
418.93	277.40
419.30	281.29
419.67	285.83
420.04	289.79
420.42	293.86
420.79	300.71
421.16	306.64
421.54	313.55
421.91	319.76
422.28	326.21
422.66	332.74
423.03	340.76
423.40	348.00
423.77	354.76
424.15	361.95
424.52	369.71
424.89	378.64
425.26	386.17
425.64	393.50
426.01	401.64
426.38	410.24
426.75	419.90
427.13	429.24
427.50	438.57
427.87	448.74
428.24	458.76
428.61	467.33
428.99	478.12
429.36	488.36
429.73	499.45
430.10	510.55
430.47	522.48
430.85	532.48
431.22	544.64
431.59	559.62
431.96	572.19
432.33	586.69
432.70	600.07
433.08	616.00
433.45	631.02
433.82	645.57
434.19	662.76
434.56	679.71
434.93	695.02
435.30	710.60
435.68	727.98
436.05	744.81
436.42	761.48
436.79	777.38
437.16	794.29
437.53	812.36
437.90	830.55
438.27	848.07
438.64	866.26
439.01	883.88
439.38	897.76
439.75	912.67
440.13	928.29
440.50	944.00
440.87	956.90
441.24	969.98
441.61	984.55
441.98	995.40
442.35	1006.45
442.72	1019.40
443.09	1032.98
443.46	1040.14
443.83	1045.71
444.20	1049.50
444.57	1055.36
444.94	1058.33
445.31	1062.33
445.68	1067.67
446.05	1069.24
446.42	1068.02
446.79	1065.83
447.16	1063.57
447.53	1062.52
447.90	1056.81
448.27	1050.31
448.64	1041.50
449.01	1036.19
449.37	1025.21
449.74	1013.98
450.11	1002.98
450.48	988.55
450.85	973.00
451.22	961.24
451.59	949.57
451.96	939.45
452.33	924.33
452.70	910.81
453.07	893.19
453.43	873.71
453.80	857.67
454.17	841.93
454.54	826.45
454.91	810.76
455.28	794.93
455.65	779.71
456.02	768.60
456.38	756.14
456.75	740.55
457.12	727.69
457.49	714.74
457.86	701.31
458.23	691.43
458.59	680.12
458.96	668.10
459.33	657.10
459.70	645.86
460.07	637.24
460.43	627.45
460.80	618.81
461.17	611.43
461.54	602.76
461.91	594.95
462.27	587.33
462.64	579.88
463.01	572.31
463.38	566.29
463.74	555.62
464.11	549.05
464.48	543.40
464.85	537.00
465.21	532.93
465.58	527.50
465.95	521.24
466.32	516.24
466.68	510.90
467.05	506.36
467.42	501.88
467.78	496.38
468.15	491.45
468.52	487.69
468.88	482.24
469.25	477.55
469.62	474.29
469.98	470.40
470.35	467.07
470.72	463.38
471.08	458.93
471.45	455.86
471.82	453.21
472.18	449.40
472.55	447.33
472.92	443.40
473.28	440.45
473.65	437.38
474.02	434.71
474.38	432.81
474.75	431.05
475.11	428.45
475.48	427.02
475.85	425.57
476.21	423.60
476.58	422.14
476.94	420.95
477.31	419.50
477.67	418.57
478.04	417.60
478.41	417.02
478.77	418.26
479.14	417.31
479.50	416.26
479.87	416.07
480.23	415.52
480.60	415.33
480.96	414.90
481.33	415.76
481.69	415.38
482.06	415.52
482.42	415.43
482.79	416.12
483.15	416.17
483.52	416.81
483.88	417.05
484.25	417.60
484.61	418.36
484.98	419.14
485.34	420.88
485.71	422.60
486.07	423.93
486.44	423.55
486.80	425.26
487.17	427.14
487.53	429.45
487.90	431.64
488.26	434.81
488.62	437.95
488.99	439.48
489.35	442.50
489.72	444.79
490.08	447.64
490.44	450.48
490.81	454.17
491.17	456.98
491.54	461.17
491.90	464.95
492.26	468.33
492.63	472.05
492.99	474.83
493.36	478.48
493.72	482.86
494.08	487.10
494.45	491.64
494.81	496.57
495.17	500.69
495.54	506.07
495.90	510.57
496.26	515.57
496.63	521.12
496.99	526.17
497.35	532.55
497.72	538.45
498.08	544.26
498.44	549.93
498.80	556.86
499.17	562.81
499.53	569.10
499.89	576.10
500.26	583.38
500.62	590.57
500.98	598.07
501.34	604.95
501.71	612.38
502.07	618.95
502.43	625.86
502.79	633.00
503.16	639.57
503.52	646.50
503.88	653.00
504.24	660.62
504.60	668.74
504.97	675.95
505.33	683.00
505.69	691.88
506.05	699.83
506.41	707.43
506.78	715.00
507.14	722.21
507.50	730.45
507.86	737.57
508.22	745.62
508.59	752.71
508.95	760.88
509.31	769.50
509.67	777.38
510.03	785.05
510.39	793.02
510.75	800.93
511.12	808.98
511.48	817.50
511.84	825.12
512.20	832.07
512.56	839.90
512.92	848.45
513.28	855.17
513.64	862.71
514.00	869.76
514.37	877.48
514.73	884.88
515.09	891.45
515.45	898.14
515.81	904.21
516.17	911.10
516.53	916.71
516.89	922.60
517.25	929.12
517.61	936.14
517.97	942.10
518.33	948.90
518.69	955.81
519.05	961.14
519.41	966.90
519.77	974.48
520.13	980.05
520.49	985.05
520.85	990.55
521.21	996.79
521.57	1003.26
521.93	1007.60
522.29	1013.67
522.65	1018.24
523.01	1023.74
523.37	1029.52
523.73	1034.05
524.09	1039.74
524.45	1043.79
524.81	1048.88
525.17	1053.55
525.53	1058.71
525.89	1062.67
526.25	1067.17
526.61	1071.81
526.97	1076.21
527.33	1079.60
527.68	1085.88
528.04	1090.45
528.40	1095.50
528.76	1099.45
529.12	1103.50
529.48	1109.17
529.84	1113.12
530.20	1118.02
530.56	1123.02
530.91	1127.07
531.27	1132.10
531.63	1136.79
531.99	1140.90
532.35	1144.55
532.71	1148.02
533.07	1152.14
533.42	1159.14
533.78	1162.88
534.14	1167.57
534.50	1171.71
534.86	1176.36
535.21	1178.07
535.57	1182.48
535.93	1185.52
536.29	1189.43
536.65	1192.50
537.00	1195.38
537.36	1199.40
537.72	1202.86
538.08	1205.79
538.44	1208.43
538.79	1212.14
539.15	1214.79
539.51	1219.12
539.87	1223.12
540.22	1226.43
540.58	1229.36
540.94	1229.69
541.29	1232.60
541.65	1234.45
542.01	1237.62
542.37	1239.57
542.72	1241.43
543.08	1243.24
543.44	1246.29
543.79	1247.31
544.15	1250.71
544.51	1253.67
544.87	1255.76
545.22	1259.14
545.58	1261.38
545.94	1265.00
546.29	1267.43
546.65	1270.21
547.01	1272.36
547.36	1275.12
547.72	1278.33
548.07	1281.55
548.43	1284.62
548.79	1286.95
549.14	1289.79
549.50	1292.24
549.86	1294.50
550.21	1298.69
550.57	1301.57
550.92	1303.90
551.28	1307.76
551.64	1310.10
551.99	1312.86
552.35	1315.64
552.70	1318.43
553.06	1322.33
553.41	1324.93
553.77	1328.95
554.13	1331.93
554.48	1335.74
554.84	1339.62
555.19	1342.76
555.55	1347.48
555.90	1350.79
556.26	1354.36
556.61	1358.12
556.97	1361.83
557.32	1365.62
557.68	1368.29
558.03	1371.74
558.39	1374.48
558.74	1378.98
559.10	1383.21
559.45	1386.74
559.81	1391.19
560.16	1394.69
560.52	1398.17
560.87	1403.33
561.23	1406.12
561.58	1411.69
561.94	1416.00
562.29	1419.48
562.64	1424.81
563.00	1428.71
563.35	1433.38
563.71	1437.98
564.06	1443.52
564.42	1447.98
564.77	1453.76
565.12	1461.07
565.48	1468.83
565.83	1475.26
566.19	1480.50
566.54	1485.57
566.89	1491.33
567.25	1497.71
567.60	1505.26
567.96	1513.14
568.31	1519.40
568.66	1526.29
569.02	1531.07
569.37	1535.90
569.72	1541.86
570.08	1545.88
570.43	1550.14
570.78	1555.07
571.14	1561.45
571.49	1566.52
571.84	1573.05
572.20	1577.83
572.55	1581.98
572.90	1584.79
573.26	1589.43
573.61	1593.26
573.96	1598.05
574.31	1603.24
574.67	1606.21
575.02	1609.00
575.37	1611.05
575.72	1613.90
576.08	1617.86
576.43	1621.33
576.78	1624.83
577.13	1629.33
577.49	1633.50
577.84	1637.81
578.19	1641.71
578.54	1645.36
578.90	1648.83
579.25	1651.45
579.60	1654.24
579.95	1657.19
580.30	1661.38
580.66	1665.93
581.01	1670.50
581.36	1673.69
581.71	1677.02
582.06	1682.17
582.42	1685.86
582.77	1689.43
583.12	1693.88
583.47	1696.79
583.82	1700.36
584.17	1704.21
584.53	1706.48
584.88	1709.95
585.23	1713.38
585.58	1715.86
585.93	1718.24
586.28	1721.76
586.63	1724.71
586.98	1729.19
587.34	1732.64
587.69	1734.50
588.04	1736.43
588.39	1737.52
588.74	1738.95
589.09	1741.36
589.44	1742.12
589.79	1744.31
590.14	1746.60
590.49	1747.62
590.84	1748.67
591.19	1751.50
591.54	1753.52
591.89	1754.81
592.25	1757.36
592.60	1757.74
592.95	1760.60
593.30	1762.67
593.65	1763.69
594.00	1764.45
594.35	1770.38
594.70	1770.95
595.05	1772.26
595.40	1772.69
595.75	1774.50
596.10	1777.02
596.45	1778.40
596.80	1778.93
597.15	1778.98
597.50	1779.10
597.85	1780.67
598.19	1781.45
598.54	1781.43
598.89	1780.98
599.24	1782.40
599.59	1782.24
599.94	1783.21
600.29	1782.76
600.64	1782.31
600.99	1782.17
601.34	1783.67
601.69	1778.21
602.04	1777.45
602.39	1775.98
602.74	1776.86
603.08	1777.02
603.43	1776.90
603.78	1776.52
604.13	1776.29
604.48	1775.76
604.83	1776.67
605.18	1774.86
605.53	1774.74
605.87	1773.26
606.22	1773.57
606.57	1772.07
606.92	1770.76
607.27	1769.36
607.62	1768.88
607.96	1768.05
608.31	1768.10
608.66	1766.62
609.01	1765.05
609.36	1764.48
609.70	1764.62
610.05	1762.05
610.40	1760.76
610.75	1758.57
611.10	1756.43
611.44	1754.64
611.79	1752.67
612.14	1749.26
612.49	1746.88
612.83	1744.21
613.18	1741.95
613.53	1738.74
613.88	1735.48
614.22	1732.00
614.57	1728.95
614.92	1723.95
615.27	1720.67
615.61	1715.95
615.96	1711.57
616.31	1708.40
616.65	1706.36
617.00	1703.12
617.35	1700.19
617.70	1696.67
618.04	1692.64
618.39	1688.45
618.74	1684.71
619.08	1682.19
619.43	1679.40
619.78	1676.38
620.12	1672.48
620.47	1668.17
620.82	1663.29
621.16	1659.48
621.51	1657.62
621.85	1654.19
622.20	1651.48
622.55	1646.67
622.89	1643.79
623.24	1641.50
623.59	1638.10
623.93	1632.52
624.28	1628.83
624.62	1626.60
624.97	1623.12
625.32	1618.76
625.66	1615.21
626.01	1611.93
626.35	1607.83
626.70	1603.62
627.04	1600.43
627.39	1597.10
627.73	1594.57
628.08	1592.83
628.43	1589.00
628.77	1583.57
629.12	1580.00
629.46	1576.88
629.81	1573.95
630.15	1568.95
630.50	1564.05
630.84	1559.50
631.19	1554.69
631.53	1549.95
631.88	1542.48
632.22	1535.71
632.57	1533.12
632.91	1528.02
633.26	1523.64
633.60	1518.00
633.95	1512.81
634.29	1507.64
634.64	1503.74
634.98	1498.36
635.32	1493.45
635.67	1490.69
636.01	1486.57
636.36	1481.90
636.70	1477.48
637.05	1472.38
637.39	1468.05
637.73	1463.31
638.08	1459.45
638.42	1455.60
638.77	1451.38
639.11	1448.19
639.45	1444.26
639.80	1438.33
640.14	1433.31
640.49	1428.31
640.83	1423.38
641.17	1418.98
641.52	1413.00
641.86	1407.71
642.20	1403.57
642.55	1397.90
642.89	1391.81
643.23	1385.74
643.58	1381.31
643.92	1374.62
644.26	1369.62
644.61	1365.02
644.95	1359.50
645.29	1352.90
645.64	1348.81
645.98	1342.29
646.32	1336.95
646.66	1331.12
647.01	1325.67
647.35	1320.71
647.69	1314.71
648.04	1309.36
648.38	1303.64
648.72	1299.07
649.06	1292.88
649.41	1286.48
649.75	1280.43
650.09	1273.67
650.43	1267.98
650.78	1261.00
651.12	1255.26
651.46	1249.14
651.80	1243.10
652.14	1237.43
652.49	1231.90
652.83	1224.00
653.17	1218.12
653.51	1211.43
653.85	1205.40
654.20	1198.62
654.54	1191.67
654.88	1185.05
655.22	1178.86
655.56	1172.74
655.90	1165.90
656.25	1159.02
656.59	1152.98
656.93	1146.69
657.27	1142.29
657.61	1135.76
657.95	1129.36
658.29	1123.55
658.64	1118.12
658.98	1110.60
659.32	1103.57
659.66	1096.93
660.00	1090.93
660.34	1084.50
660.68	1078.07
661.02	1072.02
661.36	1066.55
661.70	1060.76
662.05	1054.29
662.39	1048.60
662.73	1042.74
663.07	1037.81
663.41	1032.90
663.75	1026.43
664.09	1020.86
664.43	1013.31
664.77	1007.88
665.11	1001.17
665.45	995.31
665.79	988.95
666.13	983.69
666.47	977.95
666.81	972.52
667.15	966.98
667.49	962.02
667.83	957.45
668.17	952.17
668.51	946.07
668.85	941.10
669.19	937.55
669.53	931.29
669.87	925.02
670.21	918.69
670.55	912.17
670.89	907.38
671.23	901.57
671.57	896.95
671.91	891.38
672.25	887.43
672.58	882.64
672.92	876.62
673.26	871.64
673.60	866.14
673.94	860.24
674.28	855.10
674.62	849.67
674.96	844.05
675.30	838.57
675.64	833.19
675.97	827.62
676.31	821.33
676.65	816.64
676.99	812.86
677.33	807.69
677.67	802.79
678.01	797.26
678.34	792.74
678.68	787.93
679.02	783.17
679.36	777.93
679.70	772.48
680.04	767.86
680.37	762.60
680.71	758.33
681.05	754.40
681.39	750.12
681.73	745.62
682.06	740.81
682.40	736.48
682.74	732.67
683.08	728.76
683.42	723.76
683.75	719.62
684.09	714.29
684.43	709.48
684.77	705.21
685.10	700.36
685.44	695.60
685.78	690.60
686.12	685.69
686.45	681.12
686.79	676.26
687.13	672.40
687.46	668.14
687.80	664.17
688.14	659.29
688.48	654.76
688.81	650.36
689.15	646.79
689.49	642.02
689.82	637.05
690.16	631.69
690.50	627.69
690.83	622.71
691.17	618.05
691.51	614.21
691.84	610.07
692.18	605.71
692.52	601.83
692.85	598.36
693.19	595.52
693.52	591.17
693.86	587.48
694.20	582.93
694.53	579.00
694.87	574.29
695.21	570.43
695.54	566.26
695.88	562.12
696.21	557.24
696.55	553.33
696.88	550.00
697.22	546.31
697.56	542.98
697.89	539.38
698.23	535.79
698.56	531.69
698.90	528.07
699.23	524.52
699.57	520.57
699.90	516.40
700.24	511.79
700.58	508.10
700.91	504.62
701.25	502.86
701.58	499.98
701.92	497.33
702.25	493.95
702.59	490.19
702.92	486.71
703.26	483.64
703.59	480.55
703.93	478.71
704.26	475.67
704.60	472.00
704.93	468.50
705.26	465.43
705.60	462.69
705.93	459.02
706.27	456.88
706.60	454.36
706.94	452.12
707.27	449.48
707.61	447.17
707.94	444.21
708.27	439.69
708.61	436.12
708.94	433.24
709.28	430.60
709.61	428.21
709.94	425.74
710.28	423.45
710.61	421.02
710.95	416.88
711.28	415.95
711.61	413.74
711.95	412.38
712.28	409.55
712.61	407.10
712.95	405.69
713.28	404.07
713.61	401.81
713.95	398.55
714.28	396.19
714.61	393.64
714.95	391.45
715.28	389.00
715.61	386.67
715.95	384.69
716.28	382.67
716.61	380.69
716.95	378.38
717.28	376.02
717.61	374.21
717.94	372.21
718.28	368.69
718.61	366.50
718.94	363.86
719.27	361.95
719.61	360.24
719.94	357.90
720.27	354.79
720.60	352.36
720.94	351.05
721.27	349.17
721.60	347.76
721.93	345.88
722.27	345.40
722.60	344.31
722.93	342.14
723.26	340.55
723.59	338.88
723.93	337.81
724.26	336.69
724.59	334.93
724.92	333.55
725.25	332.67
725.59	331.19
725.92	329.83
726.25	328.62
726.58	327.24
726.91	325.86
727.24	325.10
727.57	324.10
727.91	322.50
728.24	321.74
728.57	320.10
728.90	319.19
729.23	317.00
729.56	316.40
729.89	315.67
730.22	313.95
730.55	312.60
730.89	311.38
731.22	309.79
731.55	308.62
731.88	307.71
732.21	306.31
732.54	305.21
732.87	304.45
733.20	303.60
733.53	302.55
733.86	301.83
734.19	300.64
734.52	299.74
734.85	300.33
735.18	298.93
735.51	298.79
735.84	298.29
736.17	298.12
736.50	296.36
736.83	297.88
737.16	297.24
737.49	296.60
737.82	295.52
738.15	295.02
738.48	293.95
738.81	292.81
739.14	291.48
739.47	290.40
739.80	289.12
740.13	288.45
740.46	287.17
740.79	286.00
741.12	284.93
741.45	283.79
741.78	281.86
742.11	281.67
742.44	280.40
742.77	279.83
743.10	278.40
743.43	277.36
743.75	274.33
744.08	276.07
744.41	275.17
744.74	274.14
745.07	272.74
745.40	272.48
745.73	272.64
746.06	272.38
746.39	272.02
746.71	271.12
747.04	270.10
747.37	269.40
747.70	268.71
748.03	268.36
748.36	267.86
748.68	266.95
749.01	265.48
749.34	264.71
749.67	263.98
750.00	263.90
750.33	265.02
750.65	264.48
750.98	261.43
751.31	260.93
751.64	260.83
751.97	261.60
752.29	260.76
752.62	259.24
752.95	258.57
753.28	257.69
753.60	257.52
753.93	257.50
754.26	257.40
754.59	256.57
754.91	255.83
755.24	255.57
755.57	255.24
755.90	254.98
756.22	254.43
756.55	253.33
756.88	252.29
757.20	250.40
757.53	249.12
757.86	248.81
758.19	248.43
758.51	247.79
758.84	246.14
759.17	245.67
759.49	245.36
759.82	245.95
760.15	245.98
760.47	245.26
760.80	244.36
761.13	244.38
761.45	243.98
761.78	243.43
762.11	242.76
762.43	241.95
762.76	241.62
763.08	241.50
763.41	241.29
763.74	241.00
764.06	240.67
764.39	240.83
764.71	240.17
765.04	239.64
765.37	239.21
765.69	238.86
766.02	238.29
766.34	237.83
766.67	236.62
767.00	236.57
767.32	237.45
767.65	238.43
767.97	237.64
768.30	237.55
768.62	237.45
768.95	237.19
769.27	237.14
769.60	237.26
769.92	237.05
770.25	236.55
770.57	235.95
770.90	235.64
771.22	235.10
771.55	235.38
771.87	235.02
772.20	234.48
772.52	235.86
772.85	238.33
773.17	238.19
773.50	237.88
773.82	237.55
774.15	236.33
774.47	234.69
774.80	234.21
775.12	234.05
775.45	233.57
775.77	233.38
776.09	233.19
776.42	232.74
776.74	232.69
777.07	232.55
777.39	232.74
777.72	232.62
778.04	232.69
778.36	232.02
778.69	232.00
779.01	231.95
779.33	230.05
779.66	227.64
779.98	227.52
780.31	227.52
780.63	228.14
780.95	228.50
781.28	228.38
781.60	228.14
781.92	227.98
782.25	227.74
782.57	227.76
782.89	227.36
783.22	227.10
783.54	226.45
783.86	226.36
784.19	225.93
784.51	226.12
784.83	225.40
785.16	225.24
785.48	225.21
785.80	225.50
786.12	225.69
786.45	225.33
786.77	225.14
787.09	224.88
787.42	223.71
787.74	223.38
788.06	223.17
788.38	223.02
788.71	222.76
789.03	222.88
789.35	222.98
789.67	222.76
789.99	222.83
790.32	222.57
790.64	222.67
790.96	224.31
791.28	223.62
791.61	223.52
791.93	223.50
792.25	223.33
792.57	224.45
792.89	224.05
793.21	224.17
793.54	223.81
793.86	223.43
794.18	223.50
794.50	223.02
794.82	222.93
795.14	223.10
795.47	223.24
795.79	223.14
796.11	222.38
796.43	222.31
796.75	222.31
797.07	222.69
797.39	222.55
797.71	220.98
798.04	221.05
798.36	221.10
798.68	221.24
799.00	221.43
799.32	220.17
799.64	220.50
799.96	220.60
800.28	221.12
800.60	220.95
800.92	221.24
801.24	221.31
801.56	221.62
801.89	221.40
802.21	221.50
802.53	221.17
802.85	221.57
803.17	222.55
803.49	222.19
803.81	222.07
804.13	221.79
804.45	221.60
804.77	221.81
805.09	221.81
805.41	221.50
805.73	221.00
806.05	220.31
806.37	220.12
806.69	219.60
807.01	219.40
807.33	219.57
807.65	218.67
807.97	219.45
808.28	219.14
808.60	219.02
808.92	218.67
809.24	219.86
809.56	219.57
809.88	218.74
810.20	218.79
810.52	218.95
810.84	218.86
811.16	218.52
811.48	218.05
811.80	218.64
812.12	218.38
812.43	218.76
812.75	219.19
813.07	218.95
813.39	219.05
813.71	218.52
814.03	218.02
814.35	218.14
814.67	217.10
814.98	216.83
815.30	216.71
815.62	216.29
815.94	214.88
816.26	215.02
816.58	214.62
816.89	214.74
817.21	214.17
817.53	214.26
817.85	214.33
818.17	214.40
818.48	213.76
818.80	214.57
819.12	214.19
819.44	213.64
819.76	213.43
820.07	213.48
820.39	213.48
820.71	214.00
821.03	214.12
821.34	214.10
821.66	214.60
821.98	214.93
822.30	214.93
822.61	216.38
822.93	215.98
823.25	216.12
823.57	215.83
823.88	216.21
824.20	216.14
824.52	216.71
824.83	216.62
825.15	216.40
825.47	215.93
825.79	216.21
826.10	216.36
826.42	216.48
826.74	216.81
827.05	216.60
827.37	216.50
827.69	216.29
828.00	216.45
828.32	216.19
828.64	215.93
828.95	217.02
829.27	216.17
829.58	216.12
829.90	216.33
830.22	216.31
830.53	215.93
830.85	215.69
831.17	214.95
831.48	214.95
831.80	214.88
832.11	214.71
832.43	214.31
832.75	214.24
833.06	215.67
833.38	215.00
833.69	215.24
834.01	215.57
834.32	215.36
834.64	215.05
834.96	215.38
835.27	215.40
835.59	214.98
835.90	214.40
836.22	214.31
836.53	213.81
836.85	213.60
837.16	215.55
837.48	215.55
837.79	216.38
838.11	216.40
838.42	216.50
838.74	216.69
839.05	216.43
839.37	216.38
839.68	214.67
840.00	214.74
840.31	214.71
840.63	214.24
840.94	214.26
841.26	214.24
841.57	213.81
841.88	213.81
842.20	213.33
842.51	213.38
842.83	213.71
843.14	215.52
843.46	215.79
843.77	214.67
844.08	214.79
844.40	214.19
844.71	214.29
845.03	214.24
845.34	214.12
845.65	214.24
845.97	214.33
846.28	214.69
846.60	214.64
846.91	214.52
847.22	214.50
847.54	214.93
847.85	214.90
848.16	214.86
848.48	214.69
848.79	215.60
849.10	215.57
849.42	215.62
849.73	213.93
850.04	213.88
850.36	213.14
850.67	213.60
850.98	213.50
851.30	213.33
851.61	213.17
851.92	213.33
852.23	213.93
852.55	214.05
852.86	213.81
853.17	213.95
853.49	214.45
853.80	214.86
854.11	215.07
854.42	215.57
854.74	215.33
855.05	215.38
855.36	214.36
855.67	214.81
855.99	214.76
856.30	217.10
856.61	216.95
856.92	217.05
857.23	216.76
857.55	216.50
857.86	216.50
858.17	216.76
858.48	216.31
858.79	215.93
859.11	216.12
859.42	216.33
859.73	215.95
860.04	215.64
860.35	215.00
860.66	214.33
860.98	214.02
861.29	214.26
861.60	214.19
861.91	214.60
862.22	214.14
862.53	213.83
862.84	211.38
863.16	211.83
863.47	211.45
863.78	211.45
864.09	211.67
864.40	211.88
864.71	211.79
865.02	212.02
865.33	211.74
865.64	211.36
865.95	210.98
866.27	212.52
866.58	212.52
866.89	212.86
867.20	212.95
867.51	212.62
867.82	212.45
868.13	213.05
868.44	212.90
868.75	213.40
869.06	213.57
869.37	213.60
869.68	213.12
869.99	213.38
870.30	213.21
870.61	213.50
870.92	213.00
871.23	213.02
871.54	213.24
871.85	213.90
872.16	214.12
872.47	214.00
872.78	212.62
873.09	212.90
873.40	212.62
873.71	212.79
874.02	212.90
874.33	212.74
874.64	212.26
874.95	212.43
875.26	212.00
875.56	211.81
875.87	212.00
876.18	211.86
876.49	213.95
876.80	213.83
877.11	213.31
877.42	213.71
877.73	213.76
878.04	213.45
878.35	213.38
878.66	213.55
878.96	213.83
879.27	213.95
879.58	213.69
879.89	213.79
880.20	214.33
880.51	214.43
880.82	214.55
881.12	214.55
881.43	213.90
881.74	213.55
882.05	213.38
882.36	213.48
882.67	213.55
882.97	211.19
883.28	211.31
883.59	211.36
883.90	211.36
884.21	211.60
884.51	211.62
884.82	211.29
885.13	210.95
885.44	210.76
885.74	210.60
886.05	210.40
886.36	210.55
886.67	209.55
886.98	210.45
887.28	210.60
887.59	210.69
887.90	210.90
888.20	211.00
888.51	211.43
888.82	211.19
889.13	211.33
889.43	213.17
889.74	212.76
890.05	212.76
890.35	212.52
890.66	212.19
890.97	211.76
891.28	211.57
891.58	211.64
891.89	211.79
892.20	211.90
892.50	211.67
892.81	211.55
893.12	211.79
893.42	210.93
893.73	211.02
894.04	211.05
894.34	211.24
894.65	211.24
894.95	211.10
895.26	211.19
895.57	212.02
895.87	209.95
896.18	210.62
896.48	210.81
896.79	210.90
897.10	211.21
897.40	211.50
897.71	211.81
898.01	211.64
898.32	212.07
898.63	211.88
898.93	212.17
899.24	212.14
899.54	212.02
899.85	211.98
900.15	212.07
900.46	212.07
900.76	212.14
901.07	212.21
901.38	212.29
901.68	212.60
901.99	211.62
902.29	211.88
902.60	211.48
902.90	211.10
903.21	210.83
903.51	210.64
903.82	210.98
904.12	211.12
904.43	211.45
904.73	211.10
905.03	211.07
905.34	212.95
905.64	212.86
905.95	212.98
906.25	212.93
906.56	212.62
906.86	212.48
907.17	212.40
907.47	212.48
907.77	212.36
908.08	211.81
908.38	212.31
908.69	212.62
908.99	213.02
909.30	213.50
909.60	213.76
909.90	214.12
910.21	213.71
910.51	213.31
910.81	213.50
911.12	213.71
911.42	213.90
911.73	211.90
912.03	212.10
912.33	212.69
912.64	212.40
912.94	212.43
913.24	212.36
913.55	212.29
913.85	212.10
914.15	212.29
914.46	212.62
914.76	212.21
915.06	211.93
915.37	211.45
915.67	211.12
915.97	211.00
916.27	210.21
916.58	210.38
916.88	210.07
917.18	209.74
917.49	211.05
917.79	210.95
918.09	211.38
918.39	211.81
918.70	211.14
919.00	211.36
919.30	212.31
919.60	212.10
919.91	211.71
920.21	211.88
920.51	211.40
920.81	211.19
921.12	211.62
921.42	211.45
921.72	211.81
922.02	212.07
922.32	212.40
922.63	212.71
922.93	213.43
923.23	213.64
923.53	213.26
923.83	211.95
924.13	212.14
924.44	211.93
924.74	212.21
925.04	212.90
925.34	212.83
925.64	212.12
925.94	212.31
926.24	213.50
926.55	213.26
926.85	213.95
927.15	214.00
927.45	213.88
927.75	214.21
928.05	214.19
928.35	214.12
928.65	214.36
928.95	214.45
929.26	213.83
929.56	214.38
929.86	214.90
930.16	214.55
930.46	214.38
930.76	214.62
931.06	213.55
931.36	213.10
931.66	213.57
931.96	213.71
932.26	213.71
932.56	212.98
932.86	213.29
933.16	212.86
933.46	212.90
933.76	212.45
934.06	213.14
934.36	213.57
934.66	213.36
934.96	213.24
935.26	213.38
935.56	213.71
935.86	213.19
936.16	212.83
936.46	212.64
936.76	212.62
937.06	212.29
937.36	212.52
937.66	212.69
937.96	212.29
938.26	211.86
938.56	211.95
938.86	212.05
939.16	212.45
939.46	212.67
939.76	212.57
940.06	212.67
940.35	211.83
940.65	211.10
940.95	211.40
941.25	210.86
941.55	210.48
941.85	210.21
942.15	210.76
942.45	211.52
942.75	211.71
943.04	211.79
943.34	212.07
943.64	211.98
943.94	211.52
944.24	211.76
944.54	211.93
944.84	211.74
945.13	211.43
945.43	211.14
945.73	211.31
946.03	211.02
946.33	210.93
946.62	210.86
946.92	210.83
947.22	210.86
947.52	210.95
947.82	211.40
948.11	211.26
948.41	210.83
948.71	210.17
949.01	210.24
949.31	210.17
949.60	210.02
949.90	210.29
950.20	210.17
950.50	210.17
950.79	210.00
951.09	210.52
951.39	210.64
951.69	210.50
951.98	210.76
952.28	211.12
952.58	211.07
952.87	210.95
953.17	211.14
953.47	210.79
953.76	210.95
954.06	210.36
954.36	210.10
954.66	209.90
954.95	210.31
955.25	210.55
955.55	210.69
955.84	210.52
956.14	210.76
956.44	211.12
956.73	210.76
957.03	210.69
957.32	210.21
957.62	210.10
957.92	210.33
958.21	210.05
958.51	212.52
958.81	212.83
959.10	213.14
959.40	213.74
959.69	213.88
959.99	214.10
960.29	214.40
960.58	214.57
960.88	215.36
961.17	215.07
961.47	215.31
961.76	215.10
962.06	215.52
962.36	215.36
962.65	215.36
962.95	215.71
963.24	215.74
963.54	215.98
963.83	216.05
964.13	215.98
964.42	215.55
964.72	213.62
965.01	213.64
965.31	213.71
965.60	213.26
965.90	214.83
966.19	214.21
966.49	214.24
966.78	214.07
967.08	214.00
967.37	214.26
967.67	213.69
967.96	214.19
968.26	213.88
968.55	214.00
968.85	214.10
969.14	213.88
969.43	213.95
969.73	213.69
970.02	213.57
970.32	213.57
970.61	213.52
970.91	212.81
971.20	212.57
971.49	212.33
971.79	212.40
972.08	210.86
972.38	211.33
972.67	211.40
972.96	211.93
973.26	211.38
973.55	212.00
973.85	212.10
974.14	211.86
974.43	212.07
974.73	211.64
975.02	211.45
975.31	211.33
975.61	211.24
975.90	211.14
976.19	211.02
976.49	210.98
976.78	211.14
977.07	211.26
977.37	211.40
977.66	211.57
977.95	211.33
978.24	211.29
978.54	211.48
978.83	211.26
979.12	210.98
979.42	211.24
979.71	210.62
980.00	210.40
980.29	210.45
980.59	210.02
980.88	210.69
981.17	210.62
981.46	210.86
981.76	211.02
982.05	211.50
982.34	211.67
982.63	211.60
982.93	211.48
983.22	212.29
983.51	212.02
983.80	212.24
984.09	212.45
984.39	212.45
984.68	212.17
984.97	212.45
985.26	212.17
985.55	212.07
985.85	211.64
986.14	212.14
986.43	212.48
986.72	212.45
987.01	211.71
987.30	211.60
987.59	211.36
987.89	211.36
988.18	210.86
988.47	210.79
988.76	210.57
989.05	210.69
989.34	210.02
989.63	210.79
989.92	210.52
990.22	210.40
990.51	210.40
990.80	210.24
991.09	210.19
991.38	210.52
991.67	210.36
991.96	210.31
992.25	210.43
992.54	209.98
992.83	209.93
993.12	209.93
993.41	210.45
993.70	211.36
993.99	211.71
994.28	212.10
994.58	212.38
994.87	212.26
995.16	212.24
995.45	212.14
995.74	211.33
996.03	211.64
996.32	211.88
996.61	212.40
996.90	212.43
997.19	212.40
997.48	212.38
997.77	212.10
998.06	212.40
998.34	212.12
998.63	211.95
998.92	211.93
999.21	212.33
999.50	212.24
999.79	211.36
1000.08	211.24
1000.37	211.38
1000.66	211.02
1000.95	211.69
1001.24	211.60
1001.53	211.86
1001.82	211.88
1002.11	211.33
1002.40	211.55
1002.68	211.79
1002.97	213.24
1003.26	212.90
1003.55	212.79
1003.84	212.88
1004.13	213.43
1004.42	213.19
1004.71	213.24
1004.99	213.33
1005.28	213.81
1005.57	213.64
1005.86	213.74
1006.15	213.50
1006.44	213.02
1006.72	213.33
1007.01	212.98
1007.30	213.02
1007.59	212.64
1007.88	212.69
1008.17	212.98
1008.45	212.36
1008.74	211.62
1009.03	210.76
1009.32	210.74
1009.60	210.67
1009.89	210.79
1010.18	209.90
1010.47	209.93
1010.76	209.86
1011.04	209.74
1011.33	209.50
1011.62	209.57
1011.91	209.64
1012.19	209.74
1012.48	209.83
1012.77	209.64
1013.05	210.48
1013.34	210.50
1013.63	210.48
1013.92	210.57
1014.20	210.14
1014.49	210.45
1014.78	210.64
1015.06	209.90
1015.35	209.90
1015.64	209.93
1015.92	210.07
1016.21	210.02
1016.50	209.90
1016.78	210.31
1017.07	210.60
1017.36	210.33
1017.64	210.00
1017.93	210.17
1018.22	209.86
1018.50	209.76
1018.79	209.74
1019.08	208.74
1019.36	208.57
1019.65	208.64
1019.93	209.14
1020.22	209.62
1020.51	210.50
1020.79	210.07
1021.08	205.00
1021.36	206.50
1021.65	208.00
1021.94	207.50
1022.22	205.50
1022.51	209.00
1022.79	219.50
1023.08	213.00
1023.36	234.00
1023.65	203.00
>>>>>End Processed Spectral Data<<<<<
