SpectraSuite Data File
++++++++++++++++++++++++++++++++++++
Date: Tue Apr 02 18:41:20 EDT 2013
User: group
Dark Spectrum Present: No
Reference Spectrum Present: No
Number of Sampled Component Spectra: 1
Spectrometers: USB2E7196
Integration Time (usec): 580000 (USB2E7196)
Spectra Averaged: 2 (USB2E7196)
Boxcar Smoothing: 10 (USB2E7196)
Correct for Electrical Dark: No (USB2E7196)
Strobe/Lamp Enabled: No (USB2E7196)
Correct for Detector Non-linearity: No (USB2E7196)
Correct for Stray Light: No (USB2E7196)
Number of Pixels in Processed Spectrum: 2048
>>>>>Begin Processed Spectral Data<<<<<
339.09	0.00
339.48	194.50
339.86	196.00
340.24	192.50
340.63	196.00
341.01	231.00
341.39	201.50
341.78	207.50
342.16	211.50
342.54	202.50
342.93	196.45
343.31	206.24
343.69	206.79
344.07	207.45
344.46	208.43
344.84	209.10
345.22	207.86
345.60	208.31
345.99	208.26
346.37	208.21
346.75	208.33
347.13	208.38
347.52	208.74
347.90	209.52
348.28	209.55
348.66	210.02
349.05	209.29
349.43	209.64
349.81	209.86
350.19	209.90
350.57	210.07
350.96	210.02
351.34	210.45
351.72	210.55
352.10	210.38
352.48	210.29
352.87	210.21
353.25	210.43
353.63	210.26
354.01	210.38
354.39	210.50
354.77	210.81
355.15	211.52
355.54	211.24
355.92	210.81
356.30	210.95
356.68	212.21
357.06	212.55
357.44	212.40
357.82	212.33
358.20	213.60
358.58	213.52
358.97	213.79
359.35	214.19
359.73	214.69
360.11	214.79
360.49	214.88
360.87	214.81
361.25	215.02
361.63	215.90
362.01	216.40
362.39	216.24
362.77	216.33
363.15	216.00
363.53	216.19
363.91	216.24
364.29	216.36
364.67	214.57
365.05	214.74
365.43	215.17
365.81	215.69
366.19	215.86
366.57	216.79
366.95	216.62
367.33	216.05
367.71	215.83
368.09	216.24
368.47	216.19
368.85	216.40
369.23	216.90
369.61	215.98
369.99	216.33
370.37	216.62
370.75	217.67
371.13	217.43
371.51	217.14
371.89	217.14
372.27	217.33
372.65	217.62
373.03	217.64
373.41	217.29
373.78	217.24
374.16	216.02
374.54	215.43
374.92	215.24
375.30	215.19
375.68	214.95
376.06	215.12
376.44	214.95
376.82	215.17
377.19	215.00
377.57	215.12
377.95	214.29
378.33	214.29
378.71	212.98
379.09	213.38
379.47	213.57
379.84	213.60
380.22	213.31
380.60	212.88
380.98	212.52
381.36	212.33
381.73	211.90
382.11	212.52
382.49	212.52
382.87	212.50
383.25	212.62
383.62	215.00
384.00	214.48
384.38	214.69
384.76	214.90
385.13	215.60
385.51	215.69
385.89	215.55
386.27	215.48
386.64	215.83
387.02	215.69
387.40	215.45
387.78	215.45
388.15	215.76
388.53	215.52
388.91	215.95
389.29	215.88
389.66	216.05
390.04	215.52
390.42	215.74
390.79	215.81
391.17	215.62
391.55	213.40
391.92	213.43
392.30	213.45
392.68	212.81
393.05	212.55
393.43	212.57
393.81	212.71
394.18	212.50
394.56	212.60
394.94	212.88
395.31	212.95
395.69	213.69
396.06	213.81
396.44	214.43
396.82	214.14
397.19	215.29
397.57	215.24
397.95	215.62
398.32	215.05
398.70	215.24
399.07	215.79
399.45	215.79
399.82	215.95
400.20	215.90
400.58	216.17
400.95	215.40
401.33	215.67
401.70	217.21
402.08	217.19
402.45	217.24
402.83	217.69
403.20	217.76
403.58	217.60
403.95	218.19
404.33	218.69
404.71	219.02
405.08	220.24
405.46	220.60
405.83	221.21
406.21	221.60
406.58	222.12
406.96	222.40
407.33	223.02
407.70	223.62
408.08	225.88
408.45	226.74
408.83	227.88
409.20	228.36
409.58	227.81
409.95	229.19
410.33	230.17
410.70	230.50
411.08	231.93
411.45	232.90
411.82	233.29
412.20	234.62
412.57	237.24
412.95	236.95
413.32	238.62
413.69	239.71
414.07	241.64
414.44	243.40
414.82	245.45
415.19	247.86
415.56	250.19
415.94	251.24
416.31	254.10
416.68	256.86
417.06	260.26
417.43	264.29
417.81	267.74
418.18	271.50
418.55	275.52
418.93	279.74
419.30	284.31
419.67	289.36
420.04	293.62
420.42	297.67
420.79	304.71
421.16	310.88
421.54	318.17
421.91	324.50
422.28	330.83
422.66	337.71
423.03	345.64
423.40	352.60
423.77	360.05
424.15	367.64
424.52	375.64
424.89	384.40
425.26	392.07
425.64	400.31
426.01	408.71
426.38	418.26
426.75	427.86
427.13	436.98
427.50	446.60
427.87	457.07
428.24	467.40
428.61	476.07
428.99	487.64
429.36	498.36
429.73	509.74
430.10	521.43
430.47	533.48
430.85	544.98
431.22	557.48
431.59	572.57
431.96	585.21
432.33	599.60
432.70	613.83
433.08	630.31
433.45	645.79
433.82	661.40
434.19	678.36
434.56	695.36
434.93	712.12
435.30	728.12
435.68	746.76
436.05	764.60
436.42	782.19
436.79	797.95
437.16	816.00
437.53	834.93
437.90	853.33
438.27	871.21
438.64	889.19
439.01	907.98
439.38	922.24
439.75	937.45
440.13	954.36
440.50	970.86
440.87	984.00
441.24	998.05
441.61	1012.57
441.98	1023.79
442.35	1036.74
442.72	1050.10
443.09	1064.31
443.46	1071.50
443.83	1077.43
444.20	1082.50
444.57	1088.60
444.94	1092.14
445.31	1095.83
445.68	1101.76
446.05	1103.17
446.42	1102.00
446.79	1100.19
447.16	1098.40
447.53	1098.07
447.90	1092.00
448.27	1085.05
448.64	1076.81
449.01	1069.74
449.37	1059.12
449.74	1047.48
450.11	1035.57
450.48	1020.00
450.85	1003.81
451.22	991.10
451.59	978.79
451.96	966.62
452.33	951.29
452.70	936.55
453.07	918.60
453.43	898.52
453.80	881.76
454.17	865.69
454.54	849.50
454.91	832.93
455.28	816.10
455.65	800.74
456.02	788.88
456.38	775.60
456.75	759.93
457.12	746.19
457.49	733.12
457.86	718.55
458.23	708.48
458.59	696.43
458.96	683.79
459.33	672.19
459.70	661.40
460.07	652.48
460.43	641.98
460.80	633.21
461.17	625.62
461.54	617.36
461.91	608.88
462.27	600.31
462.64	592.98
463.01	585.26
463.38	578.29
463.74	567.38
464.11	560.14
464.48	554.36
464.85	547.98
465.21	543.48
465.58	537.79
465.95	530.64
466.32	525.52
466.68	520.29
467.05	515.43
467.42	510.43
467.78	504.48
468.15	499.52
468.52	495.36
468.88	489.74
469.25	485.00
469.62	481.86
469.98	478.24
470.35	474.60
470.72	470.88
471.08	466.10
471.45	463.07
471.82	460.29
472.18	456.57
472.55	453.88
472.92	450.38
473.28	447.57
473.65	444.79
474.02	442.10
474.38	440.19
474.75	438.19
475.11	435.76
475.48	434.31
475.85	432.10
476.21	430.21
476.58	429.17
476.94	427.74
477.31	425.76
477.67	424.21
478.04	422.81
478.41	422.02
478.77	423.76
479.14	422.21
479.50	421.19
479.87	421.10
480.23	420.79
480.60	420.26
480.96	419.95
481.33	420.76
481.69	420.64
482.06	420.36
482.42	420.31
482.79	420.62
483.15	420.90
483.52	422.26
483.88	422.79
484.25	422.67
484.61	423.52
484.98	424.57
485.34	426.52
485.71	428.05
486.07	429.36
486.44	429.14
486.80	431.19
487.17	433.10
487.53	435.19
487.90	437.33
488.26	439.83
488.62	442.62
488.99	444.64
489.35	447.55
489.72	450.33
490.08	453.02
490.44	455.64
490.81	459.55
491.17	462.83
491.54	466.26
491.90	470.38
492.26	474.10
492.63	478.14
492.99	481.57
493.36	486.02
493.72	490.71
494.08	495.00
494.45	499.83
494.81	505.14
495.17	509.69
495.54	514.98
495.90	520.02
496.26	525.45
496.63	530.60
496.99	535.50
497.35	541.45
497.72	547.83
498.08	554.29
498.44	560.26
498.80	566.60
499.17	573.17
499.53	579.52
499.89	586.81
500.26	593.19
500.62	599.74
500.98	607.02
501.34	614.07
501.71	621.95
502.07	629.45
502.43	636.21
502.79	643.48
503.16	650.60
503.52	658.31
503.88	665.07
504.24	673.38
504.60	681.40
504.97	690.14
505.33	697.38
505.69	705.79
506.05	713.45
506.41	721.17
506.78	729.19
507.14	737.12
507.50	744.88
507.86	752.83
508.22	761.29
508.59	768.60
508.95	776.57
509.31	784.60
509.67	792.79
510.03	800.86
510.39	809.17
510.75	817.24
511.12	825.33
511.48	834.21
511.84	841.62
512.20	849.79
512.56	857.76
512.92	865.95
513.28	873.95
513.64	881.40
514.00	889.52
514.37	897.64
514.73	905.50
515.09	913.02
515.45	920.60
515.81	927.95
516.17	935.29
516.53	941.76
516.89	948.31
517.25	955.02
517.61	961.76
517.97	968.14
518.33	974.79
518.69	981.38
519.05	988.07
519.41	994.69
519.77	1002.48
520.13	1007.45
520.49	1013.29
520.85	1018.52
521.21	1025.26
521.57	1030.88
521.93	1035.86
522.29	1041.36
522.65	1046.43
523.01	1053.19
523.37	1058.86
523.73	1064.93
524.09	1071.31
524.45	1076.81
524.81	1081.40
525.17	1087.29
525.53	1092.67
525.89	1097.48
526.25	1102.86
526.61	1107.38
526.97	1111.31
527.33	1114.79
527.68	1121.69
528.04	1126.57
528.40	1131.88
528.76	1136.10
529.12	1140.93
529.48	1146.29
529.84	1150.52
530.20	1156.10
530.56	1160.26
530.91	1164.50
531.27	1168.69
531.63	1172.62
531.99	1175.50
532.35	1180.24
532.71	1183.90
533.07	1188.60
533.42	1195.71
533.78	1199.64
534.14	1203.71
534.50	1208.67
534.86	1213.95
535.21	1217.10
535.57	1222.43
535.93	1226.12
536.29	1231.40
536.65	1235.64
537.00	1238.93
537.36	1243.62
537.72	1247.36
538.08	1250.79
538.44	1255.24
538.79	1259.52
539.15	1262.81
539.51	1268.02
539.87	1272.10
540.22	1276.17
540.58	1279.81
540.94	1282.00
541.29	1285.62
541.65	1289.14
542.01	1293.50
542.37	1296.38
542.72	1298.10
543.08	1300.62
543.44	1304.02
543.79	1305.19
544.15	1309.02
544.51	1313.26
544.87	1316.74
545.22	1320.14
545.58	1323.38
545.94	1326.45
546.29	1329.40
546.65	1333.00
547.01	1335.76
547.36	1338.81
547.72	1341.62
548.07	1344.98
548.43	1347.05
548.79	1349.76
549.14	1352.74
549.50	1355.60
549.86	1357.95
550.21	1362.12
550.57	1365.60
550.92	1368.67
551.28	1372.71
551.64	1375.40
551.99	1378.64
552.35	1381.62
552.70	1384.76
553.06	1389.07
553.41	1392.00
553.77	1396.55
554.13	1401.17
554.48	1406.14
554.84	1411.26
555.19	1415.69
555.55	1420.12
555.90	1424.29
556.26	1428.60
556.61	1433.31
556.97	1437.48
557.32	1442.48
557.68	1446.95
558.03	1451.33
558.39	1455.57
558.74	1460.33
559.10	1464.67
559.45	1469.79
559.81	1474.29
560.16	1478.40
560.52	1482.50
560.87	1488.90
561.23	1492.24
561.58	1497.52
561.94	1501.64
562.29	1505.10
562.64	1510.38
563.00	1515.26
563.35	1520.43
563.71	1526.10
564.06	1531.19
564.42	1536.74
564.77	1542.67
565.12	1548.79
565.48	1555.83
565.83	1562.07
566.19	1567.71
566.54	1573.57
566.89	1578.81
567.25	1584.71
567.60	1592.55
567.96	1600.12
568.31	1606.31
568.66	1613.33
569.02	1617.48
569.37	1622.31
569.72	1628.05
570.08	1633.71
570.43	1638.60
570.78	1644.02
571.14	1649.50
571.49	1653.76
571.84	1658.48
572.20	1662.67
572.55	1667.05
572.90	1669.26
573.26	1673.98
573.61	1678.12
573.96	1682.74
574.31	1686.31
574.67	1691.26
575.02	1694.14
575.37	1697.14
575.72	1699.05
576.08	1702.05
576.43	1705.90
576.78	1709.52
577.13	1713.07
577.49	1715.43
577.84	1718.60
578.19	1722.43
578.54	1725.95
578.90	1730.64
579.25	1734.19
579.60	1736.36
579.95	1738.00
580.30	1742.17
580.66	1745.19
581.01	1749.07
581.36	1751.05
581.71	1753.40
582.06	1756.71
582.42	1758.67
582.77	1759.40
583.12	1762.33
583.47	1764.43
583.82	1766.38
584.17	1769.95
584.53	1772.71
584.88	1775.40
585.23	1778.45
585.58	1780.05
585.93	1780.83
586.28	1782.12
586.63	1783.69
586.98	1786.69
587.34	1789.14
587.69	1790.71
588.04	1791.67
588.39	1792.19
588.74	1791.93
589.09	1794.19
589.44	1792.48
589.79	1794.12
590.14	1796.19
590.49	1796.81
590.84	1797.67
591.19	1798.93
591.54	1799.12
591.89	1799.00
592.25	1801.12
592.60	1799.74
592.95	1799.67
593.30	1800.69
593.65	1800.57
594.00	1800.10
594.35	1805.74
594.70	1805.86
595.05	1805.55
595.40	1805.38
595.75	1805.86
596.10	1808.21
596.45	1807.19
596.80	1809.17
597.15	1808.57
597.50	1808.02
597.85	1808.74
598.19	1808.69
598.54	1808.10
598.89	1807.60
599.24	1807.86
599.59	1806.05
599.94	1806.17
600.29	1805.45
600.64	1804.57
600.99	1804.69
601.34	1804.10
601.69	1797.21
602.04	1795.76
602.39	1794.19
602.74	1794.21
603.08	1792.48
603.43	1791.50
603.78	1790.45
604.13	1788.21
604.48	1787.21
604.83	1786.88
605.18	1785.17
605.53	1783.76
605.87	1783.07
606.22	1780.64
606.57	1777.48
606.92	1775.43
607.27	1774.36
607.62	1773.02
607.96	1772.02
608.31	1770.33
608.66	1768.93
609.01	1766.24
609.36	1764.79
609.70	1762.79
610.05	1759.02
610.40	1757.62
610.75	1754.52
611.10	1752.74
611.44	1749.02
611.79	1745.21
612.14	1740.40
612.49	1735.74
612.83	1731.93
613.18	1727.24
613.53	1723.55
613.88	1719.95
614.22	1715.55
614.57	1710.79
614.92	1706.67
615.27	1701.57
615.61	1696.12
615.96	1691.24
616.31	1686.57
616.65	1682.95
617.00	1678.69
617.35	1674.60
617.70	1668.93
618.04	1663.90
618.39	1658.83
618.74	1654.12
619.08	1649.07
619.43	1645.38
619.78	1641.00
620.12	1636.69
620.47	1632.31
620.82	1627.19
621.16	1622.50
621.51	1618.29
621.85	1613.62
622.20	1608.40
622.55	1602.95
622.89	1598.71
623.24	1593.95
623.59	1589.36
623.93	1584.17
624.28	1579.64
624.62	1576.48
624.97	1573.50
625.32	1569.07
625.66	1563.98
626.01	1559.36
626.35	1556.02
626.70	1550.90
627.04	1547.48
627.39	1541.81
627.73	1537.74
628.08	1534.57
628.43	1530.17
628.77	1524.90
629.12	1520.26
629.46	1515.64
629.81	1510.36
630.15	1504.71
630.50	1498.98
630.84	1494.00
631.19	1487.90
631.53	1482.36
631.88	1474.55
632.22	1466.67
632.57	1461.40
632.91	1454.90
633.26	1450.00
633.60	1443.38
633.95	1436.98
634.29	1430.10
634.64	1424.57
634.98	1418.24
635.32	1413.17
635.67	1408.81
636.01	1404.31
636.36	1398.12
636.70	1393.76
637.05	1389.07
637.39	1383.90
637.73	1378.67
638.08	1373.83
638.42	1369.19
638.77	1363.93
639.11	1359.17
639.45	1353.52
639.80	1346.43
640.14	1341.02
640.49	1335.26
640.83	1329.26
641.17	1324.57
641.52	1318.69
641.86	1313.07
642.20	1308.45
642.55	1300.79
642.89	1292.98
643.23	1285.64
643.58	1281.02
643.92	1272.76
644.26	1266.64
644.61	1260.10
644.95	1253.81
645.29	1246.93
645.64	1240.52
645.98	1233.50
646.32	1227.48
646.66	1221.05
647.01	1215.17
647.35	1209.83
647.69	1203.21
648.04	1196.79
648.38	1189.62
648.72	1183.21
649.06	1176.33
649.41	1168.79
649.75	1161.79
650.09	1155.69
650.43	1149.02
650.78	1140.74
651.12	1134.74
651.46	1127.10
651.80	1119.98
652.14	1113.71
652.49	1107.67
652.83	1100.67
653.17	1093.76
653.51	1086.33
653.85	1080.24
654.20	1073.38
654.54	1065.88
654.88	1059.07
655.22	1053.38
655.56	1046.69
655.90	1040.00
656.25	1033.79
656.59	1027.05
656.93	1021.36
657.27	1016.00
657.61	1009.10
657.95	1003.55
658.29	996.86
658.64	991.88
658.98	985.79
659.32	978.81
659.66	971.76
660.00	965.31
660.34	959.12
660.68	952.86
661.02	946.60
661.36	940.62
661.70	934.83
662.05	928.95
662.39	923.60
662.73	918.19
663.07	913.24
663.41	907.21
663.75	901.19
664.09	895.14
664.43	888.00
664.77	882.48
665.11	875.81
665.45	870.50
665.79	864.36
666.13	858.79
666.47	853.40
666.81	848.40
667.15	842.95
667.49	837.76
667.83	833.38
668.17	828.07
668.51	823.12
668.85	818.05
669.19	813.64
669.53	806.74
669.87	800.98
670.21	794.60
670.55	789.00
670.89	784.86
671.23	779.90
671.57	775.24
671.91	770.74
672.25	766.02
672.58	761.57
672.92	756.02
673.26	751.07
673.60	746.26
673.94	741.14
674.28	736.71
674.62	731.88
674.96	726.19
675.30	721.69
675.64	716.86
675.97	711.88
676.31	706.00
676.65	701.26
676.99	697.81
677.33	693.45
677.67	689.43
678.01	683.62
678.34	679.07
678.68	674.57
679.02	669.93
679.36	664.86
679.70	659.52
680.04	655.14
680.37	650.79
680.71	646.40
681.05	641.81
681.39	636.62
681.73	632.02
682.06	627.60
682.40	622.90
682.74	618.79
683.08	615.10
683.42	611.43
683.75	607.60
684.09	602.67
684.43	598.26
684.77	593.67
685.10	589.90
685.44	585.48
685.78	580.79
686.12	576.21
686.45	572.62
686.79	568.43
687.13	564.69
687.46	560.38
687.80	556.57
688.14	553.21
688.48	549.81
688.81	546.29
689.15	543.12
689.49	539.67
689.82	535.69
690.16	531.14
690.50	526.88
690.83	522.98
691.17	518.71
691.51	515.21
691.84	512.02
692.18	507.95
692.52	504.55
692.85	501.40
693.19	498.93
693.52	495.38
693.86	491.71
694.20	488.17
694.53	485.00
694.87	481.45
695.21	477.05
695.54	473.36
695.88	469.38
696.21	465.12
696.55	461.60
696.88	458.64
697.22	455.74
697.56	453.67
697.89	450.67
698.23	448.17
698.56	445.12
698.90	442.00
699.23	439.02
699.57	435.95
699.90	432.98
700.24	429.29
700.58	426.64
700.91	424.24
701.25	422.60
701.58	420.67
701.92	418.38
702.25	416.31
702.59	413.50
702.92	411.26
703.26	409.24
703.59	406.43
703.93	405.57
704.26	403.40
704.60	400.36
704.93	397.86
705.26	395.12
705.60	392.93
705.93	390.48
706.27	388.98
706.60	387.21
706.94	385.93
707.27	383.83
707.61	381.55
707.94	379.38
708.27	375.88
708.61	373.19
708.94	370.95
709.28	369.10
709.61	367.33
709.94	365.62
710.28	363.60
710.61	361.76
710.95	357.83
711.28	356.98
711.61	355.29
711.95	354.10
712.28	352.07
712.61	350.43
712.95	349.62
713.28	348.36
713.61	346.31
713.95	344.02
714.28	342.57
714.61	341.36
714.95	339.81
715.28	338.33
715.61	336.55
715.95	335.21
716.28	333.29
716.61	332.07
716.95	330.50
717.28	329.05
717.61	327.60
717.94	326.05
718.28	323.17
718.61	321.60
718.94	319.40
719.27	318.02
719.61	316.64
719.94	314.60
720.27	312.43
720.60	311.24
720.94	309.86
721.27	308.90
721.60	307.67
721.93	306.24
722.27	306.05
722.60	305.31
722.93	303.95
723.26	303.14
723.59	301.74
723.93	300.79
724.26	299.86
724.59	298.81
724.92	297.93
725.25	297.50
725.59	296.38
725.92	295.64
726.25	294.88
726.58	294.12
726.91	293.29
727.24	292.86
727.57	291.95
727.91	290.81
728.24	289.52
728.57	288.26
728.90	288.00
729.23	286.50
729.56	286.31
729.89	285.21
730.22	284.19
730.55	283.33
730.89	282.29
731.22	281.21
731.55	280.69
731.88	280.10
732.21	278.76
732.54	277.95
732.87	277.50
733.20	276.86
733.53	275.83
733.86	275.26
734.19	273.93
734.52	273.36
734.85	273.86
735.18	273.26
735.51	273.26
735.84	272.74
736.17	272.62
736.50	271.10
736.83	272.83
737.16	272.05
737.49	271.40
737.82	270.81
738.15	270.48
738.48	269.64
738.81	268.81
739.14	268.14
739.47	267.55
739.80	266.81
740.13	266.40
740.46	265.76
740.79	264.81
741.12	264.26
741.45	263.43
741.78	262.07
742.11	261.86
742.44	260.86
742.77	260.24
743.10	259.17
743.43	258.79
743.75	256.29
744.08	258.40
744.41	257.79
744.74	257.19
745.07	256.33
745.40	256.21
745.73	256.52
746.06	256.12
746.39	255.93
746.71	255.38
747.04	254.50
747.37	253.81
747.70	253.95
748.03	253.76
748.36	253.52
748.68	252.95
749.01	252.05
749.34	251.64
749.67	251.31
750.00	250.93
750.33	251.60
750.65	251.07
750.98	248.43
751.31	248.17
751.64	247.98
751.97	248.88
752.29	248.19
752.62	247.05
752.95	246.48
753.28	245.86
753.60	245.38
753.93	245.69
754.26	245.71
754.59	244.64
754.91	244.10
755.24	243.62
755.57	243.31
755.90	243.00
756.22	242.52
756.55	241.95
756.88	241.64
757.20	239.98
757.53	239.38
757.86	238.95
758.19	238.76
758.51	238.38
758.84	237.07
759.17	236.90
759.49	236.69
759.82	237.62
760.15	237.43
760.47	237.05
760.80	235.93
761.13	236.10
761.45	235.81
761.78	235.64
762.11	235.45
762.43	234.95
762.76	234.33
763.08	234.24
763.41	234.00
763.74	233.88
764.06	233.64
764.39	233.45
764.71	233.14
765.04	232.88
765.37	232.45
765.69	232.02
766.02	231.67
766.34	231.55
766.67	230.60
767.00	230.81
767.32	231.76
767.65	233.02
767.97	232.48
768.30	232.64
768.62	232.31
768.95	231.88
769.27	231.57
769.60	232.14
769.92	231.57
770.25	231.02
770.57	230.38
770.90	230.19
771.22	229.67
771.55	229.55
771.87	229.43
772.20	229.33
772.52	230.93
772.85	232.98
773.17	232.64
773.50	232.21
773.82	231.81
774.15	230.81
774.47	229.43
774.80	229.24
775.12	228.93
775.45	228.81
775.77	228.74
776.09	228.79
776.42	228.60
776.74	229.36
777.07	229.07
777.39	228.86
777.72	228.69
778.04	229.12
778.36	228.76
778.69	228.55
779.01	228.55
779.33	226.79
779.66	224.55
779.98	224.48
780.31	224.57
780.63	225.07
780.95	225.29
781.28	225.38
781.60	225.05
781.92	225.05
782.25	225.10
782.57	225.14
782.89	224.95
783.22	224.74
783.54	224.00
783.86	224.12
784.19	224.07
784.51	224.64
784.83	224.14
785.16	224.10
785.48	224.17
785.80	223.81
786.12	224.02
786.45	223.95
786.77	223.79
787.09	223.38
787.42	222.52
787.74	222.43
788.06	222.02
788.38	221.88
788.71	221.38
789.03	221.31
789.35	221.40
789.67	221.21
789.99	221.05
790.32	220.95
790.64	221.12
790.96	222.88
791.28	222.02
791.61	222.12
791.93	222.10
792.25	221.86
792.57	223.33
792.89	222.76
793.21	222.86
793.54	222.71
793.86	222.67
794.18	222.86
794.50	222.29
794.82	222.50
795.14	222.50
795.47	222.98
795.79	222.86
796.11	222.12
796.43	221.93
796.75	222.19
797.07	222.00
797.39	221.83
797.71	220.12
798.04	220.26
798.36	220.24
798.68	220.14
799.00	220.14
799.32	218.83
799.64	219.02
799.96	218.86
800.28	219.12
800.60	218.81
800.92	218.86
801.24	218.64
801.56	218.76
801.89	218.52
802.21	218.29
802.53	217.83
802.85	218.43
803.17	219.40
803.49	218.90
803.81	218.86
804.13	218.71
804.45	218.36
804.77	218.36
805.09	218.12
805.41	218.07
805.73	217.57
806.05	217.40
806.37	217.31
806.69	217.12
807.01	216.95
807.33	217.17
807.65	216.50
807.97	217.52
808.28	217.10
808.60	217.19
808.92	217.17
809.24	218.74
809.56	218.29
809.88	217.45
810.20	217.33
810.52	217.81
810.84	217.57
811.16	217.45
811.48	217.33
811.80	218.02
812.12	217.93
812.43	218.38
812.75	218.43
813.07	218.36
813.39	218.52
813.71	218.12
814.03	217.98
814.35	218.02
814.67	217.17
814.98	217.02
815.30	217.12
815.62	216.67
815.94	215.05
816.26	215.21
816.58	214.74
816.89	215.19
817.21	214.64
817.53	214.83
817.85	214.93
818.17	214.83
818.48	214.14
818.80	214.43
819.12	214.21
819.44	214.00
819.76	213.48
820.07	213.48
820.39	213.52
820.71	213.76
821.03	213.83
821.34	213.88
821.66	214.50
821.98	214.55
822.30	214.55
822.61	215.69
822.93	215.33
823.25	215.52
823.57	215.10
823.88	215.40
824.20	215.29
824.52	215.71
824.83	215.50
825.15	215.36
825.47	215.19
825.79	215.33
826.10	214.83
826.42	215.17
826.74	215.26
827.05	215.43
827.37	215.31
827.69	214.98
828.00	214.88
828.32	214.40
828.64	214.12
828.95	215.26
829.27	214.81
829.58	214.90
829.90	215.33
830.22	215.38
830.53	214.71
830.85	214.55
831.17	214.19
831.48	214.48
831.80	214.60
832.11	214.48
832.43	214.17
832.75	214.57
833.06	215.86
833.38	215.24
833.69	214.90
834.01	214.67
834.32	214.71
834.64	214.55
834.96	214.62
835.27	214.69
835.59	213.95
835.90	213.29
836.22	213.45
836.53	213.07
836.85	212.95
837.16	215.21
837.48	215.48
837.79	216.19
838.11	215.95
838.42	216.10
838.74	216.33
839.05	216.33
839.37	216.24
839.68	214.71
840.00	214.52
840.31	214.86
840.63	214.98
840.94	214.93
841.26	214.67
841.57	214.79
841.88	215.02
842.20	214.76
842.51	214.71
842.83	214.48
843.14	216.05
843.46	216.05
843.77	214.98
844.08	214.64
844.40	213.62
844.71	213.52
845.03	213.12
845.34	212.86
845.65	212.64
845.97	212.64
846.28	212.88
846.60	212.95
846.91	212.67
847.22	212.81
847.54	213.24
847.85	213.55
848.16	213.31
848.48	212.83
848.79	213.79
849.10	214.12
849.42	214.38
849.73	212.62
850.04	212.69
850.36	211.90
850.67	212.12
850.98	212.52
851.30	212.76
851.61	212.83
851.92	212.98
852.23	213.93
852.55	213.98
852.86	213.81
853.17	214.31
853.49	214.62
853.80	214.88
854.11	214.98
854.42	215.40
854.74	215.21
855.05	215.29
855.36	213.95
855.67	214.21
855.99	214.24
856.30	216.62
856.61	216.31
856.92	216.40
857.23	216.48
857.55	216.12
857.86	216.05
858.17	216.36
858.48	215.95
858.79	215.24
859.11	215.38
859.42	215.52
859.73	215.05
860.04	214.88
860.35	214.19
860.66	213.50
860.98	213.17
861.29	213.24
861.60	213.02
861.91	213.79
862.22	213.21
862.53	212.79
862.84	210.48
863.16	211.12
863.47	210.76
863.78	210.55
864.09	210.64
864.40	210.62
864.71	210.52
865.02	210.86
865.33	210.67
865.64	210.43
865.95	209.98
866.27	211.60
866.58	211.45
866.89	211.98
867.20	212.00
867.51	211.60
867.82	211.43
868.13	212.36
868.44	211.71
868.75	212.07
869.06	211.98
869.37	212.17
869.68	211.60
869.99	211.98
870.30	212.07
870.61	212.21
870.92	211.86
871.23	211.64
871.54	211.95
871.85	212.50
872.16	212.71
872.47	212.93
872.78	211.57
873.09	211.90
873.40	211.71
873.71	211.95
874.02	212.19
874.33	212.24
874.64	211.45
874.95	212.00
875.26	211.64
875.56	211.71
875.87	211.55
876.18	211.36
876.49	213.19
876.80	213.10
877.11	212.79
877.42	213.26
877.73	213.50
878.04	213.00
878.35	213.05
878.66	213.19
878.96	213.12
879.27	213.00
879.58	212.95
879.89	212.69
880.20	213.31
880.51	213.19
880.82	213.14
881.12	213.48
881.43	212.79
881.74	212.64
882.05	212.76
882.36	213.12
882.67	213.40
882.97	211.43
883.28	211.29
883.59	211.43
883.90	211.40
884.21	211.60
884.51	211.57
884.82	211.14
885.13	210.81
885.44	210.90
885.74	211.10
886.05	210.88
886.36	211.10
886.67	210.29
886.98	211.40
887.28	211.93
887.59	211.69
887.90	212.10
888.20	212.19
888.51	212.45
888.82	212.02
889.13	212.14
889.43	213.64
889.74	213.62
890.05	213.40
890.35	213.29
890.66	212.93
890.97	212.69
891.28	212.62
891.58	212.93
891.89	212.81
892.20	212.69
892.50	212.60
892.81	212.50
893.12	212.50
893.42	211.31
893.73	211.00
894.04	211.17
894.34	211.12
894.65	211.05
894.95	210.76
895.26	211.07
895.57	211.98
895.87	210.21
896.18	210.64
896.48	210.90
896.79	210.93
897.10	211.17
897.40	211.48
897.71	211.69
898.01	211.50
898.32	211.81
898.63	211.60
898.93	211.90
899.24	211.83
899.54	211.90
899.85	211.79
900.15	211.86
900.46	211.52
900.76	211.90
901.07	211.74
901.38	211.93
901.68	211.98
901.99	210.86
902.29	211.17
902.60	211.07
902.90	210.93
903.21	210.88
903.51	210.83
903.82	211.31
904.12	211.26
904.43	211.48
904.73	211.40
905.03	211.74
905.34	213.50
905.64	213.33
905.95	213.43
906.25	213.64
906.56	213.57
906.86	213.81
907.17	213.40
907.47	213.69
907.77	213.29
908.08	212.90
908.38	213.10
908.69	212.88
908.99	212.86
909.30	212.86
909.60	212.98
909.90	212.90
910.21	212.26
910.51	211.95
910.81	211.86
911.12	211.93
911.42	211.74
911.73	209.76
912.03	210.05
912.33	210.45
912.64	210.55
912.94	210.26
913.24	209.93
913.55	209.86
913.85	209.76
914.15	210.38
914.46	210.60
914.76	210.31
915.06	210.21
915.37	209.95
915.67	209.74
915.97	209.64
916.27	209.36
916.58	209.52
916.88	209.36
917.18	209.26
917.49	210.81
917.79	210.79
918.09	210.90
918.39	211.48
918.70	211.12
919.00	210.98
919.30	212.21
919.60	212.31
919.91	212.17
920.21	212.38
920.51	211.95
920.81	211.88
921.12	212.55
921.42	212.81
921.72	213.12
922.02	213.52
922.32	213.93
922.63	213.93
922.93	214.83
923.23	215.02
923.53	214.81
923.83	213.31
924.13	213.33
924.44	213.33
924.74	213.50
925.04	213.98
925.34	213.93
925.64	213.00
925.94	213.17
926.24	214.24
926.55	213.71
926.85	213.86
927.15	213.60
927.45	213.21
927.75	213.21
928.05	213.29
928.35	213.19
928.65	213.31
928.95	213.57
929.26	212.67
929.56	213.14
929.86	213.31
930.16	213.33
930.46	213.17
930.76	213.40
931.06	212.38
931.36	211.90
931.66	212.31
931.96	212.64
932.26	212.48
932.56	211.69
932.86	212.07
933.16	212.10
933.46	212.21
933.76	212.10
934.06	212.60
934.36	213.31
934.66	213.14
934.96	212.74
935.26	212.83
935.56	213.21
935.86	212.83
936.16	212.71
936.46	212.33
936.76	212.33
937.06	212.07
937.36	212.33
937.66	212.40
937.96	212.29
938.26	211.50
938.56	211.57
938.86	211.76
939.16	212.17
939.46	212.29
939.76	212.19
940.06	212.31
940.35	211.69
940.65	210.45
940.95	210.55
941.25	210.17
941.55	209.76
941.85	209.74
942.15	210.17
942.45	210.67
942.75	210.74
943.04	210.90
943.34	211.36
943.64	211.02
943.94	210.83
944.24	210.95
944.54	211.48
944.84	211.45
945.13	211.24
945.43	210.76
945.73	210.79
946.03	210.81
946.33	210.48
946.62	210.31
946.92	210.43
947.22	210.55
947.52	210.79
947.82	211.14
948.11	210.88
948.41	210.38
948.71	209.83
949.01	209.98
949.31	209.81
949.60	209.48
949.90	210.02
950.20	210.05
950.50	209.88
950.79	209.43
951.09	209.55
951.39	209.38
951.69	209.43
951.98	209.71
952.28	209.79
952.58	209.90
952.87	209.93
953.17	210.31
953.47	210.24
953.76	210.19
954.06	209.81
954.36	209.45
954.66	209.38
954.95	210.19
955.25	210.36
955.55	210.60
955.84	210.29
956.14	210.17
956.44	210.02
956.73	209.74
957.03	210.05
957.32	210.00
957.62	209.95
957.92	210.29
958.21	210.07
958.51	212.76
958.81	212.86
959.10	213.07
959.40	213.45
959.69	213.50
959.99	214.05
960.29	214.31
960.58	214.45
960.88	215.17
961.17	214.50
961.47	214.52
961.76	214.29
962.06	214.62
962.36	214.40
962.65	214.52
962.95	214.81
963.24	214.74
963.54	214.86
963.83	215.26
964.13	215.14
964.42	214.83
964.72	212.95
965.01	213.10
965.31	213.10
965.60	212.40
965.90	213.62
966.19	212.93
966.49	212.95
966.78	212.88
967.08	212.69
967.37	212.93
967.67	212.74
967.96	213.33
968.26	213.52
968.55	214.10
968.85	214.07
969.14	213.86
969.43	213.74
969.73	213.48
970.02	213.17
970.32	213.12
970.61	213.05
970.91	212.33
971.20	211.98
971.49	211.88
971.79	212.12
972.08	210.55
972.38	210.67
972.67	210.57
972.96	210.95
973.26	210.67
973.55	211.36
973.85	211.43
974.14	211.12
974.43	211.07
974.73	210.71
975.02	210.71
975.31	210.81
975.61	210.76
975.90	210.74
976.19	210.69
976.49	210.86
976.78	211.19
977.07	211.40
977.37	211.69
977.66	211.86
977.95	211.60
978.24	211.83
978.54	212.48
978.83	212.40
979.12	212.21
979.42	212.26
979.71	211.71
980.00	211.45
980.29	211.38
980.59	211.00
980.88	211.12
981.17	211.24
981.46	211.21
981.76	211.45
982.05	212.05
982.34	212.17
982.63	212.07
982.93	211.98
983.22	212.36
983.51	212.45
983.80	212.60
984.09	213.21
984.39	213.02
984.68	212.67
984.97	212.88
985.26	212.67
985.55	212.79
985.85	212.33
986.14	212.90
986.43	213.29
986.72	213.24
987.01	212.81
987.30	212.67
987.59	212.69
987.89	212.62
988.18	212.10
988.47	211.86
988.76	211.60
989.05	211.29
989.34	210.93
989.63	211.31
989.92	211.10
990.22	210.62
990.51	210.74
990.80	210.62
991.09	210.62
991.38	210.90
991.67	210.50
991.96	210.48
992.25	210.31
992.54	209.71
992.83	209.64
993.12	209.62
993.41	209.71
993.70	210.43
993.99	210.64
994.28	210.83
994.58	211.33
994.87	211.19
995.16	211.07
995.45	211.02
995.74	210.40
996.03	210.55
996.32	210.86
996.61	211.38
996.90	211.21
997.19	211.17
997.48	211.21
997.77	211.21
998.06	211.24
998.34	210.95
998.63	211.24
998.92	211.19
999.21	211.48
999.50	211.62
999.79	210.79
1000.08	210.79
1000.37	210.93
1000.66	210.38
1000.95	210.90
1001.24	211.12
1001.53	211.17
1001.82	210.98
1002.11	210.71
1002.40	210.95
1002.68	211.21
1002.97	212.71
1003.26	212.57
1003.55	212.36
1003.84	212.69
1004.13	213.29
1004.42	213.38
1004.71	213.29
1004.99	213.31
1005.28	214.05
1005.57	213.81
1005.86	213.83
1006.15	213.69
1006.44	213.31
1006.72	213.60
1007.01	213.31
1007.30	213.29
1007.59	213.05
1007.88	213.26
1008.17	213.19
1008.45	212.45
1008.74	211.36
1009.03	210.45
1009.32	210.48
1009.60	210.29
1009.89	209.86
1010.18	209.10
1010.47	208.90
1010.76	208.88
1011.04	208.79
1011.33	208.62
1011.62	208.88
1011.91	209.14
1012.19	209.19
1012.48	209.02
1012.77	209.07
1013.05	209.95
1013.34	209.93
1013.63	209.93
1013.92	209.90
1014.20	209.81
1014.49	210.24
1014.78	210.69
1015.06	209.86
1015.35	209.81
1015.64	210.21
1015.92	210.52
1016.21	210.69
1016.50	210.64
1016.78	210.71
1017.07	211.05
1017.36	210.45
1017.64	210.14
1017.93	210.05
1018.22	209.95
1018.50	210.17
1018.79	210.17
1019.08	209.40
1019.36	209.48
1019.65	209.48
1019.93	209.95
1020.22	210.19
1020.51	211.07
1020.79	210.81
1021.08	209.00
1021.36	208.00
1021.65	212.00
1021.94	213.50
1022.22	209.00
1022.51	209.50
1022.79	218.50
1023.08	210.00
1023.36	234.00
1023.65	203.50
>>>>>End Processed Spectral Data<<<<<
