SpectraSuite Data File
++++++++++++++++++++++++++++++++++++
Date: Tue Apr 02 18:40:44 EDT 2013
User: group
Dark Spectrum Present: No
Reference Spectrum Present: No
Number of Sampled Component Spectra: 1
Spectrometers: USB2E7196
Integration Time (usec): 580000 (USB2E7196)
Spectra Averaged: 2 (USB2E7196)
Boxcar Smoothing: 10 (USB2E7196)
Correct for Electrical Dark: No (USB2E7196)
Strobe/Lamp Enabled: No (USB2E7196)
Correct for Detector Non-linearity: No (USB2E7196)
Correct for Stray Light: No (USB2E7196)
Number of Pixels in Processed Spectrum: 2048
>>>>>Begin Processed Spectral Data<<<<<
339.09	0.00
339.48	197.50
339.86	194.50
340.24	198.00
340.63	199.00
341.01	234.50
341.39	206.50
341.78	208.00
342.16	212.00
342.54	205.00
342.93	199.33
343.31	209.14
343.69	209.64
344.07	210.19
344.46	210.86
344.84	211.55
345.22	210.21
345.60	210.43
345.99	210.74
346.37	210.60
346.75	210.64
347.13	210.67
347.52	210.55
347.90	211.26
348.28	211.12
348.66	211.45
349.05	210.69
349.43	210.62
349.81	210.71
350.19	210.50
350.57	210.57
350.96	210.93
351.34	211.33
351.72	211.40
352.10	211.50
352.48	211.52
352.87	211.45
353.25	211.62
353.63	211.33
354.01	211.17
354.39	211.26
354.77	211.50
355.15	212.05
355.54	212.19
355.92	211.43
356.30	211.45
356.68	212.74
357.06	212.90
357.44	212.55
357.82	212.38
358.20	213.36
358.58	213.48
358.97	213.31
359.35	213.52
359.73	213.88
360.11	213.98
360.49	213.98
360.87	213.98
361.25	214.14
361.63	214.93
362.01	214.98
362.39	214.86
362.77	215.00
363.15	214.83
363.53	214.90
363.91	215.02
364.29	215.12
364.67	213.33
365.05	213.33
365.43	213.95
365.81	214.12
366.19	214.38
366.57	215.26
366.95	215.40
367.33	214.76
367.71	214.52
368.09	214.86
368.47	214.74
368.85	214.48
369.23	215.05
369.61	214.38
369.99	215.07
370.37	215.45
370.75	216.29
371.13	216.17
371.51	215.62
371.89	215.79
372.27	215.83
372.65	215.93
373.03	215.93
373.41	215.86
373.78	216.02
374.16	215.12
374.54	214.33
374.92	214.19
375.30	214.52
375.68	214.45
376.06	214.48
376.44	214.50
376.82	214.79
377.19	214.36
377.57	214.31
377.95	213.50
378.33	212.98
378.71	211.64
379.09	211.71
379.47	212.45
379.84	212.31
380.22	212.26
380.60	211.98
380.98	211.90
381.36	211.83
381.73	211.62
382.11	211.86
382.49	211.93
382.87	211.71
383.25	211.86
383.62	214.21
384.00	213.90
384.38	213.98
384.76	214.43
385.13	215.40
385.51	215.45
385.89	215.31
386.27	215.67
386.64	216.29
387.02	216.29
387.40	215.88
387.78	216.02
388.15	216.12
388.53	216.02
388.91	216.02
389.29	215.88
389.66	215.95
390.04	215.55
390.42	216.29
390.79	216.36
391.17	216.21
391.55	213.86
391.92	214.05
392.30	214.48
392.68	213.76
393.05	213.48
393.43	213.62
393.81	213.93
394.18	213.86
394.56	213.76
394.94	214.05
395.31	213.86
395.69	214.38
396.06	214.62
396.44	214.71
396.82	214.67
397.19	215.81
397.57	215.55
397.95	216.05
398.32	215.31
398.70	215.83
399.07	216.36
399.45	216.52
399.82	216.29
400.20	215.81
400.58	216.00
400.95	215.21
401.33	215.83
401.70	217.38
402.08	217.50
402.45	217.45
402.83	217.86
403.20	218.26
403.58	218.07
403.95	218.64
404.33	219.33
404.71	219.69
405.08	220.64
405.46	221.12
405.83	221.43
406.21	221.74
406.58	222.19
406.96	222.52
407.33	223.29
407.70	224.14
408.08	226.55
408.45	227.55
408.83	228.69
409.20	229.05
409.58	228.67
409.95	229.79
410.33	230.93
410.70	231.40
411.08	232.67
411.45	233.86
411.82	234.64
412.20	236.07
412.57	238.55
412.95	238.21
413.32	240.07
413.69	241.57
414.07	243.52
414.44	245.31
414.82	247.33
415.19	249.64
415.56	251.98
415.94	253.10
416.31	256.12
416.68	258.79
417.06	261.95
417.43	265.50
417.81	268.95
418.18	272.64
418.55	276.62
418.93	280.40
419.30	284.98
419.67	289.74
420.04	294.55
420.42	299.05
420.79	306.50
421.16	312.64
421.54	319.81
421.91	326.14
422.28	332.40
422.66	339.29
423.03	347.29
423.40	354.36
423.77	362.07
424.15	369.38
424.52	377.64
424.89	386.90
425.26	394.60
425.64	402.45
426.01	411.62
426.38	420.95
426.75	431.40
427.13	441.10
427.50	451.02
427.87	461.33
428.24	471.93
428.61	480.79
428.99	492.50
429.36	503.83
429.73	515.67
430.10	527.60
430.47	540.05
430.85	551.14
431.22	564.90
431.59	579.83
431.96	593.52
432.33	608.55
432.70	622.43
433.08	639.62
433.45	656.33
433.82	671.98
434.19	689.71
434.56	706.98
434.93	723.40
435.30	740.83
435.68	759.90
436.05	778.00
436.42	795.79
436.79	812.24
437.16	830.29
437.53	849.17
437.90	868.10
438.27	886.62
438.64	906.02
439.01	923.90
439.38	939.52
439.75	955.00
440.13	972.48
440.50	989.69
440.87	1003.79
441.24	1017.88
441.61	1033.50
441.98	1045.10
442.35	1058.02
442.72	1071.50
443.09	1085.02
443.46	1092.38
443.83	1097.83
444.20	1103.26
444.57	1109.33
444.94	1112.19
445.31	1116.02
445.68	1121.69
446.05	1122.60
446.42	1120.98
446.79	1119.38
447.16	1116.21
447.53	1115.07
447.90	1108.79
448.27	1102.02
448.64	1092.31
449.01	1085.29
449.37	1073.45
449.74	1061.69
450.11	1049.38
450.48	1034.55
450.85	1018.00
451.22	1004.40
451.59	991.71
451.96	979.50
452.33	963.60
452.70	949.05
453.07	930.93
453.43	910.86
453.80	894.10
454.17	877.88
454.54	861.48
454.91	845.24
455.28	828.24
455.65	811.69
456.02	799.05
456.38	785.24
456.75	769.43
457.12	755.52
457.49	742.38
457.86	727.79
458.23	716.81
458.59	704.26
458.96	692.36
459.33	681.07
459.70	669.33
460.07	660.05
460.43	650.05
460.80	640.69
461.17	632.55
461.54	623.62
461.91	615.17
462.27	606.64
462.64	599.19
463.01	591.55
463.38	585.07
463.74	573.95
464.11	567.36
464.48	560.90
464.85	554.36
465.21	549.48
465.58	544.43
465.95	537.05
466.32	531.81
466.68	526.07
467.05	520.90
467.42	515.83
467.78	510.52
468.15	505.10
468.52	501.19
468.88	495.50
469.25	490.86
469.62	487.24
469.98	483.02
470.35	478.74
470.72	474.62
471.08	470.07
471.45	467.40
471.82	464.67
472.18	460.83
472.55	458.21
472.92	454.52
473.28	451.00
473.65	448.07
474.02	445.43
474.38	443.57
474.75	441.67
475.11	439.36
475.48	437.74
475.85	435.98
476.21	433.90
476.58	432.79
476.94	431.38
477.31	429.48
477.67	427.88
478.04	427.29
478.41	426.52
478.77	427.86
479.14	426.38
479.50	425.83
479.87	425.67
480.23	425.12
480.60	424.38
480.96	424.24
481.33	425.50
481.69	425.29
482.06	425.48
482.42	426.14
482.79	426.81
483.15	426.69
483.52	427.50
483.88	428.43
484.25	428.55
484.61	429.02
484.98	429.88
485.34	432.67
485.71	433.98
486.07	435.60
486.44	434.83
486.80	436.74
487.17	438.05
487.53	440.69
487.90	443.21
488.26	446.57
488.62	449.19
488.99	451.33
489.35	454.62
489.72	456.79
490.08	458.76
490.44	461.31
490.81	465.00
491.17	467.64
491.54	471.33
491.90	475.55
492.26	479.90
492.63	484.31
492.99	487.33
493.36	491.62
493.72	496.07
494.08	500.43
494.45	505.17
494.81	510.55
495.17	514.98
495.54	520.40
495.90	524.76
496.26	530.24
496.63	535.74
496.99	541.05
497.35	547.48
497.72	554.07
498.08	560.57
498.44	566.74
498.80	573.90
499.17	580.40
499.53	586.62
499.89	594.10
500.26	600.83
500.62	607.95
500.98	615.76
501.34	623.38
501.71	631.74
502.07	639.21
502.43	646.50
502.79	653.93
503.16	660.98
503.52	668.98
503.88	676.36
504.24	684.36
504.60	692.88
504.97	700.57
505.33	708.38
505.69	717.33
506.05	725.55
506.41	734.26
506.78	742.24
507.14	750.24
507.50	757.90
507.86	766.86
508.22	775.24
508.59	782.98
508.95	790.74
509.31	799.29
509.67	806.93
510.03	815.02
510.39	823.12
510.75	831.55
511.12	839.81
511.48	848.50
511.84	856.26
512.20	863.93
512.56	872.64
512.92	881.19
513.28	889.24
513.64	897.05
514.00	904.60
514.37	912.71
514.73	920.69
515.09	928.81
515.45	935.17
515.81	942.71
516.17	950.17
516.53	957.60
516.89	964.17
517.25	971.95
517.61	979.31
517.97	986.76
518.33	993.40
518.69	1000.29
519.05	1007.12
519.41	1014.43
519.77	1022.14
520.13	1027.81
520.49	1033.40
520.85	1039.45
521.21	1046.48
521.57	1053.33
521.93	1059.17
522.29	1066.24
522.65	1071.88
523.01	1079.05
523.37	1084.19
523.73	1090.07
524.09	1095.95
524.45	1101.00
524.81	1106.60
525.17	1112.14
525.53	1116.93
525.89	1122.64
526.25	1128.02
526.61	1132.69
526.97	1137.31
527.33	1141.43
527.68	1148.45
528.04	1154.33
528.40	1159.10
528.76	1164.67
529.12	1169.31
529.48	1174.83
529.84	1178.83
530.20	1183.93
530.56	1188.36
530.91	1194.29
531.27	1199.45
531.63	1204.26
531.99	1209.55
532.35	1214.33
532.71	1218.57
533.07	1224.14
533.42	1231.31
533.78	1236.67
534.14	1242.24
534.50	1246.79
534.86	1252.26
535.21	1255.55
535.57	1260.40
535.93	1264.81
536.29	1269.83
536.65	1273.55
537.00	1276.50
537.36	1281.45
537.72	1285.00
538.08	1289.36
538.44	1291.98
538.79	1295.26
539.15	1298.12
539.51	1303.17
539.87	1307.57
540.22	1312.38
540.58	1315.98
540.94	1317.55
541.29	1320.79
541.65	1323.76
542.01	1328.45
542.37	1330.76
542.72	1333.38
543.08	1336.26
543.44	1339.76
543.79	1340.07
544.15	1344.26
544.51	1349.62
544.87	1352.71
545.22	1356.81
545.58	1360.52
545.94	1364.95
546.29	1368.95
546.65	1373.81
547.01	1375.81
547.36	1378.67
547.72	1381.67
548.07	1385.00
548.43	1387.98
548.79	1391.00
549.14	1395.12
549.50	1397.64
549.86	1401.12
550.21	1405.45
550.57	1409.14
550.92	1412.24
551.28	1417.38
551.64	1420.36
551.99	1423.64
552.35	1426.90
552.70	1430.74
553.06	1434.52
553.41	1438.64
553.77	1443.33
554.13	1447.00
554.48	1451.79
554.84	1456.83
555.19	1461.60
555.55	1467.07
555.90	1472.05
556.26	1476.45
556.61	1480.02
556.97	1484.69
557.32	1489.19
557.68	1493.67
558.03	1498.21
558.39	1503.07
558.74	1507.83
559.10	1512.64
559.45	1517.17
559.81	1522.81
560.16	1526.60
560.52	1530.86
560.87	1535.55
561.23	1538.95
561.58	1545.52
561.94	1550.02
562.29	1553.57
562.64	1558.98
563.00	1563.00
563.35	1567.24
563.71	1572.83
564.06	1577.74
564.42	1582.71
564.77	1588.98
565.12	1594.33
565.48	1601.45
565.83	1607.57
566.19	1612.60
566.54	1618.38
566.89	1623.38
567.25	1629.02
567.60	1637.10
567.96	1644.26
568.31	1651.02
568.66	1657.60
569.02	1661.02
569.37	1666.36
569.72	1672.48
570.08	1676.81
570.43	1681.86
570.78	1687.14
571.14	1692.71
571.49	1698.10
571.84	1703.64
572.20	1708.05
572.55	1713.26
572.90	1715.57
573.26	1719.38
573.61	1723.05
573.96	1726.76
574.31	1730.64
574.67	1733.71
575.02	1735.17
575.37	1736.90
575.72	1738.14
576.08	1740.67
576.43	1743.24
576.78	1745.38
577.13	1747.83
577.49	1750.29
577.84	1753.29
578.19	1755.64
578.54	1758.52
578.90	1760.93
579.25	1763.05
579.60	1764.83
579.95	1765.83
580.30	1768.29
580.66	1770.88
581.01	1773.95
581.36	1775.62
581.71	1778.12
582.06	1781.52
582.42	1783.95
582.77	1786.02
583.12	1788.86
583.47	1791.50
583.82	1793.74
584.17	1796.21
584.53	1798.50
584.88	1800.14
585.23	1802.07
585.58	1803.43
585.93	1803.83
586.28	1804.93
586.63	1805.62
586.98	1806.98
587.34	1809.98
587.69	1810.43
588.04	1810.64
588.39	1811.38
588.74	1811.62
589.09	1812.43
589.44	1810.12
589.79	1810.76
590.14	1812.24
590.49	1812.24
590.84	1811.00
591.19	1812.02
591.54	1812.14
591.89	1811.19
592.25	1812.26
592.60	1810.90
592.95	1811.36
593.30	1811.12
593.65	1811.14
594.00	1810.14
594.35	1815.00
594.70	1812.52
595.05	1812.69
595.40	1811.36
595.75	1810.33
596.10	1811.40
596.45	1810.40
596.80	1811.43
597.15	1810.19
597.50	1808.12
597.85	1808.10
598.19	1807.33
598.54	1805.26
598.89	1804.12
599.24	1804.36
599.59	1802.90
599.94	1801.55
600.29	1800.07
600.64	1798.52
600.99	1797.02
601.34	1796.33
601.69	1790.00
602.04	1788.90
602.39	1786.64
602.74	1785.95
603.08	1784.00
603.43	1782.31
603.78	1780.43
604.13	1778.88
604.48	1777.07
604.83	1775.40
605.18	1773.57
605.53	1771.71
605.87	1770.14
606.22	1767.17
606.57	1763.76
606.92	1760.83
607.27	1759.81
607.62	1757.55
607.96	1755.57
608.31	1753.48
608.66	1750.62
609.01	1747.36
609.36	1744.64
609.70	1741.83
610.05	1738.55
610.40	1735.71
610.75	1731.33
611.10	1727.90
611.44	1723.86
611.79	1720.17
612.14	1716.38
612.49	1710.38
612.83	1705.62
613.18	1700.74
613.53	1696.86
613.88	1692.10
614.22	1687.74
614.57	1682.48
614.92	1677.48
615.27	1672.38
615.61	1667.10
615.96	1662.29
616.31	1656.79
616.65	1652.50
617.00	1647.98
617.35	1642.71
617.70	1637.93
618.04	1632.74
618.39	1627.21
618.74	1621.55
619.08	1615.26
619.43	1610.36
619.78	1606.05
620.12	1602.95
620.47	1598.36
620.82	1592.79
621.16	1586.93
621.51	1582.98
621.85	1577.31
622.20	1572.07
622.55	1566.10
622.89	1560.71
623.24	1556.07
623.59	1551.50
623.93	1546.24
624.28	1541.71
624.62	1539.83
624.97	1535.52
625.32	1531.12
625.66	1526.33
626.01	1521.86
626.35	1518.98
626.70	1513.64
627.04	1510.64
627.39	1504.24
627.73	1499.60
628.08	1496.64
628.43	1492.38
628.77	1485.67
629.12	1480.62
629.46	1475.31
629.81	1470.52
630.15	1464.74
630.50	1458.62
630.84	1452.40
631.19	1446.95
631.53	1440.62
631.88	1431.76
632.22	1425.07
632.57	1419.62
632.91	1413.71
633.26	1407.90
633.60	1400.02
633.95	1393.95
634.29	1385.83
634.64	1380.71
634.98	1373.48
635.32	1367.55
635.67	1362.31
636.01	1356.76
636.36	1351.14
636.70	1347.57
637.05	1341.45
637.39	1336.60
637.73	1331.36
638.08	1326.86
638.42	1320.29
638.77	1315.05
639.11	1309.95
639.45	1304.36
639.80	1297.86
640.14	1291.62
640.49	1285.83
640.83	1279.95
641.17	1274.00
641.52	1268.12
641.86	1262.24
642.20	1257.98
642.55	1250.36
642.89	1244.07
643.23	1237.50
643.58	1232.10
643.92	1224.12
644.26	1218.19
644.61	1212.14
644.95	1205.19
645.29	1197.55
645.64	1191.71
645.98	1184.81
646.32	1179.12
646.66	1171.79
647.01	1165.60
647.35	1159.88
647.69	1153.83
648.04	1148.12
648.38	1142.02
648.72	1135.90
649.06	1128.81
649.41	1120.79
649.75	1114.19
650.09	1107.86
650.43	1100.55
650.78	1093.05
651.12	1086.55
651.46	1079.76
651.80	1072.69
652.14	1066.50
652.49	1061.43
652.83	1054.90
653.17	1048.21
653.51	1040.74
653.85	1035.36
654.20	1028.45
654.54	1021.14
654.88	1014.21
655.22	1008.55
655.56	1001.14
655.90	994.10
656.25	987.62
656.59	982.31
656.93	976.40
657.27	970.64
657.61	965.40
657.95	959.29
658.29	952.48
658.64	947.19
658.98	940.86
659.32	935.02
659.66	928.31
660.00	921.88
660.34	915.57
660.68	910.02
661.02	903.33
661.36	897.67
661.70	892.33
662.05	886.40
662.39	880.57
662.73	876.12
663.07	871.90
663.41	865.67
663.75	858.95
664.09	852.79
664.43	845.95
664.77	840.14
665.11	834.98
665.45	829.67
665.79	823.38
666.13	817.24
666.47	811.17
666.81	805.90
667.15	800.00
667.49	795.07
667.83	789.48
668.17	784.31
668.51	778.76
668.85	773.33
669.19	768.71
669.53	762.55
669.87	756.38
670.21	750.45
670.55	745.52
670.89	742.29
671.23	737.40
671.57	733.05
671.91	728.10
672.25	722.93
672.58	718.90
672.92	713.88
673.26	709.60
673.60	705.21
673.94	699.90
674.28	695.62
674.62	691.26
674.96	686.40
675.30	681.93
675.64	677.67
675.97	673.29
676.31	667.86
676.65	663.83
676.99	660.52
677.33	655.69
677.67	651.90
678.01	646.24
678.34	642.33
678.68	638.43
679.02	633.55
679.36	629.02
679.70	623.88
680.04	619.62
680.37	615.38
680.71	610.90
681.05	607.07
681.39	603.12
681.73	598.21
682.06	594.05
682.40	589.88
682.74	586.05
683.08	582.60
683.42	578.02
683.75	573.98
684.09	569.17
684.43	565.17
684.77	560.62
685.10	557.05
685.44	552.98
685.78	548.74
686.12	545.29
686.45	541.43
686.79	537.67
687.13	534.74
687.46	530.67
687.80	527.55
688.14	523.71
688.48	519.48
688.81	516.43
689.15	513.71
689.49	510.00
689.82	506.02
690.16	501.69
690.50	498.57
690.83	494.98
691.17	491.17
691.51	487.60
691.84	484.86
692.18	481.26
692.52	477.57
692.85	474.40
693.19	472.38
693.52	469.29
693.86	465.67
694.20	462.12
694.53	459.05
694.87	455.60
695.21	452.36
695.54	449.74
695.88	445.83
696.21	441.43
696.55	438.50
696.88	435.60
697.22	432.79
697.56	430.50
697.89	427.38
698.23	425.12
698.56	422.69
698.90	419.60
699.23	416.55
699.57	414.21
699.90	411.19
700.24	407.81
700.58	405.12
700.91	403.07
701.25	402.00
701.58	400.40
701.92	398.55
702.25	396.24
702.59	393.86
702.92	392.36
703.26	390.50
703.59	388.19
703.93	387.76
704.26	385.64
704.60	383.26
704.93	381.12
705.26	378.76
705.60	376.86
705.93	374.36
706.27	373.24
706.60	371.86
706.94	371.07
707.27	368.69
707.61	366.98
707.94	364.93
708.27	361.52
708.61	359.10
708.94	357.12
709.28	355.64
709.61	353.90
709.94	351.90
710.28	350.38
710.61	348.90
710.95	345.10
711.28	344.57
711.61	342.83
711.95	341.79
712.28	340.17
712.61	338.50
712.95	338.40
713.28	337.33
713.61	335.19
713.95	332.93
714.28	331.88
714.61	330.29
714.95	328.95
715.28	327.43
715.61	325.90
715.95	324.21
716.28	322.67
716.61	321.50
716.95	320.05
717.28	318.52
717.61	317.10
717.94	315.64
718.28	312.98
718.61	311.64
718.94	310.00
719.27	308.45
719.61	307.19
719.94	305.14
720.27	302.90
720.60	301.64
720.94	300.29
721.27	298.74
721.60	297.79
721.93	296.52
722.27	296.02
722.60	295.40
722.93	294.10
723.26	293.14
723.59	291.74
723.93	291.19
724.26	290.69
724.59	289.60
724.92	289.07
725.25	288.60
725.59	287.83
725.92	287.14
726.25	286.48
726.58	285.62
726.91	284.81
727.24	284.55
727.57	283.95
727.91	283.17
728.24	282.67
728.57	281.67
728.90	281.10
729.23	279.71
729.56	279.64
729.89	279.12
730.22	278.19
730.55	277.36
730.89	276.52
731.22	275.10
731.55	274.14
731.88	273.40
732.21	272.36
732.54	271.24
732.87	270.38
733.20	269.76
733.53	269.50
733.86	268.95
734.19	268.00
734.52	267.62
734.85	268.48
735.18	267.67
735.51	267.45
735.84	267.19
736.17	267.24
736.50	265.79
736.83	267.52
737.16	266.98
737.49	266.74
737.82	266.17
738.15	266.17
738.48	265.79
738.81	265.24
739.14	264.64
739.47	264.19
739.80	263.52
740.13	263.21
740.46	262.05
740.79	260.98
741.12	260.29
741.45	259.07
741.78	257.10
742.11	257.14
742.44	256.17
742.77	255.69
743.10	254.90
743.43	254.24
743.75	251.48
744.08	253.45
744.41	252.71
744.74	252.24
745.07	251.14
745.40	251.00
745.73	251.21
746.06	251.07
746.39	250.95
746.71	250.36
747.04	249.62
747.37	249.19
747.70	249.57
748.03	249.29
748.36	249.38
748.68	248.83
749.01	247.69
749.34	247.64
749.67	247.02
750.00	246.76
750.33	247.93
750.65	247.88
750.98	245.07
751.31	244.62
751.64	244.10
751.97	245.12
752.29	244.45
752.62	243.19
752.95	242.52
753.28	241.98
753.60	241.71
753.93	242.00
754.26	241.88
754.59	240.48
754.91	239.98
755.24	239.62
755.57	239.36
755.90	239.12
756.22	238.38
756.55	238.02
756.88	237.26
757.20	235.40
757.53	234.29
757.86	234.14
758.19	234.10
758.51	233.67
758.84	232.26
759.17	231.88
759.49	231.48
759.82	232.24
760.15	232.19
760.47	231.98
760.80	231.17
761.13	231.19
761.45	231.19
761.78	231.00
762.11	230.74
762.43	230.48
762.76	230.31
763.08	230.55
763.41	230.62
763.74	230.69
764.06	230.76
764.39	230.79
764.71	230.31
765.04	230.05
765.37	229.81
765.69	229.60
766.02	229.40
766.34	229.40
766.67	228.57
767.00	228.64
767.32	229.81
767.65	230.83
767.97	230.38
768.30	230.38
768.62	230.40
768.95	229.86
769.27	229.62
769.60	229.86
769.92	229.24
770.25	228.48
770.57	227.79
770.90	227.43
771.22	227.00
771.55	227.07
771.87	226.95
772.20	226.79
772.52	228.40
772.85	230.79
773.17	230.81
773.50	230.43
773.82	229.90
774.15	228.33
774.47	226.67
774.80	226.40
775.12	226.24
775.45	225.81
775.77	226.02
776.09	226.05
776.42	225.83
776.74	226.60
777.07	226.55
777.39	226.81
777.72	226.62
778.04	226.88
778.36	226.48
778.69	226.24
779.01	226.26
779.33	224.64
779.66	222.33
779.98	222.07
780.31	222.12
780.63	222.81
780.95	223.12
781.28	223.05
781.60	223.00
781.92	222.81
782.25	222.88
782.57	222.79
782.89	222.38
783.22	222.02
783.54	221.24
783.86	221.17
784.19	220.76
784.51	221.40
784.83	221.10
785.16	220.98
785.48	221.14
785.80	221.10
786.12	221.07
786.45	221.02
786.77	221.00
787.09	220.95
787.42	220.17
787.74	220.19
788.06	220.38
788.38	220.21
788.71	220.21
789.03	220.12
789.35	220.19
789.67	220.02
789.99	220.07
790.32	219.67
790.64	219.98
790.96	221.74
791.28	220.93
791.61	220.74
791.93	220.83
792.25	220.57
792.57	222.00
792.89	221.29
793.21	221.29
793.54	221.29
793.86	220.86
794.18	221.07
794.50	220.74
794.82	220.67
795.14	220.88
795.47	221.12
795.79	221.07
796.11	220.50
796.43	220.52
796.75	220.55
797.07	220.71
797.39	220.60
797.71	219.07
798.04	219.10
798.36	219.48
798.68	219.45
799.00	219.45
799.32	218.10
799.64	218.88
799.96	218.83
800.28	218.90
800.60	218.93
800.92	219.00
801.24	218.83
801.56	218.86
801.89	218.38
802.21	218.55
802.53	218.38
802.85	218.74
803.17	219.81
803.49	219.38
803.81	219.45
804.13	219.31
804.45	219.10
804.77	219.19
805.09	218.95
805.41	218.88
805.73	218.48
806.05	218.12
806.37	217.79
806.69	217.45
807.01	217.48
807.33	217.55
807.65	216.52
807.97	217.55
808.28	217.40
808.60	217.67
808.92	217.12
809.24	218.31
809.56	218.31
809.88	217.33
810.20	217.57
810.52	217.67
810.84	217.19
811.16	216.95
811.48	216.88
811.80	217.50
812.12	217.29
812.43	217.71
812.75	218.00
813.07	217.81
813.39	217.93
813.71	217.60
814.03	217.33
814.35	217.76
814.67	216.98
814.98	216.67
815.30	216.45
815.62	216.43
815.94	215.02
816.26	214.93
816.58	214.62
816.89	214.43
817.21	214.17
817.53	214.40
817.85	214.60
818.17	214.62
818.48	214.00
818.80	214.62
819.12	214.40
819.44	214.05
819.76	213.86
820.07	213.88
820.39	213.81
820.71	214.10
821.03	213.88
821.34	213.57
821.66	214.12
821.98	214.62
822.30	214.45
822.61	215.81
822.93	215.74
823.25	215.79
823.57	215.95
823.88	216.38
824.20	216.24
824.52	216.57
824.83	216.29
825.15	216.07
825.47	215.74
825.79	215.95
826.10	215.93
826.42	215.76
826.74	216.17
827.05	215.93
827.37	215.90
827.69	216.02
828.00	216.19
828.32	216.02
828.64	215.60
828.95	216.52
829.27	215.83
829.58	215.76
829.90	215.98
830.22	215.98
830.53	215.29
830.85	215.29
831.17	214.71
831.48	214.98
831.80	215.02
832.11	214.88
832.43	214.60
832.75	214.36
833.06	215.74
833.38	215.00
833.69	215.05
834.01	215.07
834.32	214.83
834.64	214.76
834.96	214.74
835.27	214.79
835.59	214.38
835.90	214.02
836.22	213.90
836.53	213.81
836.85	213.57
837.16	215.81
837.48	215.71
837.79	216.48
838.11	216.45
838.42	216.55
838.74	216.81
839.05	216.74
839.37	216.67
839.68	215.40
840.00	215.36
840.31	215.52
840.63	215.36
840.94	215.33
841.26	215.05
841.57	214.90
841.88	214.90
842.20	214.40
842.51	214.02
842.83	214.05
843.14	215.86
843.46	215.93
843.77	214.69
844.08	214.74
844.40	213.95
844.71	213.62
845.03	213.24
845.34	213.21
845.65	213.17
845.97	213.29
846.28	213.29
846.60	213.43
846.91	213.21
847.22	213.21
847.54	213.57
847.85	213.71
848.16	213.48
848.48	213.17
848.79	213.90
849.10	214.24
849.42	214.24
849.73	212.17
850.04	212.07
850.36	211.38
850.67	211.74
850.98	211.79
851.30	212.26
851.61	212.45
851.92	212.45
852.23	212.93
852.55	213.26
852.86	213.36
853.17	213.45
853.49	214.02
853.80	214.36
854.11	214.64
854.42	214.88
854.74	214.76
855.05	214.95
855.36	214.07
855.67	214.05
855.99	214.14
856.30	216.88
856.61	216.81
856.92	216.95
857.23	216.88
857.55	216.76
857.86	216.48
858.17	216.62
858.48	216.17
858.79	215.93
859.11	216.00
859.42	215.90
859.73	215.83
860.04	215.81
860.35	215.21
860.66	214.67
860.98	214.45
861.29	214.81
861.60	214.71
861.91	215.24
862.22	215.14
862.53	214.98
862.84	212.26
863.16	213.07
863.47	212.57
863.78	212.33
864.09	212.48
864.40	212.60
864.71	212.74
865.02	213.14
865.33	212.76
865.64	212.52
865.95	212.50
866.27	213.57
866.58	213.29
866.89	213.57
867.20	213.48
867.51	213.43
867.82	213.29
868.13	213.90
868.44	213.26
868.75	213.62
869.06	213.76
869.37	213.98
869.68	213.00
869.99	213.57
870.30	213.60
870.61	213.76
870.92	213.31
871.23	213.05
871.54	213.26
871.85	213.98
872.16	214.24
872.47	214.14
872.78	212.95
873.09	213.14
873.40	213.02
873.71	212.93
874.02	212.64
874.33	212.64
874.64	212.10
874.95	212.81
875.26	212.24
875.56	212.17
875.87	212.17
876.18	212.31
876.49	214.17
876.80	214.12
877.11	213.93
877.42	214.19
877.73	214.24
878.04	213.86
878.35	213.69
878.66	213.71
878.96	213.62
879.27	213.71
879.58	213.55
879.89	213.48
880.20	214.19
880.51	214.48
880.82	214.43
881.12	214.52
881.43	213.93
881.74	213.93
882.05	213.88
882.36	213.86
882.67	213.98
882.97	211.86
883.28	211.90
883.59	211.64
883.90	211.81
884.21	212.12
884.51	212.00
884.82	211.95
885.13	211.79
885.44	211.76
885.74	211.81
886.05	211.69
886.36	211.74
886.67	210.90
886.98	211.98
887.28	212.24
887.59	212.40
887.90	212.45
888.20	212.33
888.51	212.71
888.82	212.50
889.13	212.71
889.43	214.31
889.74	214.29
890.05	214.33
890.35	214.14
890.66	213.81
890.97	213.86
891.28	213.50
891.58	213.60
891.89	213.74
892.20	213.50
892.50	213.31
892.81	213.14
893.12	213.21
893.42	212.19
893.73	212.24
894.04	212.19
894.34	212.43
894.65	212.29
894.95	212.07
895.26	212.31
895.57	212.90
895.87	210.93
896.18	211.07
896.48	211.21
896.79	211.24
897.10	211.64
897.40	211.36
897.71	211.60
898.01	211.36
898.32	211.45
898.63	211.38
898.93	211.60
899.24	211.69
899.54	211.74
899.85	211.79
900.15	211.55
900.46	211.38
900.76	211.26
901.07	211.38
901.38	211.26
901.68	211.24
901.99	210.38
902.29	210.64
902.60	210.50
902.90	210.26
903.21	210.19
903.51	209.98
903.82	210.57
904.12	210.38
904.43	210.60
904.73	210.64
905.03	210.67
905.34	212.48
905.64	212.45
905.95	212.50
906.25	212.10
906.56	212.12
906.86	212.00
907.17	211.90
907.47	212.05
907.77	211.81
908.08	211.43
908.38	211.64
908.69	211.76
908.99	212.21
909.30	212.43
909.60	212.57
909.90	212.64
910.21	212.14
910.51	212.02
910.81	212.05
911.12	212.17
911.42	212.17
911.73	210.21
912.03	210.40
912.33	210.74
912.64	210.93
912.94	210.74
913.24	210.45
913.55	210.52
913.85	210.29
914.15	210.98
914.46	211.21
914.76	210.98
915.06	210.79
915.37	210.38
915.67	210.26
915.97	210.29
916.27	209.90
916.58	210.02
916.88	209.90
917.18	209.76
917.49	211.14
917.79	211.17
918.09	211.50
918.39	211.98
918.70	212.00
919.00	212.02
919.30	212.83
919.60	213.10
919.91	212.88
920.21	213.07
920.51	212.38
920.81	212.33
921.12	212.69
921.42	212.81
921.72	212.86
922.02	213.07
922.32	213.40
922.63	213.31
922.93	214.40
923.23	214.62
923.53	214.31
923.83	212.71
924.13	212.95
924.44	212.98
924.74	212.88
925.04	213.31
925.34	213.50
925.64	212.81
925.94	212.83
926.24	214.02
926.55	213.79
926.85	214.31
927.15	214.43
927.45	214.36
927.75	214.36
928.05	214.29
928.35	214.07
928.65	214.29
928.95	214.62
929.26	213.69
929.56	214.10
929.86	214.40
930.16	214.36
930.46	214.31
930.76	214.24
931.06	213.48
931.36	212.79
931.66	213.02
931.96	213.33
932.26	213.40
932.56	212.55
932.86	212.69
933.16	212.62
933.46	212.60
933.76	212.40
934.06	212.81
934.36	213.67
934.66	213.50
934.96	213.10
935.26	213.07
935.56	213.26
935.86	212.83
936.16	212.69
936.46	212.50
936.76	212.43
937.06	212.33
937.36	212.60
937.66	212.71
937.96	212.40
938.26	211.86
938.56	211.71
938.86	211.86
939.16	212.43
939.46	212.57
939.76	212.67
940.06	212.40
940.35	211.79
940.65	210.60
940.95	211.00
941.25	210.60
941.55	210.36
941.85	210.52
942.15	210.95
942.45	211.45
942.75	211.48
943.04	211.45
943.34	211.71
943.64	211.55
943.94	211.14
944.24	211.26
944.54	211.67
944.84	211.60
945.13	211.21
945.43	210.98
945.73	210.69
946.03	210.57
946.33	210.55
946.62	210.60
946.92	210.71
947.22	210.83
947.52	211.00
947.82	211.60
948.11	211.26
948.41	210.57
948.71	210.02
949.01	210.19
949.31	210.00
949.60	210.00
949.90	210.29
950.20	210.48
950.50	210.50
950.79	210.36
951.09	210.60
951.39	210.69
951.69	210.31
951.98	210.93
952.28	210.76
952.58	210.71
952.87	210.86
953.17	211.14
953.47	210.74
953.76	210.81
954.06	210.19
954.36	209.79
954.66	209.93
954.95	210.62
955.25	210.76
955.55	210.83
955.84	210.38
956.14	210.74
956.44	210.86
956.73	210.55
957.03	210.48
957.32	210.48
957.62	210.38
957.92	210.83
958.21	210.69
958.51	213.17
958.81	213.50
959.10	213.43
959.40	213.86
959.69	214.07
959.99	214.36
960.29	214.40
960.58	214.55
960.88	215.19
961.17	214.74
961.47	214.83
961.76	214.79
962.06	215.10
962.36	214.57
962.65	214.60
962.95	214.71
963.24	214.69
963.54	214.71
963.83	214.79
964.13	214.79
964.42	214.29
964.72	212.74
965.01	212.86
965.31	212.90
965.60	212.50
965.90	213.76
966.19	213.31
966.49	213.57
966.78	213.29
967.08	213.31
967.37	213.33
967.67	213.07
967.96	213.50
968.26	213.40
968.55	214.00
968.85	214.02
969.14	213.93
969.43	213.86
969.73	213.76
970.02	213.50
970.32	213.31
970.61	213.29
970.91	212.40
971.20	212.33
971.49	212.21
971.79	212.31
972.08	210.98
972.38	211.12
972.67	210.88
972.96	211.40
973.26	210.86
973.55	211.55
973.85	211.55
974.14	211.38
974.43	211.67
974.73	210.95
975.02	210.81
975.31	211.00
975.61	211.05
975.90	210.74
976.19	211.05
976.49	210.90
976.78	210.88
977.07	210.90
977.37	210.86
977.66	211.02
977.95	210.83
978.24	211.00
978.54	211.43
978.83	211.26
979.12	211.00
979.42	211.10
979.71	210.81
980.00	210.88
980.29	210.90
980.59	210.45
980.88	211.05
981.17	210.90
981.46	210.67
981.76	210.60
982.05	211.31
982.34	211.36
982.63	211.52
982.93	211.43
983.22	212.10
983.51	211.93
983.80	212.36
984.09	212.57
984.39	212.43
984.68	212.10
984.97	212.48
985.26	212.55
985.55	212.57
985.85	212.05
986.14	212.50
986.43	212.81
986.72	212.62
987.01	212.19
987.30	212.12
987.59	212.14
987.89	212.14
988.18	211.69
988.47	211.31
988.76	211.26
989.05	211.21
989.34	210.88
989.63	211.52
989.92	211.02
990.22	210.67
990.51	210.62
990.80	210.52
991.09	210.26
991.38	210.36
991.67	210.31
991.96	210.10
992.25	209.74
992.54	209.36
992.83	209.60
993.12	209.69
993.41	210.02
993.70	210.81
993.99	211.19
994.28	211.50
994.58	211.88
994.87	211.60
995.16	211.57
995.45	211.36
995.74	210.69
996.03	211.12
996.32	211.71
996.61	212.12
996.90	211.93
997.19	212.07
997.48	212.07
997.77	211.71
998.06	212.02
998.34	211.95
998.63	211.83
998.92	211.69
999.21	211.79
999.50	211.93
999.79	211.17
1000.08	211.26
1000.37	211.24
1000.66	211.12
1000.95	211.81
1001.24	211.98
1001.53	212.29
1001.82	212.10
1002.11	211.52
1002.40	211.55
1002.68	212.02
1002.97	213.67
1003.26	213.52
1003.55	213.24
1003.84	213.29
1004.13	213.90
1004.42	213.81
1004.71	213.86
1004.99	213.86
1005.28	214.38
1005.57	214.12
1005.86	214.12
1006.15	213.64
1006.44	213.29
1006.72	213.33
1007.01	212.74
1007.30	212.74
1007.59	212.71
1007.88	212.88
1008.17	212.95
1008.45	212.29
1008.74	211.38
1009.03	210.21
1009.32	210.05
1009.60	210.24
1009.89	210.31
1010.18	209.45
1010.47	209.38
1010.76	209.40
1011.04	209.26
1011.33	208.95
1011.62	209.33
1011.91	209.12
1012.19	209.60
1012.48	209.55
1012.77	209.45
1013.05	210.29
1013.34	210.17
1013.63	209.76
1013.92	209.76
1014.20	209.71
1014.49	210.17
1014.78	210.33
1015.06	209.71
1015.35	209.83
1015.64	210.02
1015.92	210.24
1016.21	210.29
1016.50	210.29
1016.78	210.40
1017.07	210.64
1017.36	210.45
1017.64	210.00
1017.93	210.48
1018.22	210.14
1018.50	210.00
1018.79	210.10
1019.08	209.43
1019.36	209.60
1019.65	209.62
1019.93	210.10
1020.22	210.48
1020.51	211.21
1020.79	210.95
1021.08	209.00
1021.36	204.00
1021.65	211.00
1021.94	210.50
1022.22	212.00
1022.51	208.50
1022.79	217.00
1023.08	215.00
1023.36	232.00
1023.65	205.00
>>>>>End Processed Spectral Data<<<<<
