SpectraSuite Data File
++++++++++++++++++++++++++++++++++++
Date: Tue Apr 02 18:38:01 EDT 2013
User: group
Dark Spectrum Present: No
Reference Spectrum Present: No
Number of Sampled Component Spectra: 1
Spectrometers: USB2E7196
Integration Time (usec): 580000 (USB2E7196)
Spectra Averaged: 2 (USB2E7196)
Boxcar Smoothing: 10 (USB2E7196)
Correct for Electrical Dark: No (USB2E7196)
Strobe/Lamp Enabled: No (USB2E7196)
Correct for Detector Non-linearity: No (USB2E7196)
Correct for Stray Light: No (USB2E7196)
Number of Pixels in Processed Spectrum: 2048
>>>>>Begin Processed Spectral Data<<<<<
339.09	0.00
339.48	192.50
339.86	189.50
340.24	192.00
340.63	198.00
341.01	231.50
341.39	197.50
341.78	204.50
342.16	208.50
342.54	207.50
342.93	196.67
343.31	206.57
343.69	207.29
344.07	208.14
344.46	209.14
344.84	209.81
345.22	208.64
345.60	209.21
345.99	209.50
346.37	209.67
346.75	209.57
347.13	209.57
347.52	209.81
347.90	210.38
348.28	210.31
348.66	210.81
349.05	210.17
349.43	210.36
349.81	210.71
350.19	210.64
350.57	210.93
350.96	211.10
351.34	211.38
351.72	211.55
352.10	211.79
352.48	211.55
352.87	211.36
353.25	211.50
353.63	211.26
354.01	211.33
354.39	211.50
354.77	211.64
355.15	212.12
355.54	211.98
355.92	211.60
356.30	211.76
356.68	213.07
357.06	213.45
357.44	213.43
357.82	213.43
358.20	214.48
358.58	214.55
358.97	214.69
359.35	215.00
359.73	215.40
360.11	215.33
360.49	215.57
360.87	215.83
361.25	216.07
361.63	217.17
362.01	217.14
362.39	216.95
362.77	217.24
363.15	217.12
363.53	217.31
363.91	217.36
364.29	217.50
364.67	215.45
365.05	215.50
365.43	215.60
365.81	215.52
366.19	215.71
366.57	216.29
366.95	216.40
367.33	215.98
367.71	215.76
368.09	216.29
368.47	216.21
368.85	216.14
369.23	216.69
369.61	215.79
369.99	216.55
370.37	216.93
370.75	217.86
371.13	217.60
371.51	217.26
371.89	217.60
372.27	217.50
372.65	218.07
373.03	218.00
373.41	217.81
373.78	218.02
374.16	217.02
374.54	216.62
374.92	216.43
375.30	216.60
375.68	216.26
376.06	216.10
376.44	216.10
376.82	216.21
377.19	216.07
377.57	216.10
377.95	215.12
378.33	214.79
378.71	213.45
379.09	213.67
379.47	214.00
379.84	213.81
380.22	213.71
380.60	213.31
380.98	213.29
381.36	213.50
381.73	213.02
382.11	213.33
382.49	213.33
382.87	213.00
383.25	213.02
383.62	215.57
384.00	215.12
384.38	215.14
384.76	215.48
385.13	216.19
385.51	216.19
385.89	216.48
386.27	216.64
386.64	217.12
387.02	217.02
387.40	216.88
387.78	217.02
388.15	217.10
388.53	216.95
388.91	216.93
389.29	216.69
389.66	216.95
390.04	216.69
390.42	216.98
390.79	217.19
391.17	217.02
391.55	214.71
391.92	214.88
392.30	215.26
392.68	214.83
393.05	214.55
393.43	214.79
393.81	214.81
394.18	214.38
394.56	214.48
394.94	214.83
395.31	214.71
395.69	215.14
396.06	215.60
396.44	215.95
396.82	215.90
397.19	217.00
397.57	217.05
397.95	217.29
398.32	216.71
398.70	217.10
399.07	217.71
399.45	217.60
399.82	217.62
400.20	217.21
400.58	217.21
400.95	216.36
401.33	216.74
401.70	218.21
402.08	218.48
402.45	218.60
402.83	219.10
403.20	219.24
403.58	219.21
403.95	219.38
404.33	219.62
404.71	219.83
405.08	221.07
405.46	221.40
405.83	221.76
406.21	222.31
406.58	222.67
406.96	222.79
407.33	223.79
407.70	224.57
408.08	226.81
408.45	227.98
408.83	229.48
409.20	229.95
409.58	229.62
409.95	230.88
410.33	231.98
410.70	232.45
411.08	234.07
411.45	235.24
411.82	236.55
412.20	238.50
412.57	241.12
412.95	240.88
413.32	242.95
413.69	244.67
414.07	246.62
414.44	248.76
414.82	251.21
415.19	253.83
415.56	256.67
415.94	258.40
416.31	261.50
416.68	264.60
417.06	268.40
417.43	272.38
417.81	276.36
418.18	280.76
418.55	285.12
418.93	289.79
419.30	294.93
419.67	300.29
420.04	305.26
420.42	310.48
420.79	318.43
421.16	325.24
421.54	333.26
421.91	340.50
422.28	347.50
422.66	355.45
423.03	364.21
423.40	372.05
423.77	380.31
424.15	388.69
424.52	397.81
424.89	407.98
425.26	417.02
425.64	425.83
426.01	435.57
426.38	445.98
426.75	456.90
427.13	467.62
427.50	478.50
427.87	490.17
428.24	501.86
428.61	512.38
428.99	525.07
429.36	537.57
429.73	550.64
430.10	564.21
430.47	577.67
430.85	590.69
431.22	605.83
431.59	623.67
431.96	638.76
432.33	655.10
432.70	670.64
433.08	689.90
433.45	708.60
433.82	726.48
434.19	747.17
434.56	767.26
434.93	785.95
435.30	805.50
435.68	826.79
436.05	847.57
436.42	868.24
436.79	887.02
437.16	908.19
437.53	929.90
437.90	951.50
438.27	972.69
438.64	994.79
439.01	1015.98
439.38	1032.33
439.75	1050.38
440.13	1071.33
440.50	1091.05
440.87	1107.50
441.24	1123.95
441.61	1142.26
441.98	1155.55
442.35	1170.40
442.72	1186.67
443.09	1202.33
443.46	1211.62
443.83	1217.76
444.20	1223.52
444.57	1231.71
444.94	1235.05
445.31	1239.48
445.68	1245.69
446.05	1248.43
446.42	1246.81
446.79	1244.76
447.16	1243.43
447.53	1242.83
447.90	1235.60
448.27	1228.24
448.64	1217.24
449.01	1210.00
449.37	1196.36
449.74	1183.29
450.11	1169.74
450.48	1152.17
450.85	1133.98
451.22	1119.48
451.59	1105.86
451.96	1091.79
452.33	1072.67
452.70	1056.69
453.07	1036.55
453.43	1014.17
453.80	993.52
454.17	974.74
454.54	956.21
454.91	936.48
455.28	917.02
455.65	899.00
456.02	884.14
456.38	869.26
456.75	850.60
457.12	834.93
457.49	819.40
457.86	802.26
458.23	789.98
458.59	775.67
458.96	760.83
459.33	747.83
459.70	735.38
460.07	725.93
460.43	714.00
460.80	703.67
461.17	694.95
461.54	685.55
461.91	675.86
462.27	666.48
462.64	657.88
463.01	648.79
463.38	640.50
463.74	628.76
464.11	620.98
464.48	614.10
464.85	606.86
465.21	601.14
465.58	595.48
465.95	587.48
466.32	581.81
466.68	575.81
467.05	569.95
467.42	564.60
467.78	557.93
468.15	552.02
468.52	547.45
468.88	540.36
469.25	534.86
469.62	531.14
469.98	526.00
470.35	522.02
470.72	518.05
471.08	513.17
471.45	509.95
471.82	506.14
472.18	502.00
472.55	498.71
472.92	495.00
473.28	490.95
473.65	488.21
474.02	484.93
474.38	482.98
474.75	480.81
475.11	477.62
475.48	475.81
475.85	474.14
476.21	472.10
476.58	470.90
476.94	469.62
477.31	467.74
477.67	466.50
478.04	465.21
478.41	464.29
478.77	465.57
479.14	464.10
479.50	463.81
479.87	463.05
480.23	462.95
480.60	462.71
480.96	463.31
481.33	464.02
481.69	464.50
482.06	464.52
482.42	465.17
482.79	466.07
483.15	466.60
483.52	467.93
483.88	468.76
484.25	469.95
484.61	471.45
484.98	472.62
485.34	475.17
485.71	477.43
486.07	479.40
486.44	479.26
486.80	481.48
487.17	483.50
487.53	486.64
487.90	489.71
488.26	493.55
488.62	496.95
488.99	499.60
489.35	502.76
489.72	506.21
490.08	509.64
490.44	513.07
490.81	517.62
491.17	520.79
491.54	525.26
491.90	529.95
492.26	534.36
492.63	539.43
492.99	543.64
493.36	549.10
493.72	554.55
494.08	560.52
494.45	567.52
494.81	574.17
495.17	580.36
495.54	586.95
495.90	593.17
496.26	599.81
496.63	607.19
496.99	614.21
497.35	621.36
497.72	628.93
498.08	636.71
498.44	644.17
498.80	652.98
499.17	661.19
499.53	669.19
499.89	678.60
500.26	687.64
500.62	696.69
500.98	706.05
501.34	715.57
501.71	724.86
502.07	733.21
502.43	742.00
502.79	751.24
503.16	760.14
503.52	769.17
503.88	777.90
504.24	787.55
504.60	797.98
504.97	808.50
505.33	818.48
505.69	829.50
506.05	839.69
506.41	849.76
506.78	860.14
507.14	870.50
507.50	880.19
507.86	890.83
508.22	901.98
508.59	910.86
508.95	920.71
509.31	932.14
509.67	943.05
510.03	953.48
510.39	963.45
510.75	973.86
511.12	984.24
511.48	994.79
511.84	1005.02
512.20	1014.64
512.56	1024.88
512.92	1035.19
513.28	1044.74
513.64	1054.95
514.00	1064.10
514.37	1073.48
514.73	1083.10
515.09	1092.24
515.45	1101.17
515.81	1110.12
516.17	1119.45
516.53	1128.64
516.89	1135.90
517.25	1144.60
517.61	1152.60
517.97	1160.67
518.33	1168.81
518.69	1177.29
519.05	1185.12
519.41	1192.67
519.77	1201.38
520.13	1208.12
520.49	1215.05
520.85	1222.02
521.21	1229.67
521.57	1237.10
521.93	1243.64
522.29	1250.74
522.65	1257.88
523.01	1264.17
523.37	1269.67
523.73	1276.19
524.09	1281.48
524.45	1287.69
524.81	1292.55
525.17	1298.95
525.53	1305.26
525.89	1310.52
526.25	1315.76
526.61	1320.21
526.97	1324.45
527.33	1328.74
527.68	1335.81
528.04	1340.86
528.40	1344.57
528.76	1348.52
529.12	1353.10
529.48	1357.86
529.84	1361.43
530.20	1365.02
530.56	1368.67
530.91	1373.07
531.27	1377.24
531.63	1381.21
531.99	1384.48
532.35	1387.38
532.71	1390.00
533.07	1393.26
533.42	1399.05
533.78	1402.10
534.14	1406.64
534.50	1410.07
534.86	1413.64
535.21	1414.19
535.57	1417.36
535.93	1419.98
536.29	1423.55
536.65	1426.62
537.00	1428.83
537.36	1431.52
537.72	1434.05
538.08	1436.69
538.44	1438.33
538.79	1440.07
539.15	1441.79
539.51	1444.12
539.87	1446.74
540.22	1448.86
540.58	1450.43
540.94	1450.43
541.29	1451.74
541.65	1452.24
542.01	1453.98
542.37	1454.33
542.72	1454.74
543.08	1454.21
543.44	1455.45
543.79	1454.12
544.15	1453.98
544.51	1454.02
544.87	1454.62
545.22	1454.62
545.58	1453.60
545.94	1452.60
546.29	1452.10
546.65	1451.17
547.01	1449.88
547.36	1449.43
547.72	1448.50
548.07	1447.40
548.43	1445.64
548.79	1443.76
549.14	1442.12
549.50	1440.21
549.86	1438.19
550.21	1438.19
550.57	1437.79
550.92	1435.55
551.28	1435.05
551.64	1433.76
551.99	1432.40
552.35	1429.86
552.70	1427.67
553.06	1427.29
553.41	1426.55
553.77	1425.93
554.13	1425.24
554.48	1425.07
554.84	1423.64
555.19	1422.64
555.55	1422.43
555.90	1421.36
556.26	1419.95
556.61	1418.43
556.97	1417.50
557.32	1415.95
557.68	1412.60
558.03	1411.50
558.39	1410.76
558.74	1408.43
559.10	1406.33
559.45	1405.55
559.81	1404.26
560.16	1402.57
560.52	1400.31
560.87	1399.10
561.23	1397.02
561.58	1397.38
561.94	1394.02
562.29	1392.00
562.64	1390.83
563.00	1387.71
563.35	1385.50
563.71	1384.64
564.06	1383.45
564.42	1381.76
564.77	1380.88
565.12	1381.33
565.48	1380.76
565.83	1380.38
566.19	1379.83
566.54	1378.55
566.89	1376.14
567.25	1375.50
567.60	1376.48
567.96	1377.24
568.31	1376.76
568.66	1375.74
569.02	1372.24
569.37	1371.26
569.72	1369.93
570.08	1367.05
570.43	1365.93
570.78	1364.69
571.14	1362.79
571.49	1360.88
571.84	1358.90
572.20	1356.83
572.55	1353.71
572.90	1349.93
573.26	1346.43
573.61	1343.40
573.96	1341.31
574.31	1337.98
574.67	1334.57
575.02	1329.57
575.37	1325.69
575.72	1321.14
576.08	1316.98
576.43	1313.81
576.78	1309.88
577.13	1306.43
577.49	1303.24
577.84	1300.21
578.19	1295.50
578.54	1292.12
578.90	1289.07
579.25	1285.55
579.60	1281.45
579.95	1276.88
580.30	1272.48
580.66	1269.62
581.01	1265.45
581.36	1260.67
581.71	1257.48
582.06	1254.86
582.42	1252.17
582.77	1246.64
583.12	1242.90
583.47	1239.07
583.82	1235.00
584.17	1231.55
584.53	1228.62
584.88	1224.50
585.23	1220.95
585.58	1217.60
585.93	1213.14
586.28	1208.95
586.63	1204.69
586.98	1200.95
587.34	1198.81
587.69	1194.52
588.04	1189.40
588.39	1185.29
588.74	1180.57
589.09	1176.26
589.44	1169.31
589.79	1164.71
590.14	1161.21
590.49	1156.48
590.84	1152.24
591.19	1147.26
591.54	1143.19
591.89	1137.38
592.25	1134.98
592.60	1129.29
592.95	1124.60
593.30	1119.76
593.65	1113.93
594.00	1108.21
594.35	1109.33
594.70	1103.43
595.05	1100.05
595.40	1095.69
595.75	1091.19
596.10	1087.81
596.45	1084.00
596.80	1080.00
597.15	1075.07
597.50	1070.07
597.85	1066.76
598.19	1062.43
598.54	1058.57
598.89	1053.69
599.24	1050.10
599.59	1044.67
599.94	1040.21
600.29	1036.05
600.64	1032.12
600.99	1029.33
601.34	1026.60
601.69	1015.88
602.04	1011.62
602.39	1006.60
602.74	1001.93
603.08	997.19
603.43	993.26
603.78	988.50
604.13	984.98
604.48	980.00
604.83	976.29
605.18	971.19
605.53	966.29
605.87	961.55
606.22	957.48
606.57	952.64
606.92	947.38
607.27	943.31
607.62	939.36
607.96	935.19
608.31	930.76
608.66	925.74
609.01	921.62
609.36	917.57
609.70	912.86
610.05	908.62
610.40	904.95
610.75	899.95
611.10	895.79
611.44	890.83
611.79	886.98
612.14	882.43
612.49	877.33
612.83	873.50
613.18	868.93
613.53	864.67
613.88	859.79
614.22	854.76
614.57	849.67
614.92	844.95
615.27	840.45
615.61	835.33
615.96	830.62
616.31	826.43
616.65	823.00
617.00	819.38
617.35	815.38
617.70	810.93
618.04	806.55
618.39	801.76
618.74	797.71
619.08	792.93
619.43	788.07
619.78	784.60
620.12	780.10
620.47	776.69
620.82	772.12
621.16	768.00
621.51	766.10
621.85	762.29
622.20	758.36
622.55	753.55
622.89	749.95
623.24	746.69
623.59	742.36
623.93	737.71
624.28	733.83
624.62	731.67
624.97	729.17
625.32	725.57
625.66	722.43
626.01	718.62
626.35	715.60
626.70	712.62
627.04	709.31
627.39	705.62
627.73	702.83
628.08	699.76
628.43	696.21
628.77	690.95
629.12	687.86
629.46	684.12
629.81	681.71
630.15	678.02
630.50	674.38
630.84	671.69
631.19	668.21
631.53	664.90
631.88	659.24
632.22	654.29
632.57	651.52
632.91	647.69
633.26	644.79
633.60	640.93
633.95	637.17
634.29	633.48
634.64	630.24
634.98	625.88
635.32	623.21
635.67	620.67
636.01	618.02
636.36	614.48
636.70	611.62
637.05	608.10
637.39	605.31
637.73	602.45
638.08	599.14
638.42	596.52
638.77	593.43
639.11	590.93
639.45	588.02
639.80	584.45
640.14	581.86
640.49	578.83
640.83	575.69
641.17	572.79
641.52	569.76
641.86	566.71
642.20	564.40
642.55	560.50
642.89	557.74
643.23	554.93
643.58	552.86
643.92	549.29
644.26	546.17
644.61	543.31
644.95	540.21
645.29	536.71
645.64	533.86
645.98	530.71
646.32	527.52
646.66	524.33
647.01	520.98
647.35	517.93
647.69	514.90
648.04	512.50
648.38	509.88
648.72	507.14
649.06	504.76
649.41	501.50
649.75	498.83
650.09	496.05
650.43	493.17
650.78	489.83
651.12	487.79
651.46	485.14
651.80	482.31
652.14	479.55
652.49	478.05
652.83	475.02
653.17	472.60
653.51	470.40
653.85	468.88
654.20	466.69
654.54	464.07
654.88	461.57
655.22	460.07
655.56	457.55
655.90	454.76
656.25	452.21
656.59	450.33
656.93	448.36
657.27	446.26
657.61	443.52
657.95	441.67
658.29	439.14
658.64	437.83
658.98	435.62
659.32	433.52
659.66	431.38
660.00	429.62
660.34	427.79
660.68	425.50
661.02	423.02
661.36	420.81
661.70	419.05
662.05	417.40
662.39	415.07
662.73	413.95
663.07	413.55
663.41	411.98
663.75	409.62
664.09	407.86
664.43	405.71
664.77	404.19
665.11	401.93
665.45	400.64
665.79	398.67
666.13	396.88
666.47	394.95
666.81	393.19
667.15	390.95
667.49	389.14
667.83	388.45
668.17	386.95
668.51	385.67
668.85	384.33
669.19	383.81
669.53	381.60
669.87	379.71
670.21	377.21
670.55	375.81
670.89	375.45
671.23	373.79
671.57	372.17
671.91	370.88
672.25	369.88
672.58	369.19
672.92	367.69
673.26	366.29
673.60	365.60
673.94	364.12
674.28	363.29
674.62	362.48
674.96	360.64
675.30	359.38
675.64	358.24
675.97	357.00
676.31	354.98
676.65	354.14
676.99	353.45
677.33	352.43
677.67	351.12
678.01	349.00
678.34	347.76
678.68	347.29
679.02	346.12
679.36	344.50
679.70	342.71
680.04	341.31
680.37	340.43
680.71	339.05
681.05	337.88
681.39	336.69
681.73	335.02
682.06	333.62
682.40	332.29
682.74	331.40
683.08	331.05
683.42	329.83
683.75	328.83
684.09	327.02
684.43	325.79
684.77	324.52
685.10	323.62
685.44	322.69
685.78	321.52
686.12	320.48
686.45	319.64
686.79	318.21
687.13	317.52
687.46	316.55
687.80	315.76
688.14	314.95
688.48	313.95
688.81	313.07
689.15	312.76
689.49	311.67
689.82	310.12
690.16	308.05
690.50	306.86
690.83	305.38
691.17	304.24
691.51	303.14
691.84	302.52
692.18	301.38
692.52	300.33
692.85	299.62
693.19	299.33
693.52	298.36
693.86	297.40
694.20	296.52
694.53	295.55
694.87	294.43
695.21	293.19
695.54	292.29
695.88	291.12
696.21	289.57
696.55	289.31
696.88	288.95
697.22	288.14
697.56	287.67
697.89	287.00
698.23	286.71
698.56	286.00
698.90	285.17
699.23	284.36
699.57	283.50
699.90	282.19
700.24	281.07
700.58	280.55
700.91	280.29
701.25	281.10
701.58	281.29
701.92	280.83
702.25	280.43
702.59	279.52
702.92	278.95
703.26	278.57
703.59	277.79
703.93	278.55
704.26	278.26
704.60	277.62
704.93	277.19
705.26	276.10
705.60	275.98
705.93	275.00
706.27	275.02
706.60	275.21
706.94	275.31
707.27	274.36
707.61	273.67
707.94	272.81
708.27	270.64
708.61	269.14
708.94	268.57
709.28	267.95
709.61	267.33
709.94	267.02
710.28	266.55
710.61	265.79
710.95	263.64
711.28	264.33
711.61	264.00
711.95	264.02
712.28	263.52
712.61	262.71
712.95	263.36
713.28	263.71
713.61	262.62
713.95	261.67
714.28	261.40
714.61	260.74
714.95	260.38
715.28	259.55
715.61	259.00
715.95	258.67
716.28	257.98
716.61	258.26
716.95	257.40
717.28	256.86
717.61	256.57
717.94	256.05
718.28	254.12
718.61	253.57
718.94	252.45
719.27	252.17
719.61	252.14
719.94	251.02
720.27	249.31
720.60	248.83
720.94	248.36
721.27	248.17
721.60	248.26
721.93	247.88
722.27	248.36
722.60	248.24
722.93	247.62
723.26	247.43
723.59	246.26
723.93	246.29
724.26	246.36
724.59	245.76
724.92	245.57
725.25	246.00
725.59	245.45
725.92	245.60
726.25	245.14
726.58	244.52
726.91	244.29
727.24	244.38
727.57	244.07
727.91	243.45
728.24	243.14
728.57	242.57
728.90	242.40
729.23	241.33
729.56	242.19
729.89	242.02
730.22	241.71
730.55	241.83
730.89	241.71
731.22	241.21
731.55	241.05
731.88	240.93
732.21	240.19
732.54	239.86
732.87	239.40
733.20	239.33
733.53	239.21
733.86	239.02
734.19	238.36
734.52	238.52
734.85	239.90
735.18	239.55
735.51	240.24
735.84	240.07
736.17	240.55
736.50	239.05
736.83	241.07
737.16	240.95
737.49	240.74
737.82	240.12
738.15	239.95
738.48	239.74
738.81	239.14
739.14	238.69
739.47	238.38
739.80	238.14
740.13	238.36
740.46	237.69
740.79	237.07
741.12	237.17
741.45	236.83
741.78	235.52
742.11	235.93
742.44	234.98
742.77	235.07
743.10	234.64
743.43	234.24
743.75	231.95
744.08	234.50
744.41	234.12
744.74	233.95
745.07	233.55
745.40	233.71
745.73	234.69
746.06	234.52
746.39	234.81
746.71	234.57
747.04	233.83
747.37	233.71
747.70	234.31
748.03	234.14
748.36	234.12
748.68	233.86
749.01	232.71
749.34	232.45
749.67	232.05
750.00	232.02
750.33	233.64
750.65	233.76
750.98	230.79
751.31	230.81
751.64	230.90
751.97	231.88
752.29	231.33
752.62	230.31
752.95	230.19
753.28	229.60
753.60	229.40
753.93	230.00
754.26	230.17
754.59	229.24
754.91	228.64
755.24	228.29
755.57	228.05
755.90	228.12
756.22	228.12
756.55	227.76
756.88	227.33
757.20	225.71
757.53	224.79
757.86	224.60
758.19	224.60
758.51	224.17
758.84	222.81
759.17	222.90
759.49	222.98
759.82	223.76
760.15	223.83
760.47	223.83
760.80	223.10
761.13	223.14
761.45	222.81
761.78	222.90
762.11	223.10
762.43	222.76
762.76	222.64
763.08	222.69
763.41	222.57
763.74	222.62
764.06	222.62
764.39	222.90
764.71	223.00
765.04	222.50
765.37	222.36
765.69	222.36
766.02	222.10
766.34	221.79
766.67	220.95
767.00	221.26
767.32	222.21
767.65	223.26
767.97	223.19
768.30	223.33
768.62	223.10
768.95	222.45
769.27	222.60
769.60	222.88
769.92	222.48
770.25	222.29
770.57	221.88
770.90	221.88
771.22	221.43
771.55	221.48
771.87	221.71
772.20	221.74
772.52	223.36
772.85	225.90
773.17	225.93
773.50	225.57
773.82	225.45
774.15	224.38
774.47	223.05
774.80	222.69
775.12	222.52
775.45	222.76
775.77	222.98
776.09	223.21
776.42	223.00
776.74	223.76
777.07	223.62
777.39	223.60
777.72	223.36
778.04	223.43
778.36	223.24
778.69	223.17
779.01	223.21
779.33	221.36
779.66	218.86
779.98	218.40
780.31	218.74
780.63	219.40
780.95	219.69
781.28	219.67
781.60	219.67
781.92	219.83
782.25	219.60
782.57	219.45
782.89	219.12
783.22	218.98
783.54	218.14
783.86	218.29
784.19	218.31
784.51	218.86
784.83	218.67
785.16	218.74
785.48	218.48
785.80	218.52
786.12	218.93
786.45	218.76
786.77	218.81
787.09	218.50
787.42	217.74
787.74	217.64
788.06	217.81
788.38	217.60
788.71	217.26
789.03	217.48
789.35	217.71
789.67	217.43
789.99	217.69
790.32	217.64
790.64	218.02
790.96	219.57
791.28	219.05
791.61	219.19
791.93	218.90
792.25	219.14
792.57	220.43
792.89	219.71
793.21	219.52
793.54	219.67
793.86	219.55
794.18	219.52
794.50	219.10
794.82	218.90
795.14	218.93
795.47	219.52
795.79	219.64
796.11	219.21
796.43	218.95
796.75	218.88
797.07	218.95
797.39	218.57
797.71	216.88
798.04	216.88
798.36	216.98
798.68	217.05
799.00	217.17
799.32	216.10
799.64	216.67
799.96	217.00
800.28	217.38
800.60	217.38
800.92	217.43
801.24	217.45
801.56	217.55
801.89	217.67
802.21	217.67
802.53	217.36
802.85	217.90
803.17	218.95
803.49	218.33
803.81	218.21
804.13	218.31
804.45	218.38
804.77	218.50
805.09	218.43
805.41	218.19
805.73	217.69
806.05	217.26
806.37	217.00
806.69	216.76
807.01	216.48
807.33	216.50
807.65	215.86
807.97	216.88
808.28	216.64
808.60	216.36
808.92	216.12
809.24	217.17
809.56	216.76
809.88	215.76
810.20	216.19
810.52	216.45
810.84	216.10
811.16	215.71
811.48	215.69
811.80	216.55
812.12	216.62
812.43	217.07
812.75	217.12
813.07	217.00
813.39	217.26
813.71	217.14
814.03	217.00
814.35	217.10
814.67	216.12
814.98	216.00
815.30	215.95
815.62	215.76
815.94	214.33
816.26	214.31
816.58	214.24
816.89	214.24
817.21	213.76
817.53	213.88
817.85	214.10
818.17	213.88
818.48	212.79
818.80	213.17
819.12	212.86
819.44	212.52
819.76	212.29
820.07	212.21
820.39	212.07
820.71	212.29
821.03	212.40
821.34	212.31
821.66	212.76
821.98	213.17
822.30	212.98
822.61	214.36
822.93	214.31
823.25	214.36
823.57	214.05
823.88	214.43
824.20	214.45
824.52	214.88
824.83	214.71
825.15	214.50
825.47	214.45
825.79	214.74
826.10	214.71
826.42	214.64
826.74	214.79
827.05	214.83
827.37	214.88
827.69	214.79
828.00	214.88
828.32	214.93
828.64	214.60
828.95	215.57
829.27	214.98
829.58	215.00
829.90	215.52
830.22	215.98
830.53	215.62
830.85	215.43
831.17	214.76
831.48	214.81
831.80	215.10
832.11	214.57
832.43	214.17
832.75	214.19
833.06	215.55
833.38	215.00
833.69	214.83
834.01	215.00
834.32	214.79
834.64	214.60
834.96	214.40
835.27	214.36
835.59	213.67
835.90	213.05
836.22	212.95
836.53	212.24
836.85	211.81
837.16	213.90
837.48	213.83
837.79	214.60
838.11	214.69
838.42	214.67
838.74	215.00
839.05	214.76
839.37	214.62
839.68	213.19
840.00	213.05
840.31	213.36
840.63	213.26
840.94	213.24
841.26	213.14
841.57	213.14
841.88	213.40
842.20	213.26
842.51	213.24
842.83	213.55
843.14	215.45
843.46	215.55
843.77	214.33
844.08	214.31
844.40	213.57
844.71	213.64
845.03	213.50
845.34	213.33
845.65	213.45
845.97	213.76
846.28	214.07
846.60	214.38
846.91	214.19
847.22	214.00
847.54	214.31
847.85	214.45
848.16	214.26
848.48	213.88
848.79	214.88
849.10	215.14
849.42	215.24
849.73	213.40
850.04	213.38
850.36	212.40
850.67	212.74
850.98	212.83
851.30	212.83
851.61	212.69
851.92	213.02
852.23	213.67
852.55	213.67
852.86	213.64
853.17	213.67
853.49	214.14
853.80	214.48
854.11	214.86
854.42	214.95
854.74	214.76
855.05	215.05
855.36	213.79
855.67	213.76
855.99	213.36
856.30	215.81
856.61	215.62
856.92	216.05
857.23	215.98
857.55	215.90
857.86	215.74
858.17	216.12
858.48	215.62
858.79	215.10
859.11	215.21
859.42	215.19
859.73	214.83
860.04	214.52
860.35	214.05
860.66	213.21
860.98	213.48
861.29	213.71
861.60	213.36
861.91	214.05
862.22	213.76
862.53	213.64
862.84	211.40
863.16	212.05
863.47	211.83
863.78	211.93
864.09	212.05
864.40	212.10
864.71	212.26
865.02	212.48
865.33	212.31
865.64	211.98
865.95	211.90
866.27	213.31
866.58	213.19
866.89	213.45
867.20	213.52
867.51	213.02
867.82	212.93
868.13	213.69
868.44	213.10
868.75	213.60
869.06	213.62
869.37	213.83
869.68	213.26
869.99	213.40
870.30	213.26
870.61	213.55
870.92	213.40
871.23	213.12
871.54	213.40
871.85	214.24
872.16	214.57
872.47	214.21
872.78	213.26
873.09	213.55
873.40	213.14
873.71	213.60
874.02	213.79
874.33	213.79
874.64	213.10
874.95	213.57
875.26	212.95
875.56	213.05
875.87	212.74
876.18	212.55
876.49	214.40
876.80	214.24
877.11	213.64
877.42	213.62
877.73	213.83
878.04	213.45
878.35	213.12
878.66	212.98
878.96	213.29
879.27	213.17
879.58	212.67
879.89	212.64
880.20	212.95
880.51	212.69
880.82	212.64
881.12	212.95
881.43	212.48
881.74	212.52
882.05	212.45
882.36	212.64
882.67	212.93
882.97	210.69
883.28	210.57
883.59	210.67
883.90	210.81
884.21	210.81
884.51	210.81
884.82	210.62
885.13	210.74
885.44	210.90
885.74	210.88
886.05	211.02
886.36	211.48
886.67	210.67
886.98	211.86
887.28	212.14
887.59	211.88
887.90	211.93
888.20	211.88
888.51	212.31
888.82	211.95
889.13	211.93
889.43	213.98
889.74	213.98
890.05	213.88
890.35	213.86
890.66	213.69
890.97	213.55
891.28	213.29
891.58	213.40
891.89	212.95
892.20	212.69
892.50	212.55
892.81	212.33
893.12	212.48
893.42	211.50
893.73	211.40
894.04	211.55
894.34	211.81
894.65	211.93
894.95	211.57
895.26	211.79
895.57	212.98
895.87	211.10
896.18	211.50
896.48	211.83
896.79	211.86
897.10	212.00
897.40	212.21
897.71	212.57
898.01	212.36
898.32	213.02
898.63	213.00
898.93	213.19
899.24	213.14
899.54	212.93
899.85	212.95
900.15	212.69
900.46	212.86
900.76	213.02
901.07	212.98
901.38	212.86
901.68	213.31
901.99	212.14
902.29	212.14
902.60	211.98
902.90	211.81
903.21	211.71
903.51	211.83
903.82	212.14
904.12	212.36
904.43	212.55
904.73	212.14
905.03	212.48
905.34	214.38
905.64	214.31
905.95	214.52
906.25	214.40
906.56	214.43
906.86	214.31
907.17	214.05
907.47	213.93
907.77	213.81
908.08	213.29
908.38	213.43
908.69	213.52
908.99	213.90
909.30	213.93
909.60	214.00
909.90	214.00
910.21	213.48
910.51	213.00
910.81	212.95
911.12	213.14
911.42	213.02
911.73	210.86
912.03	210.93
912.33	211.19
912.64	211.29
912.94	211.21
913.24	211.07
913.55	210.93
913.85	210.95
914.15	211.26
914.46	211.52
914.76	211.21
915.06	211.26
915.37	210.71
915.67	210.55
915.97	210.40
916.27	210.12
916.58	210.36
916.88	210.21
917.18	210.33
917.49	211.62
917.79	211.60
918.09	211.93
918.39	212.64
918.70	212.60
919.00	212.62
919.30	213.71
919.60	213.76
919.91	213.67
920.21	213.83
920.51	213.62
920.81	213.64
921.12	214.12
921.42	213.86
921.72	214.19
922.02	214.40
922.32	214.83
922.63	214.86
922.93	215.83
923.23	215.98
923.53	215.40
923.83	214.38
924.13	214.64
924.44	214.50
924.74	214.60
925.04	215.00
925.34	214.98
925.64	214.12
925.94	214.02
926.24	215.12
926.55	214.79
926.85	214.90
927.15	214.69
927.45	214.55
927.75	214.48
928.05	214.43
928.35	214.29
928.65	214.62
928.95	214.64
929.26	213.81
929.56	214.10
929.86	214.52
930.16	214.19
930.46	214.24
930.76	214.52
931.06	213.67
931.36	213.21
931.66	213.45
931.96	213.62
932.26	213.71
932.56	212.86
932.86	213.17
933.16	213.31
933.46	213.12
933.76	212.88
934.06	213.50
934.36	214.17
934.66	214.10
934.96	213.90
935.26	214.10
935.56	214.43
935.86	213.90
936.16	213.57
936.46	213.40
936.76	212.98
937.06	212.62
937.36	212.76
937.66	212.86
937.96	212.83
938.26	212.48
938.56	212.36
938.86	212.55
939.16	213.02
939.46	213.24
939.76	213.45
940.06	213.57
940.35	213.24
940.65	212.19
940.95	212.48
941.25	211.71
941.55	211.40
941.85	211.19
942.15	211.83
942.45	212.17
942.75	212.00
943.04	212.29
943.34	212.76
943.64	212.52
943.94	212.10
944.24	212.10
944.54	212.17
944.84	212.26
945.13	211.81
945.43	211.31
945.73	210.93
946.03	210.57
946.33	210.33
946.62	210.17
946.92	210.26
947.22	210.38
947.52	210.76
947.82	210.98
948.11	210.67
948.41	210.19
948.71	209.74
949.01	210.10
949.31	209.71
949.60	209.43
949.90	209.86
950.20	209.95
950.50	210.17
950.79	209.93
951.09	209.88
951.39	210.12
951.69	209.95
951.98	210.50
952.28	210.79
952.58	210.76
952.87	210.69
953.17	210.88
953.47	210.50
953.76	210.48
954.06	210.10
954.36	209.90
954.66	209.69
954.95	210.38
955.25	210.40
955.55	210.74
955.84	210.33
956.14	210.48
956.44	210.38
956.73	209.57
957.03	209.76
957.32	209.88
957.62	209.76
957.92	210.21
958.21	209.76
958.51	212.05
958.81	212.29
959.10	212.69
959.40	213.21
959.69	213.33
959.99	213.57
960.29	213.67
960.58	213.52
960.88	214.26
961.17	213.98
961.47	214.05
961.76	213.81
962.06	214.48
962.36	214.02
962.65	214.38
962.95	214.67
963.24	214.57
963.54	214.55
963.83	214.81
964.13	214.79
964.42	214.45
964.72	212.90
965.01	212.93
965.31	212.69
965.60	212.02
965.90	213.24
966.19	212.83
966.49	212.98
966.78	213.05
967.08	213.07
967.37	213.00
967.67	212.81
967.96	213.17
968.26	213.00
968.55	213.29
968.85	213.07
969.14	213.19
969.43	213.14
969.73	213.02
970.02	212.67
970.32	212.52
970.61	212.62
970.91	212.00
971.20	211.81
971.49	211.71
971.79	211.95
972.08	210.79
972.38	210.98
972.67	210.76
972.96	211.26
973.26	210.88
973.55	211.60
973.85	211.48
974.14	211.29
974.43	211.33
974.73	211.12
975.02	210.98
975.31	210.79
975.61	210.86
975.90	210.52
976.19	210.50
976.49	210.45
976.78	210.67
977.07	210.55
977.37	210.62
977.66	210.74
977.95	210.71
978.24	210.69
978.54	210.98
978.83	211.00
979.12	210.69
979.42	210.67
979.71	210.26
980.00	210.33
980.29	210.43
980.59	209.83
980.88	210.36
981.17	210.24
981.46	210.38
981.76	210.29
982.05	211.12
982.34	211.29
982.63	211.33
982.93	211.31
983.22	211.98
983.51	211.86
983.80	212.33
984.09	212.31
984.39	212.26
984.68	212.07
984.97	212.17
985.26	211.95
985.55	212.05
985.85	211.52
986.14	211.71
986.43	211.93
986.72	212.26
987.01	211.69
987.30	211.93
987.59	211.83
987.89	212.07
988.18	211.40
988.47	211.31
988.76	211.10
989.05	210.81
989.34	210.33
989.63	211.17
989.92	210.38
990.22	210.43
990.51	210.33
990.80	210.10
991.09	210.26
991.38	210.45
991.67	210.21
991.96	210.36
992.25	210.36
992.54	209.83
992.83	209.69
993.12	209.48
993.41	209.71
993.70	210.57
993.99	210.88
994.28	211.40
994.58	211.57
994.87	211.48
995.16	211.40
995.45	211.48
995.74	210.71
996.03	211.12
996.32	211.24
996.61	211.57
996.90	211.38
997.19	211.36
997.48	211.64
997.77	211.55
998.06	211.55
998.34	211.40
998.63	211.52
998.92	211.55
999.21	211.90
999.50	211.88
999.79	211.14
1000.08	211.00
1000.37	210.69
1000.66	210.45
1000.95	211.14
1001.24	211.38
1001.53	211.31
1001.82	211.14
1002.11	210.67
1002.40	210.83
1002.68	211.14
1002.97	212.76
1003.26	212.36
1003.55	211.95
1003.84	212.14
1004.13	212.74
1004.42	212.71
1004.71	212.60
1004.99	212.55
1005.28	213.12
1005.57	212.88
1005.86	212.74
1006.15	212.64
1006.44	212.48
1006.72	212.79
1007.01	212.40
1007.30	212.24
1007.59	212.05
1007.88	212.05
1008.17	212.12
1008.45	211.86
1008.74	211.29
1009.03	210.36
1009.32	210.31
1009.60	210.17
1009.89	210.00
1010.18	209.26
1010.47	209.00
1010.76	209.10
1011.04	209.05
1011.33	209.02
1011.62	209.12
1011.91	209.19
1012.19	209.21
1012.48	209.17
1012.77	209.19
1013.05	210.05
1013.34	210.36
1013.63	210.19
1013.92	210.31
1014.20	210.36
1014.49	210.36
1014.78	210.36
1015.06	209.79
1015.35	209.83
1015.64	210.38
1015.92	211.00
1016.21	211.24
1016.50	211.38
1016.78	211.55
1017.07	211.52
1017.36	211.07
1017.64	210.81
1017.93	210.98
1018.22	210.81
1018.50	210.76
1018.79	210.33
1019.08	209.21
1019.36	209.02
1019.65	209.17
1019.93	209.64
1020.22	210.12
1020.51	211.10
1020.79	210.83
1021.08	208.50
1021.36	204.50
1021.65	206.00
1021.94	207.00
1022.22	208.00
1022.51	209.00
1022.79	218.00
1023.08	215.50
1023.36	235.00
1023.65	202.00
>>>>>End Processed Spectral Data<<<<<
