SpectraSuite Data File
++++++++++++++++++++++++++++++++++++
Date: Tue Apr 02 18:42:36 EDT 2013
User: group
Dark Spectrum Present: No
Reference Spectrum Present: No
Number of Sampled Component Spectra: 1
Spectrometers: USB2E7196
Integration Time (usec): 580000 (USB2E7196)
Spectra Averaged: 2 (USB2E7196)
Boxcar Smoothing: 10 (USB2E7196)
Correct for Electrical Dark: No (USB2E7196)
Strobe/Lamp Enabled: No (USB2E7196)
Correct for Detector Non-linearity: No (USB2E7196)
Correct for Stray Light: No (USB2E7196)
Number of Pixels in Processed Spectrum: 2048
>>>>>Begin Processed Spectral Data<<<<<
339.09	0.00
339.48	191.50
339.86	196.00
340.24	198.00
340.63	198.50
341.01	232.00
341.39	199.00
341.78	204.50
342.16	210.50
342.54	203.00
342.93	197.52
343.31	207.29
343.69	208.12
344.07	208.62
344.46	209.38
344.84	209.83
345.22	208.71
345.60	209.24
345.99	209.45
346.37	209.48
346.75	209.62
347.13	209.57
347.52	209.57
347.90	210.10
348.28	210.14
348.66	210.69
349.05	210.19
349.43	210.43
349.81	210.71
350.19	210.93
350.57	211.24
350.96	211.45
351.34	211.69
351.72	211.76
352.10	212.00
352.48	211.86
352.87	211.81
353.25	211.81
353.63	211.62
354.01	211.86
354.39	212.02
354.77	212.24
355.15	212.81
355.54	212.62
355.92	212.24
356.30	212.40
356.68	213.86
357.06	213.98
357.44	213.64
357.82	213.76
358.20	214.81
358.58	214.69
358.97	214.74
359.35	215.33
359.73	216.05
360.11	215.98
360.49	216.07
360.87	216.07
361.25	216.29
361.63	217.24
362.01	217.36
362.39	217.26
362.77	217.50
363.15	217.36
363.53	217.40
363.91	217.43
364.29	217.24
364.67	214.98
365.05	215.07
365.43	215.24
365.81	215.29
366.19	215.26
366.57	215.90
366.95	215.67
367.33	215.17
367.71	214.88
368.09	215.36
368.47	215.40
368.85	215.33
369.23	215.90
369.61	215.17
369.99	215.64
370.37	215.60
370.75	216.50
371.13	216.17
371.51	215.90
371.89	216.14
372.27	216.45
372.65	216.74
373.03	216.74
373.41	216.67
373.78	216.40
374.16	215.24
374.54	214.67
374.92	214.67
375.30	214.52
375.68	213.90
376.06	213.90
376.44	213.71
376.82	214.07
377.19	213.88
377.57	213.71
377.95	213.00
378.33	213.05
378.71	211.74
379.09	212.19
379.47	212.57
379.84	212.14
380.22	211.62
380.60	211.29
380.98	211.14
381.36	211.02
381.73	210.81
382.11	211.40
382.49	211.55
382.87	211.31
383.25	211.52
383.62	214.14
384.00	213.55
384.38	213.60
384.76	214.10
385.13	214.76
385.51	214.88
385.89	214.71
386.27	214.83
386.64	215.17
387.02	214.88
387.40	214.81
387.78	215.17
388.15	215.57
388.53	215.43
388.91	215.57
389.29	215.60
389.66	216.12
390.04	215.76
390.42	216.10
390.79	216.43
391.17	216.24
391.55	213.86
391.92	213.98
392.30	214.19
392.68	213.52
393.05	213.31
393.43	213.21
393.81	213.33
394.18	213.10
394.56	213.24
394.94	213.71
395.31	213.33
395.69	213.86
396.06	213.93
396.44	214.21
396.82	213.93
397.19	215.21
397.57	215.10
397.95	215.52
398.32	214.98
398.70	215.12
399.07	215.57
399.45	215.38
399.82	215.24
400.20	215.10
400.58	215.10
400.95	214.45
401.33	214.88
401.70	216.26
402.08	216.29
402.45	216.31
402.83	216.98
403.20	217.36
403.58	217.17
403.95	217.69
404.33	218.10
404.71	218.40
405.08	219.60
405.46	219.95
405.83	220.14
406.21	220.57
406.58	220.88
406.96	221.17
407.33	222.17
407.70	223.10
408.08	225.38
408.45	226.55
408.83	227.57
409.20	228.10
409.58	227.74
409.95	229.07
410.33	229.86
410.70	229.90
411.08	231.17
411.45	232.02
411.82	232.67
412.20	234.38
412.57	236.76
412.95	236.19
413.32	237.86
413.69	239.43
414.07	241.02
414.44	242.81
414.82	244.74
415.19	246.95
415.56	249.07
415.94	250.24
416.31	252.98
416.68	255.76
417.06	259.45
417.43	263.17
417.81	266.76
418.18	270.62
418.55	274.57
418.93	278.40
419.30	282.71
419.67	287.60
420.04	291.76
420.42	295.86
420.79	302.90
421.16	308.05
421.54	314.90
421.91	320.95
422.28	327.31
422.66	334.10
423.03	342.19
423.40	349.19
423.77	356.02
424.15	363.31
424.52	370.62
424.89	379.12
425.26	386.60
425.64	394.02
426.01	402.26
426.38	410.52
426.75	420.33
427.13	429.74
427.50	439.21
427.87	449.60
428.24	460.17
428.61	468.76
428.99	480.33
429.36	490.48
429.73	501.86
430.10	513.33
430.47	525.43
430.85	536.00
431.22	548.90
431.59	563.71
431.96	576.81
432.33	591.14
432.70	604.71
433.08	620.93
433.45	636.38
433.82	652.00
434.19	669.55
434.56	686.38
434.93	702.26
435.30	718.29
435.68	735.71
436.05	753.02
436.42	770.12
436.79	786.17
437.16	804.10
437.53	822.55
437.90	841.05
438.27	858.62
438.64	876.86
439.01	893.50
439.38	907.71
439.75	922.00
440.13	938.79
440.50	954.69
440.87	967.88
441.24	980.83
441.61	995.52
441.98	1006.17
442.35	1018.14
442.72	1031.64
443.09	1045.12
443.46	1053.55
443.83	1059.26
444.20	1063.86
444.57	1070.14
444.94	1073.12
445.31	1076.24
445.68	1081.71
446.05	1083.69
446.42	1082.29
446.79	1081.57
447.16	1079.76
447.53	1078.98
447.90	1073.52
448.27	1067.19
448.64	1058.79
449.01	1053.57
449.37	1042.50
449.74	1031.74
450.11	1020.71
450.48	1005.31
450.85	989.10
451.22	975.62
451.59	962.93
451.96	951.50
452.33	935.33
452.70	921.26
453.07	904.05
453.43	883.69
453.80	866.38
454.17	850.57
454.54	834.69
454.91	818.10
455.28	801.95
455.65	786.40
456.02	774.24
456.38	761.24
456.75	745.62
457.12	731.93
457.49	719.10
457.86	704.48
458.23	694.50
458.59	683.12
458.96	671.17
459.33	660.31
459.70	649.88
460.07	641.43
460.43	631.40
460.80	623.24
461.17	616.33
461.54	608.14
461.91	600.12
462.27	591.93
462.64	585.45
463.01	577.69
463.38	571.17
463.74	560.57
464.11	553.88
464.48	547.52
464.85	541.36
465.21	537.24
465.58	532.31
465.95	525.62
466.32	520.88
466.68	515.60
467.05	510.69
467.42	505.43
467.78	500.36
468.15	495.43
468.52	491.60
468.88	485.81
469.25	480.88
469.62	477.71
469.98	473.88
470.35	469.83
470.72	466.55
471.08	462.14
471.45	459.24
471.82	456.31
472.18	452.86
472.55	450.10
472.92	445.88
473.28	442.76
473.65	439.88
474.02	436.83
474.38	434.95
474.75	432.81
475.11	430.29
475.48	428.67
475.85	427.02
476.21	424.57
476.58	423.48
476.94	422.67
477.31	420.67
477.67	419.48
478.04	418.31
478.41	417.38
478.77	418.17
479.14	416.88
479.50	415.95
479.87	415.83
480.23	415.43
480.60	415.12
480.96	414.86
481.33	415.98
481.69	415.60
482.06	415.83
482.42	416.29
482.79	417.10
483.15	417.52
483.52	418.40
483.88	419.17
484.25	419.81
484.61	420.24
484.98	421.05
485.34	422.74
485.71	424.64
486.07	426.10
486.44	425.90
486.80	427.62
487.17	429.12
487.53	430.98
487.90	433.26
488.26	436.48
488.62	439.31
488.99	440.79
489.35	443.69
489.72	446.14
490.08	448.74
490.44	451.24
490.81	454.33
491.17	457.10
491.54	460.88
491.90	464.64
492.26	468.36
492.63	472.36
492.99	475.48
493.36	479.50
493.72	483.83
494.08	488.07
494.45	493.10
494.81	498.19
495.17	502.38
495.54	507.52
495.90	511.76
496.26	516.71
496.63	522.43
496.99	527.83
497.35	533.43
497.72	539.48
498.08	545.40
498.44	551.57
498.80	558.43
499.17	564.19
499.53	569.90
499.89	576.98
500.26	583.71
500.62	590.93
500.98	597.79
501.34	604.45
501.71	612.07
502.07	618.64
502.43	625.33
502.79	632.90
503.16	640.29
503.52	647.64
503.88	654.74
504.24	661.24
504.60	668.98
504.97	676.88
505.33	684.36
505.69	693.19
506.05	700.83
506.41	708.07
506.78	715.50
507.14	723.52
507.50	731.40
507.86	739.07
508.22	746.36
508.59	753.45
508.95	761.14
509.31	769.83
509.67	777.71
510.03	785.33
510.39	793.05
510.75	800.76
511.12	808.69
511.48	816.67
511.84	824.86
512.20	832.21
512.56	840.26
512.92	847.95
513.28	854.93
513.64	862.45
514.00	870.40
514.37	877.95
514.73	885.26
515.09	892.69
515.45	899.69
515.81	907.00
516.17	914.95
516.53	921.81
516.89	926.95
517.25	934.05
517.61	941.81
517.97	948.38
518.33	954.60
518.69	961.31
519.05	967.57
519.41	974.24
519.77	981.95
520.13	987.48
520.49	992.88
520.85	998.45
521.21	1005.14
521.57	1011.07
521.93	1016.24
522.29	1021.81
522.65	1026.38
523.01	1032.12
523.37	1037.93
523.73	1042.69
524.09	1048.10
524.45	1053.50
524.81	1058.50
525.17	1063.45
525.53	1068.48
525.89	1073.48
526.25	1077.86
526.61	1081.19
526.97	1085.21
527.33	1089.07
527.68	1095.36
528.04	1099.64
528.40	1104.52
528.76	1108.21
529.12	1112.50
529.48	1118.71
529.84	1123.17
530.20	1127.81
530.56	1132.62
530.91	1136.93
531.27	1141.26
531.63	1145.81
531.99	1149.71
532.35	1153.26
532.71	1156.81
533.07	1160.86
533.42	1167.07
533.78	1171.19
534.14	1177.55
534.50	1181.71
534.86	1186.19
535.21	1188.79
535.57	1194.21
535.93	1196.79
536.29	1201.33
536.65	1205.21
537.00	1207.81
537.36	1211.81
537.72	1215.50
538.08	1219.10
538.44	1221.62
538.79	1225.55
539.15	1228.40
539.51	1233.12
539.87	1237.55
540.22	1241.33
540.58	1245.05
540.94	1246.90
541.29	1250.10
541.65	1251.93
542.01	1255.50
542.37	1258.12
542.72	1259.74
543.08	1262.05
543.44	1265.45
543.79	1266.02
544.15	1269.12
544.51	1273.17
544.87	1275.81
545.22	1279.07
545.58	1281.86
545.94	1285.17
546.29	1287.38
546.65	1290.40
547.01	1291.81
547.36	1293.60
547.72	1295.98
548.07	1298.69
548.43	1301.10
548.79	1303.79
549.14	1306.36
549.50	1308.57
549.86	1310.14
550.21	1313.67
550.57	1316.93
550.92	1319.17
551.28	1323.79
551.64	1326.52
551.99	1328.52
552.35	1331.40
552.70	1333.74
553.06	1336.88
553.41	1340.02
553.77	1344.52
554.13	1348.50
554.48	1353.36
554.84	1358.38
555.19	1362.69
555.55	1367.36
555.90	1370.07
556.26	1374.05
556.61	1377.90
556.97	1381.57
557.32	1386.26
557.68	1389.93
558.03	1393.60
558.39	1398.86
558.74	1402.69
559.10	1407.07
559.45	1410.62
559.81	1414.86
560.16	1419.67
560.52	1423.67
560.87	1428.98
561.23	1432.19
561.58	1437.88
561.94	1441.29
562.29	1445.21
562.64	1450.48
563.00	1454.71
563.35	1459.60
563.71	1464.90
564.06	1470.67
564.42	1475.71
564.77	1481.00
565.12	1487.33
565.48	1494.19
565.83	1499.81
566.19	1505.38
566.54	1510.40
566.89	1516.60
567.25	1523.29
567.60	1530.55
567.96	1538.07
568.31	1544.50
568.66	1551.12
569.02	1555.52
569.37	1561.12
569.72	1566.69
570.08	1570.86
570.43	1576.02
570.78	1582.36
571.14	1588.76
571.49	1594.43
571.84	1600.33
572.20	1605.24
572.55	1610.74
572.90	1614.19
573.26	1619.05
573.61	1623.43
573.96	1628.57
574.31	1633.29
574.67	1636.14
575.02	1638.69
575.37	1640.81
575.72	1642.81
576.08	1647.12
576.43	1650.95
576.78	1654.76
577.13	1658.21
577.49	1661.88
577.84	1665.60
578.19	1668.79
578.54	1671.74
578.90	1675.21
579.25	1678.57
579.60	1681.00
579.95	1682.26
580.30	1686.24
580.66	1688.79
581.01	1692.57
581.36	1695.00
581.71	1697.98
582.06	1703.60
582.42	1707.60
582.77	1710.26
583.12	1713.45
583.47	1715.43
583.82	1717.98
584.17	1720.98
584.53	1725.10
584.88	1728.45
585.23	1731.48
585.58	1733.95
585.93	1736.14
586.28	1738.19
586.63	1741.10
586.98	1744.83
587.34	1749.57
587.69	1750.93
588.04	1754.02
588.39	1756.05
588.74	1756.88
589.09	1759.05
589.44	1758.48
589.79	1759.40
590.14	1761.67
590.49	1763.26
590.84	1764.00
591.19	1765.86
591.54	1767.14
591.89	1767.48
592.25	1770.57
592.60	1771.29
592.95	1773.24
593.30	1774.90
593.65	1775.26
594.00	1774.43
594.35	1780.74
594.70	1780.02
595.05	1781.43
595.40	1782.00
595.75	1782.43
596.10	1784.24
596.45	1785.07
596.80	1786.19
597.15	1786.60
597.50	1786.86
597.85	1788.19
598.19	1789.29
598.54	1788.64
598.89	1789.52
599.24	1790.21
599.59	1787.98
599.94	1787.86
600.29	1787.48
600.64	1786.29
600.99	1787.14
601.34	1788.50
601.69	1782.64
602.04	1781.79
602.39	1781.02
602.74	1780.93
603.08	1780.02
603.43	1780.67
603.78	1779.57
604.13	1779.76
604.48	1778.81
604.83	1778.86
605.18	1778.21
605.53	1778.19
605.87	1777.57
606.22	1775.81
606.57	1774.76
606.92	1773.45
607.27	1772.38
607.62	1770.62
607.96	1770.62
608.31	1769.00
608.66	1767.19
609.01	1765.17
609.36	1765.17
609.70	1762.76
610.05	1759.95
610.40	1758.74
610.75	1755.90
611.10	1754.02
611.44	1750.50
611.79	1748.31
612.14	1745.74
612.49	1742.07
612.83	1738.50
613.18	1735.57
613.53	1731.83
613.88	1727.86
614.22	1724.88
614.57	1720.88
614.92	1718.31
615.27	1713.93
615.61	1710.05
615.96	1705.90
616.31	1702.71
616.65	1698.81
617.00	1695.60
617.35	1691.98
617.70	1687.52
618.04	1683.02
618.39	1678.24
618.74	1673.43
619.08	1669.38
619.43	1664.88
619.78	1662.12
620.12	1658.74
620.47	1655.64
620.82	1652.02
621.16	1647.64
621.51	1643.79
621.85	1640.17
622.20	1634.83
622.55	1629.76
622.89	1625.33
623.24	1621.95
623.59	1617.36
623.93	1613.02
624.28	1608.90
624.62	1607.24
624.97	1604.95
625.32	1601.43
625.66	1597.81
626.01	1594.60
626.35	1591.57
626.70	1587.12
627.04	1582.33
627.39	1577.31
627.73	1573.38
628.08	1569.90
628.43	1566.02
628.77	1561.69
629.12	1557.90
629.46	1554.45
629.81	1550.33
630.15	1545.62
630.50	1540.88
630.84	1536.12
631.19	1530.50
631.53	1525.50
631.88	1517.00
632.22	1509.98
632.57	1505.36
632.91	1500.55
633.26	1495.76
633.60	1489.52
633.95	1484.10
634.29	1478.62
634.64	1473.24
634.98	1467.60
635.32	1463.24
635.67	1459.21
636.01	1454.33
636.36	1448.17
636.70	1443.36
637.05	1438.95
637.39	1433.95
637.73	1429.02
638.08	1424.88
638.42	1419.83
638.77	1414.98
639.11	1410.10
639.45	1405.67
639.80	1399.50
640.14	1393.83
640.49	1388.21
640.83	1382.24
641.17	1376.88
641.52	1371.40
641.86	1366.31
642.20	1361.69
642.55	1354.62
642.89	1347.48
643.23	1341.14
643.58	1336.33
643.92	1329.57
644.26	1323.24
644.61	1317.86
644.95	1312.17
645.29	1305.40
645.64	1299.60
645.98	1293.26
646.32	1288.19
646.66	1281.26
647.01	1275.10
647.35	1269.43
647.69	1263.40
648.04	1258.43
648.38	1252.88
648.72	1246.83
649.06	1240.21
649.41	1232.33
649.75	1226.05
650.09	1220.10
650.43	1213.26
650.78	1206.24
651.12	1200.05
651.46	1193.24
651.80	1186.50
652.14	1179.79
652.49	1173.40
652.83	1166.83
653.17	1160.17
653.51	1153.07
653.85	1147.14
654.20	1140.33
654.54	1132.50
654.88	1125.79
655.22	1119.40
655.56	1111.90
655.90	1105.81
656.25	1099.10
656.59	1093.26
656.93	1087.24
657.27	1081.43
657.61	1075.33
657.95	1069.14
658.29	1062.55
658.64	1056.93
658.98	1050.64
659.32	1043.81
659.66	1037.38
660.00	1030.98
660.34	1024.64
660.68	1018.43
661.02	1011.24
661.36	1004.98
661.70	999.62
662.05	993.52
662.39	986.81
662.73	981.88
663.07	975.98
663.41	970.12
663.75	963.38
664.09	957.38
664.43	950.71
664.77	944.74
665.11	938.26
665.45	932.26
665.79	926.43
666.13	920.38
666.47	914.33
666.81	908.19
667.15	902.36
667.49	897.12
667.83	892.48
668.17	887.33
668.51	882.52
668.85	877.14
669.19	872.26
669.53	866.50
669.87	860.26
670.21	854.02
670.55	848.60
670.89	843.93
671.23	838.45
671.57	832.79
671.91	827.38
672.25	822.62
672.58	818.76
672.92	812.76
673.26	807.19
673.60	802.14
673.94	797.24
674.28	792.14
674.62	787.36
674.96	781.74
675.30	777.07
675.64	771.48
675.97	766.52
676.31	761.36
676.65	756.26
676.99	752.10
677.33	747.19
677.67	742.29
678.01	736.86
678.34	731.93
678.68	727.43
679.02	722.86
679.36	717.45
679.70	711.26
680.04	706.86
680.37	702.43
680.71	697.67
681.05	693.38
681.39	689.02
681.73	683.60
682.06	679.12
682.40	674.64
682.74	670.36
683.08	665.88
683.42	660.57
683.75	656.07
684.09	651.07
684.43	646.83
684.77	642.67
685.10	638.36
685.44	634.33
685.78	630.05
686.12	625.88
686.45	621.64
686.79	617.48
687.13	613.02
687.46	608.79
687.80	605.43
688.14	601.00
688.48	596.83
688.81	593.48
689.15	590.14
689.49	585.50
689.82	581.48
690.16	576.93
690.50	573.52
690.83	569.81
691.17	565.79
691.51	561.74
691.84	557.71
692.18	553.76
692.52	549.98
692.85	546.12
693.19	542.43
693.52	538.60
693.86	535.00
694.20	531.33
694.53	527.60
694.87	523.17
695.21	519.55
695.54	515.67
695.88	511.21
696.21	506.26
696.55	502.69
696.88	499.02
697.22	495.36
697.56	491.95
697.89	488.10
698.23	484.71
698.56	481.00
698.90	477.81
699.23	474.55
699.57	470.79
699.90	467.45
700.24	463.71
700.58	460.60
700.91	457.67
701.25	456.14
701.58	454.07
701.92	451.79
702.25	448.57
702.59	445.55
702.92	443.07
703.26	440.38
703.59	437.52
703.93	436.38
704.26	434.19
704.60	431.40
704.93	428.64
705.26	425.88
705.60	423.74
705.93	420.55
706.27	418.38
706.60	416.48
706.94	414.90
707.27	412.67
707.61	410.24
707.94	407.55
708.27	403.69
708.61	400.57
708.94	398.36
709.28	396.52
709.61	394.31
709.94	391.88
710.28	389.45
710.61	387.55
710.95	383.50
711.28	382.76
711.61	380.48
711.95	379.10
712.28	376.83
712.61	374.48
712.95	373.81
713.28	372.67
713.61	369.93
713.95	367.55
714.28	365.71
714.61	364.00
714.95	362.10
715.28	360.05
715.61	357.79
715.95	355.57
716.28	353.60
716.61	352.36
716.95	350.55
717.28	348.93
717.61	347.19
717.94	345.83
718.28	342.40
718.61	340.69
718.94	338.62
719.27	337.17
719.61	335.81
719.94	333.67
720.27	330.83
720.60	329.29
720.94	327.57
721.27	326.38
721.60	325.21
721.93	323.95
722.27	323.33
722.60	322.43
722.93	320.81
723.26	319.57
723.59	317.90
723.93	316.83
724.26	316.17
724.59	315.07
724.92	313.90
725.25	313.33
725.59	311.98
725.92	311.26
726.25	310.02
726.58	308.83
726.91	307.71
727.24	307.12
727.57	306.17
727.91	304.79
728.24	303.52
728.57	302.29
728.90	301.52
729.23	299.60
729.56	299.48
729.89	298.71
730.22	297.43
730.55	296.45
730.89	295.48
731.22	294.24
731.55	292.95
731.88	292.00
732.21	290.69
732.54	289.88
732.87	288.83
733.20	288.29
733.53	287.43
733.86	286.71
734.19	285.45
734.52	284.69
734.85	285.33
735.18	284.40
735.51	284.24
735.84	283.36
736.17	283.45
736.50	281.62
736.83	283.31
737.16	282.81
737.49	282.33
737.82	281.50
738.15	280.76
738.48	280.19
738.81	279.33
739.14	278.57
739.47	277.60
739.80	276.71
740.13	276.07
740.46	275.10
740.79	273.93
741.12	273.02
741.45	272.38
741.78	270.62
742.11	270.50
742.44	269.14
742.77	268.67
743.10	267.60
743.43	266.81
743.75	263.95
744.08	265.62
744.41	264.38
744.74	263.57
745.07	262.60
745.40	262.43
745.73	262.76
746.06	262.31
746.39	262.19
746.71	261.50
747.04	260.50
747.37	259.90
747.70	259.71
748.03	259.43
748.36	259.10
748.68	258.64
749.01	257.55
749.34	257.14
749.67	256.62
750.00	256.21
750.33	257.10
750.65	256.76
750.98	253.98
751.31	253.69
751.64	253.40
751.97	254.26
752.29	253.62
752.62	252.14
752.95	251.69
753.28	250.90
753.60	250.31
753.93	250.79
754.26	250.62
754.59	249.57
754.91	248.93
755.24	248.43
755.57	247.71
755.90	246.98
756.22	246.21
756.55	245.69
756.88	244.93
757.20	243.50
757.53	242.19
757.86	241.71
758.19	241.60
758.51	241.10
758.84	239.40
759.17	238.74
759.49	238.55
759.82	239.33
760.15	239.19
760.47	238.98
760.80	237.90
761.13	237.93
761.45	237.71
761.78	237.52
762.11	237.21
762.43	236.81
762.76	236.69
763.08	236.90
763.41	236.57
763.74	236.55
764.06	236.21
764.39	236.48
764.71	236.17
765.04	235.48
765.37	234.98
765.69	235.12
766.02	234.81
766.34	234.21
766.67	232.69
767.00	232.81
767.32	233.71
767.65	234.45
767.97	233.95
768.30	233.81
768.62	233.45
768.95	232.88
769.27	232.69
769.60	232.74
769.92	232.17
770.25	231.76
770.57	231.00
770.90	230.83
771.22	230.19
771.55	230.12
771.87	230.31
772.20	230.14
772.52	231.64
772.85	233.81
773.17	233.88
773.50	233.69
773.82	233.14
774.15	232.10
774.47	230.62
774.80	230.33
775.12	230.12
775.45	229.81
775.77	229.79
776.09	229.88
776.42	229.69
776.74	230.17
777.07	229.86
777.39	229.79
777.72	229.38
778.04	229.69
778.36	229.24
778.69	228.98
779.01	229.17
779.33	227.12
779.66	224.83
779.98	224.57
780.31	224.50
780.63	225.29
780.95	225.17
781.28	225.19
781.60	224.74
781.92	224.64
782.25	224.52
782.57	224.67
782.89	224.43
783.22	224.14
783.54	223.43
783.86	223.69
784.19	223.69
784.51	224.17
784.83	223.74
785.16	223.67
785.48	223.52
785.80	223.33
786.12	223.48
786.45	223.17
786.77	223.26
787.09	223.21
787.42	222.45
787.74	222.50
788.06	222.55
788.38	222.64
788.71	222.33
789.03	222.52
789.35	222.48
789.67	222.05
789.99	222.31
790.32	222.07
790.64	221.98
790.96	223.43
791.28	222.67
791.61	222.29
791.93	222.19
792.25	222.07
792.57	223.40
792.89	222.79
793.21	223.10
793.54	222.74
793.86	222.33
794.18	222.38
794.50	221.93
794.82	221.79
795.14	222.07
795.47	222.57
795.79	222.45
796.11	222.12
796.43	222.14
796.75	221.67
797.07	221.79
797.39	221.69
797.71	220.17
798.04	220.10
798.36	220.33
798.68	220.40
799.00	220.62
799.32	219.43
799.64	219.90
799.96	220.02
800.28	220.45
800.60	220.38
800.92	220.26
801.24	220.24
801.56	220.24
801.89	220.00
802.21	219.93
802.53	219.38
802.85	219.60
803.17	220.40
803.49	220.40
803.81	220.19
804.13	220.02
804.45	219.86
804.77	220.12
805.09	220.21
805.41	219.90
805.73	219.50
806.05	219.05
806.37	218.93
806.69	218.33
807.01	217.93
807.33	217.93
807.65	217.19
807.97	218.33
808.28	218.00
808.60	217.64
808.92	217.29
809.24	219.00
809.56	218.55
809.88	217.79
810.20	217.86
810.52	218.26
810.84	218.05
811.16	217.81
811.48	217.50
811.80	218.19
812.12	218.31
812.43	218.57
812.75	218.81
813.07	218.52
813.39	218.90
813.71	218.69
814.03	218.83
814.35	219.10
814.67	218.05
814.98	218.02
815.30	218.05
815.62	217.79
815.94	216.17
816.26	216.38
816.58	215.79
816.89	215.71
817.21	215.14
817.53	215.12
817.85	215.07
818.17	215.07
818.48	214.05
818.80	214.43
819.12	214.14
819.44	213.64
819.76	213.38
820.07	213.31
820.39	213.38
820.71	213.33
821.03	213.29
821.34	213.12
821.66	213.69
821.98	213.90
822.30	213.79
822.61	214.93
822.93	214.55
823.25	214.62
823.57	214.33
823.88	214.57
824.20	214.45
824.52	215.02
824.83	215.00
825.15	215.02
825.47	214.81
825.79	215.07
826.10	215.21
826.42	215.14
826.74	215.14
827.05	214.95
827.37	214.93
827.69	214.83
828.00	214.95
828.32	214.79
828.64	214.38
828.95	215.60
829.27	215.14
829.58	215.24
829.90	215.71
830.22	216.14
830.53	215.81
830.85	215.69
831.17	215.19
831.48	215.24
831.80	215.07
832.11	214.83
832.43	214.45
832.75	214.21
833.06	215.60
833.38	215.07
833.69	215.14
834.01	215.21
834.32	215.24
834.64	214.93
834.96	214.81
835.27	215.07
835.59	214.43
835.90	213.81
836.22	213.88
836.53	213.38
836.85	213.19
837.16	215.40
837.48	215.26
837.79	215.69
838.11	215.76
838.42	216.00
838.74	216.12
839.05	216.02
839.37	216.17
839.68	214.98
840.00	215.07
840.31	215.31
840.63	214.98
840.94	214.62
841.26	214.26
841.57	214.26
841.88	214.52
842.20	214.24
842.51	214.14
842.83	214.19
843.14	216.21
843.46	216.05
843.77	214.88
844.08	215.17
844.40	214.62
844.71	214.57
845.03	214.45
845.34	214.33
845.65	214.33
845.97	214.45
846.28	214.43
846.60	214.48
846.91	214.17
847.22	214.38
847.54	214.83
847.85	215.14
848.16	214.90
848.48	214.31
848.79	214.98
849.10	215.31
849.42	215.55
849.73	213.57
850.04	213.48
850.36	212.64
850.67	212.83
850.98	212.95
851.30	212.95
851.61	213.02
851.92	213.05
852.23	213.40
852.55	213.45
852.86	213.62
853.17	213.50
853.49	214.12
853.80	214.50
854.11	214.74
854.42	214.86
854.74	214.71
855.05	214.83
855.36	213.81
855.67	213.93
855.99	213.69
856.30	216.12
856.61	216.02
856.92	216.10
857.23	215.93
857.55	215.74
857.86	215.60
858.17	215.76
858.48	215.45
858.79	215.36
859.11	215.33
859.42	215.26
859.73	215.31
860.04	215.00
860.35	214.38
860.66	213.81
860.98	213.81
861.29	214.10
861.60	214.00
861.91	214.48
862.22	213.98
862.53	213.69
862.84	211.45
863.16	212.00
863.47	211.52
863.78	211.67
864.09	211.79
864.40	211.88
864.71	211.95
865.02	212.17
865.33	211.69
865.64	211.33
865.95	211.17
866.27	212.33
866.58	211.98
866.89	212.14
867.20	212.14
867.51	211.79
867.82	211.81
868.13	212.33
868.44	211.95
868.75	212.60
869.06	212.69
869.37	212.76
869.68	212.29
869.99	212.74
870.30	212.79
870.61	213.00
870.92	212.62
871.23	212.17
871.54	212.36
871.85	212.93
872.16	213.29
872.47	213.12
872.78	211.83
873.09	212.26
873.40	212.17
873.71	212.38
874.02	212.81
874.33	212.57
874.64	212.07
874.95	212.38
875.26	211.90
875.56	212.14
875.87	211.90
876.18	211.81
876.49	213.88
876.80	213.55
877.11	213.14
877.42	213.48
877.73	213.62
878.04	213.43
878.35	213.50
878.66	213.26
878.96	213.33
879.27	213.24
879.58	213.17
879.89	212.95
880.20	213.57
880.51	213.40
880.82	213.38
881.12	213.67
881.43	213.26
881.74	213.14
882.05	212.81
882.36	213.14
882.67	213.36
882.97	211.17
883.28	210.90
883.59	210.83
883.90	211.07
884.21	211.50
884.51	211.36
884.82	211.00
885.13	211.07
885.44	211.19
885.74	211.17
886.05	210.86
886.36	211.14
886.67	210.36
886.98	211.52
887.28	211.69
887.59	211.64
887.90	211.67
888.20	211.55
888.51	212.00
888.82	211.60
889.13	211.50
889.43	213.19
889.74	213.33
890.05	213.48
890.35	213.26
890.66	212.81
890.97	212.90
891.28	212.79
891.58	213.14
891.89	212.79
892.20	212.81
892.50	212.81
892.81	212.74
893.12	212.60
893.42	211.31
893.73	211.40
894.04	211.21
894.34	211.60
894.65	211.55
894.95	211.19
895.26	211.43
895.57	212.36
895.87	210.57
896.18	210.88
896.48	211.02
896.79	210.90
897.10	211.24
897.40	210.95
897.71	211.19
898.01	210.83
898.32	211.31
898.63	211.29
898.93	211.48
899.24	211.50
899.54	211.45
899.85	211.43
900.15	211.40
900.46	211.55
900.76	211.67
901.07	211.62
901.38	211.64
901.68	211.90
901.99	211.12
902.29	211.26
902.60	210.98
902.90	210.83
903.21	210.81
903.51	210.48
903.82	211.19
904.12	211.10
904.43	211.31
904.73	211.14
905.03	211.43
905.34	213.00
905.64	212.74
905.95	213.00
906.25	213.05
906.56	212.83
906.86	212.67
907.17	212.38
907.47	212.62
907.77	212.50
908.08	212.14
908.38	212.45
908.69	212.69
908.99	213.24
909.30	213.31
909.60	213.38
909.90	213.60
910.21	213.02
910.51	212.76
910.81	212.74
911.12	212.86
911.42	212.69
911.73	210.76
912.03	211.14
912.33	211.33
912.64	211.55
912.94	211.38
913.24	211.31
913.55	211.17
913.85	211.26
914.15	211.62
914.46	211.74
914.76	211.43
915.06	211.29
915.37	211.05
915.67	211.10
915.97	211.02
916.27	210.76
916.58	211.10
916.88	211.19
917.18	211.12
917.49	212.33
917.79	212.36
918.09	212.88
918.39	213.67
918.70	213.55
919.00	213.43
919.30	214.43
919.60	214.26
919.91	214.14
920.21	214.05
920.51	213.74
920.81	213.60
921.12	213.95
921.42	213.67
921.72	213.79
922.02	213.74
922.32	214.19
922.63	214.38
922.93	215.33
923.23	215.43
923.53	215.31
923.83	214.02
924.13	214.29
924.44	214.19
924.74	214.02
925.04	214.43
925.34	214.24
925.64	213.48
925.94	213.83
926.24	214.88
926.55	214.36
926.85	214.52
927.15	214.62
927.45	214.38
927.75	214.40
928.05	214.31
928.35	214.05
928.65	214.07
928.95	214.12
929.26	213.29
929.56	213.74
929.86	214.05
930.16	213.95
930.46	213.64
930.76	213.64
931.06	213.00
931.36	212.48
931.66	212.95
931.96	213.31
932.26	213.21
932.56	212.38
932.86	212.93
933.16	212.93
933.46	212.60
933.76	212.48
934.06	213.17
934.36	213.71
934.66	213.69
934.96	213.69
935.26	213.71
935.56	213.93
935.86	213.31
936.16	212.86
936.46	212.71
936.76	212.76
937.06	212.60
937.36	212.64
937.66	212.76
937.96	212.57
938.26	212.05
938.56	211.98
938.86	212.21
939.16	212.55
939.46	212.71
939.76	212.95
940.06	212.83
940.35	212.05
940.65	211.24
940.95	211.64
941.25	211.00
941.55	210.57
941.85	210.17
942.15	210.52
942.45	211.26
942.75	211.19
943.04	211.12
943.34	211.40
943.64	211.14
943.94	210.81
944.24	210.81
944.54	210.83
944.84	210.90
945.13	210.45
945.43	210.10
945.73	209.98
946.03	209.76
946.33	209.69
946.62	209.74
946.92	209.64
947.22	209.74
947.52	210.14
947.82	210.45
948.11	210.33
948.41	209.93
948.71	209.24
949.01	209.43
949.31	209.48
949.60	209.40
949.90	209.64
950.20	209.64
950.50	209.88
950.79	209.71
951.09	209.74
951.39	209.83
951.69	209.60
951.98	209.95
952.28	209.76
952.58	209.67
952.87	209.64
953.17	209.86
953.47	209.60
953.76	209.36
954.06	209.12
954.36	208.93
954.66	208.93
954.95	209.43
955.25	209.71
955.55	209.88
955.84	209.45
956.14	209.64
956.44	209.83
956.73	209.26
957.03	209.50
957.32	209.67
957.62	209.43
957.92	210.12
958.21	209.83
958.51	212.55
958.81	212.64
959.10	213.19
959.40	213.50
959.69	213.57
959.99	213.86
960.29	213.55
960.58	213.69
960.88	214.33
961.17	214.02
961.47	214.21
961.76	214.05
962.06	214.62
962.36	214.55
962.65	214.71
962.95	214.90
963.24	214.50
963.54	214.38
963.83	214.76
964.13	214.43
964.42	214.07
964.72	212.52
965.01	212.52
965.31	212.02
965.60	211.60
965.90	212.95
966.19	212.57
966.49	213.02
966.78	212.90
967.08	212.90
967.37	213.07
967.67	212.40
967.96	212.60
968.26	212.50
968.55	212.74
968.85	212.64
969.14	212.62
969.43	212.81
969.73	212.81
970.02	212.57
970.32	212.40
970.61	212.31
970.91	211.40
971.20	211.29
971.49	211.21
971.79	211.48
972.08	210.07
972.38	210.17
972.67	210.12
972.96	210.55
973.26	210.05
973.55	210.74
973.85	210.86
974.14	210.79
974.43	210.74
974.73	210.26
975.02	209.90
975.31	209.88
975.61	210.07
975.90	209.88
976.19	209.79
976.49	209.95
976.78	210.19
977.07	210.43
977.37	210.57
977.66	210.90
977.95	210.55
978.24	210.81
978.54	211.40
978.83	211.21
979.12	210.95
979.42	211.07
979.71	210.43
980.00	210.33
980.29	210.43
980.59	210.29
980.88	210.95
981.17	211.17
981.46	211.07
981.76	211.02
982.05	211.76
982.34	212.24
982.63	212.29
982.93	212.43
983.22	212.95
983.51	212.93
983.80	213.17
984.09	213.55
984.39	213.33
984.68	213.02
984.97	213.19
985.26	212.95
985.55	212.95
985.85	212.60
986.14	213.07
986.43	213.19
986.72	212.93
987.01	212.02
987.30	212.02
987.59	212.02
987.89	212.07
988.18	211.26
988.47	210.67
988.76	210.38
989.05	210.05
989.34	209.69
989.63	210.21
989.92	209.88
990.22	209.60
990.51	209.48
990.80	209.24
991.09	209.40
991.38	209.76
991.67	209.69
991.96	209.45
992.25	209.50
992.54	209.14
992.83	209.38
993.12	209.38
993.41	209.60
993.70	210.40
993.99	210.67
994.28	210.90
994.58	211.24
994.87	211.19
995.16	211.19
995.45	211.05
995.74	210.36
996.03	210.69
996.32	210.95
996.61	211.55
996.90	211.50
997.19	211.33
997.48	211.33
997.77	211.07
998.06	211.19
998.34	210.74
998.63	210.86
998.92	210.83
999.21	211.19
999.50	211.33
999.79	210.67
1000.08	210.55
1000.37	210.57
1000.66	210.33
1000.95	210.83
1001.24	210.95
1001.53	211.02
1001.82	211.07
1002.11	210.38
1002.40	210.76
1002.68	210.83
1002.97	212.43
1003.26	212.36
1003.55	211.95
1003.84	212.07
1004.13	212.69
1004.42	212.74
1004.71	212.55
1004.99	212.48
1005.28	213.00
1005.57	212.76
1005.86	212.67
1006.15	212.43
1006.44	212.24
1006.72	212.74
1007.01	212.60
1007.30	212.57
1007.59	212.45
1007.88	212.36
1008.17	212.50
1008.45	212.05
1008.74	211.62
1009.03	210.48
1009.32	210.67
1009.60	210.83
1009.89	210.71
1010.18	210.07
1010.47	210.05
1010.76	209.98
1011.04	210.02
1011.33	210.00
1011.62	210.26
1011.91	210.43
1012.19	210.67
1012.48	210.79
1012.77	210.64
1013.05	211.38
1013.34	211.36
1013.63	211.26
1013.92	211.50
1014.20	211.45
1014.49	211.48
1014.78	211.48
1015.06	210.83
1015.35	210.43
1015.64	210.90
1015.92	211.26
1016.21	211.45
1016.50	211.55
1016.78	211.79
1017.07	211.69
1017.36	211.17
1017.64	210.62
1017.93	210.86
1018.22	210.79
1018.50	210.64
1018.79	210.50
1019.08	209.38
1019.36	209.71
1019.65	209.71
1019.93	210.05
1020.22	210.52
1020.51	211.62
1020.79	211.29
1021.08	210.50
1021.36	207.00
1021.65	209.00
1021.94	207.00
1022.22	214.50
1022.51	209.50
1022.79	216.50
1023.08	216.00
1023.36	237.00
1023.65	204.50
>>>>>End Processed Spectral Data<<<<<
