SpectraSuite Data File
++++++++++++++++++++++++++++++++++++
Date: Tue Apr 02 18:46:21 EDT 2013
User: group
Dark Spectrum Present: No
Reference Spectrum Present: No
Number of Sampled Component Spectra: 1
Spectrometers: USB2E7196
Integration Time (usec): 580000 (USB2E7196)
Spectra Averaged: 2 (USB2E7196)
Boxcar Smoothing: 10 (USB2E7196)
Correct for Electrical Dark: No (USB2E7196)
Strobe/Lamp Enabled: No (USB2E7196)
Correct for Detector Non-linearity: No (USB2E7196)
Correct for Stray Light: No (USB2E7196)
Number of Pixels in Processed Spectrum: 2048
>>>>>Begin Processed Spectral Data<<<<<
339.09	0.00
339.48	193.00
339.86	196.00
340.24	197.00
340.63	198.50
341.01	226.50
341.39	198.50
341.78	204.00
342.16	209.00
342.54	202.00
342.93	197.69
343.31	207.79
343.69	208.38
344.07	208.83
344.46	209.52
344.84	210.14
345.22	209.38
345.60	210.19
345.99	210.57
346.37	210.71
346.75	211.14
347.13	211.24
347.52	211.29
347.90	212.05
348.28	212.02
348.66	212.57
349.05	211.95
349.43	212.40
349.81	212.60
350.19	212.62
350.57	212.81
350.96	213.10
351.34	213.19
351.72	213.38
352.10	213.60
352.48	213.52
352.87	213.45
353.25	213.48
353.63	213.19
354.01	213.24
354.39	213.31
354.77	213.29
355.15	213.98
355.54	213.88
355.92	213.21
356.30	213.48
356.68	214.69
357.06	214.71
357.44	214.26
357.82	214.29
358.20	215.31
358.58	215.12
358.97	215.10
359.35	215.40
359.73	215.93
360.11	216.10
360.49	216.24
360.87	216.14
361.25	216.38
361.63	217.19
362.01	217.26
362.39	216.93
362.77	217.02
363.15	216.79
363.53	216.83
363.91	217.12
364.29	217.00
364.67	215.10
365.05	214.98
365.43	215.12
365.81	215.19
366.19	215.05
366.57	215.88
366.95	215.79
367.33	215.21
367.71	215.07
368.09	215.31
368.47	215.31
368.85	215.29
369.23	215.88
369.61	215.05
369.99	215.57
370.37	216.07
370.75	216.90
371.13	216.57
371.51	216.07
371.89	216.02
372.27	216.05
372.65	216.24
373.03	216.62
373.41	216.55
373.78	216.43
374.16	215.57
374.54	214.98
374.92	214.52
375.30	214.67
375.68	214.17
376.06	214.31
376.44	213.88
376.82	213.93
377.19	213.36
377.57	213.31
377.95	212.69
378.33	212.26
378.71	211.26
379.09	211.69
379.47	212.00
379.84	212.12
380.22	212.10
380.60	211.69
380.98	211.33
381.36	211.38
381.73	211.29
382.11	211.69
382.49	211.83
382.87	211.90
383.25	211.95
383.62	214.52
384.00	213.90
384.38	214.12
384.76	214.88
385.13	215.81
385.51	215.69
385.89	215.43
386.27	215.88
386.64	216.00
387.02	215.52
387.40	215.40
387.78	215.29
388.15	215.33
388.53	215.48
388.91	215.60
389.29	215.55
389.66	215.69
390.04	215.36
390.42	215.33
390.79	215.76
391.17	215.88
391.55	213.45
391.92	213.52
392.30	213.93
392.68	213.40
393.05	213.14
393.43	213.31
393.81	213.52
394.18	213.21
394.56	213.64
394.94	214.17
395.31	214.10
395.69	214.86
396.06	215.17
396.44	215.31
396.82	215.17
397.19	216.12
397.57	215.90
397.95	216.43
398.32	216.10
398.70	216.10
399.07	216.43
399.45	216.38
399.82	216.45
400.20	216.24
400.58	216.43
400.95	215.93
401.33	216.43
401.70	218.14
402.08	218.21
402.45	218.00
402.83	218.57
403.20	218.76
403.58	218.52
403.95	218.98
404.33	219.26
404.71	219.64
405.08	220.79
405.46	221.14
405.83	221.21
406.21	221.81
406.58	222.40
406.96	222.40
407.33	223.31
407.70	223.90
408.08	225.88
408.45	226.48
408.83	227.33
409.20	227.93
409.58	227.31
409.95	228.69
410.33	229.67
410.70	229.90
411.08	231.19
411.45	232.24
411.82	232.98
412.20	234.81
412.57	237.14
412.95	236.76
413.32	238.60
413.69	239.90
414.07	241.31
414.44	242.86
414.82	244.98
415.19	247.17
415.56	249.67
415.94	250.86
416.31	253.88
416.68	256.88
417.06	260.05
417.43	263.43
417.81	266.67
418.18	270.57
418.55	274.45
418.93	278.40
419.30	282.45
419.67	286.93
420.04	290.98
420.42	295.19
420.79	302.24
421.16	307.79
421.54	314.95
421.91	321.36
422.28	327.33
422.66	333.43
423.03	341.21
423.40	347.76
423.77	355.05
424.15	361.76
424.52	368.83
424.89	377.17
425.26	384.50
425.64	392.21
426.01	400.26
426.38	408.74
426.75	418.36
427.13	427.60
427.50	437.29
427.87	447.45
428.24	457.60
428.61	466.36
428.99	477.86
429.36	487.93
429.73	498.69
430.10	510.33
430.47	522.38
430.85	533.14
431.22	545.74
431.59	560.74
431.96	573.64
432.33	587.98
432.70	601.45
433.08	617.55
433.45	632.64
433.82	648.00
434.19	665.00
434.56	681.62
434.93	696.71
435.30	712.14
435.68	729.48
436.05	746.14
436.42	762.67
436.79	777.79
437.16	795.10
437.53	813.31
437.90	830.98
438.27	848.90
438.64	866.36
439.01	883.60
439.38	896.45
439.75	910.98
440.13	927.60
440.50	943.24
440.87	955.52
441.24	968.50
441.61	982.86
441.98	993.60
442.35	1005.19
442.72	1018.00
443.09	1031.12
443.46	1038.40
443.83	1043.24
444.20	1047.64
444.57	1053.45
444.94	1056.33
445.31	1059.88
445.68	1065.33
446.05	1066.67
446.42	1065.45
446.79	1063.62
447.16	1062.21
447.53	1061.00
447.90	1054.31
448.27	1048.24
448.64	1040.45
449.01	1034.67
449.37	1023.57
449.74	1012.48
450.11	1001.29
450.48	987.38
450.85	971.93
451.22	960.05
451.59	949.07
451.96	937.74
452.33	922.67
452.70	908.60
453.07	891.38
453.43	871.81
453.80	855.26
454.17	840.57
454.54	826.29
454.91	810.05
455.28	793.86
455.65	779.21
456.02	767.38
456.38	754.67
456.75	739.29
457.12	726.33
457.49	713.48
457.86	699.26
458.23	689.21
458.59	677.79
458.96	665.48
459.33	654.81
459.70	644.38
460.07	636.00
460.43	626.19
460.80	618.02
461.17	611.02
461.54	602.90
461.91	594.24
462.27	585.33
462.64	578.76
463.01	571.88
463.38	565.45
463.74	554.81
464.11	548.29
464.48	542.33
464.85	535.76
465.21	531.90
465.58	527.26
465.95	520.69
466.32	515.74
466.68	510.71
467.05	505.43
467.42	500.50
467.78	495.19
468.15	490.93
468.52	486.90
468.88	481.40
469.25	476.83
469.62	473.38
469.98	469.71
470.35	466.19
470.72	462.55
471.08	457.95
471.45	455.64
471.82	452.71
472.18	449.10
472.55	446.79
472.92	442.62
473.28	439.29
473.65	436.19
474.02	433.62
474.38	431.67
474.75	430.07
475.11	428.02
475.48	426.48
475.85	424.26
476.21	422.24
476.58	420.86
476.94	419.67
477.31	418.31
477.67	416.95
478.04	415.74
478.41	415.12
478.77	416.81
479.14	415.62
479.50	415.10
479.87	415.38
480.23	414.90
480.60	414.69
480.96	414.21
481.33	415.38
481.69	415.24
482.06	415.31
482.42	415.52
482.79	415.93
483.15	416.17
483.52	417.24
483.88	417.55
484.25	417.86
484.61	418.40
484.98	419.19
485.34	420.83
485.71	421.88
486.07	423.12
486.44	422.55
486.80	424.14
487.17	425.71
487.53	427.83
487.90	429.83
488.26	433.07
488.62	436.21
488.99	437.79
489.35	440.79
489.72	443.29
490.08	446.07
490.44	448.64
490.81	451.83
491.17	454.74
491.54	458.93
491.90	463.29
492.26	467.19
492.63	470.79
492.99	474.43
493.36	478.69
493.72	483.19
494.08	487.29
494.45	491.93
494.81	496.36
495.17	500.76
495.54	506.07
495.90	510.45
496.26	515.52
496.63	520.81
496.99	525.55
497.35	531.48
497.72	536.74
498.08	542.67
498.44	548.79
498.80	555.40
499.17	561.21
499.53	566.90
499.89	573.83
500.26	580.76
500.62	587.67
500.98	595.29
501.34	602.31
501.71	609.95
502.07	616.90
502.43	624.38
502.79	631.69
503.16	638.71
503.52	646.21
503.88	653.00
504.24	660.83
504.60	668.64
504.97	676.12
505.33	684.00
505.69	692.62
506.05	700.93
506.41	708.55
506.78	716.12
507.14	724.24
507.50	731.93
507.86	740.05
508.22	747.52
508.59	754.67
508.95	763.00
509.31	771.81
509.67	780.14
510.03	787.64
510.39	795.26
510.75	803.24
511.12	810.93
511.48	819.14
511.84	826.74
512.20	834.00
512.56	842.14
512.92	850.05
513.28	857.40
513.64	864.05
514.00	871.05
514.37	878.71
514.73	885.98
515.09	893.55
515.45	900.52
515.81	907.76
516.17	914.38
516.53	920.43
516.89	926.00
517.25	932.40
517.61	939.19
517.97	945.17
518.33	951.10
518.69	957.74
519.05	963.79
519.41	970.00
519.77	977.45
520.13	983.07
520.49	988.29
520.85	993.36
521.21	1000.10
521.57	1006.64
521.93	1011.43
522.29	1016.60
522.65	1020.79
523.01	1025.98
523.37	1030.52
523.73	1036.36
524.09	1041.40
524.45	1045.90
524.81	1050.36
525.17	1055.38
525.53	1060.29
525.89	1065.05
526.25	1070.26
526.61	1074.31
526.97	1078.43
527.33	1081.88
527.68	1088.17
528.04	1092.40
528.40	1096.74
528.76	1100.71
529.12	1104.55
529.48	1109.33
529.84	1113.81
530.20	1118.86
530.56	1123.17
530.91	1128.52
531.27	1132.24
531.63	1136.21
531.99	1139.98
532.35	1143.90
532.71	1147.57
533.07	1151.93
533.42	1159.10
533.78	1162.76
534.14	1168.24
534.50	1172.36
534.86	1177.31
535.21	1179.50
535.57	1184.24
535.93	1188.31
536.29	1192.40
536.65	1196.69
537.00	1200.38
537.36	1203.64
537.72	1206.90
538.08	1210.33
538.44	1212.93
538.79	1216.79
539.15	1220.26
539.51	1224.48
539.87	1228.14
540.22	1231.31
540.58	1234.45
540.94	1235.02
541.29	1237.90
541.65	1239.21
542.01	1242.71
542.37	1245.07
542.72	1246.93
543.08	1248.69
543.44	1251.71
543.79	1252.50
544.15	1255.48
544.51	1258.69
544.87	1262.55
545.22	1265.05
545.58	1267.07
545.94	1269.26
546.29	1271.40
546.65	1274.02
547.01	1275.55
547.36	1277.36
547.72	1279.43
548.07	1282.10
548.43	1284.36
548.79	1286.48
549.14	1289.12
549.50	1292.24
549.86	1294.50
550.21	1297.71
550.57	1301.48
550.92	1303.12
551.28	1307.00
551.64	1309.67
551.99	1311.57
552.35	1313.31
552.70	1316.69
553.06	1320.67
553.41	1324.31
553.77	1328.86
554.13	1332.10
554.48	1337.24
554.84	1342.10
555.19	1346.64
555.55	1351.60
555.90	1355.60
556.26	1358.67
556.61	1362.64
556.97	1364.69
557.32	1367.21
557.68	1370.48
558.03	1373.76
558.39	1377.48
558.74	1381.05
559.10	1384.26
559.45	1389.07
559.81	1393.36
560.16	1397.26
560.52	1400.64
560.87	1405.14
561.23	1408.24
561.58	1413.98
561.94	1417.36
562.29	1421.36
562.64	1425.31
563.00	1428.26
563.35	1432.62
563.71	1437.74
564.06	1443.05
564.42	1448.43
564.77	1454.74
565.12	1460.62
565.48	1467.57
565.83	1473.60
566.19	1478.71
566.54	1483.98
566.89	1488.64
567.25	1494.62
567.60	1501.19
567.96	1509.00
568.31	1515.14
568.66	1521.29
569.02	1524.93
569.37	1530.05
569.72	1535.24
570.08	1540.69
570.43	1545.48
570.78	1551.40
571.14	1557.17
571.49	1561.98
571.84	1567.86
572.20	1572.76
572.55	1577.36
572.90	1580.36
573.26	1585.36
573.61	1590.00
573.96	1595.02
574.31	1599.45
574.67	1603.98
575.02	1606.60
575.37	1608.71
575.72	1611.90
576.08	1615.83
576.43	1620.12
576.78	1623.62
577.13	1626.64
577.49	1630.55
577.84	1635.07
578.19	1637.93
578.54	1641.48
578.90	1646.12
579.25	1649.57
579.60	1652.93
579.95	1656.33
580.30	1659.93
580.66	1663.12
581.01	1667.07
581.36	1670.45
581.71	1675.02
582.06	1679.21
582.42	1683.10
582.77	1685.88
583.12	1689.79
583.47	1693.48
583.82	1696.76
584.17	1700.55
584.53	1705.00
584.88	1708.62
585.23	1712.31
585.58	1715.07
585.93	1718.45
586.28	1720.98
586.63	1723.60
586.98	1727.57
587.34	1730.79
587.69	1734.02
588.04	1737.05
588.39	1739.71
588.74	1741.40
589.09	1743.55
589.44	1743.71
589.79	1746.76
590.14	1749.83
590.49	1750.31
590.84	1751.36
591.19	1753.29
591.54	1754.95
591.89	1756.64
592.25	1759.93
592.60	1760.52
592.95	1762.95
593.30	1764.83
593.65	1765.69
594.00	1766.43
594.35	1773.36
594.70	1774.88
595.05	1776.21
595.40	1776.43
595.75	1777.36
596.10	1778.86
596.45	1780.07
596.80	1781.83
597.15	1782.60
597.50	1782.38
597.85	1785.43
598.19	1786.12
598.54	1786.76
598.89	1788.05
599.24	1788.83
599.59	1787.36
599.94	1787.81
600.29	1788.05
600.64	1787.55
600.99	1788.48
601.34	1789.62
601.69	1782.55
602.04	1781.36
602.39	1780.48
602.74	1781.83
603.08	1781.26
603.43	1782.12
603.78	1781.36
604.13	1781.31
604.48	1780.69
604.83	1781.86
605.18	1781.81
605.53	1781.83
605.87	1781.10
606.22	1780.10
606.57	1778.31
606.92	1776.98
607.27	1776.43
607.62	1775.52
607.96	1774.60
608.31	1773.05
608.66	1771.79
609.01	1771.24
609.36	1770.93
609.70	1769.67
610.05	1767.02
610.40	1766.45
610.75	1763.88
611.10	1761.67
611.44	1758.60
611.79	1756.14
612.14	1752.71
612.49	1747.21
612.83	1744.48
613.18	1741.98
613.53	1740.21
613.88	1737.67
614.22	1735.33
614.57	1731.33
614.92	1727.74
615.27	1724.31
615.61	1721.14
615.96	1717.79
616.31	1714.93
616.65	1712.38
617.00	1709.33
617.35	1706.64
617.70	1703.52
618.04	1700.43
618.39	1696.57
618.74	1694.00
619.08	1689.81
619.43	1686.64
619.78	1684.93
620.12	1681.55
620.47	1678.29
620.82	1673.00
621.16	1667.95
621.51	1665.55
621.85	1662.81
622.20	1658.76
622.55	1654.69
622.89	1651.36
623.24	1648.48
623.59	1644.40
623.93	1640.14
624.28	1637.19
624.62	1635.05
624.97	1631.98
625.32	1626.29
625.66	1623.55
626.01	1619.52
626.35	1617.26
626.70	1613.95
627.04	1610.98
627.39	1606.02
627.73	1602.86
628.08	1600.36
628.43	1597.64
628.77	1593.19
629.12	1589.93
629.46	1587.24
629.81	1583.76
630.15	1579.38
630.50	1574.40
630.84	1570.10
631.19	1564.98
631.53	1559.88
631.88	1553.17
632.22	1546.74
632.57	1544.14
632.91	1538.43
633.26	1534.00
633.60	1527.55
633.95	1521.26
634.29	1515.86
634.64	1511.71
634.98	1505.71
635.32	1501.38
635.67	1497.50
636.01	1492.88
636.36	1487.38
636.70	1482.33
637.05	1477.69
637.39	1473.50
637.73	1468.88
638.08	1465.00
638.42	1460.40
638.77	1455.48
639.11	1450.62
639.45	1446.26
639.80	1440.81
640.14	1436.86
640.49	1431.64
640.83	1427.02
641.17	1423.50
641.52	1417.90
641.86	1413.43
642.20	1409.40
642.55	1403.00
642.89	1397.07
643.23	1391.38
643.58	1386.98
643.92	1381.02
644.26	1375.74
644.61	1369.83
644.95	1364.19
645.29	1357.71
645.64	1352.93
645.98	1347.48
646.32	1342.67
646.66	1336.55
647.01	1330.69
647.35	1325.40
647.69	1320.38
648.04	1315.45
648.38	1309.86
648.72	1304.43
649.06	1298.21
649.41	1292.14
649.75	1285.40
650.09	1279.55
650.43	1273.00
650.78	1266.26
651.12	1260.40
651.46	1254.07
651.80	1247.93
652.14	1242.31
652.49	1236.98
652.83	1230.74
653.17	1224.26
653.51	1217.71
653.85	1212.10
654.20	1205.83
654.54	1198.00
654.88	1191.36
655.22	1186.17
655.56	1179.52
655.90	1172.60
656.25	1166.17
656.59	1159.93
656.93	1155.05
657.27	1149.71
657.61	1143.43
657.95	1138.26
658.29	1131.26
658.64	1125.74
658.98	1119.24
659.32	1112.26
659.66	1104.93
660.00	1098.19
660.34	1092.02
660.68	1086.17
661.02	1080.12
661.36	1073.95
661.70	1069.45
662.05	1063.17
662.39	1056.74
662.73	1051.55
663.07	1047.17
663.41	1041.52
663.75	1035.71
664.09	1030.12
664.43	1023.98
664.77	1018.31
665.11	1011.69
665.45	1006.88
665.79	1001.12
666.13	995.74
666.47	991.14
666.81	986.29
667.15	980.74
667.49	975.88
667.83	970.69
668.17	965.05
668.51	959.40
668.85	953.55
669.19	948.88
669.53	942.52
669.87	936.48
670.21	930.64
670.55	925.21
670.89	920.24
671.23	914.71
671.57	909.55
671.91	904.62
672.25	899.17
672.58	895.12
672.92	888.98
673.26	884.43
673.60	878.52
673.94	872.95
674.28	868.17
674.62	863.62
674.96	858.24
675.30	852.93
675.64	848.10
675.97	842.69
676.31	836.90
676.65	831.81
676.99	828.26
677.33	822.50
677.67	817.98
678.01	812.60
678.34	807.64
678.68	803.14
679.02	798.24
679.36	792.93
679.70	786.98
680.04	782.31
680.37	776.74
680.71	771.88
681.05	767.55
681.39	762.88
681.73	757.50
682.06	752.74
682.40	748.60
682.74	744.62
683.08	740.98
683.42	736.81
683.75	732.60
684.09	726.50
684.43	722.10
684.77	717.02
685.10	712.17
685.44	707.74
685.78	702.29
686.12	697.79
686.45	693.67
686.79	688.50
687.13	684.79
687.46	680.02
687.80	675.88
688.14	671.36
688.48	666.79
688.81	662.26
689.15	658.29
689.49	653.52
689.82	649.14
690.16	643.74
690.50	639.19
690.83	634.43
691.17	629.52
691.51	625.50
691.84	621.31
692.18	617.00
692.52	612.79
692.85	609.14
693.19	605.67
693.52	601.64
693.86	597.86
694.20	593.29
694.53	589.67
694.87	585.24
695.21	580.81
695.54	576.67
695.88	572.38
696.21	567.86
696.55	563.69
696.88	559.36
697.22	555.33
697.56	551.45
697.89	547.48
698.23	544.31
698.56	540.29
698.90	536.69
699.23	532.81
699.57	528.98
699.90	524.52
700.24	519.93
700.58	516.17
700.91	512.83
701.25	510.95
701.58	508.19
701.92	505.36
702.25	502.52
702.59	498.93
702.92	495.36
703.26	492.29
703.59	489.24
703.93	487.71
704.26	484.88
704.60	481.88
704.93	478.76
705.26	475.43
705.60	472.98
705.93	469.62
706.27	467.19
706.60	464.43
706.94	462.86
707.27	459.90
707.61	456.74
707.94	453.55
708.27	448.93
708.61	445.43
708.94	442.26
709.28	439.33
709.61	436.71
709.94	434.33
710.28	431.31
710.61	428.76
710.95	424.50
711.28	423.24
711.61	420.69
711.95	418.93
712.28	416.86
712.61	413.86
712.95	412.48
713.28	410.98
713.61	408.43
713.95	405.31
714.28	403.40
714.61	401.45
714.95	399.40
715.28	397.33
715.61	394.57
715.95	392.52
716.28	389.98
716.61	388.36
716.95	386.17
717.28	384.10
717.61	381.83
717.94	379.71
718.28	376.33
718.61	374.21
718.94	371.71
719.27	369.33
719.61	367.48
719.94	365.12
720.27	362.19
720.60	359.86
720.94	358.02
721.27	356.31
721.60	355.07
721.93	352.95
722.27	351.69
722.60	350.71
722.93	348.93
723.26	347.50
723.59	345.69
723.93	344.40
724.26	343.17
724.59	341.48
724.92	340.05
725.25	339.02
725.59	337.64
725.92	336.93
726.25	335.64
726.58	334.48
726.91	332.98
727.24	331.79
727.57	330.62
727.91	329.07
728.24	327.71
728.57	325.81
728.90	325.17
729.23	323.38
729.56	322.79
729.89	321.48
730.22	320.24
730.55	318.64
730.89	317.24
731.22	315.88
731.55	314.79
731.88	313.55
732.21	312.14
732.54	310.64
732.87	309.24
733.20	308.17
733.53	307.02
733.86	305.95
734.19	304.60
734.52	303.81
734.85	304.17
735.18	302.86
735.51	302.62
735.84	301.69
736.17	301.21
736.50	299.52
736.83	301.10
737.16	300.12
737.49	299.48
737.82	298.48
738.15	297.67
738.48	296.74
738.81	295.74
739.14	294.90
739.47	294.02
739.80	292.57
740.13	292.12
740.46	290.64
740.79	289.48
741.12	288.71
741.45	287.60
741.78	285.74
742.11	285.48
742.44	284.36
742.77	283.90
743.10	282.55
743.43	281.10
743.75	277.88
744.08	279.55
744.41	278.52
744.74	277.55
745.07	276.38
745.40	275.90
745.73	276.12
746.06	275.21
746.39	274.88
746.71	274.31
747.04	273.14
747.37	272.64
747.70	272.40
748.03	271.69
748.36	271.29
748.68	270.33
749.01	268.81
749.34	267.90
749.67	266.90
750.00	266.79
750.33	267.81
750.65	267.36
750.98	264.55
751.31	263.86
751.64	263.48
751.97	264.10
752.29	263.60
752.62	262.33
752.95	261.62
753.28	260.95
753.60	260.19
753.93	260.10
754.26	259.52
754.59	258.00
754.91	257.07
755.24	256.43
755.57	255.93
755.90	255.62
756.22	254.71
756.55	253.98
756.88	253.10
757.20	251.43
757.53	250.40
757.86	249.74
758.19	249.55
758.51	249.00
758.84	247.40
759.17	246.50
759.49	246.05
759.82	246.81
760.15	246.31
760.47	245.95
760.80	245.19
761.13	244.86
761.45	244.60
761.78	244.43
762.11	243.93
762.43	243.38
762.76	242.98
763.08	243.07
763.41	242.74
763.74	242.29
764.06	242.07
764.39	242.02
764.71	241.48
765.04	241.02
765.37	240.43
765.69	240.26
766.02	239.90
766.34	239.29
766.67	237.90
767.00	237.90
767.32	238.57
767.65	239.21
767.97	238.98
768.30	238.71
768.62	238.48
768.95	238.02
769.27	238.02
769.60	237.90
769.92	237.26
770.25	236.57
770.57	236.10
770.90	235.81
771.22	235.55
771.55	235.50
771.87	235.31
772.20	235.17
772.52	236.60
772.85	238.98
773.17	239.00
773.50	238.79
773.82	238.24
774.15	237.29
774.47	235.83
774.80	235.69
775.12	235.43
775.45	235.19
775.77	235.07
776.09	234.79
776.42	234.60
776.74	234.93
777.07	234.83
777.39	234.64
777.72	234.02
778.04	233.57
778.36	233.07
778.69	232.76
779.01	232.74
779.33	230.60
779.66	228.02
779.98	227.71
780.31	227.62
780.63	228.19
780.95	228.29
781.28	228.31
781.60	227.98
781.92	227.88
782.25	227.62
782.57	227.48
782.89	226.98
783.22	226.79
783.54	226.40
783.86	226.55
784.19	226.40
784.51	226.88
784.83	226.40
785.16	226.02
785.48	225.76
785.80	225.69
786.12	225.98
786.45	225.81
786.77	225.88
787.09	225.64
787.42	224.90
787.74	224.93
788.06	224.43
788.38	223.90
788.71	223.60
789.03	223.48
789.35	223.76
789.67	223.40
789.99	223.48
790.32	222.74
790.64	222.64
790.96	224.07
791.28	223.31
791.61	223.43
791.93	223.79
792.25	223.69
792.57	224.88
792.89	224.29
793.21	224.43
793.54	224.10
793.86	223.86
794.18	223.98
794.50	223.29
794.82	223.48
795.14	223.90
795.47	224.40
795.79	224.48
796.11	223.86
796.43	223.95
796.75	223.76
797.07	223.93
797.39	223.45
797.71	222.14
798.04	222.14
798.36	222.02
798.68	221.76
799.00	221.93
799.32	220.62
799.64	221.02
799.96	220.71
800.28	221.00
800.60	220.69
800.92	220.62
801.24	220.55
801.56	220.74
801.89	220.55
802.21	220.50
802.53	220.17
802.85	220.29
803.17	221.02
803.49	220.40
803.81	220.45
804.13	220.57
804.45	220.29
804.77	220.52
805.09	220.64
805.41	220.52
805.73	220.10
806.05	219.95
806.37	219.71
806.69	219.40
807.01	219.07
807.33	219.45
807.65	218.86
807.97	219.81
808.28	219.36
808.60	219.21
808.92	218.83
809.24	220.19
809.56	220.00
809.88	219.12
810.20	219.36
810.52	219.43
810.84	219.26
811.16	218.90
811.48	218.79
811.80	219.43
812.12	219.48
812.43	219.81
812.75	219.83
813.07	219.62
813.39	219.93
813.71	219.48
814.03	219.17
814.35	219.10
814.67	218.19
814.98	217.98
815.30	217.81
815.62	217.52
815.94	216.00
816.26	215.83
816.58	215.64
816.89	215.67
817.21	215.36
817.53	215.31
817.85	215.48
818.17	215.26
818.48	214.62
818.80	214.93
819.12	214.76
819.44	214.24
819.76	213.86
820.07	213.76
820.39	213.90
820.71	214.00
821.03	214.12
821.34	213.81
821.66	214.40
821.98	214.64
822.30	214.62
822.61	215.71
822.93	215.55
823.25	215.45
823.57	215.17
823.88	215.57
824.20	215.69
824.52	215.83
824.83	215.86
825.15	215.40
825.47	215.26
825.79	215.26
826.10	215.24
826.42	215.50
826.74	215.64
827.05	215.31
827.37	215.02
827.69	214.90
828.00	215.10
828.32	214.88
828.64	214.60
828.95	215.62
829.27	215.10
829.58	215.24
829.90	215.67
830.22	215.83
830.53	215.24
830.85	214.86
831.17	214.52
831.48	214.21
831.80	214.24
832.11	214.12
832.43	213.71
832.75	213.67
833.06	214.74
833.38	214.26
833.69	214.40
834.01	214.79
834.32	214.83
834.64	214.50
834.96	214.33
835.27	214.50
835.59	213.79
835.90	213.40
836.22	213.40
836.53	212.79
836.85	212.76
837.16	214.95
837.48	215.29
837.79	216.10
838.11	216.52
838.42	216.57
838.74	216.88
839.05	216.95
839.37	216.86
839.68	215.40
840.00	215.36
840.31	215.69
840.63	215.50
840.94	215.19
841.26	215.19
841.57	215.07
841.88	215.31
842.20	215.05
842.51	214.67
842.83	214.69
843.14	216.95
843.46	216.88
843.77	215.88
844.08	215.62
844.40	214.81
844.71	214.57
845.03	214.57
845.34	214.24
845.65	214.12
845.97	214.29
846.28	214.69
846.60	214.83
846.91	214.55
847.22	214.57
847.54	214.83
847.85	214.98
848.16	214.90
848.48	214.21
848.79	215.17
849.10	215.55
849.42	215.71
849.73	213.62
850.04	213.60
850.36	212.55
850.67	213.00
850.98	213.02
851.30	213.40
851.61	213.33
851.92	213.43
852.23	214.38
852.55	214.60
852.86	214.57
853.17	214.71
853.49	215.29
853.80	215.71
854.11	216.14
854.42	216.43
854.74	216.24
855.05	216.45
855.36	215.19
855.67	215.45
855.99	215.52
856.30	218.00
856.61	217.90
856.92	218.14
857.23	217.76
857.55	217.52
857.86	217.12
858.17	217.40
858.48	216.98
858.79	216.31
859.11	216.33
859.42	216.19
859.73	215.81
860.04	215.69
860.35	214.98
860.66	214.29
860.98	214.07
861.29	214.36
861.60	214.26
861.91	214.81
862.22	214.40
862.53	213.90
862.84	211.33
863.16	211.83
863.47	211.50
863.78	211.67
864.09	212.02
864.40	212.19
864.71	211.88
865.02	212.29
865.33	211.86
865.64	211.57
865.95	211.57
866.27	213.10
866.58	212.67
866.89	212.90
867.20	213.00
867.51	212.74
867.82	212.62
868.13	213.12
868.44	212.69
868.75	212.93
869.06	213.31
869.37	213.64
869.68	213.24
869.99	213.64
870.30	213.64
870.61	213.90
870.92	213.48
871.23	213.52
871.54	213.69
871.85	214.38
872.16	214.81
872.47	214.52
872.78	213.26
873.09	213.60
873.40	213.52
873.71	213.50
874.02	213.83
874.33	213.64
874.64	213.40
874.95	213.88
875.26	213.26
875.56	212.90
875.87	213.00
876.18	212.67
876.49	214.62
876.80	214.52
877.11	213.90
877.42	214.10
877.73	214.02
878.04	213.55
878.35	213.48
878.66	213.10
878.96	213.26
879.27	213.31
879.58	212.98
879.89	212.83
880.20	213.48
880.51	213.33
880.82	213.38
881.12	213.14
881.43	212.43
881.74	212.45
882.05	212.48
882.36	212.31
882.67	212.52
882.97	210.24
883.28	210.00
883.59	210.07
883.90	210.26
884.21	210.48
884.51	210.43
884.82	210.12
885.13	210.26
885.44	210.12
885.74	210.00
886.05	210.14
886.36	210.14
886.67	209.26
886.98	210.43
887.28	210.81
887.59	210.90
887.90	211.29
888.20	211.33
888.51	211.57
888.82	211.45
889.13	211.52
889.43	213.26
889.74	213.14
890.05	213.05
890.35	213.05
890.66	213.00
890.97	212.98
891.28	212.76
891.58	212.93
891.89	213.14
892.20	213.10
892.50	212.83
892.81	212.83
893.12	212.95
893.42	211.64
893.73	211.86
894.04	212.07
894.34	212.12
894.65	212.24
894.95	212.07
895.26	212.21
895.57	213.10
895.87	211.17
896.18	211.57
896.48	211.76
896.79	211.26
897.10	211.36
897.40	211.24
897.71	211.50
898.01	211.12
898.32	211.36
898.63	211.10
898.93	211.29
899.24	211.19
899.54	211.12
899.85	211.29
900.15	210.90
900.46	210.86
900.76	211.12
901.07	211.02
901.38	211.17
901.68	211.29
901.99	210.33
902.29	210.36
902.60	210.24
902.90	210.12
903.21	210.29
903.51	210.12
903.82	210.71
904.12	210.62
904.43	210.76
904.73	210.48
905.03	210.81
905.34	212.74
905.64	212.79
905.95	212.62
906.25	212.60
906.56	212.43
906.86	212.29
907.17	211.95
907.47	212.02
907.77	211.76
908.08	211.33
908.38	211.60
908.69	211.98
908.99	212.36
909.30	212.38
909.60	212.69
909.90	212.76
910.21	212.10
910.51	211.88
910.81	212.12
911.12	212.40
911.42	212.17
911.73	210.17
912.03	210.19
912.33	210.83
912.64	210.60
912.94	210.52
913.24	210.38
913.55	210.38
913.85	210.40
914.15	210.76
914.46	211.24
914.76	211.02
915.06	210.90
915.37	210.60
915.67	210.52
915.97	210.38
916.27	210.05
916.58	210.40
916.88	210.45
917.18	210.31
917.49	211.90
917.79	212.07
918.09	212.24
918.39	212.81
918.70	212.64
919.00	212.52
919.30	213.50
919.60	213.19
919.91	213.07
920.21	213.02
920.51	212.74
920.81	212.31
921.12	212.81
921.42	212.60
921.72	212.67
922.02	212.93
922.32	213.33
922.63	213.57
922.93	214.31
923.23	214.45
923.53	214.07
923.83	212.48
924.13	212.62
924.44	212.74
924.74	213.10
925.04	213.43
925.34	213.55
925.64	212.76
925.94	212.98
926.24	214.02
926.55	213.93
926.85	214.31
927.15	214.57
927.45	214.26
927.75	214.50
928.05	214.43
928.35	214.17
928.65	214.24
928.95	214.36
929.26	213.76
929.56	214.14
929.86	214.62
930.16	214.43
930.46	214.10
930.76	214.02
931.06	212.98
931.36	212.50
931.66	213.00
931.96	213.29
932.26	213.45
932.56	212.60
932.86	212.71
933.16	212.57
933.46	212.38
933.76	212.24
934.06	212.57
934.36	213.50
934.66	213.40
934.96	213.48
935.26	213.55
935.56	214.05
935.86	213.45
936.16	212.98
936.46	212.74
936.76	212.79
937.06	212.45
937.36	212.60
937.66	212.67
937.96	212.55
938.26	212.05
938.56	211.76
938.86	211.86
939.16	212.17
939.46	212.26
939.76	212.33
940.06	212.40
940.35	211.90
940.65	210.69
940.95	211.07
941.25	210.24
941.55	209.95
941.85	209.33
942.15	209.86
942.45	210.57
942.75	210.52
943.04	210.64
943.34	211.10
943.64	211.02
943.94	210.74
944.24	210.69
944.54	210.83
944.84	210.81
945.13	210.55
945.43	210.52
945.73	210.29
946.03	210.24
946.33	210.05
946.62	209.93
946.92	210.00
947.22	209.98
947.52	210.26
947.82	210.62
948.11	210.69
948.41	210.21
948.71	209.50
949.01	209.83
949.31	209.62
949.60	209.45
949.90	209.83
950.20	209.88
950.50	210.02
950.79	209.98
951.09	210.31
951.39	210.52
951.69	210.12
951.98	210.60
952.28	210.40
952.58	210.17
952.87	210.31
953.17	210.67
953.47	210.17
953.76	210.24
954.06	209.95
954.36	209.62
954.66	209.76
954.95	210.50
955.25	210.45
955.55	210.67
955.84	210.48
956.14	210.74
956.44	210.98
956.73	210.45
957.03	210.48
957.32	210.48
957.62	210.19
957.92	210.67
958.21	210.43
958.51	212.98
958.81	213.33
959.10	213.60
959.40	213.71
959.69	214.21
959.99	214.29
960.29	214.19
960.58	214.07
960.88	214.69
961.17	214.38
961.47	214.40
961.76	214.19
962.06	214.71
962.36	214.33
962.65	214.33
962.95	214.43
963.24	214.38
963.54	214.67
963.83	215.00
964.13	214.83
964.42	214.29
964.72	212.67
965.01	212.76
965.31	212.38
965.60	212.17
965.90	213.45
966.19	213.19
966.49	213.45
966.78	213.62
967.08	213.38
967.37	213.62
967.67	213.57
967.96	213.98
968.26	213.60
968.55	213.71
968.85	213.71
969.14	213.79
969.43	213.64
969.73	213.12
970.02	212.86
970.32	212.83
970.61	212.88
970.91	212.29
971.20	211.98
971.49	211.88
971.79	212.02
972.08	210.57
972.38	210.86
972.67	210.60
972.96	210.81
973.26	210.48
973.55	210.60
973.85	210.45
974.14	210.33
974.43	210.48
974.73	210.12
975.02	209.71
975.31	209.57
975.61	209.57
975.90	209.62
976.19	209.55
976.49	209.79
976.78	210.14
977.07	210.19
977.37	210.12
977.66	210.45
977.95	210.24
978.24	210.31
978.54	210.52
978.83	210.45
979.12	210.50
979.42	210.62
979.71	210.31
980.00	210.29
980.29	210.17
980.59	209.86
980.88	210.43
981.17	210.74
981.46	211.02
981.76	211.10
982.05	211.71
982.34	211.81
982.63	211.57
982.93	211.60
983.22	212.17
983.51	212.57
983.80	212.69
984.09	212.81
984.39	212.60
984.68	212.26
984.97	212.55
985.26	212.33
985.55	212.33
985.85	212.07
986.14	212.43
986.43	212.62
986.72	212.52
987.01	211.95
987.30	211.88
987.59	211.55
987.89	211.57
988.18	211.00
988.47	210.81
988.76	210.62
989.05	210.33
989.34	209.98
989.63	210.48
989.92	210.21
990.22	209.90
990.51	210.02
990.80	209.95
991.09	209.95
991.38	210.24
991.67	209.93
991.96	209.83
992.25	209.71
992.54	209.55
992.83	209.62
993.12	209.57
993.41	209.88
993.70	210.86
993.99	211.29
994.28	211.62
994.58	211.98
994.87	211.88
995.16	211.83
995.45	211.48
995.74	210.67
996.03	211.02
996.32	211.43
996.61	211.76
996.90	211.71
997.19	211.55
997.48	211.40
997.77	211.33
998.06	211.50
998.34	211.29
998.63	211.19
998.92	211.24
999.21	211.45
999.50	211.29
999.79	210.50
1000.08	210.38
1000.37	210.17
1000.66	209.76
1000.95	210.17
1001.24	210.17
1001.53	210.64
1001.82	210.76
1002.11	210.45
1002.40	210.71
1002.68	211.02
1002.97	212.57
1003.26	212.38
1003.55	212.17
1003.84	212.33
1004.13	213.02
1004.42	213.00
1004.71	213.14
1004.99	213.00
1005.28	213.48
1005.57	213.43
1005.86	213.24
1006.15	213.05
1006.44	212.83
1006.72	213.38
1007.01	213.24
1007.30	213.50
1007.59	213.17
1007.88	212.95
1008.17	212.93
1008.45	212.52
1008.74	211.83
1009.03	210.76
1009.32	210.57
1009.60	210.55
1009.89	210.52
1010.18	209.43
1010.47	209.31
1010.76	209.17
1011.04	209.21
1011.33	209.21
1011.62	209.17
1011.91	209.21
1012.19	209.40
1012.48	209.45
1012.77	209.07
1013.05	209.98
1013.34	209.79
1013.63	209.83
1013.92	209.83
1014.20	209.71
1014.49	209.69
1014.78	209.93
1015.06	209.38
1015.35	209.62
1015.64	209.90
1015.92	210.29
1016.21	210.64
1016.50	210.81
1016.78	211.12
1017.07	211.24
1017.36	210.86
1017.64	210.57
1017.93	210.93
1018.22	210.64
1018.50	210.48
1018.79	210.48
1019.08	209.40
1019.36	209.55
1019.65	209.21
1019.93	209.95
1020.22	210.17
1020.51	211.05
1020.79	210.64
1021.08	207.50
1021.36	203.50
1021.65	208.00
1021.94	208.50
1022.22	210.50
1022.51	206.00
1022.79	220.50
1023.08	212.00
1023.36	231.00
1023.65	203.00
>>>>>End Processed Spectral Data<<<<<
