SpectraSuite Data File
++++++++++++++++++++++++++++++++++++
Date: Tue Apr 02 18:37:35 EDT 2013
User: group
Dark Spectrum Present: No
Reference Spectrum Present: No
Number of Sampled Component Spectra: 1
Spectrometers: USB2E7196
Integration Time (usec): 580000 (USB2E7196)
Spectra Averaged: 2 (USB2E7196)
Boxcar Smoothing: 10 (USB2E7196)
Correct for Electrical Dark: No (USB2E7196)
Strobe/Lamp Enabled: No (USB2E7196)
Correct for Detector Non-linearity: No (USB2E7196)
Correct for Stray Light: No (USB2E7196)
Number of Pixels in Processed Spectrum: 2048
>>>>>Begin Processed Spectral Data<<<<<
339.09	0.00
339.48	191.50
339.86	195.50
340.24	198.00
340.63	194.50
341.01	230.50
341.39	207.00
341.78	208.50
342.16	212.50
342.54	202.50
342.93	196.83
343.31	206.48
343.69	207.00
344.07	207.43
344.46	208.07
344.84	208.93
345.22	207.81
345.60	207.90
345.99	208.02
346.37	207.71
346.75	207.95
347.13	208.10
347.52	208.36
347.90	209.19
348.28	209.33
348.66	209.93
349.05	209.07
349.43	209.45
349.81	209.48
350.19	209.43
350.57	209.86
350.96	210.36
351.34	210.98
351.72	211.17
352.10	211.36
352.48	211.36
352.87	211.26
353.25	211.29
353.63	211.33
354.01	211.33
354.39	211.88
354.77	211.98
355.15	212.48
355.54	212.33
355.92	211.60
356.30	211.76
356.68	213.05
357.06	213.40
357.44	213.02
357.82	213.05
358.20	214.19
358.58	214.40
358.97	214.40
359.35	214.67
359.73	215.29
360.11	215.40
360.49	215.45
360.87	215.64
361.25	216.10
361.63	216.76
362.01	216.93
362.39	216.86
362.77	217.19
363.15	217.19
363.53	217.36
363.91	217.81
364.29	217.98
364.67	216.07
365.05	216.17
365.43	216.40
365.81	216.83
366.19	216.81
366.57	217.45
366.95	217.57
367.33	217.14
367.71	216.95
368.09	217.26
368.47	217.26
368.85	217.26
369.23	217.67
369.61	217.21
369.99	217.95
370.37	218.00
370.75	218.83
371.13	218.57
371.51	218.24
371.89	218.31
372.27	218.40
372.65	218.76
373.03	218.95
373.41	218.81
373.78	218.55
374.16	217.74
374.54	217.10
374.92	217.05
375.30	217.19
375.68	216.71
376.06	216.76
376.44	216.62
376.82	216.67
377.19	216.40
377.57	216.17
377.95	215.38
378.33	215.33
378.71	213.98
379.09	214.38
379.47	214.86
379.84	214.67
380.22	214.36
380.60	213.93
380.98	213.62
381.36	213.64
381.73	213.33
382.11	213.90
382.49	214.00
382.87	213.45
383.25	213.29
383.62	215.64
384.00	215.31
384.38	215.60
384.76	215.86
385.13	216.81
385.51	216.69
385.89	216.31
386.27	216.60
386.64	216.98
387.02	216.36
387.40	216.14
387.78	216.14
388.15	216.19
388.53	215.95
388.91	215.98
389.29	215.98
389.66	216.05
390.04	215.60
390.42	215.83
390.79	216.33
391.17	216.31
391.55	214.12
391.92	214.14
392.30	213.88
392.68	213.52
393.05	213.33
393.43	213.52
393.81	213.98
394.18	213.45
394.56	213.62
394.94	214.29
395.31	214.00
395.69	214.52
396.06	214.83
396.44	215.02
396.82	214.79
397.19	215.86
397.57	215.90
397.95	216.31
398.32	215.74
398.70	215.83
399.07	216.31
399.45	216.21
399.82	216.36
400.20	216.62
400.58	216.50
400.95	215.48
401.33	216.14
401.70	217.52
402.08	217.52
402.45	217.55
402.83	218.10
403.20	218.43
403.58	218.33
403.95	218.74
404.33	219.38
404.71	220.02
405.08	220.90
405.46	221.31
405.83	221.62
406.21	222.12
406.58	222.48
406.96	222.90
407.33	223.95
407.70	224.67
408.08	226.71
408.45	227.74
408.83	229.19
409.20	229.55
409.58	229.33
409.95	230.98
410.33	232.14
410.70	232.57
411.08	234.10
411.45	235.48
411.82	236.50
412.20	238.33
412.57	240.86
412.95	240.88
413.32	242.81
413.69	244.29
414.07	246.24
414.44	248.60
414.82	251.05
415.19	253.62
415.56	256.24
415.94	257.74
416.31	261.17
416.68	264.07
417.06	267.88
417.43	271.88
417.81	275.83
418.18	280.07
418.55	284.50
418.93	289.05
419.30	293.76
419.67	298.93
420.04	303.88
420.42	308.83
420.79	316.55
421.16	323.24
421.54	331.43
421.91	338.90
422.28	345.76
422.66	353.10
423.03	362.40
423.40	370.26
423.77	379.00
424.15	387.71
424.52	396.57
424.89	406.55
425.26	416.05
425.64	424.69
426.01	434.29
426.38	444.60
426.75	455.86
427.13	467.07
427.50	478.67
427.87	490.60
428.24	502.62
428.61	513.36
428.99	526.43
429.36	538.76
429.73	551.93
430.10	565.45
430.47	579.50
430.85	592.29
431.22	607.50
431.59	624.60
431.96	639.69
432.33	656.69
432.70	672.81
433.08	691.45
433.45	709.76
433.82	728.02
434.19	748.12
434.56	768.19
434.93	787.12
435.30	806.10
435.68	827.10
436.05	847.60
436.42	868.31
436.79	887.86
437.16	908.45
437.53	930.43
437.90	952.31
438.27	973.95
438.64	995.17
439.01	1016.07
439.38	1033.26
439.75	1051.21
440.13	1071.79
440.50	1091.17
440.87	1106.79
441.24	1123.12
441.61	1141.31
441.98	1155.57
442.35	1169.69
442.72	1185.55
443.09	1201.88
443.46	1211.33
443.83	1217.83
444.20	1223.24
444.57	1230.19
444.94	1234.45
445.31	1237.83
445.68	1244.40
446.05	1246.21
446.42	1245.31
446.79	1244.00
447.16	1242.29
447.53	1240.83
447.90	1233.24
448.27	1225.88
448.64	1215.88
449.01	1208.19
449.37	1194.33
449.74	1180.26
450.11	1167.21
450.48	1149.74
450.85	1131.38
451.22	1116.29
451.59	1102.48
451.96	1088.79
452.33	1070.33
452.70	1054.10
453.07	1034.17
453.43	1011.31
453.80	991.60
454.17	972.55
454.54	953.52
454.91	933.67
455.28	914.36
455.65	896.43
456.02	881.45
456.38	866.05
456.75	847.71
457.12	832.19
457.49	817.31
457.86	800.24
458.23	787.64
458.59	773.50
458.96	759.21
459.33	746.50
459.70	734.10
460.07	724.38
460.43	712.12
460.80	701.83
461.17	692.48
461.54	683.05
461.91	673.81
462.27	663.62
462.64	655.90
463.01	647.10
463.38	639.00
463.74	627.14
464.11	619.45
464.48	612.79
464.85	605.40
465.21	599.86
465.58	593.71
465.95	586.19
466.32	579.83
466.68	573.74
467.05	567.71
467.42	561.69
467.78	554.86
468.15	549.29
468.52	545.21
468.88	538.88
469.25	533.17
469.62	529.00
469.98	525.12
470.35	520.48
470.72	516.60
471.08	511.76
471.45	508.67
471.82	505.45
472.18	501.26
472.55	498.24
472.92	494.21
473.28	491.07
473.65	488.19
474.02	485.48
474.38	483.24
474.75	480.98
475.11	478.52
475.48	476.98
475.85	474.90
476.21	472.43
476.58	471.26
476.94	469.55
477.31	467.79
477.67	466.69
478.04	465.50
478.41	464.48
478.77	465.67
479.14	464.21
479.50	463.64
479.87	463.69
480.23	463.83
480.60	463.55
480.96	463.60
481.33	464.52
481.69	464.05
482.06	463.95
482.42	464.57
482.79	465.24
483.15	465.90
483.52	467.07
483.88	468.05
484.25	469.10
484.61	470.33
484.98	471.67
485.34	474.07
485.71	476.43
486.07	478.57
486.44	478.76
486.80	481.33
487.17	483.36
487.53	486.24
487.90	488.86
488.26	492.57
488.62	496.21
488.99	498.36
489.35	502.31
489.72	506.10
490.08	509.45
490.44	513.21
490.81	517.79
491.17	522.05
491.54	526.48
491.90	530.86
492.26	535.62
492.63	541.24
492.99	545.55
493.36	550.40
493.72	556.17
494.08	562.02
494.45	567.76
494.81	574.38
495.17	580.62
495.54	587.17
495.90	593.10
496.26	599.67
496.63	607.52
496.99	614.52
497.35	622.21
497.72	629.64
498.08	637.21
498.44	644.43
498.80	652.88
499.17	660.81
499.53	669.43
499.89	678.26
500.26	687.14
500.62	695.86
500.98	704.95
501.34	714.00
501.71	723.71
502.07	733.67
502.43	742.60
502.79	751.76
503.16	761.38
503.52	771.29
503.88	780.69
504.24	790.76
504.60	800.67
504.97	810.88
505.33	820.93
505.69	831.79
506.05	842.33
506.41	852.48
506.78	863.10
507.14	873.40
507.50	883.95
507.86	893.55
508.22	903.93
508.59	913.38
508.95	923.33
509.31	934.38
509.67	944.12
510.03	953.50
510.39	963.40
510.75	973.24
511.12	983.10
511.48	993.50
511.84	1002.33
512.20	1012.81
512.56	1022.69
512.92	1032.86
513.28	1042.90
513.64	1052.33
514.00	1061.52
514.37	1071.26
514.73	1080.67
515.09	1090.31
515.45	1099.31
515.81	1108.83
516.17	1118.76
516.53	1127.76
516.89	1135.05
517.25	1144.05
517.61	1153.55
517.97	1161.86
518.33	1169.88
518.69	1178.69
519.05	1186.12
519.41	1193.90
519.77	1202.10
520.13	1209.52
520.49	1217.02
520.85	1223.76
521.21	1231.86
521.57	1239.19
521.93	1245.74
522.29	1252.60
522.65	1258.26
523.01	1265.52
523.37	1271.00
523.73	1277.29
524.09	1283.26
524.45	1289.60
524.81	1294.33
525.17	1299.67
525.53	1305.60
525.89	1311.17
526.25	1316.05
526.61	1321.33
526.97	1326.76
527.33	1330.76
527.68	1336.81
528.04	1340.81
528.40	1345.05
528.76	1349.31
529.12	1353.71
529.48	1358.00
529.84	1361.88
530.20	1366.38
530.56	1370.17
530.91	1374.64
531.27	1378.62
531.63	1383.00
531.99	1385.62
532.35	1389.67
532.71	1393.55
533.07	1396.79
533.42	1402.67
533.78	1405.55
534.14	1409.43
534.50	1412.33
534.86	1416.00
535.21	1417.05
535.57	1421.07
535.93	1423.05
536.29	1426.45
536.65	1429.93
537.00	1432.57
537.36	1434.31
537.72	1436.40
538.08	1438.26
538.44	1439.67
538.79	1441.19
539.15	1442.55
539.51	1445.76
539.87	1447.31
540.22	1448.38
540.58	1450.55
540.94	1449.93
541.29	1451.79
541.65	1451.86
542.01	1453.19
542.37	1453.81
542.72	1453.98
543.08	1453.36
543.44	1454.52
543.79	1453.02
544.15	1452.83
544.51	1453.67
544.87	1453.67
545.22	1453.48
545.58	1453.29
545.94	1453.57
546.29	1453.12
546.65	1452.02
547.01	1450.48
547.36	1450.12
547.72	1449.55
548.07	1448.81
548.43	1447.24
548.79	1445.14
549.14	1443.76
549.50	1442.88
549.86	1440.71
550.21	1440.40
550.57	1440.17
550.92	1438.67
551.28	1437.74
551.64	1435.90
551.99	1434.05
552.35	1433.12
552.70	1432.36
553.06	1431.71
553.41	1430.02
553.77	1429.55
554.13	1428.98
554.48	1428.10
554.84	1427.40
555.19	1425.67
555.55	1425.40
555.90	1423.90
556.26	1423.24
556.61	1421.83
556.97	1419.55
557.32	1418.19
557.68	1416.31
558.03	1413.86
558.39	1412.48
558.74	1410.64
559.10	1408.81
559.45	1407.29
559.81	1405.86
560.16	1403.88
560.52	1401.48
560.87	1400.21
561.23	1397.90
561.58	1397.38
561.94	1395.40
562.29	1392.71
562.64	1391.19
563.00	1386.98
563.35	1385.17
563.71	1383.21
564.06	1382.74
564.42	1381.64
564.77	1380.88
565.12	1380.17
565.48	1380.36
565.83	1379.07
566.19	1378.33
566.54	1377.02
566.89	1375.17
567.25	1374.62
567.60	1374.38
567.96	1374.76
568.31	1373.79
568.66	1372.64
569.02	1369.45
569.37	1367.38
569.72	1366.02
570.08	1364.50
570.43	1363.38
570.78	1362.45
571.14	1360.48
571.49	1357.21
571.84	1354.93
572.20	1353.10
572.55	1350.45
572.90	1346.60
573.26	1343.02
573.61	1339.52
573.96	1336.90
574.31	1334.24
574.67	1330.21
575.02	1326.60
575.37	1321.40
575.72	1317.12
576.08	1313.93
576.43	1310.31
576.78	1306.98
577.13	1303.07
577.49	1299.69
577.84	1296.60
578.19	1292.98
578.54	1289.69
578.90	1287.21
579.25	1283.81
579.60	1279.07
579.95	1275.10
580.30	1271.10
580.66	1269.48
581.01	1266.76
581.36	1262.71
581.71	1258.81
582.06	1257.05
582.42	1252.79
582.77	1248.60
583.12	1244.83
583.47	1240.14
583.82	1236.62
584.17	1233.00
584.53	1230.62
584.88	1226.88
585.23	1223.52
585.58	1218.81
585.93	1214.02
586.28	1209.17
586.63	1204.98
586.98	1201.17
587.34	1197.64
587.69	1194.19
588.04	1188.52
588.39	1183.26
588.74	1177.88
589.09	1173.90
589.44	1166.74
589.79	1162.95
590.14	1160.02
590.49	1155.69
590.84	1150.88
591.19	1146.74
591.54	1142.19
591.89	1136.62
592.25	1133.52
592.60	1127.36
592.95	1123.83
593.30	1120.52
593.65	1116.43
594.00	1111.29
594.35	1112.12
594.70	1106.83
595.05	1102.12
595.40	1097.48
595.75	1093.43
596.10	1089.88
596.45	1085.76
596.80	1082.88
597.15	1078.07
597.50	1072.67
597.85	1068.69
598.19	1065.19
598.54	1060.02
598.89	1054.93
599.24	1050.67
599.59	1045.36
599.94	1041.31
600.29	1036.88
600.64	1032.24
600.99	1028.43
601.34	1024.95
601.69	1015.38
602.04	1011.21
602.39	1006.19
602.74	1002.71
603.08	998.00
603.43	994.31
603.78	988.79
604.13	983.88
604.48	979.14
604.83	975.45
605.18	971.10
605.53	965.93
605.87	961.88
606.22	958.05
606.57	953.76
606.92	949.19
607.27	945.62
607.62	940.43
607.96	936.05
608.31	931.17
608.66	926.71
609.01	922.10
609.36	917.55
609.70	913.76
610.05	908.57
610.40	904.31
610.75	899.55
611.10	896.31
611.44	891.81
611.79	887.21
612.14	883.14
612.49	877.67
612.83	872.83
613.18	868.43
613.53	863.95
613.88	859.43
614.22	853.60
614.57	848.17
614.92	843.86
615.27	839.36
615.61	834.62
615.96	830.12
616.31	826.31
616.65	823.21
617.00	818.90
617.35	814.83
617.70	810.38
618.04	806.12
618.39	800.69
618.74	796.71
619.08	792.71
619.43	788.17
619.78	784.52
620.12	781.31
620.47	777.57
620.82	773.55
621.16	769.21
621.51	767.55
621.85	763.98
622.20	760.71
622.55	756.57
622.89	752.95
623.24	749.57
623.59	745.45
623.93	740.98
624.28	737.52
624.62	736.40
624.97	734.17
625.32	730.71
625.66	727.45
626.01	723.74
626.35	719.95
626.70	716.02
627.04	713.50
627.39	709.81
627.73	706.86
628.08	703.64
628.43	700.19
628.77	694.93
629.12	691.81
629.46	688.29
629.81	684.98
630.15	681.07
630.50	676.86
630.84	673.26
631.19	669.36
631.53	665.48
631.88	659.38
632.22	654.86
632.57	651.62
632.91	648.26
633.26	645.21
633.60	641.40
633.95	637.90
634.29	633.79
634.64	630.52
634.98	626.55
635.32	624.00
635.67	621.07
636.01	618.64
636.36	614.93
636.70	611.88
637.05	608.67
637.39	605.38
637.73	602.67
638.08	600.36
638.42	597.62
638.77	594.88
639.11	592.21
639.45	589.10
639.80	585.43
640.14	582.71
640.49	579.10
640.83	576.24
641.17	573.50
641.52	570.50
641.86	567.95
642.20	565.64
642.55	561.71
642.89	558.64
643.23	555.40
643.58	553.12
643.92	549.45
644.26	547.00
644.61	545.10
644.95	542.10
645.29	538.60
645.64	535.57
645.98	532.17
646.32	529.57
646.66	526.71
647.01	524.07
647.35	521.26
647.69	518.69
648.04	516.43
648.38	513.64
648.72	510.79
649.06	507.38
649.41	503.74
649.75	501.24
650.09	498.55
650.43	495.81
650.78	492.38
651.12	489.88
651.46	486.62
651.80	483.62
652.14	481.02
652.49	478.93
652.83	476.24
653.17	474.00
653.51	471.24
653.85	469.07
654.20	466.67
654.54	463.88
654.88	461.31
655.22	459.83
655.56	456.98
655.90	454.88
656.25	452.76
656.59	450.90
656.93	448.67
657.27	447.26
657.61	444.74
657.95	443.29
658.29	441.21
658.64	439.71
658.98	437.50
659.32	435.17
659.66	432.45
660.00	430.93
660.34	428.98
660.68	426.83
661.02	424.62
661.36	422.57
661.70	420.76
662.05	418.90
662.39	416.57
662.73	415.74
663.07	415.07
663.41	413.29
663.75	411.10
664.09	409.33
664.43	406.40
664.77	405.02
665.11	402.67
665.45	400.93
665.79	399.40
666.13	397.36
666.47	395.60
666.81	394.12
667.15	391.95
667.49	390.38
667.83	389.29
668.17	387.71
668.51	386.26
668.85	385.14
669.19	384.52
669.53	382.38
669.87	380.48
670.21	378.02
670.55	376.76
670.89	376.31
671.23	374.83
671.57	373.83
671.91	372.45
672.25	371.26
672.58	370.64
672.92	368.48
673.26	367.26
673.60	366.19
673.94	364.83
674.28	363.76
674.62	362.69
674.96	361.26
675.30	360.24
675.64	358.79
675.97	357.00
676.31	355.02
676.65	353.57
676.99	352.88
677.33	351.12
677.67	350.02
678.01	347.60
678.34	346.40
678.68	345.64
679.02	344.14
679.36	342.83
679.70	340.62
680.04	339.52
680.37	338.50
680.71	337.19
681.05	336.19
681.39	335.12
681.73	333.90
682.06	332.33
682.40	330.90
682.74	329.93
683.08	329.88
683.42	328.62
683.75	327.98
684.09	325.98
684.43	325.07
684.77	323.45
685.10	322.60
685.44	321.74
685.78	320.05
686.12	318.90
686.45	317.93
686.79	316.83
687.13	316.31
687.46	314.98
687.80	314.38
688.14	313.26
688.48	312.26
688.81	311.26
689.15	310.86
689.49	309.67
689.82	308.67
690.16	306.86
690.50	305.67
690.83	304.29
691.17	303.36
691.51	302.24
691.84	301.83
692.18	300.95
692.52	299.88
692.85	299.40
693.19	299.26
693.52	298.26
693.86	297.52
694.20	296.90
694.53	296.38
694.87	295.10
695.21	294.26
695.54	293.36
695.88	292.14
696.21	290.67
696.55	290.21
696.88	289.26
697.22	288.12
697.56	287.86
697.89	286.93
698.23	286.60
698.56	285.86
698.90	285.05
699.23	284.17
699.57	283.55
699.90	282.45
700.24	281.50
700.58	280.93
700.91	280.71
701.25	281.05
701.58	280.79
701.92	280.74
702.25	280.02
702.59	279.26
702.92	279.05
703.26	278.62
703.59	278.14
703.93	279.50
704.26	279.24
704.60	278.76
704.93	278.57
705.26	277.55
705.60	277.55
705.93	276.71
706.27	276.93
706.60	276.74
706.94	277.21
707.27	276.05
707.61	275.76
707.94	274.88
708.27	273.17
708.61	272.00
708.94	271.26
709.28	270.95
709.61	270.24
709.94	269.31
710.28	268.83
710.61	268.10
710.95	265.57
711.28	266.43
711.61	265.52
711.95	265.17
712.28	264.52
712.61	263.88
712.95	264.40
713.28	264.43
713.61	263.50
713.95	262.10
714.28	261.86
714.61	261.07
714.95	260.57
715.28	259.45
715.61	258.93
715.95	258.55
716.28	257.67
716.61	257.88
716.95	257.19
717.28	256.67
717.61	256.02
717.94	255.50
718.28	253.50
718.61	252.93
718.94	252.60
719.27	252.26
719.61	251.90
719.94	251.10
720.27	249.60
720.60	249.07
720.94	248.60
721.27	248.36
721.60	248.24
721.93	247.64
722.27	248.05
722.60	248.02
722.93	247.31
723.26	247.26
723.59	246.29
723.93	246.50
724.26	246.29
724.59	245.90
724.92	245.88
725.25	246.02
725.59	245.79
725.92	245.36
726.25	245.02
726.58	244.57
726.91	243.83
727.24	243.90
727.57	243.55
727.91	243.26
728.24	243.00
728.57	242.52
728.90	242.67
729.23	241.79
729.56	242.69
729.89	242.57
730.22	242.10
730.55	242.07
730.89	241.76
731.22	241.21
731.55	241.00
731.88	240.79
732.21	240.38
732.54	240.19
732.87	239.83
733.20	239.57
733.53	239.43
733.86	239.36
734.19	238.86
734.52	238.95
734.85	240.19
735.18	239.76
735.51	240.14
735.84	239.81
736.17	240.24
736.50	238.60
736.83	240.55
737.16	240.57
737.49	240.50
737.82	240.12
738.15	240.60
738.48	240.43
738.81	240.07
739.14	239.52
739.47	239.14
739.80	239.17
740.13	239.24
740.46	238.79
740.79	238.12
741.12	237.62
741.45	237.19
741.78	235.93
742.11	236.38
742.44	235.81
742.77	235.98
743.10	235.43
743.43	235.26
743.75	232.90
744.08	235.40
744.41	234.76
744.74	234.57
745.07	233.76
745.40	233.76
745.73	234.36
746.06	234.21
746.39	234.29
746.71	233.83
747.04	233.38
747.37	233.19
747.70	233.90
748.03	234.26
748.36	234.55
748.68	234.17
749.01	233.43
749.34	233.33
749.67	233.31
750.00	233.38
750.33	234.95
750.65	235.24
750.98	232.24
751.31	232.36
751.64	232.36
751.97	233.55
752.29	233.31
752.62	232.40
752.95	232.36
753.28	231.98
753.60	231.79
753.93	232.12
754.26	232.12
754.59	231.14
754.91	230.69
755.24	230.14
755.57	229.93
755.90	229.36
756.22	229.12
756.55	228.45
756.88	227.98
757.20	226.24
757.53	225.43
757.86	225.48
758.19	225.33
758.51	225.07
758.84	223.79
759.17	223.60
759.49	223.33
759.82	224.29
760.15	224.36
760.47	224.17
760.80	223.57
761.13	223.71
761.45	223.57
761.78	223.31
762.11	223.29
762.43	223.00
762.76	223.14
763.08	222.86
763.41	222.86
763.74	222.90
764.06	222.98
764.39	222.86
764.71	222.67
765.04	222.36
765.37	222.10
765.69	221.93
766.02	221.83
766.34	221.86
766.67	220.79
767.00	221.10
767.32	222.17
767.65	223.43
767.97	223.29
768.30	223.40
768.62	223.60
768.95	223.43
769.27	223.45
769.60	223.79
769.92	223.60
770.25	223.21
770.57	222.71
770.90	222.43
771.22	222.14
771.55	221.86
771.87	221.90
772.20	221.79
772.52	223.43
772.85	225.71
773.17	225.76
773.50	225.62
773.82	225.31
774.15	224.19
774.47	222.74
774.80	222.48
775.12	222.60
775.45	222.38
775.77	222.29
776.09	222.38
776.42	222.21
776.74	222.64
777.07	222.55
777.39	222.62
777.72	222.33
778.04	222.45
778.36	222.43
778.69	222.57
779.01	222.67
779.33	220.90
779.66	218.86
779.98	218.50
780.31	218.62
780.63	219.26
780.95	219.62
781.28	219.90
781.60	219.57
781.92	219.33
782.25	219.00
782.57	219.07
782.89	218.81
783.22	218.62
783.54	218.45
783.86	218.69
784.19	218.76
784.51	219.43
784.83	219.24
785.16	219.10
785.48	218.86
785.80	218.98
786.12	219.21
786.45	219.02
786.77	219.17
787.09	218.93
787.42	218.17
787.74	218.12
788.06	217.86
788.38	217.67
788.71	217.48
789.03	217.88
789.35	218.07
789.67	217.76
789.99	217.88
790.32	217.43
790.64	217.71
790.96	219.19
791.28	218.43
791.61	218.31
791.93	218.50
792.25	218.33
792.57	219.50
792.89	219.00
793.21	218.90
793.54	218.95
793.86	218.74
794.18	218.62
794.50	217.93
794.82	217.86
795.14	218.24
795.47	218.50
795.79	218.45
796.11	218.00
796.43	218.07
796.75	217.98
797.07	218.33
797.39	217.98
797.71	216.36
798.04	216.64
798.36	217.05
798.68	217.07
799.00	217.31
799.32	216.24
799.64	216.76
799.96	216.90
800.28	217.12
800.60	217.12
800.92	217.64
801.24	217.81
801.56	218.12
801.89	217.74
802.21	217.74
802.53	217.40
802.85	217.98
803.17	218.95
803.49	218.60
803.81	218.48
804.13	218.38
804.45	218.19
804.77	218.21
805.09	218.05
805.41	217.76
805.73	217.50
806.05	217.07
806.37	216.95
806.69	216.55
807.01	216.43
807.33	216.67
807.65	215.88
807.97	217.00
808.28	216.79
808.60	216.76
808.92	216.60
809.24	217.98
809.56	217.69
809.88	216.98
810.20	217.19
810.52	217.45
810.84	217.19
811.16	217.19
811.48	217.05
811.80	217.98
812.12	218.00
812.43	218.17
812.75	218.45
813.07	218.10
813.39	218.21
813.71	218.02
814.03	217.71
814.35	217.93
814.67	216.93
814.98	216.86
815.30	217.10
815.62	216.62
815.94	215.10
816.26	214.88
816.58	214.62
816.89	214.64
817.21	214.00
817.53	214.00
817.85	214.29
818.17	214.29
818.48	213.26
818.80	213.76
819.12	213.48
819.44	213.07
819.76	212.74
820.07	212.93
820.39	212.69
820.71	212.95
821.03	212.67
821.34	212.57
821.66	212.76
821.98	213.21
822.30	213.50
822.61	214.86
822.93	214.71
823.25	214.60
823.57	214.55
823.88	214.98
824.20	215.21
824.52	215.57
824.83	215.26
825.15	215.00
825.47	214.83
825.79	215.19
826.10	215.19
826.42	215.19
826.74	215.55
827.05	215.38
827.37	215.36
827.69	215.31
828.00	215.43
828.32	215.31
828.64	214.74
828.95	215.79
829.27	215.07
829.58	215.02
829.90	215.50
830.22	215.43
830.53	215.07
830.85	214.88
831.17	214.17
831.48	214.64
831.80	214.81
832.11	214.69
832.43	214.33
832.75	214.19
833.06	215.38
833.38	214.45
833.69	214.57
834.01	214.50
834.32	214.71
834.64	214.50
834.96	214.60
835.27	214.74
835.59	214.05
835.90	213.83
836.22	214.02
836.53	213.33
836.85	213.29
837.16	215.38
837.48	215.31
837.79	216.14
838.11	216.05
838.42	216.10
838.74	216.33
839.05	216.05
839.37	216.26
839.68	215.00
840.00	215.26
840.31	215.50
840.63	215.43
840.94	215.21
841.26	214.95
841.57	214.88
841.88	214.86
842.20	214.45
842.51	214.21
842.83	214.14
843.14	216.21
843.46	216.52
843.77	215.17
844.08	215.12
844.40	214.40
844.71	214.21
845.03	213.95
845.34	213.64
845.65	214.00
845.97	213.86
846.28	214.00
846.60	214.00
846.91	213.83
847.22	213.74
847.54	214.19
847.85	214.40
848.16	214.21
848.48	213.95
848.79	214.93
849.10	215.00
849.42	215.17
849.73	213.31
850.04	213.02
850.36	212.21
850.67	212.64
850.98	212.60
851.30	212.76
851.61	212.81
851.92	212.76
852.23	213.24
852.55	213.38
852.86	213.69
853.17	214.07
853.49	214.60
853.80	215.17
854.11	215.17
854.42	215.76
854.74	215.55
855.05	215.60
855.36	214.45
855.67	214.67
855.99	214.33
856.30	217.00
856.61	216.86
856.92	217.21
857.23	217.00
857.55	216.83
857.86	216.79
858.17	217.14
858.48	216.74
858.79	216.29
859.11	216.52
859.42	216.19
859.73	215.62
860.04	215.38
860.35	214.76
860.66	214.14
860.98	213.88
861.29	214.12
861.60	214.05
861.91	214.64
862.22	214.21
862.53	214.21
862.84	211.57
863.16	212.14
863.47	211.69
863.78	211.67
864.09	211.64
864.40	211.55
864.71	211.64
865.02	212.10
865.33	211.83
865.64	211.31
865.95	211.40
866.27	213.14
866.58	212.98
866.89	213.19
867.20	213.31
867.51	213.07
867.82	212.86
868.13	213.55
868.44	213.02
868.75	213.62
869.06	213.83
869.37	214.07
869.68	213.64
869.99	214.12
870.30	214.07
870.61	214.48
870.92	214.36
871.23	213.98
871.54	214.19
871.85	214.55
872.16	215.10
872.47	214.86
872.78	213.19
873.09	213.33
873.40	213.26
873.71	213.55
874.02	213.52
874.33	213.62
874.64	212.95
874.95	213.19
875.26	212.79
875.56	212.57
875.87	212.33
876.18	211.95
876.49	214.00
876.80	213.95
877.11	213.67
877.42	213.71
877.73	213.71
878.04	213.29
878.35	213.26
878.66	213.19
878.96	213.21
879.27	213.19
879.58	213.07
879.89	212.88
880.20	213.29
880.51	213.00
880.82	212.95
881.12	213.12
881.43	212.79
881.74	212.43
882.05	212.45
882.36	212.86
882.67	213.24
882.97	210.93
883.28	210.71
883.59	210.74
883.90	211.07
884.21	211.55
884.51	211.64
884.82	211.64
885.13	211.57
885.44	211.71
885.74	211.69
886.05	211.40
886.36	211.45
886.67	210.64
886.98	211.98
887.28	212.38
887.59	212.36
887.90	212.48
888.20	212.52
888.51	212.83
888.82	212.19
889.13	212.19
889.43	213.67
889.74	213.48
890.05	213.26
890.35	212.81
890.66	212.33
890.97	212.19
891.28	211.86
891.58	211.79
891.89	211.60
892.20	211.33
892.50	211.50
892.81	211.33
893.12	211.55
893.42	210.64
893.73	210.74
894.04	210.74
894.34	210.76
894.65	210.88
894.95	210.62
895.26	210.98
895.57	211.86
895.87	210.17
896.18	210.83
896.48	210.98
896.79	211.17
897.10	211.57
897.40	211.71
897.71	212.12
898.01	211.83
898.32	212.26
898.63	212.45
898.93	212.40
899.24	212.40
899.54	212.31
899.85	212.10
900.15	211.74
900.46	211.69
900.76	211.83
901.07	211.52
901.38	211.57
901.68	211.64
901.99	210.76
902.29	210.98
902.60	210.69
902.90	210.60
903.21	210.79
903.51	210.48
903.82	210.79
904.12	210.81
904.43	211.00
904.73	210.81
905.03	211.07
905.34	213.17
905.64	213.26
905.95	213.00
906.25	212.83
906.56	212.64
906.86	212.74
907.17	212.86
907.47	213.21
907.77	212.86
908.08	212.57
908.38	212.64
908.69	212.83
908.99	213.05
909.30	213.17
909.60	213.26
909.90	213.60
910.21	213.07
910.51	212.57
910.81	212.81
911.12	212.98
911.42	213.00
911.73	210.67
912.03	210.74
912.33	211.31
912.64	211.31
912.94	211.26
913.24	211.24
913.55	211.07
913.85	210.76
914.15	211.38
914.46	211.48
914.76	211.33
915.06	211.05
915.37	210.81
915.67	210.67
915.97	210.40
916.27	209.90
916.58	210.17
916.88	210.43
917.18	210.14
917.49	211.36
917.79	211.17
918.09	211.62
918.39	212.14
918.70	211.95
919.00	211.93
919.30	212.93
919.60	212.50
919.91	212.26
920.21	212.52
920.51	212.02
920.81	211.90
921.12	212.36
921.42	212.26
921.72	212.50
922.02	212.69
922.32	212.83
922.63	212.93
922.93	213.74
923.23	213.71
923.53	213.67
923.83	212.33
924.13	212.52
924.44	212.50
924.74	212.93
925.04	213.43
925.34	213.60
925.64	212.67
925.94	212.86
926.24	214.17
926.55	214.00
926.85	214.45
927.15	214.43
927.45	214.24
927.75	214.40
928.05	214.24
928.35	213.98
928.65	214.50
928.95	214.52
929.26	213.93
929.56	214.24
929.86	214.40
930.16	214.29
930.46	214.24
930.76	214.10
931.06	213.05
931.36	212.55
931.66	212.83
931.96	213.29
932.26	213.21
932.56	212.07
932.86	212.21
933.16	212.10
933.46	212.17
933.76	211.86
934.06	212.26
934.36	213.17
934.66	213.26
934.96	212.62
935.26	212.74
935.56	212.88
935.86	212.40
936.16	212.26
936.46	212.07
936.76	211.64
937.06	211.52
937.36	211.74
937.66	211.98
937.96	211.86
938.26	211.21
938.56	211.19
938.86	211.57
939.16	212.12
939.46	212.40
939.76	212.40
940.06	212.31
940.35	211.69
940.65	210.45
940.95	210.69
941.25	210.50
941.55	210.40
941.85	210.26
942.15	210.81
942.45	211.31
942.75	211.26
943.04	211.55
943.34	211.86
943.64	211.60
943.94	211.14
944.24	211.14
944.54	211.50
944.84	211.48
945.13	211.00
945.43	210.57
945.73	210.31
946.03	210.21
946.33	210.21
946.62	210.07
946.92	210.21
947.22	210.29
947.52	210.24
947.82	210.31
948.11	209.95
948.41	209.38
948.71	208.76
949.01	209.00
949.31	208.81
949.60	208.67
949.90	208.98
950.20	209.07
950.50	209.14
950.79	208.81
951.09	209.10
951.39	209.07
951.69	208.76
951.98	209.07
952.28	209.26
952.58	209.31
952.87	209.36
953.17	209.55
953.47	209.31
953.76	209.50
954.06	209.33
954.36	209.33
954.66	209.40
954.95	210.05
955.25	210.48
955.55	210.79
955.84	210.57
956.14	210.81
956.44	210.79
956.73	210.48
957.03	210.71
957.32	210.69
957.62	210.74
957.92	211.07
958.21	210.81
958.51	213.29
958.81	213.57
959.10	214.05
959.40	214.64
959.69	214.69
959.99	214.93
960.29	214.88
960.58	214.79
960.88	215.62
961.17	215.40
961.47	215.31
961.76	215.05
962.06	215.48
962.36	215.12
962.65	215.26
962.95	215.33
963.24	215.26
963.54	215.29
963.83	215.40
964.13	215.43
964.42	215.02
964.72	213.10
965.01	213.24
965.31	213.07
965.60	212.50
965.90	213.83
966.19	213.48
966.49	213.76
966.78	213.81
967.08	213.55
967.37	213.52
967.67	212.95
967.96	213.40
968.26	213.29
968.55	213.57
968.85	213.29
969.14	213.26
969.43	213.24
969.73	213.24
970.02	213.19
970.32	213.05
970.61	212.93
970.91	212.17
971.20	211.74
971.49	211.55
971.79	211.81
972.08	210.33
972.38	210.36
972.67	210.05
972.96	210.38
973.26	209.95
973.55	210.67
973.85	210.93
974.14	210.83
974.43	210.90
974.73	210.64
975.02	210.55
975.31	210.50
975.61	210.48
975.90	210.17
976.19	210.12
976.49	210.50
976.78	210.86
977.07	211.14
977.37	211.29
977.66	211.43
977.95	211.07
978.24	211.43
978.54	211.93
978.83	211.98
979.12	211.76
979.42	211.93
979.71	211.21
980.00	211.07
980.29	210.98
980.59	210.55
980.88	211.07
981.17	211.31
981.46	211.52
981.76	211.43
982.05	212.31
982.34	212.29
982.63	212.10
982.93	212.14
983.22	212.50
983.51	212.52
983.80	213.10
984.09	213.24
984.39	212.83
984.68	212.48
984.97	212.52
985.26	212.40
985.55	212.50
985.85	212.36
986.14	212.64
986.43	213.02
986.72	213.07
987.01	212.33
987.30	212.40
987.59	212.12
987.89	212.38
988.18	211.64
988.47	211.55
988.76	211.50
989.05	211.17
989.34	210.83
989.63	211.40
989.92	210.79
990.22	210.60
990.51	210.93
990.80	211.05
991.09	211.21
991.38	211.43
991.67	211.33
991.96	210.98
992.25	211.10
992.54	210.60
992.83	210.60
993.12	210.45
993.41	210.81
993.70	211.76
993.99	211.93
994.28	212.24
994.58	212.62
994.87	212.38
995.16	212.33
995.45	212.17
995.74	211.52
996.03	211.93
996.32	212.24
996.61	212.45
996.90	212.24
997.19	212.07
997.48	211.98
997.77	211.64
998.06	211.95
998.34	211.69
998.63	211.60
998.92	211.76
999.21	212.36
999.50	212.10
999.79	211.31
1000.08	211.24
1000.37	211.26
1000.66	210.88
1000.95	211.29
1001.24	211.64
1001.53	211.93
1001.82	211.98
1002.11	211.38
1002.40	211.71
1002.68	212.14
1002.97	213.62
1003.26	213.29
1003.55	213.07
1003.84	213.21
1004.13	213.81
1004.42	213.83
1004.71	213.86
1004.99	213.81
1005.28	214.43
1005.57	214.50
1005.86	214.12
1006.15	214.10
1006.44	213.67
1006.72	214.19
1007.01	213.95
1007.30	213.74
1007.59	213.60
1007.88	213.43
1008.17	213.69
1008.45	213.31
1008.74	212.29
1009.03	211.33
1009.32	211.48
1009.60	211.48
1009.89	211.33
1010.18	210.40
1010.47	210.14
1010.76	210.14
1011.04	210.05
1011.33	209.71
1011.62	209.76
1011.91	210.14
1012.19	210.21
1012.48	210.45
1012.77	210.12
1013.05	210.76
1013.34	210.90
1013.63	210.86
1013.92	210.71
1014.20	210.57
1014.49	210.76
1014.78	210.93
1015.06	210.33
1015.35	210.45
1015.64	210.69
1015.92	211.00
1016.21	211.21
1016.50	211.38
1016.78	211.76
1017.07	212.05
1017.36	211.76
1017.64	211.50
1017.93	211.71
1018.22	211.36
1018.50	211.24
1018.79	211.36
1019.08	210.55
1019.36	210.55
1019.65	210.29
1019.93	211.10
1020.22	211.19
1020.51	211.95
1020.79	212.07
1021.08	206.00
1021.36	208.00
1021.65	214.00
1021.94	207.50
1022.22	210.50
1022.51	206.00
1022.79	221.50
1023.08	209.50
1023.36	234.00
1023.65	210.50
>>>>>End Processed Spectral Data<<<<<
