SpectraSuite Data File
++++++++++++++++++++++++++++++++++++
Date: Tue Apr 02 18:38:20 EDT 2013
User: group
Dark Spectrum Present: No
Reference Spectrum Present: No
Number of Sampled Component Spectra: 1
Spectrometers: USB2E7196
Integration Time (usec): 580000 (USB2E7196)
Spectra Averaged: 2 (USB2E7196)
Boxcar Smoothing: 10 (USB2E7196)
Correct for Electrical Dark: No (USB2E7196)
Strobe/Lamp Enabled: No (USB2E7196)
Correct for Detector Non-linearity: No (USB2E7196)
Correct for Stray Light: No (USB2E7196)
Number of Pixels in Processed Spectrum: 2048
>>>>>Begin Processed Spectral Data<<<<<
339.09	0.00
339.48	193.00
339.86	196.00
340.24	206.00
340.63	201.50
341.01	229.50
341.39	204.00
341.78	212.00
342.16	215.00
342.54	208.00
342.93	199.95
343.31	210.07
343.69	210.76
344.07	211.31
344.46	211.86
344.84	212.55
345.22	211.71
345.60	212.12
345.99	212.02
346.37	211.93
346.75	211.83
347.13	212.02
347.52	212.00
347.90	213.02
348.28	212.83
348.66	213.14
349.05	212.50
349.43	212.76
349.81	212.81
350.19	212.64
350.57	212.52
350.96	212.67
351.34	212.71
351.72	212.76
352.10	212.79
352.48	212.38
352.87	211.95
353.25	211.79
353.63	211.67
354.01	211.60
354.39	211.48
354.77	211.76
355.15	212.24
355.54	211.90
355.92	211.07
356.30	211.19
356.68	212.21
357.06	212.21
357.44	211.93
357.82	211.79
358.20	212.88
358.58	212.81
358.97	212.88
359.35	213.10
359.73	213.33
360.11	213.21
360.49	213.31
360.87	213.67
361.25	213.95
361.63	214.50
362.01	214.60
362.39	214.55
362.77	214.60
363.15	214.38
363.53	214.55
363.91	214.67
364.29	214.62
364.67	212.90
365.05	212.98
365.43	213.31
365.81	213.60
366.19	213.64
366.57	214.52
366.95	214.33
367.33	213.88
367.71	213.98
368.09	214.62
368.47	214.79
368.85	214.57
369.23	214.76
369.61	214.29
369.99	214.86
370.37	215.02
370.75	215.86
371.13	215.52
371.51	215.24
371.89	215.36
372.27	215.57
372.65	215.88
373.03	215.90
373.41	215.62
373.78	215.60
374.16	214.69
374.54	214.02
374.92	213.95
375.30	214.14
375.68	213.83
376.06	213.83
376.44	213.67
376.82	213.88
377.19	213.88
377.57	213.76
377.95	213.33
378.33	213.26
378.71	212.12
379.09	212.48
379.47	212.86
379.84	212.81
380.22	212.57
380.60	212.02
380.98	212.07
381.36	212.38
381.73	212.05
382.11	212.48
382.49	212.40
382.87	212.40
383.25	212.17
383.62	214.50
384.00	214.33
384.38	214.33
384.76	214.55
385.13	215.52
385.51	215.55
385.89	215.19
386.27	215.29
386.64	215.71
387.02	215.38
387.40	215.24
387.78	215.36
388.15	215.57
388.53	215.48
388.91	215.62
389.29	215.21
389.66	215.67
390.04	215.29
390.42	215.88
390.79	215.83
391.17	215.90
391.55	213.74
391.92	213.45
392.30	213.67
392.68	213.45
393.05	212.81
393.43	212.86
393.81	213.19
394.18	212.95
394.56	213.10
394.94	213.48
395.31	213.29
395.69	213.74
396.06	213.88
396.44	214.17
396.82	214.17
397.19	215.40
397.57	215.38
397.95	215.86
398.32	215.31
398.70	215.69
399.07	216.38
399.45	216.45
399.82	216.48
400.20	216.31
400.58	216.00
400.95	215.36
401.33	215.88
401.70	217.40
402.08	217.50
402.45	217.62
402.83	218.33
403.20	218.74
403.58	218.62
403.95	219.19
404.33	219.76
404.71	220.00
405.08	221.05
405.46	221.14
405.83	221.57
406.21	221.90
406.58	222.24
406.96	222.38
407.33	223.12
407.70	223.93
408.08	226.17
408.45	227.36
408.83	228.98
409.20	229.55
409.58	228.98
409.95	230.50
410.33	231.29
410.70	231.64
411.08	232.81
411.45	234.33
411.82	235.07
412.20	236.93
412.57	239.67
412.95	239.71
413.32	241.88
413.69	243.26
414.07	245.31
414.44	247.52
414.82	249.83
415.19	252.79
415.56	255.52
415.94	257.31
416.31	260.60
416.68	263.52
417.06	267.24
417.43	271.29
417.81	275.24
418.18	279.76
418.55	284.10
418.93	289.12
419.30	293.57
419.67	299.00
420.04	303.95
420.42	308.81
420.79	316.69
421.16	323.45
421.54	331.19
421.91	338.88
422.28	346.14
422.66	354.12
423.03	362.76
423.40	370.57
423.77	378.86
424.15	387.38
424.52	395.95
424.89	405.93
425.26	415.31
425.64	424.17
426.01	434.19
426.38	445.17
426.75	456.12
427.13	466.93
427.50	478.05
427.87	489.57
428.24	501.02
428.61	511.52
428.99	524.43
429.36	537.19
429.73	549.71
430.10	563.14
430.47	576.93
430.85	589.48
431.22	604.57
431.59	622.10
431.96	637.14
432.33	654.17
432.70	670.29
433.08	689.38
433.45	707.40
433.82	725.10
434.19	745.10
434.56	764.76
434.93	783.83
435.30	803.00
435.68	824.19
436.05	844.67
436.42	864.79
436.79	883.95
437.16	904.74
437.53	926.76
437.90	948.19
438.27	969.52
438.64	991.31
439.01	1011.71
439.38	1028.17
439.75	1046.55
440.13	1066.88
440.50	1086.12
440.87	1101.48
441.24	1117.60
441.61	1135.14
441.98	1148.05
442.35	1162.38
442.72	1178.21
443.09	1194.38
443.46	1203.24
443.83	1210.69
444.20	1216.52
444.57	1223.90
444.94	1227.93
445.31	1231.90
445.68	1238.36
446.05	1240.38
446.42	1239.29
446.79	1238.24
447.16	1236.07
447.53	1234.76
447.90	1227.45
448.27	1219.26
448.64	1208.98
449.01	1201.71
449.37	1188.57
449.74	1174.95
450.11	1161.10
450.48	1143.57
450.85	1124.74
451.22	1110.50
451.59	1095.83
451.96	1082.17
452.33	1063.43
452.70	1046.33
453.07	1026.24
453.43	1003.10
453.80	983.19
454.17	964.19
454.54	945.40
454.91	926.31
455.28	906.69
455.65	888.45
456.02	874.52
456.38	859.86
456.75	841.93
457.12	826.14
457.49	811.69
457.86	795.57
458.23	783.71
458.59	770.17
458.96	755.67
459.33	742.90
459.70	730.29
460.07	720.38
460.43	709.00
460.80	698.31
461.17	689.74
461.54	679.93
461.91	670.48
462.27	660.93
462.64	652.62
463.01	643.74
463.38	636.24
463.74	624.74
464.11	616.57
464.48	609.40
464.85	602.05
465.21	596.57
465.58	590.52
465.95	582.26
466.32	576.17
466.68	569.98
467.05	564.17
467.42	558.21
467.78	551.55
468.15	545.43
468.52	541.36
468.88	534.52
469.25	528.93
469.62	525.29
469.98	520.98
470.35	516.95
470.72	512.86
471.08	507.81
471.45	503.93
471.82	500.40
472.18	496.12
472.55	493.07
472.92	488.93
473.28	485.64
473.65	482.86
474.02	479.60
474.38	477.24
474.75	474.83
475.11	472.10
475.48	470.57
475.85	468.79
476.21	466.17
476.58	465.17
476.94	464.14
477.31	462.48
477.67	460.81
478.04	459.50
478.41	459.02
478.77	460.10
479.14	458.43
479.50	458.36
479.87	458.40
480.23	458.12
480.60	457.36
480.96	457.38
481.33	458.19
481.69	458.45
482.06	458.64
482.42	458.86
482.79	459.93
483.15	460.24
483.52	461.43
483.88	462.29
484.25	462.93
484.61	464.02
484.98	464.38
485.34	466.24
485.71	468.26
486.07	469.55
486.44	469.48
486.80	472.14
487.17	473.55
487.53	476.07
487.90	479.36
488.26	483.33
488.62	486.50
488.99	488.86
489.35	492.05
489.72	495.17
490.08	498.90
490.44	502.07
490.81	506.48
491.17	510.38
491.54	514.71
491.90	519.60
492.26	523.86
492.63	529.40
492.99	534.19
493.36	539.45
493.72	545.33
494.08	551.17
494.45	557.60
494.81	564.31
495.17	570.43
495.54	576.88
495.90	583.14
496.26	589.52
496.63	596.83
496.99	603.93
497.35	611.36
497.72	618.83
498.08	626.86
498.44	634.60
498.80	642.83
499.17	651.26
499.53	659.14
499.89	668.33
500.26	677.29
500.62	686.00
500.98	695.62
501.34	704.64
501.71	713.98
502.07	722.71
502.43	731.67
502.79	740.95
503.16	750.24
503.52	760.10
503.88	769.83
504.24	779.71
504.60	790.02
504.97	800.95
505.33	811.29
505.69	822.98
506.05	833.31
506.41	843.93
506.78	854.40
507.14	865.02
507.50	875.07
507.86	885.45
508.22	896.21
508.59	905.67
508.95	916.60
509.31	927.83
509.67	938.81
510.03	949.33
510.39	960.31
510.75	971.29
511.12	981.36
511.48	992.10
511.84	1002.79
512.20	1013.07
512.56	1023.21
512.92	1034.48
513.28	1044.55
513.64	1054.74
514.00	1065.52
514.37	1076.67
514.73	1086.98
515.09	1097.36
515.45	1107.36
515.81	1116.98
516.17	1127.12
516.53	1136.62
516.89	1145.57
517.25	1155.71
517.61	1166.33
517.97	1176.12
518.33	1184.62
518.69	1194.40
519.05	1204.00
519.41	1212.71
519.77	1223.31
520.13	1231.90
520.49	1239.52
520.85	1247.12
521.21	1257.43
521.57	1266.17
521.93	1272.83
522.29	1281.81
522.65	1290.05
523.01	1298.90
523.37	1307.17
523.73	1315.12
524.09	1322.71
524.45	1330.88
524.81	1337.74
525.17	1345.07
525.53	1352.19
525.89	1360.38
526.25	1367.81
526.61	1374.93
526.97	1381.57
527.33	1387.26
527.68	1396.21
528.04	1403.29
528.40	1410.33
528.76	1416.26
529.12	1421.93
529.48	1429.62
529.84	1434.88
530.20	1440.67
530.56	1445.74
530.91	1452.24
531.27	1457.98
531.63	1464.45
531.99	1469.86
532.35	1475.24
532.71	1479.69
533.07	1484.93
533.42	1492.29
533.78	1498.17
534.14	1503.62
534.50	1508.74
534.86	1514.90
535.21	1517.81
535.57	1523.10
535.93	1527.43
536.29	1532.33
536.65	1538.07
537.00	1542.43
537.36	1547.14
537.72	1551.14
538.08	1556.10
538.44	1558.98
538.79	1562.76
539.15	1565.67
539.51	1569.24
539.87	1573.93
540.22	1578.55
540.58	1582.52
540.94	1582.88
541.29	1585.31
541.65	1586.98
542.01	1590.14
542.37	1591.29
542.72	1592.71
543.08	1593.93
543.44	1597.52
543.79	1598.05
544.15	1598.95
544.51	1601.40
544.87	1603.57
545.22	1606.40
545.58	1607.76
545.94	1610.05
546.29	1611.71
546.65	1613.24
547.01	1614.17
547.36	1614.95
547.72	1614.26
548.07	1614.90
548.43	1615.86
548.79	1615.21
549.14	1615.86
549.50	1615.88
549.86	1615.07
550.21	1616.62
550.57	1617.43
550.92	1616.00
551.28	1616.31
551.64	1616.33
551.99	1616.29
552.35	1615.26
552.70	1613.67
553.06	1613.43
553.41	1612.71
553.77	1614.10
554.13	1615.00
554.48	1616.86
554.84	1617.14
555.19	1617.52
555.55	1618.67
555.90	1619.67
556.26	1620.93
556.61	1621.43
556.97	1620.90
557.32	1621.79
557.68	1621.38
558.03	1621.33
558.39	1620.76
558.74	1620.31
559.10	1619.81
559.45	1618.43
559.81	1618.07
560.16	1617.90
560.52	1616.93
560.87	1617.21
561.23	1614.98
561.58	1615.07
561.94	1613.31
562.29	1611.69
562.64	1611.60
563.00	1607.88
563.35	1605.79
563.71	1603.83
564.06	1603.07
564.42	1602.67
564.77	1602.00
565.12	1601.67
565.48	1602.26
565.83	1602.21
566.19	1602.67
566.54	1601.55
566.89	1600.74
567.25	1600.74
567.60	1601.14
567.96	1602.10
568.31	1600.86
568.66	1600.60
569.02	1597.57
569.37	1595.83
569.72	1594.17
570.08	1591.98
570.43	1591.07
570.78	1589.74
571.14	1588.55
571.49	1586.36
571.84	1585.57
572.20	1582.95
572.55	1580.02
572.90	1576.36
573.26	1573.93
573.61	1570.21
573.96	1567.69
574.31	1564.64
574.67	1561.17
575.02	1557.57
575.37	1552.93
575.72	1549.05
576.08	1545.79
576.43	1541.98
576.78	1537.48
577.13	1533.07
577.49	1528.86
577.84	1525.88
578.19	1521.31
578.54	1517.55
578.90	1513.43
579.25	1508.76
579.60	1505.02
579.95	1500.67
580.30	1496.76
580.66	1492.52
581.01	1488.29
581.36	1484.10
581.71	1480.48
582.06	1477.31
582.42	1473.33
582.77	1467.81
583.12	1463.38
583.47	1458.07
583.82	1453.88
584.17	1449.86
584.53	1447.19
584.88	1443.12
585.23	1438.74
585.58	1434.90
585.93	1429.36
586.28	1424.71
586.63	1419.60
586.98	1415.19
587.34	1411.69
587.69	1406.14
588.04	1399.95
588.39	1395.33
588.74	1388.50
589.09	1382.67
589.44	1375.29
589.79	1369.83
590.14	1365.21
590.49	1359.24
590.84	1352.95
591.19	1347.74
591.54	1342.17
591.89	1335.67
592.25	1332.57
592.60	1326.29
592.95	1320.81
593.30	1316.24
593.65	1311.14
594.00	1305.26
594.35	1306.00
594.70	1299.36
595.05	1294.40
595.40	1289.38
595.75	1282.79
596.10	1278.60
596.45	1273.43
596.80	1269.95
597.15	1264.05
597.50	1257.74
597.85	1253.93
598.19	1249.17
598.54	1243.26
598.89	1237.60
599.24	1232.64
599.59	1225.67
599.94	1220.31
600.29	1214.29
600.64	1208.67
600.99	1203.43
601.34	1198.71
601.69	1186.62
602.04	1180.79
602.39	1174.48
602.74	1169.48
603.08	1164.29
603.43	1159.43
603.78	1154.05
604.13	1147.64
604.48	1141.60
604.83	1137.29
605.18	1131.55
605.53	1126.31
605.87	1121.05
606.22	1116.17
606.57	1110.05
606.92	1104.40
607.27	1099.57
607.62	1094.88
607.96	1089.64
608.31	1083.62
608.66	1078.38
609.01	1073.71
609.36	1069.67
609.70	1065.10
610.05	1059.26
610.40	1054.45
610.75	1048.74
611.10	1043.67
611.44	1037.95
611.79	1033.38
612.14	1027.88
612.49	1021.55
612.83	1015.31
613.18	1009.83
613.53	1003.76
613.88	998.43
614.22	992.02
614.57	986.12
614.92	979.02
615.27	973.17
615.61	967.48
615.96	961.31
616.31	954.83
616.65	949.12
617.00	943.40
617.35	938.76
617.70	932.79
618.04	927.43
618.39	921.81
618.74	917.05
619.08	911.24
619.43	906.14
619.78	901.14
620.12	896.76
620.47	891.71
620.82	886.67
621.16	881.62
621.51	878.07
621.85	872.24
622.20	868.86
622.55	863.71
622.89	859.50
623.24	855.29
623.59	850.52
623.93	845.62
624.28	840.67
624.62	837.76
624.97	835.14
625.32	830.12
625.66	825.79
626.01	820.95
626.35	817.14
626.70	812.26
627.04	808.14
627.39	803.81
627.73	800.33
628.08	796.60
628.43	792.12
628.77	786.79
629.12	782.90
629.46	778.43
629.81	774.19
630.15	768.74
630.50	763.88
630.84	759.83
631.19	755.29
631.53	751.14
631.88	744.50
632.22	738.00
632.57	734.50
632.91	729.50
633.26	725.05
633.60	719.95
633.95	715.83
634.29	711.38
634.64	706.90
634.98	701.33
635.32	697.83
635.67	694.19
636.01	690.43
636.36	686.45
636.70	682.69
637.05	679.21
637.39	675.95
637.73	672.40
638.08	669.33
638.42	665.48
638.77	662.05
639.11	658.31
639.45	654.86
639.80	650.36
640.14	646.83
640.49	642.79
640.83	638.43
641.17	634.64
641.52	631.02
641.86	627.69
642.20	625.10
642.55	620.67
642.89	616.71
643.23	612.86
643.58	609.76
643.92	605.83
644.26	601.93
644.61	598.31
644.95	594.52
645.29	590.26
645.64	587.26
645.98	583.21
646.32	580.21
646.66	576.48
647.01	573.40
647.35	570.19
647.69	567.31
648.04	564.76
648.38	561.45
648.72	558.24
649.06	554.81
649.41	550.90
649.75	547.14
650.09	543.98
650.43	541.05
650.78	537.24
651.12	533.79
651.46	530.55
651.80	527.10
652.14	523.83
652.49	521.36
652.83	517.62
653.17	514.48
653.51	510.48
653.85	508.02
654.20	505.19
654.54	502.26
654.88	498.86
655.22	496.67
655.56	493.29
655.90	490.29
656.25	487.33
656.59	484.40
656.93	482.17
657.27	479.90
657.61	476.31
657.95	474.10
658.29	471.62
658.64	469.29
658.98	467.05
659.32	464.33
659.66	461.45
660.00	459.36
660.34	457.12
660.68	455.07
661.02	452.81
661.36	450.21
661.70	447.69
662.05	445.90
662.39	443.55
662.73	442.57
663.07	441.48
663.41	439.43
663.75	437.21
664.09	435.00
664.43	432.02
664.77	430.29
665.11	427.95
665.45	425.79
665.79	423.86
666.13	421.50
666.47	419.60
666.81	417.40
667.15	414.88
667.49	413.21
667.83	412.05
668.17	409.90
668.51	407.50
668.85	405.98
669.19	404.64
669.53	402.10
669.87	399.62
670.21	397.05
670.55	394.90
670.89	393.90
671.23	392.19
671.57	390.81
671.91	389.38
672.25	387.50
672.58	386.90
672.92	384.69
673.26	383.14
673.60	381.86
673.94	380.45
674.28	379.29
674.62	377.95
674.96	375.90
675.30	374.86
675.64	373.86
675.97	372.02
676.31	369.90
676.65	368.14
676.99	367.43
677.33	365.69
677.67	364.12
678.01	362.02
678.34	360.76
678.68	359.62
679.02	358.26
679.36	356.90
679.70	354.48
680.04	353.12
680.37	351.90
680.71	350.14
681.05	348.64
681.39	347.36
681.73	345.62
682.06	344.21
682.40	342.48
682.74	341.50
683.08	341.02
683.42	339.74
683.75	339.05
684.09	337.00
684.43	335.62
684.77	334.52
685.10	333.38
685.44	331.86
685.78	330.29
686.12	328.79
686.45	327.71
686.79	326.64
687.13	326.17
687.46	324.90
687.80	324.55
688.14	323.26
688.48	321.95
688.81	320.98
689.15	320.14
689.49	318.71
689.82	317.43
690.16	315.50
690.50	314.33
690.83	312.79
691.17	311.67
691.51	310.76
691.84	310.00
692.18	308.79
692.52	307.64
692.85	307.14
693.19	307.10
693.52	306.29
693.86	305.05
694.20	303.48
694.53	302.76
694.87	301.31
695.21	300.43
695.54	299.55
695.88	297.98
696.21	296.67
696.55	295.83
696.88	295.05
697.22	294.14
697.56	293.57
697.89	292.81
698.23	292.31
698.56	291.31
698.90	290.50
699.23	289.52
699.57	289.14
699.90	287.81
700.24	286.29
700.58	285.57
700.91	285.10
701.25	286.05
701.58	285.83
701.92	285.55
702.25	284.79
702.59	283.90
702.92	283.48
703.26	283.14
703.59	282.60
703.93	283.24
704.26	282.71
704.60	281.88
704.93	281.36
705.26	280.40
705.60	280.31
705.93	279.62
706.27	279.71
706.60	279.40
706.94	279.90
707.27	279.12
707.61	278.62
707.94	278.02
708.27	275.93
708.61	274.52
708.94	273.55
709.28	272.88
709.61	272.24
709.94	271.71
710.28	270.86
710.61	270.36
710.95	268.07
711.28	268.74
711.61	268.38
711.95	268.26
712.28	267.40
712.61	266.93
712.95	267.21
713.28	267.48
713.61	266.40
713.95	264.90
714.28	264.43
714.61	263.36
714.95	262.64
715.28	261.81
715.61	261.50
715.95	261.29
716.28	260.71
716.61	260.62
716.95	259.93
717.28	259.31
717.61	258.62
717.94	258.07
718.28	256.05
718.61	255.50
718.94	254.33
719.27	253.81
719.61	253.00
719.94	251.98
720.27	250.48
720.60	249.74
720.94	249.57
721.27	249.50
721.60	249.60
721.93	249.12
722.27	249.67
722.60	249.48
722.93	248.48
723.26	248.29
723.59	247.48
723.93	247.31
724.26	247.21
724.59	246.83
724.92	246.90
725.25	247.24
725.59	246.64
725.92	247.00
726.25	246.86
726.58	246.43
726.91	245.83
727.24	245.83
727.57	245.48
727.91	244.64
728.24	244.31
728.57	243.57
728.90	243.71
729.23	242.67
729.56	243.19
729.89	243.43
730.22	242.98
730.55	242.71
730.89	242.45
731.22	241.83
731.55	241.83
731.88	241.52
732.21	240.76
732.54	240.52
732.87	240.05
733.20	239.88
733.53	240.07
733.86	240.19
734.19	239.50
734.52	239.69
734.85	241.05
735.18	240.71
735.51	241.40
735.84	241.19
736.17	241.36
736.50	239.93
736.83	242.00
737.16	241.93
737.49	241.98
737.82	241.57
738.15	242.02
738.48	241.29
738.81	241.07
739.14	241.00
739.47	240.88
739.80	240.60
740.13	240.50
740.46	239.88
740.79	239.48
741.12	239.29
741.45	239.02
741.78	237.57
742.11	238.07
742.44	237.29
742.77	237.29
743.10	236.86
743.43	236.69
743.75	234.26
744.08	236.74
744.41	236.31
744.74	236.12
745.07	235.50
745.40	236.00
745.73	236.60
746.06	236.24
746.39	236.14
746.71	235.83
747.04	235.33
747.37	235.07
747.70	235.02
748.03	235.02
748.36	235.00
748.68	234.88
749.01	233.86
749.34	233.86
749.67	233.45
750.00	233.57
750.33	234.98
750.65	234.64
750.98	232.00
751.31	231.76
751.64	231.93
751.97	232.81
752.29	232.33
752.62	231.17
752.95	230.86
753.28	230.48
753.60	230.29
753.93	230.71
754.26	230.62
754.59	229.83
754.91	229.36
755.24	228.74
755.57	228.57
755.90	228.31
756.22	227.60
756.55	227.24
756.88	226.64
757.20	225.07
757.53	224.69
757.86	224.40
758.19	224.55
758.51	224.05
758.84	222.81
759.17	222.93
759.49	222.86
759.82	223.90
760.15	224.00
760.47	223.76
760.80	223.00
761.13	223.33
761.45	223.43
761.78	223.24
762.11	223.36
762.43	223.05
762.76	223.12
763.08	223.45
763.41	223.62
763.74	223.48
764.06	223.57
764.39	223.52
764.71	223.14
765.04	222.76
765.37	222.64
765.69	222.45
766.02	222.10
766.34	221.93
766.67	221.07
767.00	221.45
767.32	222.57
767.65	223.69
767.97	223.26
768.30	223.07
768.62	223.05
768.95	222.93
769.27	222.88
769.60	222.95
769.92	222.50
770.25	222.05
770.57	221.74
770.90	221.40
771.22	221.10
771.55	221.21
771.87	221.17
772.20	220.98
772.52	222.60
772.85	224.74
773.17	224.76
773.50	224.48
773.82	224.00
774.15	222.88
774.47	221.57
774.80	221.36
775.12	221.50
775.45	221.62
775.77	221.60
776.09	221.57
776.42	221.62
776.74	222.24
777.07	221.95
777.39	222.17
777.72	222.12
778.04	222.36
778.36	222.07
778.69	222.17
779.01	222.38
779.33	220.67
779.66	218.52
779.98	218.29
780.31	218.36
780.63	218.95
780.95	219.21
781.28	219.36
781.60	219.26
781.92	218.95
782.25	218.86
782.57	218.76
782.89	218.52
783.22	218.17
783.54	217.67
783.86	218.19
784.19	218.17
784.51	218.60
784.83	218.33
785.16	218.21
785.48	218.29
785.80	218.07
786.12	218.33
786.45	218.17
786.77	218.36
787.09	218.33
787.42	217.64
787.74	217.69
788.06	217.71
788.38	217.36
788.71	217.31
789.03	217.26
789.35	217.52
789.67	217.50
789.99	217.64
790.32	217.17
790.64	217.17
790.96	218.81
791.28	218.00
791.61	217.95
791.93	218.33
792.25	218.12
792.57	220.05
792.89	219.40
793.21	219.50
793.54	219.33
793.86	218.98
794.18	219.12
794.50	218.55
794.82	218.43
795.14	219.10
795.47	219.38
795.79	219.31
796.11	218.79
796.43	218.50
796.75	218.31
797.07	218.55
797.39	218.29
797.71	216.64
798.04	216.67
798.36	216.79
798.68	216.69
799.00	217.02
799.32	215.36
799.64	216.00
799.96	216.05
800.28	216.24
800.60	216.17
800.92	216.07
801.24	216.24
801.56	216.43
801.89	216.12
802.21	216.26
802.53	216.05
802.85	216.36
803.17	217.38
803.49	217.26
803.81	217.21
804.13	217.14
804.45	216.83
804.77	217.29
805.09	217.17
805.41	216.88
805.73	216.05
806.05	215.86
806.37	215.43
806.69	215.12
807.01	215.12
807.33	215.21
807.65	214.50
807.97	215.31
808.28	214.86
808.60	214.88
808.92	214.71
809.24	216.05
809.56	215.88
809.88	215.33
810.20	215.24
810.52	215.79
810.84	215.38
811.16	215.40
811.48	215.07
811.80	215.98
812.12	215.98
812.43	216.55
812.75	216.76
813.07	216.83
813.39	216.79
813.71	216.55
814.03	216.48
814.35	216.86
814.67	216.07
814.98	216.05
815.30	215.86
815.62	215.50
815.94	214.02
816.26	214.02
816.58	213.52
816.89	213.79
817.21	213.19
817.53	213.50
817.85	213.57
818.17	213.74
818.48	212.74
818.80	213.12
819.12	212.98
819.44	212.64
819.76	212.43
820.07	212.43
820.39	212.31
820.71	212.45
821.03	212.50
821.34	212.31
821.66	212.55
821.98	212.81
822.30	212.76
822.61	214.17
822.93	214.07
823.25	214.36
823.57	214.12
823.88	214.48
824.20	214.26
824.52	214.71
824.83	214.67
825.15	214.52
825.47	214.33
825.79	214.57
826.10	214.52
826.42	214.62
826.74	215.24
827.05	215.26
827.37	215.21
827.69	214.93
828.00	215.02
828.32	215.12
828.64	214.83
828.95	216.10
829.27	215.60
829.58	215.62
829.90	215.74
830.22	215.93
830.53	215.36
830.85	215.12
831.17	214.43
831.48	214.38
831.80	214.74
832.11	214.55
832.43	213.90
832.75	213.95
833.06	215.05
833.38	214.26
833.69	214.21
834.01	214.36
834.32	214.26
834.64	214.19
834.96	214.19
835.27	214.29
835.59	213.26
835.90	212.76
836.22	212.79
836.53	212.24
836.85	212.00
837.16	214.29
837.48	214.52
837.79	215.43
838.11	215.24
838.42	215.21
838.74	215.64
839.05	215.50
839.37	215.45
839.68	214.10
840.00	214.14
840.31	214.45
840.63	214.33
840.94	214.33
841.26	214.19
841.57	214.17
841.88	214.17
842.20	213.93
842.51	213.90
842.83	213.88
843.14	216.02
843.46	216.31
843.77	214.98
844.08	214.88
844.40	214.24
844.71	214.17
845.03	213.90
845.34	213.79
845.65	214.07
845.97	213.74
846.28	213.81
846.60	213.93
846.91	213.62
847.22	213.38
847.54	214.14
847.85	214.24
848.16	214.10
848.48	213.98
848.79	214.93
849.10	215.07
849.42	215.24
849.73	213.10
850.04	212.90
850.36	212.12
850.67	212.48
850.98	212.40
851.30	212.81
851.61	212.81
851.92	212.76
852.23	213.33
852.55	213.74
852.86	213.69
853.17	213.71
853.49	214.21
853.80	214.74
854.11	214.62
854.42	214.83
854.74	214.74
855.05	214.83
855.36	213.64
855.67	213.71
855.99	213.74
856.30	216.43
856.61	216.17
856.92	216.21
857.23	216.17
857.55	215.93
857.86	215.76
858.17	215.88
858.48	215.57
858.79	215.36
859.11	215.36
859.42	215.43
859.73	215.36
860.04	215.07
860.35	214.38
860.66	213.64
860.98	213.45
861.29	213.55
861.60	213.48
861.91	214.31
862.22	213.93
862.53	213.38
862.84	210.74
863.16	211.43
863.47	211.17
863.78	211.14
864.09	211.38
864.40	211.43
864.71	211.52
865.02	211.71
865.33	211.29
865.64	211.14
865.95	211.29
866.27	212.62
866.58	212.52
866.89	213.17
867.20	213.12
867.51	212.83
867.82	212.67
868.13	213.24
868.44	212.69
868.75	213.19
869.06	213.50
869.37	213.98
869.68	213.40
869.99	213.79
870.30	213.83
870.61	213.93
870.92	213.52
871.23	213.29
871.54	213.48
871.85	214.05
872.16	214.40
872.47	214.33
872.78	213.02
873.09	213.10
873.40	212.69
873.71	213.07
874.02	213.36
874.33	213.40
874.64	212.76
874.95	213.29
875.26	212.52
875.56	212.57
875.87	212.31
876.18	212.26
876.49	214.31
876.80	214.33
877.11	213.86
877.42	214.12
877.73	214.21
878.04	213.90
878.35	213.90
878.66	213.60
878.96	213.45
879.27	213.31
879.58	213.26
879.89	213.14
880.20	213.57
880.51	213.57
880.82	213.48
881.12	213.71
881.43	212.95
881.74	213.14
882.05	212.83
882.36	213.19
882.67	213.31
882.97	211.21
883.28	211.02
883.59	211.19
883.90	211.29
884.21	211.57
884.51	211.62
884.82	211.12
885.13	211.31
885.44	211.29
885.74	211.45
886.05	211.40
886.36	211.48
886.67	210.86
886.98	211.88
887.28	212.10
887.59	212.12
887.90	212.33
888.20	211.98
888.51	212.50
888.82	211.98
889.13	212.05
889.43	213.62
889.74	213.31
890.05	213.31
890.35	213.17
890.66	212.88
890.97	212.67
891.28	212.67
891.58	212.67
891.89	212.74
892.20	212.36
892.50	212.05
892.81	211.76
893.12	211.74
893.42	210.67
893.73	210.74
894.04	210.55
894.34	210.83
894.65	211.07
894.95	210.74
895.26	210.74
895.57	211.69
895.87	209.88
896.18	210.36
896.48	210.50
896.79	210.38
897.10	210.62
897.40	210.81
897.71	210.93
898.01	210.69
898.32	211.02
898.63	211.02
898.93	211.31
899.24	211.45
899.54	211.55
899.85	211.43
900.15	211.36
900.46	211.38
900.76	211.38
901.07	211.38
901.38	211.43
901.68	211.71
901.99	210.48
902.29	210.52
902.60	210.07
902.90	210.00
903.21	210.21
903.51	209.88
903.82	210.33
904.12	210.57
904.43	210.71
904.73	210.40
905.03	210.79
905.34	212.74
905.64	212.86
905.95	212.90
906.25	212.93
906.56	213.10
906.86	213.05
907.17	213.07
907.47	213.36
907.77	213.07
908.08	212.95
908.38	213.31
908.69	213.55
908.99	214.31
909.30	214.40
909.60	214.52
909.90	215.07
910.21	214.38
910.51	214.02
910.81	213.98
911.12	214.02
911.42	214.00
911.73	211.81
912.03	211.88
912.33	212.07
912.64	211.86
912.94	211.52
913.24	211.24
913.55	210.90
913.85	210.55
914.15	210.98
914.46	211.19
914.76	210.86
915.06	210.62
915.37	210.10
915.67	209.86
915.97	209.67
916.27	208.93
916.58	209.02
916.88	208.74
917.18	208.57
917.49	210.05
917.79	210.26
918.09	210.64
918.39	211.24
918.70	211.10
919.00	211.31
919.30	212.38
919.60	212.38
919.91	212.36
920.21	212.52
920.51	212.31
920.81	211.93
921.12	212.36
921.42	212.45
921.72	212.67
922.02	212.81
922.32	213.05
922.63	213.26
922.93	214.36
923.23	214.62
923.53	214.74
923.83	213.31
924.13	213.19
924.44	213.07
924.74	213.40
925.04	213.93
925.34	213.90
925.64	212.93
925.94	213.00
926.24	214.02
926.55	213.88
926.85	214.10
927.15	214.17
927.45	214.29
927.75	214.45
928.05	214.43
928.35	214.12
928.65	214.55
928.95	214.74
929.26	213.98
929.56	214.40
929.86	214.52
930.16	214.67
930.46	214.52
930.76	214.55
931.06	213.43
931.36	212.88
931.66	213.14
931.96	213.29
932.26	213.55
932.56	212.81
932.86	213.05
933.16	212.95
933.46	212.93
933.76	212.57
934.06	212.74
934.36	213.50
934.66	213.64
934.96	213.29
935.26	213.43
935.56	213.62
935.86	213.24
936.16	213.02
936.46	212.43
936.76	212.45
937.06	212.24
937.36	212.38
937.66	212.57
937.96	212.60
938.26	212.43
938.56	212.21
938.86	212.31
939.16	212.93
939.46	213.17
939.76	213.17
940.06	213.17
940.35	213.00
940.65	211.98
940.95	212.31
941.25	211.79
941.55	211.43
941.85	211.21
942.15	211.55
942.45	212.14
942.75	212.52
943.04	212.48
943.34	212.86
943.64	212.67
943.94	212.33
944.24	212.52
944.54	212.48
944.84	212.50
945.13	212.19
945.43	211.57
945.73	211.36
946.03	211.29
946.33	210.98
946.62	210.52
946.92	210.43
947.22	210.31
947.52	210.76
947.82	210.95
948.11	210.64
948.41	210.05
948.71	209.17
949.01	209.07
949.31	208.83
949.60	208.79
949.90	209.29
950.20	209.36
950.50	209.19
950.79	208.95
951.09	209.45
951.39	209.43
951.69	209.36
951.98	209.79
952.28	209.88
952.58	209.90
952.87	210.12
953.17	210.40
953.47	210.07
953.76	209.81
954.06	209.57
954.36	209.38
954.66	209.64
954.95	210.38
955.25	210.69
955.55	210.95
955.84	210.69
956.14	210.67
956.44	210.52
956.73	210.12
957.03	210.26
957.32	210.02
957.62	209.83
957.92	210.21
958.21	209.86
958.51	212.19
958.81	212.55
959.10	212.76
959.40	213.31
959.69	213.67
959.99	213.93
960.29	213.86
960.58	213.90
960.88	214.74
961.17	214.67
961.47	214.93
961.76	214.79
962.06	215.17
962.36	214.76
962.65	214.95
962.95	215.05
963.24	215.14
963.54	215.14
963.83	215.26
964.13	215.02
964.42	214.71
964.72	212.86
965.01	212.90
965.31	212.76
965.60	212.10
965.90	213.40
966.19	212.95
966.49	213.33
966.78	213.62
967.08	213.17
967.37	212.98
967.67	212.45
967.96	212.74
968.26	212.57
968.55	213.05
968.85	212.81
969.14	212.79
969.43	212.98
969.73	212.83
970.02	213.05
970.32	213.07
970.61	212.95
970.91	212.55
971.20	212.24
971.49	212.10
971.79	212.50
972.08	210.93
972.38	211.10
972.67	210.88
972.96	211.07
973.26	210.62
973.55	211.31
973.85	211.36
974.14	211.21
974.43	211.31
974.73	210.90
975.02	210.86
975.31	211.10
975.61	210.81
975.90	210.76
976.19	210.43
976.49	210.48
976.78	210.88
977.07	210.93
977.37	211.07
977.66	211.21
977.95	210.79
978.24	210.88
978.54	211.40
978.83	211.00
979.12	210.71
979.42	211.02
979.71	210.50
980.00	210.55
980.29	210.64
980.59	210.21
980.88	210.86
981.17	210.93
981.46	210.86
981.76	210.83
982.05	211.43
982.34	211.62
982.63	211.52
982.93	211.45
983.22	211.88
983.51	211.95
983.80	212.29
984.09	212.64
984.39	212.81
984.68	212.29
984.97	212.60
985.26	212.31
985.55	212.21
985.85	211.76
986.14	211.93
986.43	212.14
986.72	212.00
987.01	211.29
987.30	211.24
987.59	211.02
987.89	211.07
988.18	210.45
988.47	210.21
988.76	209.98
989.05	209.90
989.34	209.62
989.63	210.05
989.92	209.74
990.22	209.45
990.51	209.19
990.80	209.31
991.09	209.36
991.38	209.81
991.67	209.71
991.96	209.67
992.25	209.67
992.54	209.12
992.83	209.38
993.12	209.33
993.41	209.55
993.70	210.33
993.99	210.69
994.28	211.00
994.58	211.26
994.87	211.31
995.16	211.07
995.45	210.86
995.74	210.19
996.03	210.52
996.32	210.90
996.61	211.50
996.90	211.40
997.19	211.50
997.48	211.52
997.77	211.31
998.06	211.43
998.34	211.12
998.63	211.26
998.92	211.12
999.21	211.55
999.50	211.69
999.79	211.12
1000.08	211.10
1000.37	210.93
1000.66	210.76
1000.95	211.02
1001.24	211.31
1001.53	211.81
1001.82	211.71
1002.11	211.12
1002.40	211.19
1002.68	211.26
1002.97	212.98
1003.26	212.64
1003.55	212.57
1003.84	212.57
1004.13	213.43
1004.42	213.38
1004.71	213.50
1004.99	213.50
1005.28	214.00
1005.57	214.02
1005.86	213.79
1006.15	213.67
1006.44	213.31
1006.72	213.74
1007.01	213.60
1007.30	213.45
1007.59	213.19
1007.88	213.43
1008.17	213.67
1008.45	213.19
1008.74	212.69
1009.03	211.62
1009.32	211.60
1009.60	211.50
1009.89	211.57
1010.18	210.48
1010.47	210.55
1010.76	210.38
1011.04	210.40
1011.33	210.40
1011.62	210.48
1011.91	210.60
1012.19	210.64
1012.48	211.02
1012.77	210.86
1013.05	211.76
1013.34	212.02
1013.63	211.79
1013.92	211.74
1014.20	211.64
1014.49	211.74
1014.78	211.93
1015.06	211.10
1015.35	211.36
1015.64	211.64
1015.92	212.05
1016.21	212.33
1016.50	212.21
1016.78	212.45
1017.07	212.62
1017.36	212.10
1017.64	211.50
1017.93	211.69
1018.22	211.55
1018.50	211.26
1018.79	211.10
1019.08	210.29
1019.36	210.31
1019.65	210.05
1019.93	210.52
1020.22	211.07
1020.51	212.33
1020.79	212.05
1021.08	209.50
1021.36	206.00
1021.65	209.00
1021.94	213.00
1022.22	214.00
1022.51	204.00
1022.79	218.50
1023.08	219.50
1023.36	238.50
1023.65	207.00
>>>>>End Processed Spectral Data<<<<<
