SpectraSuite Data File
++++++++++++++++++++++++++++++++++++
Date: Tue Apr 02 18:41:11 EDT 2013
User: group
Dark Spectrum Present: No
Reference Spectrum Present: No
Number of Sampled Component Spectra: 1
Spectrometers: USB2E7196
Integration Time (usec): 580000 (USB2E7196)
Spectra Averaged: 2 (USB2E7196)
Boxcar Smoothing: 10 (USB2E7196)
Correct for Electrical Dark: No (USB2E7196)
Strobe/Lamp Enabled: No (USB2E7196)
Correct for Detector Non-linearity: No (USB2E7196)
Correct for Stray Light: No (USB2E7196)
Number of Pixels in Processed Spectrum: 2048
>>>>>Begin Processed Spectral Data<<<<<
339.09	0.00
339.48	191.50
339.86	191.50
340.24	192.00
340.63	201.00
341.01	230.00
341.39	202.50
341.78	203.00
342.16	207.50
342.54	205.50
342.93	196.38
343.31	206.12
343.69	206.90
344.07	207.74
344.46	208.93
344.84	209.45
345.22	208.45
345.60	208.76
345.99	209.05
346.37	209.26
346.75	209.10
347.13	209.33
347.52	209.67
347.90	210.17
348.28	210.26
348.66	211.12
349.05	210.60
349.43	210.74
349.81	211.24
350.19	211.43
350.57	211.71
350.96	212.21
351.34	212.74
351.72	212.93
352.10	212.95
352.48	212.64
352.87	212.69
353.25	212.69
353.63	212.86
354.01	212.93
354.39	213.00
354.77	213.45
355.15	214.21
355.54	214.14
355.92	213.74
356.30	213.74
356.68	215.02
357.06	215.05
357.44	214.71
357.82	214.64
358.20	215.74
358.58	215.64
358.97	215.52
359.35	215.86
359.73	216.12
360.11	216.21
360.49	216.40
360.87	216.26
361.25	216.52
361.63	217.10
362.01	217.36
362.39	217.33
362.77	217.48
363.15	217.19
363.53	217.33
363.91	217.55
364.29	217.50
364.67	215.36
365.05	215.38
365.43	215.69
365.81	215.90
366.19	215.71
366.57	216.69
366.95	216.86
367.33	216.33
367.71	216.45
368.09	216.71
368.47	216.86
368.85	217.12
369.23	217.93
369.61	217.17
369.99	217.60
370.37	217.79
370.75	218.93
371.13	218.64
371.51	218.45
371.89	218.71
372.27	219.12
372.65	219.38
373.03	219.43
373.41	219.24
373.78	219.29
374.16	218.48
374.54	217.76
374.92	217.48
375.30	217.33
375.68	216.88
376.06	216.93
376.44	216.50
376.82	216.24
377.19	215.74
377.57	215.76
377.95	215.29
378.33	214.88
378.71	213.26
379.09	213.55
379.47	213.50
379.84	213.21
380.22	212.62
380.60	212.24
380.98	212.14
381.36	212.10
381.73	211.69
382.11	211.90
382.49	212.24
382.87	211.86
383.25	211.81
383.62	214.02
384.00	213.43
384.38	213.60
384.76	214.02
385.13	214.79
385.51	215.00
385.89	214.76
386.27	215.02
386.64	215.43
387.02	215.07
387.40	215.12
387.78	214.98
388.15	215.26
388.53	215.24
388.91	215.38
389.29	215.26
389.66	215.40
390.04	215.07
390.42	215.10
390.79	215.38
391.17	215.67
391.55	213.31
391.92	213.45
392.30	213.60
392.68	213.26
393.05	212.95
393.43	212.79
393.81	213.05
394.18	212.98
394.56	213.19
394.94	213.55
395.31	213.40
395.69	214.26
396.06	214.48
396.44	214.95
396.82	214.93
397.19	216.10
397.57	216.05
397.95	216.76
398.32	216.19
398.70	216.17
399.07	216.43
399.45	216.55
399.82	216.81
400.20	216.52
400.58	216.36
400.95	215.55
401.33	216.19
401.70	217.50
402.08	217.40
402.45	217.33
402.83	217.88
403.20	218.07
403.58	217.67
403.95	218.02
404.33	218.21
404.71	218.38
405.08	219.55
405.46	219.86
405.83	219.95
406.21	220.24
406.58	221.00
406.96	221.12
407.33	221.79
407.70	222.29
408.08	224.55
408.45	225.55
408.83	226.64
409.20	227.00
409.58	226.48
409.95	227.83
410.33	228.93
410.70	229.12
411.08	230.55
411.45	231.71
411.82	232.62
412.20	234.21
412.57	236.60
412.95	236.00
413.32	237.74
413.69	239.17
414.07	241.07
414.44	242.64
414.82	245.05
415.19	247.60
415.56	250.00
415.94	251.50
416.31	254.40
416.68	257.10
417.06	260.50
417.43	264.26
417.81	267.74
418.18	271.43
418.55	275.40
418.93	279.38
419.30	283.81
419.67	288.45
420.04	292.88
420.42	297.14
420.79	304.79
421.16	310.79
421.54	317.93
421.91	324.38
422.28	330.95
422.66	337.71
423.03	345.95
423.40	353.02
423.77	360.52
424.15	367.50
424.52	375.71
424.89	384.86
425.26	392.76
425.64	400.43
426.01	409.10
426.38	418.29
426.75	428.26
427.13	437.76
427.50	447.88
427.87	457.86
428.24	468.69
428.61	477.24
428.99	488.95
429.36	499.83
429.73	511.31
430.10	522.95
430.47	534.93
430.85	545.57
431.22	558.21
431.59	573.62
431.96	586.79
432.33	601.64
432.70	614.74
433.08	631.31
433.45	647.36
433.82	663.29
434.19	680.83
434.56	698.38
434.93	714.55
435.30	730.86
435.68	749.88
436.05	767.00
436.42	785.17
436.79	801.43
437.16	819.00
437.53	837.45
437.90	856.10
438.27	874.79
438.64	893.60
439.01	911.79
439.38	925.98
439.75	941.71
440.13	958.76
440.50	975.57
440.87	989.40
441.24	1003.38
441.61	1018.24
441.98	1029.74
442.35	1042.21
442.72	1056.40
443.09	1070.07
443.46	1077.19
443.83	1083.26
444.20	1088.02
444.57	1093.95
444.94	1097.31
445.31	1101.24
445.68	1106.79
446.05	1108.62
446.42	1107.38
446.79	1106.24
447.16	1103.81
447.53	1102.52
447.90	1095.88
448.27	1089.12
448.64	1079.79
449.01	1073.62
449.37	1062.12
449.74	1051.02
450.11	1038.79
450.48	1022.62
450.85	1006.52
451.22	993.81
451.59	981.36
451.96	968.93
452.33	952.74
452.70	938.33
453.07	920.60
453.43	900.60
453.80	882.69
454.17	866.52
454.54	850.33
454.91	833.98
455.28	817.76
455.65	802.74
456.02	791.29
456.38	778.07
456.75	761.21
457.12	747.45
457.49	733.79
457.86	719.36
458.23	709.36
458.59	697.52
458.96	685.64
459.33	674.57
459.70	663.76
460.07	655.36
460.43	645.33
460.80	636.36
461.17	628.83
461.54	620.90
461.91	612.05
462.27	603.57
462.64	595.98
463.01	587.76
463.38	581.00
463.74	569.69
464.11	563.14
464.48	557.43
464.85	550.71
465.21	546.36
465.58	540.88
465.95	534.00
466.32	528.31
466.68	522.48
467.05	517.12
467.42	512.05
467.78	506.62
468.15	501.33
468.52	497.48
468.88	491.62
469.25	486.64
469.62	483.38
469.98	479.45
470.35	475.60
470.72	472.14
471.08	466.98
471.45	464.21
471.82	461.00
472.18	457.45
472.55	455.31
472.92	451.12
473.28	448.17
473.65	445.14
474.02	442.52
474.38	440.55
474.75	438.60
475.11	436.17
475.48	434.38
475.85	433.07
476.21	430.95
476.58	429.88
476.94	428.57
477.31	427.21
477.67	425.88
478.04	424.74
478.41	424.14
478.77	425.64
479.14	424.02
479.50	423.07
479.87	422.69
480.23	422.21
480.60	421.57
480.96	421.55
481.33	422.36
481.69	422.29
482.06	421.93
482.42	422.10
482.79	422.60
483.15	423.02
483.52	423.79
483.88	424.38
484.25	425.17
484.61	425.69
484.98	426.19
485.34	427.55
485.71	429.43
486.07	430.67
486.44	430.07
486.80	432.07
487.17	434.07
487.53	436.29
487.90	438.17
488.26	441.36
488.62	443.93
488.99	446.14
489.35	448.79
489.72	451.83
490.08	454.81
490.44	457.43
490.81	460.83
491.17	463.74
491.54	467.17
491.90	470.79
492.26	475.05
492.63	479.21
492.99	483.00
493.36	487.29
493.72	491.74
494.08	496.33
494.45	501.02
494.81	505.81
495.17	510.71
495.54	516.36
495.90	521.00
496.26	526.17
496.63	531.48
496.99	537.05
497.35	542.83
497.72	549.00
498.08	555.45
498.44	561.38
498.80	567.76
499.17	574.07
499.53	580.71
499.89	587.69
500.26	594.81
500.62	601.36
500.98	608.24
501.34	615.38
501.71	622.98
502.07	630.55
502.43	637.90
502.79	645.62
503.16	652.74
503.52	660.52
503.88	667.45
504.24	675.57
504.60	683.50
504.97	691.43
505.33	699.14
505.69	707.98
506.05	715.86
506.41	724.24
506.78	732.64
507.14	740.50
507.50	747.71
507.86	756.02
508.22	764.98
508.59	772.38
508.95	780.12
509.31	788.83
509.67	796.29
510.03	804.05
510.39	812.07
510.75	820.17
511.12	828.21
511.48	836.67
511.84	843.79
512.20	851.67
512.56	860.17
512.92	868.33
513.28	876.07
513.64	883.88
514.00	891.67
514.37	899.40
514.73	906.79
515.09	915.07
515.45	922.21
515.81	930.00
516.17	937.62
516.53	944.60
516.89	950.93
517.25	957.88
517.61	965.36
517.97	971.95
518.33	979.05
518.69	986.69
519.05	993.64
519.41	1001.10
519.77	1009.26
520.13	1014.76
520.49	1019.83
520.85	1025.33
521.21	1032.26
521.57	1038.12
521.93	1044.00
522.29	1050.38
522.65	1055.36
523.01	1060.86
523.37	1065.05
523.73	1071.21
524.09	1077.52
524.45	1083.05
524.81	1089.21
525.17	1094.81
525.53	1100.19
525.89	1105.36
526.25	1109.98
526.61	1114.45
526.97	1118.86
527.33	1123.07
527.68	1130.31
528.04	1135.74
528.40	1140.31
528.76	1144.98
529.12	1149.31
529.48	1154.50
529.84	1158.40
530.20	1163.60
530.56	1169.19
530.91	1174.62
531.27	1179.21
531.63	1183.95
531.99	1188.05
532.35	1192.29
532.71	1196.69
533.07	1201.79
533.42	1208.40
533.78	1212.67
534.14	1217.45
534.50	1221.38
534.86	1226.64
535.21	1228.57
535.57	1233.52
535.93	1237.76
536.29	1242.62
536.65	1247.12
537.00	1250.38
537.36	1255.10
537.72	1259.07
538.08	1262.83
538.44	1266.48
538.79	1270.31
539.15	1273.21
539.51	1277.98
539.87	1281.86
540.22	1285.43
540.58	1288.74
540.94	1290.43
541.29	1294.26
541.65	1297.55
542.01	1301.71
542.37	1303.74
542.72	1307.48
543.08	1310.31
543.44	1314.07
543.79	1315.55
544.15	1319.10
544.51	1322.93
544.87	1326.21
545.22	1330.21
545.58	1333.05
545.94	1336.36
546.29	1339.69
546.65	1343.83
547.01	1346.00
547.36	1349.52
547.72	1352.79
548.07	1355.83
548.43	1359.38
548.79	1361.24
549.14	1364.48
549.50	1368.48
549.86	1371.43
550.21	1374.57
550.57	1378.19
550.92	1380.17
551.28	1384.33
551.64	1387.29
551.99	1390.07
552.35	1393.57
552.70	1396.02
553.06	1399.95
553.41	1404.31
553.77	1408.38
554.13	1412.17
554.48	1417.26
554.84	1421.52
555.19	1425.02
555.55	1430.71
555.90	1434.88
556.26	1440.74
556.61	1444.71
556.97	1448.10
557.32	1453.36
557.68	1458.33
558.03	1463.79
558.39	1469.31
558.74	1474.48
559.10	1478.76
559.45	1484.02
559.81	1487.83
560.16	1492.26
560.52	1496.52
560.87	1501.14
561.23	1505.33
561.58	1510.81
561.94	1514.98
562.29	1519.74
562.64	1525.71
563.00	1529.05
563.35	1533.76
563.71	1538.60
564.06	1544.05
564.42	1549.17
564.77	1554.50
565.12	1560.76
565.48	1567.00
565.83	1573.02
566.19	1578.02
566.54	1583.81
566.89	1589.26
567.25	1596.40
567.60	1604.50
567.96	1613.02
568.31	1619.48
568.66	1625.67
569.02	1630.48
569.37	1634.98
569.72	1639.31
570.08	1644.26
570.43	1649.38
570.78	1654.81
571.14	1660.33
571.49	1665.21
571.84	1670.29
572.20	1674.71
572.55	1678.00
572.90	1679.86
573.26	1684.38
573.61	1687.93
573.96	1692.90
574.31	1697.45
574.67	1700.67
575.02	1702.50
575.37	1703.71
575.72	1705.69
576.08	1709.50
576.43	1713.02
576.78	1717.31
577.13	1721.36
577.49	1724.33
577.84	1728.19
578.19	1731.48
578.54	1734.98
578.90	1738.67
579.25	1741.62
579.60	1744.40
579.95	1747.31
580.30	1751.29
580.66	1753.36
581.01	1756.79
581.36	1757.90
581.71	1759.88
582.06	1763.98
582.42	1767.79
582.77	1769.83
583.12	1773.17
583.47	1775.29
583.82	1777.24
584.17	1779.62
584.53	1782.14
584.88	1784.19
585.23	1786.57
585.58	1787.31
585.93	1787.88
586.28	1789.43
586.63	1792.17
586.98	1794.48
587.34	1796.69
587.69	1797.14
588.04	1799.52
588.39	1800.64
588.74	1801.90
589.09	1803.50
589.44	1802.38
589.79	1802.79
590.14	1804.64
590.49	1805.40
590.84	1805.74
591.19	1806.60
591.54	1807.07
591.89	1807.90
592.25	1810.90
592.60	1809.52
592.95	1810.14
593.30	1810.93
593.65	1810.71
594.00	1809.52
594.35	1814.21
594.70	1813.31
595.05	1814.52
595.40	1813.86
595.75	1814.21
596.10	1815.71
596.45	1815.81
596.80	1816.12
597.15	1816.07
597.50	1814.43
597.85	1814.55
598.19	1813.95
598.54	1813.45
598.89	1812.95
599.24	1812.50
599.59	1809.14
599.94	1808.14
600.29	1807.88
600.64	1806.26
600.99	1806.10
601.34	1805.79
601.69	1799.83
602.04	1798.55
602.39	1796.79
602.74	1795.76
603.08	1794.05
603.43	1794.02
603.78	1792.29
604.13	1791.00
604.48	1789.00
604.83	1788.40
605.18	1786.76
605.53	1785.31
605.87	1782.64
606.22	1780.33
606.57	1778.05
606.92	1776.60
607.27	1775.19
607.62	1772.74
607.96	1771.81
608.31	1770.14
608.66	1767.74
609.01	1764.86
609.36	1762.88
609.70	1760.76
610.05	1757.05
610.40	1754.07
610.75	1748.67
611.10	1745.55
611.44	1741.67
611.79	1738.38
612.14	1734.74
612.49	1729.38
612.83	1725.60
613.18	1721.95
613.53	1718.07
613.88	1712.95
614.22	1708.31
614.57	1704.98
614.92	1700.43
615.27	1695.24
615.61	1689.98
615.96	1684.79
616.31	1680.17
616.65	1676.95
617.00	1671.45
617.35	1667.45
617.70	1662.71
618.04	1657.74
618.39	1652.02
618.74	1647.29
619.08	1641.52
619.43	1636.50
619.78	1632.21
620.12	1627.74
620.47	1623.48
620.82	1618.31
621.16	1613.05
621.51	1608.81
621.85	1602.83
622.20	1597.43
622.55	1592.02
622.89	1587.17
623.24	1583.50
623.59	1577.88
623.93	1571.95
624.28	1567.69
624.62	1565.00
624.97	1561.74
625.32	1557.93
625.66	1554.24
626.01	1548.83
626.35	1545.10
626.70	1539.86
627.04	1536.62
627.39	1531.71
627.73	1527.76
628.08	1523.48
628.43	1519.00
628.77	1513.90
629.12	1509.55
629.46	1505.10
629.81	1500.31
630.15	1494.43
630.50	1488.74
630.84	1483.83
631.19	1478.33
631.53	1472.36
631.88	1464.43
632.22	1457.07
632.57	1451.74
632.91	1445.88
633.26	1441.52
633.60	1434.88
633.95	1429.38
634.29	1422.07
634.64	1415.98
634.98	1408.93
635.32	1404.38
635.67	1399.74
636.01	1395.29
636.36	1389.98
636.70	1385.45
637.05	1379.98
637.39	1375.71
637.73	1370.17
638.08	1365.60
638.42	1360.38
638.77	1355.81
639.11	1350.31
639.45	1345.55
639.80	1339.10
640.14	1333.38
640.49	1327.00
640.83	1321.21
641.17	1315.43
641.52	1309.67
641.86	1303.90
642.20	1299.81
642.55	1292.55
642.89	1286.45
643.23	1279.12
643.58	1273.36
643.92	1265.45
644.26	1258.90
644.61	1251.86
644.95	1244.93
645.29	1237.12
645.64	1231.33
645.98	1223.93
646.32	1218.24
646.66	1210.33
647.01	1203.57
647.35	1197.50
647.69	1190.62
648.04	1185.38
648.38	1179.69
648.72	1174.24
649.06	1167.55
649.41	1159.40
649.75	1152.57
650.09	1145.07
650.43	1137.55
650.78	1130.14
651.12	1124.26
651.46	1117.29
651.80	1110.64
652.14	1104.50
652.49	1099.02
652.83	1091.33
653.17	1084.74
653.51	1077.76
653.85	1071.95
654.20	1065.31
654.54	1057.36
654.88	1050.69
655.22	1044.50
655.56	1037.19
655.90	1030.12
656.25	1023.88
656.59	1018.02
656.93	1011.98
657.27	1006.17
657.61	999.64
657.95	994.02
658.29	987.36
658.64	982.48
658.98	975.71
659.32	968.95
659.66	962.24
660.00	955.86
660.34	949.50
660.68	943.21
661.02	937.21
661.36	931.45
661.70	926.36
662.05	920.50
662.39	913.64
662.73	908.48
663.07	903.24
663.41	896.71
663.75	890.12
664.09	884.07
664.43	877.19
664.77	871.48
665.11	865.02
665.45	859.83
665.79	853.52
666.13	847.50
666.47	842.45
666.81	836.67
667.15	831.24
667.49	826.81
667.83	821.86
668.17	816.31
668.51	810.69
668.85	805.36
669.19	801.60
669.53	795.71
669.87	789.93
670.21	783.79
670.55	778.40
670.89	774.69
671.23	770.00
671.57	765.81
671.91	761.69
672.25	756.67
672.58	751.90
672.92	746.45
673.26	742.12
673.60	736.93
673.94	732.38
674.28	727.81
674.62	722.90
674.96	717.79
675.30	713.21
675.64	709.07
675.97	703.95
676.31	698.60
676.65	693.83
676.99	689.74
677.33	685.45
677.67	681.40
678.01	675.67
678.34	670.88
678.68	666.90
679.02	662.07
679.36	657.55
679.70	652.83
680.04	648.38
680.37	644.00
680.71	639.43
681.05	635.29
681.39	630.67
681.73	625.74
682.06	621.21
682.40	616.81
682.74	612.43
683.08	609.29
683.42	604.55
683.75	601.24
684.09	596.60
684.43	591.50
684.77	587.14
685.10	583.19
685.44	579.05
685.78	574.38
686.12	570.36
686.45	566.45
686.79	561.76
687.13	558.07
687.46	554.10
687.80	550.48
688.14	546.26
688.48	542.69
688.81	539.29
689.15	535.95
689.49	532.62
689.82	528.86
690.16	524.02
690.50	520.14
690.83	516.05
691.17	511.71
691.51	508.60
691.84	505.36
692.18	501.64
692.52	498.26
692.85	495.55
693.19	492.69
693.52	489.07
693.86	485.79
694.20	482.62
694.53	479.45
694.87	475.95
695.21	472.67
695.54	469.36
695.88	465.76
696.21	461.31
696.55	457.64
696.88	454.29
697.22	451.38
697.56	449.21
697.89	446.12
698.23	443.83
698.56	440.62
698.90	437.83
699.23	434.69
699.57	432.00
699.90	428.36
700.24	425.40
700.58	422.76
700.91	420.83
701.25	420.07
701.58	417.93
701.92	416.05
702.25	413.71
702.59	410.67
702.92	408.21
703.26	406.60
703.59	404.62
703.93	403.95
704.26	402.00
704.60	399.60
704.93	397.21
705.26	394.55
705.60	392.74
705.93	389.98
706.27	388.71
706.60	386.74
706.94	385.57
707.27	382.60
707.61	380.45
707.94	378.10
708.27	374.05
708.61	371.60
708.94	369.69
709.28	367.79
709.61	366.05
709.94	364.45
710.28	362.48
710.61	360.14
710.95	356.52
711.28	355.81
711.61	353.79
711.95	352.86
712.28	350.95
712.61	349.40
712.95	349.07
713.28	348.05
713.61	346.02
713.95	343.62
714.28	342.43
714.61	340.95
714.95	339.43
715.28	337.90
715.61	336.19
715.95	334.50
716.28	332.69
716.61	331.57
716.95	329.90
717.28	328.33
717.61	326.90
717.94	325.43
718.28	322.43
718.61	320.74
718.94	318.76
719.27	317.79
719.61	316.29
719.94	314.19
720.27	311.88
720.60	310.48
720.94	309.29
721.27	308.29
721.60	307.50
721.93	306.19
722.27	305.71
722.60	305.10
722.93	303.69
723.26	302.67
723.59	301.21
723.93	300.14
724.26	299.21
724.59	298.10
724.92	297.60
725.25	297.31
725.59	296.62
725.92	295.83
726.25	294.90
726.58	294.00
726.91	292.79
727.24	291.98
727.57	291.02
727.91	289.83
728.24	289.29
728.57	287.69
728.90	286.95
729.23	285.64
729.56	285.50
729.89	284.60
730.22	283.60
730.55	282.79
730.89	281.98
731.22	281.12
731.55	280.52
731.88	279.71
732.21	278.52
732.54	277.60
732.87	276.64
733.20	275.74
733.53	275.24
733.86	274.88
734.19	273.86
734.52	273.43
734.85	274.40
735.18	273.26
735.51	273.52
735.84	273.10
736.17	272.74
736.50	270.98
736.83	272.57
737.16	272.00
737.49	271.60
737.82	270.98
738.15	270.67
738.48	270.10
738.81	269.14
739.14	268.21
739.47	267.43
739.80	266.67
740.13	266.12
740.46	264.88
740.79	263.81
741.12	263.29
741.45	262.67
741.78	260.79
742.11	260.81
742.44	259.81
742.77	259.26
743.10	258.31
743.43	257.48
743.75	254.95
744.08	257.19
744.41	256.62
744.74	255.81
745.07	254.76
745.40	254.45
745.73	254.95
746.06	254.76
746.39	254.45
746.71	254.00
747.04	253.55
747.37	253.05
747.70	253.12
748.03	252.93
748.36	252.67
748.68	252.12
749.01	250.79
749.34	250.36
749.67	250.14
750.00	250.10
750.33	251.48
750.65	251.26
750.98	248.26
751.31	247.90
751.64	247.76
751.97	248.55
752.29	248.00
752.62	246.60
752.95	245.64
753.28	245.24
753.60	244.95
753.93	245.31
754.26	245.14
754.59	244.31
754.91	243.79
755.24	243.17
755.57	242.74
755.90	242.64
756.22	242.05
756.55	241.24
756.88	240.43
757.20	238.69
757.53	237.57
757.86	237.19
758.19	236.76
758.51	236.36
758.84	235.17
759.17	234.81
759.49	234.90
759.82	235.81
760.15	235.55
760.47	235.17
760.80	234.00
761.13	234.19
761.45	233.90
761.78	233.48
762.11	233.36
762.43	233.10
762.76	232.69
763.08	232.67
763.41	232.79
763.74	232.60
764.06	232.40
764.39	232.48
764.71	232.19
765.04	231.88
765.37	231.48
765.69	231.10
766.02	230.67
766.34	230.38
766.67	229.50
767.00	229.93
767.32	230.76
767.65	231.76
767.97	231.36
768.30	231.17
768.62	231.02
768.95	230.40
769.27	230.14
769.60	230.55
769.92	230.10
770.25	229.55
770.57	229.19
770.90	229.05
771.22	228.60
771.55	228.43
771.87	228.21
772.20	228.17
772.52	229.79
772.85	232.12
773.17	231.74
773.50	231.60
773.82	231.10
774.15	229.93
774.47	228.50
774.80	228.21
775.12	228.19
775.45	228.10
775.77	228.17
776.09	228.29
776.42	227.64
776.74	228.19
777.07	227.83
777.39	227.86
777.72	227.64
778.04	227.88
778.36	227.60
778.69	227.81
779.01	227.81
779.33	225.79
779.66	223.48
779.98	223.21
780.31	223.00
780.63	223.48
780.95	223.88
781.28	223.93
781.60	223.69
781.92	223.55
782.25	223.48
782.57	223.33
782.89	222.90
783.22	222.81
783.54	222.17
783.86	222.19
784.19	221.86
784.51	222.17
784.83	221.67
785.16	221.69
785.48	221.55
785.80	221.48
786.12	221.74
786.45	221.50
786.77	221.60
787.09	221.62
787.42	220.90
787.74	220.60
788.06	220.69
788.38	220.52
788.71	220.29
789.03	220.17
789.35	220.50
789.67	220.40
789.99	220.45
790.32	220.19
790.64	220.55
790.96	222.17
791.28	221.38
791.61	221.52
791.93	221.38
792.25	221.48
792.57	222.86
792.89	222.33
793.21	222.50
793.54	222.19
793.86	221.98
794.18	222.10
794.50	221.81
794.82	221.76
795.14	222.12
795.47	222.36
795.79	222.21
796.11	221.67
796.43	221.50
796.75	221.45
797.07	221.55
797.39	221.38
797.71	220.14
798.04	220.26
798.36	220.24
798.68	220.07
799.00	219.74
799.32	218.36
799.64	218.83
799.96	218.81
800.28	219.38
800.60	219.33
800.92	219.24
801.24	219.24
801.56	219.19
801.89	218.90
802.21	219.14
802.53	219.07
802.85	219.26
803.17	220.14
803.49	219.98
803.81	219.79
804.13	219.62
804.45	219.05
804.77	219.31
805.09	219.19
805.41	219.17
805.73	218.71
806.05	218.45
806.37	218.19
806.69	217.81
807.01	217.64
807.33	217.50
807.65	216.88
807.97	217.67
808.28	217.36
808.60	217.17
808.92	216.55
809.24	217.93
809.56	217.95
809.88	217.36
810.20	217.33
810.52	217.74
810.84	217.48
811.16	217.43
811.48	217.07
811.80	217.81
812.12	217.74
812.43	218.29
812.75	218.60
813.07	218.38
813.39	218.57
813.71	218.12
814.03	218.14
814.35	218.21
814.67	217.50
814.98	217.48
815.30	217.36
815.62	217.07
815.94	215.57
816.26	215.60
816.58	215.05
816.89	215.24
817.21	214.74
817.53	214.86
817.85	214.98
818.17	214.79
818.48	213.98
818.80	214.31
819.12	213.83
819.44	213.29
819.76	213.14
820.07	213.05
820.39	213.33
820.71	213.43
821.03	213.50
821.34	213.05
821.66	213.19
821.98	213.64
822.30	213.60
822.61	214.88
822.93	214.55
823.25	214.88
823.57	214.60
823.88	215.00
824.20	215.02
824.52	215.21
824.83	215.45
825.15	215.21
825.47	215.07
825.79	215.31
826.10	215.05
826.42	215.10
826.74	215.36
827.05	215.19
827.37	215.50
827.69	215.33
828.00	215.48
828.32	215.52
828.64	215.10
828.95	216.38
829.27	215.95
829.58	216.02
829.90	216.26
830.22	216.45
830.53	215.86
830.85	215.60
831.17	215.31
831.48	214.98
831.80	215.21
832.11	215.21
832.43	215.05
832.75	215.12
833.06	216.02
833.38	215.45
833.69	215.36
834.01	215.33
834.32	215.38
834.64	215.19
834.96	215.17
835.27	215.36
835.59	214.57
835.90	213.90
836.22	213.83
836.53	213.24
836.85	212.98
837.16	215.00
837.48	215.00
837.79	215.48
838.11	215.64
838.42	215.76
838.74	215.86
839.05	215.55
839.37	215.62
839.68	214.60
840.00	214.60
840.31	214.76
840.63	214.33
840.94	214.24
841.26	214.02
841.57	214.00
841.88	214.10
842.20	213.76
842.51	213.45
842.83	213.48
843.14	215.43
843.46	215.62
843.77	214.55
844.08	214.48
844.40	213.83
844.71	213.76
845.03	213.36
845.34	213.31
845.65	213.43
845.97	213.45
846.28	213.45
846.60	213.62
846.91	213.33
847.22	213.17
847.54	213.62
847.85	213.98
848.16	213.86
848.48	213.38
848.79	214.43
849.10	214.81
849.42	214.88
849.73	213.12
850.04	213.00
850.36	212.40
850.67	212.69
850.98	212.90
851.30	213.33
851.61	213.24
851.92	213.14
852.23	213.81
852.55	213.95
852.86	214.24
853.17	214.31
853.49	214.74
853.80	215.40
854.11	215.55
854.42	215.83
854.74	215.38
855.05	215.62
855.36	214.43
855.67	214.40
855.99	214.55
856.30	216.76
856.61	216.57
856.92	216.64
857.23	216.90
857.55	216.62
857.86	216.31
858.17	216.83
858.48	216.50
858.79	216.05
859.11	216.38
859.42	216.14
859.73	215.90
860.04	215.76
860.35	215.19
860.66	214.40
860.98	214.10
861.29	214.55
861.60	214.36
861.91	214.74
862.22	214.50
862.53	214.00
862.84	211.45
863.16	211.98
863.47	211.55
863.78	210.79
864.09	211.05
864.40	211.24
864.71	211.24
865.02	211.71
865.33	211.40
865.64	210.76
865.95	210.64
866.27	212.00
866.58	211.74
866.89	211.79
867.20	212.02
867.51	211.83
867.82	211.83
868.13	212.67
868.44	212.38
868.75	212.90
869.06	213.24
869.37	213.69
869.68	212.98
869.99	213.24
870.30	213.74
870.61	213.76
870.92	213.29
871.23	212.98
871.54	212.86
871.85	213.71
872.16	213.98
872.47	214.00
872.78	212.52
873.09	212.69
873.40	212.43
873.71	212.48
874.02	212.57
874.33	212.33
874.64	211.67
874.95	212.12
875.26	211.50
875.56	211.17
875.87	210.98
876.18	210.93
876.49	213.02
876.80	212.79
877.11	212.52
877.42	212.52
877.73	212.62
878.04	212.33
878.35	211.74
878.66	211.95
878.96	211.90
879.27	212.17
879.58	212.26
879.89	212.38
880.20	212.88
880.51	212.98
880.82	212.90
881.12	212.95
881.43	212.36
881.74	212.17
882.05	212.26
882.36	212.57
882.67	212.95
882.97	210.69
883.28	210.52
883.59	210.52
883.90	210.86
884.21	211.26
884.51	211.36
884.82	211.36
885.13	211.14
885.44	211.14
885.74	211.21
886.05	211.05
886.36	211.17
886.67	210.45
886.98	211.36
887.28	211.60
887.59	211.57
887.90	211.74
888.20	211.88
888.51	212.24
888.82	211.74
889.13	211.93
889.43	213.74
889.74	213.81
890.05	213.67
890.35	213.45
890.66	213.07
890.97	213.05
891.28	212.79
891.58	212.81
891.89	212.83
892.20	212.64
892.50	212.57
892.81	212.36
893.12	212.36
893.42	211.33
893.73	211.50
894.04	211.55
894.34	211.69
894.65	211.52
894.95	211.36
895.26	211.52
895.57	212.24
895.87	210.17
896.18	210.48
896.48	210.57
896.79	210.60
897.10	210.79
897.40	210.86
897.71	211.17
898.01	211.02
898.32	211.31
898.63	211.10
898.93	211.29
899.24	211.36
899.54	211.17
899.85	211.40
900.15	211.26
900.46	211.21
900.76	211.62
901.07	211.74
901.38	211.67
901.68	211.98
901.99	210.83
902.29	211.19
902.60	211.14
902.90	211.19
903.21	211.19
903.51	211.24
903.82	211.50
904.12	211.43
904.43	211.60
904.73	211.50
905.03	211.76
905.34	213.50
905.64	213.45
905.95	213.62
906.25	213.43
906.56	213.50
906.86	213.71
907.17	213.38
907.47	213.50
907.77	213.31
908.08	212.95
908.38	213.45
908.69	213.52
908.99	213.67
909.30	213.74
909.60	213.76
909.90	213.57
910.21	213.02
910.51	212.88
910.81	213.07
911.12	213.07
911.42	213.00
911.73	210.98
912.03	211.17
912.33	211.74
912.64	211.76
912.94	211.67
913.24	211.36
913.55	211.29
913.85	211.17
914.15	211.43
914.46	211.67
914.76	211.45
915.06	211.31
915.37	210.90
915.67	210.83
915.97	210.74
916.27	210.52
916.58	210.81
916.88	210.86
917.18	210.88
917.49	212.36
917.79	212.45
918.09	212.74
918.39	213.19
918.70	212.79
919.00	212.83
919.30	213.64
919.60	213.60
919.91	213.57
920.21	213.60
920.51	213.36
920.81	213.24
921.12	213.64
921.42	213.69
921.72	213.90
922.02	214.12
922.32	214.40
922.63	214.26
922.93	215.24
923.23	215.45
923.53	215.19
923.83	213.76
924.13	214.02
924.44	214.14
924.74	214.36
925.04	215.05
925.34	214.95
925.64	214.12
925.94	214.19
926.24	215.19
926.55	215.19
926.85	215.55
927.15	215.38
927.45	215.14
927.75	215.21
928.05	215.31
928.35	215.12
928.65	215.67
928.95	216.02
929.26	215.29
929.56	215.38
929.86	215.50
930.16	215.29
930.46	214.83
930.76	214.69
931.06	213.81
931.36	213.10
931.66	213.26
931.96	213.69
932.26	213.55
932.56	212.67
932.86	212.50
933.16	212.40
933.46	212.38
933.76	212.26
934.06	212.71
934.36	213.43
934.66	213.43
934.96	213.12
935.26	213.14
935.56	213.36
935.86	212.81
936.16	212.60
936.46	212.48
936.76	212.67
937.06	212.40
937.36	212.62
937.66	212.79
937.96	212.69
938.26	212.10
938.56	212.05
938.86	212.12
939.16	212.76
939.46	212.81
939.76	212.86
940.06	212.67
940.35	212.02
940.65	211.00
940.95	211.12
941.25	210.71
941.55	210.57
941.85	210.45
942.15	211.17
942.45	211.64
942.75	211.52
943.04	211.71
943.34	212.26
943.64	212.12
943.94	211.71
944.24	211.90
944.54	211.83
944.84	211.95
945.13	211.57
945.43	211.12
945.73	211.07
946.03	211.10
946.33	211.00
946.62	211.00
946.92	210.83
947.22	210.83
947.52	210.79
947.82	210.83
948.11	210.50
948.41	210.10
948.71	209.64
949.01	209.74
949.31	209.36
949.60	209.21
949.90	209.38
950.20	209.36
950.50	209.36
950.79	209.00
951.09	209.19
951.39	209.17
951.69	209.29
951.98	209.50
952.28	209.57
952.58	209.52
952.87	209.50
953.17	209.86
953.47	209.81
953.76	209.93
954.06	209.79
954.36	209.52
954.66	209.17
954.95	209.64
955.25	209.88
955.55	210.19
955.84	209.62
956.14	209.74
956.44	209.98
956.73	209.52
957.03	210.21
957.32	210.12
957.62	210.05
957.92	210.29
958.21	210.19
958.51	212.74
958.81	213.07
959.10	213.24
959.40	213.90
959.69	213.98
959.99	214.14
960.29	214.12
960.58	214.02
960.88	214.95
961.17	214.71
961.47	215.12
961.76	214.88
962.06	215.29
962.36	215.21
962.65	215.31
962.95	215.55
963.24	215.10
963.54	215.24
963.83	215.52
964.13	215.12
964.42	214.83
964.72	212.98
965.01	212.79
965.31	212.64
965.60	211.98
965.90	213.10
966.19	212.64
966.49	212.74
966.78	212.74
967.08	212.62
967.37	212.69
967.67	212.07
967.96	212.40
968.26	212.50
968.55	212.74
968.85	212.64
969.14	212.79
969.43	213.00
969.73	212.69
970.02	212.64
970.32	212.81
970.61	212.81
970.91	212.02
971.20	211.98
971.49	211.83
971.79	212.02
972.08	210.43
972.38	210.69
972.67	210.71
972.96	211.26
973.26	210.74
973.55	211.14
973.85	211.17
974.14	210.76
974.43	211.00
974.73	210.55
975.02	210.31
975.31	210.24
975.61	210.07
975.90	210.05
976.19	209.74
976.49	209.86
976.78	209.90
977.07	210.00
977.37	209.95
977.66	210.26
977.95	210.00
978.24	210.26
978.54	210.60
978.83	210.29
979.12	210.10
979.42	210.17
979.71	209.81
980.00	210.00
980.29	210.52
980.59	209.88
980.88	210.43
981.17	210.45
981.46	210.38
981.76	210.29
982.05	211.00
982.34	211.31
982.63	211.17
982.93	211.07
983.22	211.67
983.51	211.76
983.80	211.98
984.09	212.17
984.39	212.50
984.68	212.07
984.97	212.40
985.26	212.26
985.55	212.50
985.85	212.14
986.14	212.14
986.43	212.14
986.72	212.38
987.01	211.93
987.30	211.93
987.59	211.52
987.89	211.76
988.18	210.95
988.47	210.93
988.76	210.95
989.05	210.90
989.34	210.55
989.63	211.12
989.92	210.81
990.22	210.43
990.51	210.14
990.80	210.19
991.09	210.24
991.38	210.55
991.67	210.45
991.96	210.29
992.25	210.55
992.54	210.07
992.83	210.02
993.12	210.05
993.41	210.36
993.70	211.33
993.99	211.55
994.28	212.17
994.58	212.07
994.87	211.79
995.16	211.83
995.45	211.60
995.74	210.95
996.03	211.21
996.32	211.45
996.61	211.76
996.90	211.76
997.19	211.69
997.48	211.52
997.77	211.14
998.06	211.55
998.34	211.12
998.63	211.17
998.92	211.07
999.21	211.19
999.50	211.14
999.79	210.50
1000.08	210.57
1000.37	210.40
1000.66	210.38
1000.95	210.90
1001.24	210.76
1001.53	211.17
1001.82	211.00
1002.11	210.60
1002.40	211.14
1002.68	211.79
1002.97	213.21
1003.26	212.98
1003.55	212.93
1003.84	213.05
1004.13	213.40
1004.42	213.40
1004.71	213.45
1004.99	213.21
1005.28	213.83
1005.57	213.81
1005.86	213.48
1006.15	213.45
1006.44	213.10
1006.72	213.38
1007.01	213.24
1007.30	213.29
1007.59	213.05
1007.88	213.17
1008.17	213.36
1008.45	212.60
1008.74	211.74
1009.03	210.79
1009.32	210.62
1009.60	210.50
1009.89	210.45
1010.18	209.74
1010.47	209.71
1010.76	209.69
1011.04	209.88
1011.33	209.81
1011.62	209.90
1011.91	210.40
1012.19	210.31
1012.48	210.14
1012.77	210.19
1013.05	210.95
1013.34	211.24
1013.63	211.07
1013.92	211.24
1014.20	211.17
1014.49	211.50
1014.78	211.74
1015.06	210.93
1015.35	210.93
1015.64	211.36
1015.92	211.71
1016.21	211.86
1016.50	211.83
1016.78	212.05
1017.07	212.14
1017.36	211.71
1017.64	211.43
1017.93	211.38
1018.22	211.19
1018.50	211.40
1018.79	211.12
1019.08	210.12
1019.36	210.21
1019.65	210.26
1019.93	210.81
1020.22	211.10
1020.51	212.05
1020.79	211.69
1021.08	207.50
1021.36	208.00
1021.65	209.50
1021.94	209.00
1022.22	214.50
1022.51	210.50
1022.79	222.00
1023.08	215.00
1023.36	234.00
1023.65	206.50
>>>>>End Processed Spectral Data<<<<<
