SpectraSuite Data File
++++++++++++++++++++++++++++++++++++
Date: Tue Apr 02 18:46:35 EDT 2013
User: group
Dark Spectrum Present: No
Reference Spectrum Present: No
Number of Sampled Component Spectra: 1
Spectrometers: USB2E7196
Integration Time (usec): 580000 (USB2E7196)
Spectra Averaged: 2 (USB2E7196)
Boxcar Smoothing: 10 (USB2E7196)
Correct for Electrical Dark: No (USB2E7196)
Strobe/Lamp Enabled: No (USB2E7196)
Correct for Detector Non-linearity: No (USB2E7196)
Correct for Stray Light: No (USB2E7196)
Number of Pixels in Processed Spectrum: 2048
>>>>>Begin Processed Spectral Data<<<<<
339.09	0.00
339.48	192.00
339.86	197.00
340.24	194.00
340.63	200.00
341.01	226.50
341.39	200.50
341.78	207.50
342.16	209.00
342.54	200.50
342.93	197.05
343.31	206.93
343.69	207.60
344.07	208.12
344.46	208.81
344.84	209.36
345.22	208.40
345.60	209.00
345.99	209.10
346.37	209.26
346.75	209.76
347.13	209.83
347.52	210.00
347.90	211.17
348.28	211.05
348.66	211.48
349.05	211.00
349.43	211.19
349.81	211.50
350.19	211.50
350.57	211.67
350.96	211.74
351.34	212.00
351.72	212.36
352.10	212.31
352.48	212.40
352.87	212.26
353.25	212.31
353.63	212.17
354.01	212.10
354.39	212.24
354.77	212.12
355.15	212.95
355.54	212.69
355.92	211.86
356.30	212.05
356.68	213.29
357.06	213.38
357.44	212.98
357.82	212.83
358.20	213.90
358.58	213.74
358.97	214.12
359.35	214.50
359.73	214.81
360.11	214.93
360.49	215.33
360.87	215.36
361.25	215.74
361.63	216.19
362.01	216.55
362.39	216.19
362.77	216.33
363.15	216.19
363.53	216.31
363.91	216.67
364.29	216.64
364.67	214.98
365.05	215.05
365.43	215.36
365.81	215.60
366.19	215.40
366.57	216.21
366.95	216.05
367.33	215.50
367.71	215.52
368.09	216.02
368.47	215.69
368.85	215.76
369.23	216.12
369.61	215.60
369.99	216.00
370.37	216.38
370.75	217.71
371.13	217.33
371.51	217.31
371.89	217.43
372.27	217.45
372.65	217.36
373.03	217.40
373.41	217.24
373.78	217.14
374.16	216.45
374.54	215.79
374.92	215.57
375.30	215.62
375.68	215.07
376.06	215.07
376.44	214.79
376.82	214.76
377.19	214.52
377.57	214.45
377.95	213.76
378.33	213.62
378.71	212.17
379.09	212.29
379.47	212.36
379.84	211.95
380.22	212.05
380.60	211.74
380.98	211.50
381.36	211.45
381.73	211.29
382.11	211.55
382.49	211.62
382.87	211.31
383.25	211.26
383.62	213.74
384.00	213.12
384.38	213.31
384.76	213.79
385.13	214.69
385.51	214.76
385.89	214.74
386.27	214.62
386.64	214.95
387.02	214.81
387.40	214.74
387.78	215.12
388.15	215.05
388.53	215.10
388.91	215.21
389.29	214.95
389.66	215.07
390.04	214.81
390.42	215.14
390.79	215.57
391.17	215.62
391.55	213.57
391.92	213.81
392.30	214.02
392.68	213.67
393.05	213.29
393.43	213.50
393.81	213.60
394.18	213.62
394.56	213.62
394.94	214.29
395.31	213.90
395.69	214.29
396.06	214.55
396.44	214.64
396.82	214.45
397.19	215.95
397.57	215.74
397.95	216.00
398.32	215.55
398.70	215.55
399.07	216.02
399.45	215.69
399.82	215.55
400.20	215.45
400.58	215.21
400.95	214.62
401.33	214.98
401.70	216.76
402.08	216.83
402.45	216.98
402.83	217.24
403.20	217.64
403.58	217.36
403.95	217.64
404.33	218.43
404.71	218.79
405.08	219.81
405.46	220.02
405.83	220.50
406.21	220.62
406.58	220.90
406.96	221.02
407.33	221.64
407.70	222.52
408.08	224.45
408.45	225.40
408.83	226.21
409.20	226.67
409.58	225.83
409.95	226.98
410.33	227.95
410.70	228.33
411.08	229.45
411.45	230.79
411.82	231.62
412.20	232.93
412.57	235.14
412.95	234.69
413.32	236.60
413.69	237.81
414.07	239.60
414.44	241.40
414.82	243.57
415.19	245.88
415.56	247.86
415.94	249.40
416.31	252.21
416.68	255.31
417.06	258.40
417.43	262.12
417.81	265.57
418.18	268.98
418.55	272.93
418.93	277.31
419.30	281.50
419.67	285.98
420.04	290.24
420.42	294.69
420.79	301.67
421.16	307.07
421.54	314.19
421.91	320.31
422.28	326.55
422.66	333.26
423.03	340.95
423.40	348.19
423.77	355.12
424.15	362.31
424.52	369.31
424.89	377.88
425.26	385.26
425.64	392.76
426.01	401.24
426.38	409.57
426.75	418.69
427.13	427.95
427.50	437.19
427.87	447.31
428.24	457.19
428.61	465.88
428.99	477.33
429.36	487.48
429.73	498.83
430.10	510.00
430.47	521.52
430.85	532.33
431.22	544.62
431.59	559.45
431.96	572.29
432.33	586.43
432.70	600.19
433.08	616.38
433.45	632.14
433.82	647.31
434.19	664.19
434.56	681.14
434.93	696.69
435.30	713.26
435.68	730.50
436.05	747.60
436.42	764.50
436.79	780.31
437.16	797.48
437.53	815.88
437.90	834.19
438.27	851.71
438.64	869.36
439.01	886.26
439.38	899.76
439.75	914.90
440.13	932.21
440.50	947.52
440.87	960.19
441.24	972.81
441.61	987.29
441.98	998.62
442.35	1010.07
442.72	1023.52
443.09	1035.95
443.46	1043.10
443.83	1048.07
444.20	1053.10
444.57	1059.17
444.94	1062.48
445.31	1065.31
445.68	1070.62
446.05	1072.19
446.42	1071.36
446.79	1070.43
447.16	1068.29
447.53	1066.29
447.90	1059.21
448.27	1052.60
448.64	1044.38
449.01	1038.21
449.37	1026.52
449.74	1014.86
450.11	1004.21
450.48	989.17
450.85	973.79
451.22	961.60
451.59	949.81
451.96	937.93
452.33	922.02
452.70	907.76
453.07	890.98
453.43	871.45
453.80	855.02
454.17	839.19
454.54	823.67
454.91	807.98
455.28	792.02
455.65	777.24
456.02	766.55
456.38	753.43
456.75	738.38
457.12	725.71
457.49	713.40
457.86	698.95
458.23	689.02
458.59	677.67
458.96	666.05
459.33	655.81
459.70	645.57
460.07	637.50
460.43	628.17
460.80	619.21
461.17	612.36
461.54	604.21
461.91	596.10
462.27	587.79
462.64	580.64
463.01	573.60
463.38	567.45
463.74	556.48
464.11	550.19
464.48	544.12
464.85	537.83
465.21	533.36
465.58	528.14
465.95	521.50
466.32	516.48
466.68	511.14
467.05	506.26
467.42	501.36
467.78	495.83
468.15	490.76
468.52	487.45
468.88	481.67
469.25	476.62
469.62	473.24
469.98	469.81
470.35	466.43
470.72	462.83
471.08	458.21
471.45	455.69
471.82	452.90
472.18	449.50
472.55	447.00
472.92	443.38
473.28	440.48
473.65	437.29
474.02	434.55
474.38	432.67
474.75	430.55
475.11	427.57
475.48	426.02
475.85	424.71
476.21	422.40
476.58	420.95
476.94	419.95
477.31	418.86
477.67	417.38
478.04	416.45
478.41	416.00
478.77	417.60
479.14	416.00
479.50	415.00
479.87	414.86
480.23	414.71
480.60	414.43
480.96	414.50
481.33	415.55
481.69	415.55
482.06	415.69
482.42	415.55
482.79	416.24
483.15	416.64
483.52	417.48
483.88	417.74
484.25	418.76
484.61	419.76
484.98	420.19
485.34	421.71
485.71	423.38
486.07	424.71
486.44	424.50
486.80	426.60
487.17	428.55
487.53	431.00
487.90	433.40
488.26	436.17
488.62	438.93
488.99	440.62
489.35	442.86
489.72	445.43
490.08	448.38
490.44	450.93
490.81	454.24
491.17	456.86
491.54	461.00
491.90	464.43
492.26	467.81
492.63	471.62
492.99	475.40
493.36	479.24
493.72	483.48
494.08	487.93
494.45	492.48
494.81	497.50
495.17	501.76
495.54	506.55
495.90	511.05
496.26	516.07
496.63	522.05
496.99	527.88
497.35	533.90
497.72	540.00
498.08	546.17
498.44	552.07
498.80	558.52
499.17	564.55
499.53	570.79
499.89	578.07
500.26	584.62
500.62	591.29
500.98	598.48
501.34	605.10
501.71	612.21
502.07	619.31
502.43	625.76
502.79	632.43
503.16	639.60
503.52	646.95
503.88	653.38
504.24	660.69
504.60	668.67
504.97	676.45
505.33	684.19
505.69	692.40
506.05	699.86
506.41	707.81
506.78	715.69
507.14	723.81
507.50	730.95
507.86	739.36
508.22	747.05
508.59	753.60
508.95	761.67
509.31	770.21
509.67	777.57
510.03	784.93
510.39	793.07
510.75	800.86
511.12	808.81
511.48	817.52
511.84	824.71
512.20	832.33
512.56	838.83
512.92	846.48
513.28	854.07
513.64	861.67
514.00	869.07
514.37	875.81
514.73	882.93
515.09	890.69
515.45	897.64
515.81	904.62
516.17	911.74
516.53	918.40
516.89	923.50
517.25	930.57
517.61	938.48
517.97	944.86
518.33	950.88
518.69	957.45
519.05	963.55
519.41	969.93
519.77	976.86
520.13	983.57
520.49	988.83
520.85	994.36
521.21	1001.05
521.57	1006.93
521.93	1012.10
522.29	1017.79
522.65	1022.12
523.01	1028.12
523.37	1033.36
523.73	1039.62
524.09	1044.86
524.45	1050.50
524.81	1055.36
525.17	1059.76
525.53	1064.64
525.89	1069.38
526.25	1074.55
526.61	1078.74
526.97	1082.50
527.33	1086.29
527.68	1092.62
528.04	1097.29
528.40	1101.17
528.76	1104.90
529.12	1109.29
529.48	1114.86
529.84	1118.29
530.20	1123.00
530.56	1126.81
530.91	1131.21
531.27	1135.02
531.63	1139.40
531.99	1143.57
532.35	1146.64
532.71	1150.31
533.07	1154.60
533.42	1161.26
533.78	1164.33
534.14	1168.69
534.50	1173.00
534.86	1177.93
535.21	1179.98
535.57	1184.14
535.93	1187.79
536.29	1192.62
536.65	1196.02
537.00	1199.57
537.36	1203.36
537.72	1206.50
538.08	1209.76
538.44	1212.62
538.79	1215.31
539.15	1217.38
539.51	1220.71
539.87	1224.86
540.22	1228.40
540.58	1231.31
540.94	1233.05
541.29	1236.48
541.65	1238.69
542.01	1242.40
542.37	1244.12
542.72	1246.24
543.08	1247.62
543.44	1250.48
543.79	1251.21
544.15	1253.95
544.51	1256.19
544.87	1258.71
545.22	1261.64
545.58	1263.98
545.94	1266.88
546.29	1270.12
546.65	1272.90
547.01	1275.36
547.36	1278.14
547.72	1279.83
548.07	1282.71
548.43	1284.12
548.79	1285.45
549.14	1287.90
549.50	1289.90
549.86	1291.81
550.21	1294.93
550.57	1299.07
550.92	1301.26
551.28	1304.64
551.64	1307.19
551.99	1309.98
552.35	1313.29
552.70	1317.17
553.06	1320.55
553.41	1323.26
553.77	1327.57
554.13	1331.60
554.48	1335.50
554.84	1339.07
555.19	1343.48
555.55	1348.29
555.90	1352.05
556.26	1356.07
556.61	1360.02
556.97	1363.38
557.32	1367.26
557.68	1370.86
558.03	1374.76
558.39	1378.88
558.74	1383.05
559.10	1386.55
559.45	1390.21
559.81	1393.95
560.16	1397.10
560.52	1400.52
560.87	1405.57
561.23	1408.83
561.58	1414.43
561.94	1418.00
562.29	1421.74
562.64	1426.40
563.00	1428.86
563.35	1432.90
563.71	1438.38
564.06	1442.71
564.42	1447.79
564.77	1453.76
565.12	1459.57
565.48	1465.33
565.83	1471.50
566.19	1477.14
566.54	1482.74
566.89	1488.88
567.25	1495.05
567.60	1502.17
567.96	1509.64
568.31	1515.17
568.66	1521.36
569.02	1525.05
569.37	1530.40
569.72	1536.33
570.08	1540.71
570.43	1546.55
570.78	1553.12
571.14	1558.76
571.49	1563.86
571.84	1569.90
572.20	1574.83
572.55	1579.74
572.90	1583.26
573.26	1587.83
573.61	1592.05
573.96	1596.83
574.31	1600.76
574.67	1604.26
575.02	1607.55
575.37	1610.26
575.72	1612.74
576.08	1616.88
576.43	1621.52
576.78	1625.36
577.13	1629.00
577.49	1632.93
577.84	1637.74
578.19	1640.90
578.54	1644.81
578.90	1649.64
579.25	1652.71
579.60	1655.55
579.95	1657.90
580.30	1662.17
580.66	1665.81
581.01	1669.69
581.36	1673.21
581.71	1677.45
582.06	1682.81
582.42	1687.43
582.77	1690.60
583.12	1695.21
583.47	1697.60
583.82	1700.81
584.17	1703.98
584.53	1708.67
584.88	1713.10
585.23	1715.90
585.58	1719.05
585.93	1721.02
586.28	1724.17
586.63	1727.76
586.98	1730.90
587.34	1735.62
587.69	1737.60
588.04	1740.00
588.39	1742.17
588.74	1744.02
589.09	1745.86
589.44	1746.45
589.79	1747.19
590.14	1748.83
590.49	1750.38
590.84	1751.88
591.19	1753.86
591.54	1755.21
591.89	1755.64
592.25	1758.21
592.60	1759.10
592.95	1760.71
593.30	1763.21
593.65	1764.29
594.00	1763.64
594.35	1770.69
594.70	1770.93
595.05	1772.29
595.40	1773.76
595.75	1774.52
596.10	1776.24
596.45	1777.64
596.80	1778.95
597.15	1780.02
597.50	1782.05
597.85	1783.86
598.19	1785.36
598.54	1786.19
598.89	1787.90
599.24	1788.86
599.59	1788.38
599.94	1789.52
600.29	1790.14
600.64	1790.10
600.99	1790.98
601.34	1793.07
601.69	1787.98
602.04	1786.76
602.39	1786.69
602.74	1786.69
603.08	1786.93
603.43	1788.24
603.78	1788.71
604.13	1789.12
604.48	1789.17
604.83	1789.52
605.18	1789.17
605.53	1788.64
605.87	1787.79
606.22	1787.43
606.57	1786.17
606.92	1784.33
607.27	1783.50
607.62	1782.52
607.96	1781.76
608.31	1780.40
608.66	1779.12
609.01	1777.52
609.36	1778.14
609.70	1776.64
610.05	1774.52
610.40	1773.21
610.75	1769.69
611.10	1766.36
611.44	1762.81
611.79	1759.93
612.14	1756.74
612.49	1753.38
612.83	1751.14
613.18	1748.36
613.53	1745.57
613.88	1742.43
614.22	1739.62
614.57	1735.38
614.92	1732.17
615.27	1728.36
615.61	1725.00
615.96	1720.36
616.31	1717.31
616.65	1714.90
617.00	1712.48
617.35	1710.05
617.70	1706.10
618.04	1702.52
618.39	1699.74
618.74	1696.86
619.08	1693.29
619.43	1689.88
619.78	1687.10
620.12	1683.69
620.47	1680.19
620.82	1675.57
621.16	1672.00
621.51	1670.05
621.85	1666.62
622.20	1662.43
622.55	1658.43
622.89	1654.05
623.24	1651.88
623.59	1647.45
623.93	1643.29
624.28	1639.10
624.62	1636.40
624.97	1633.86
625.32	1630.24
625.66	1626.40
626.01	1622.31
626.35	1619.29
626.70	1616.10
627.04	1612.90
627.39	1608.29
627.73	1605.71
628.08	1602.67
628.43	1598.81
628.77	1593.40
629.12	1589.79
629.46	1586.69
629.81	1583.52
630.15	1579.38
630.50	1574.81
630.84	1569.98
631.19	1564.12
631.53	1559.69
631.88	1552.64
632.22	1546.00
632.57	1541.93
632.91	1537.29
633.26	1533.98
633.60	1528.57
633.95	1522.55
634.29	1516.12
634.64	1512.45
634.98	1506.88
635.32	1502.69
635.67	1498.67
636.01	1495.17
636.36	1491.17
636.70	1486.95
637.05	1482.64
637.39	1479.00
637.73	1474.33
638.08	1471.21
638.42	1466.81
638.77	1462.60
639.11	1458.67
639.45	1454.14
639.80	1448.81
640.14	1443.43
640.49	1437.21
640.83	1432.45
641.17	1427.98
641.52	1423.86
641.86	1417.98
642.20	1413.48
642.55	1407.62
642.89	1402.36
643.23	1395.98
643.58	1390.93
643.92	1384.48
644.26	1378.98
644.61	1373.60
644.95	1368.95
645.29	1362.31
645.64	1357.45
645.98	1351.00
646.32	1346.48
646.66	1340.74
647.01	1334.79
647.35	1330.00
647.69	1324.40
648.04	1320.02
648.38	1314.43
648.72	1308.26
649.06	1302.67
649.41	1296.33
649.75	1289.57
650.09	1283.19
650.43	1277.02
650.78	1270.12
651.12	1264.02
651.46	1257.21
651.80	1251.00
652.14	1244.36
652.49	1239.95
652.83	1233.24
653.17	1226.40
653.51	1219.31
653.85	1214.14
654.20	1208.45
654.54	1201.57
654.88	1195.55
655.22	1189.12
655.56	1182.17
655.90	1176.64
656.25	1170.12
656.59	1163.57
656.93	1158.55
657.27	1153.60
657.61	1147.60
657.95	1142.10
658.29	1136.45
658.64	1130.76
658.98	1124.31
659.32	1117.43
659.66	1109.88
660.00	1103.69
660.34	1098.71
660.68	1093.57
661.02	1087.50
661.36	1081.57
661.70	1075.38
662.05	1069.43
662.39	1063.31
662.73	1058.50
663.07	1053.71
663.41	1048.24
663.75	1043.26
664.09	1037.79
664.43	1031.52
664.77	1026.43
665.11	1019.83
665.45	1013.69
665.79	1007.90
666.13	1001.81
666.47	996.38
666.81	991.76
667.15	986.57
667.49	981.31
667.83	975.52
668.17	969.88
668.51	963.98
668.85	959.50
669.19	955.79
669.53	948.81
669.87	943.38
670.21	936.71
670.55	930.52
670.89	925.07
671.23	919.38
671.57	913.36
671.91	907.76
672.25	902.93
672.58	898.31
672.92	892.38
673.26	887.69
673.60	882.60
673.94	877.05
674.28	871.74
674.62	866.95
674.96	861.12
675.30	856.50
675.64	851.83
675.97	846.45
676.31	840.43
676.65	836.07
676.99	831.98
677.33	826.88
677.67	822.93
678.01	817.36
678.34	812.29
678.68	808.52
679.02	803.50
679.36	798.36
679.70	792.95
680.04	788.50
680.37	783.57
680.71	778.79
681.05	773.69
681.39	768.93
681.73	763.62
682.06	758.93
682.40	754.38
682.74	750.00
683.08	745.95
683.42	740.64
683.75	735.88
684.09	730.19
684.43	725.19
684.77	719.93
685.10	715.52
685.44	710.83
685.78	704.93
686.12	700.33
686.45	695.29
686.79	690.67
687.13	686.76
687.46	682.12
687.80	678.19
688.14	673.67
688.48	669.45
688.81	665.02
689.15	661.14
689.49	655.79
689.82	650.79
690.16	645.31
690.50	640.69
690.83	636.33
691.17	631.31
691.51	627.57
691.84	623.71
692.18	619.12
692.52	614.69
692.85	611.33
693.19	607.69
693.52	604.10
693.86	599.64
694.20	595.12
694.53	591.24
694.87	586.67
695.21	582.43
695.54	577.71
695.88	573.45
696.21	568.71
696.55	564.83
696.88	561.07
697.22	557.29
697.56	553.98
697.89	550.05
698.23	546.95
698.56	542.57
698.90	538.67
699.23	534.69
699.57	531.21
699.90	527.29
700.24	523.36
700.58	519.79
700.91	516.60
701.25	514.62
701.58	512.05
701.92	509.12
702.25	505.71
702.59	502.48
702.92	499.40
703.26	496.45
703.59	493.45
703.93	491.83
704.26	488.98
704.60	485.67
704.93	482.52
705.26	478.79
705.60	476.07
705.93	472.69
706.27	470.26
706.60	467.71
706.94	465.38
707.27	462.19
707.61	459.48
707.94	456.67
708.27	452.31
708.61	448.07
708.94	444.74
709.28	442.26
709.61	439.29
709.94	436.50
710.28	433.88
710.61	431.21
710.95	426.81
711.28	425.62
711.61	423.12
711.95	421.55
712.28	419.26
712.61	416.81
712.95	415.67
713.28	414.26
713.61	411.00
713.95	408.19
714.28	406.02
714.61	403.43
714.95	400.74
715.28	397.95
715.61	395.79
715.95	393.76
716.28	391.36
716.61	389.67
716.95	387.64
717.28	385.31
717.61	382.88
717.94	380.98
718.28	377.26
718.61	375.07
718.94	372.19
719.27	370.38
719.61	368.64
719.94	365.86
720.27	362.67
720.60	360.88
720.94	358.93
721.27	357.21
721.60	356.02
721.93	354.38
722.27	353.52
722.60	352.26
722.93	350.55
723.26	349.31
723.59	347.45
723.93	345.62
724.26	344.00
724.59	342.62
724.92	341.10
725.25	340.19
725.59	338.71
725.92	337.76
726.25	335.95
726.58	334.43
726.91	332.81
727.24	332.02
727.57	330.93
727.91	329.50
728.24	328.31
728.57	326.40
728.90	325.45
729.23	323.57
729.56	322.76
729.89	321.45
730.22	319.90
730.55	318.69
730.89	317.55
731.22	316.24
731.55	315.29
731.88	314.14
732.21	312.69
732.54	311.67
732.87	310.31
733.20	309.45
733.53	308.21
733.86	307.36
734.19	305.57
734.52	304.62
734.85	304.81
735.18	303.10
735.51	302.79
735.84	301.74
736.17	301.55
736.50	299.81
736.83	301.17
737.16	300.29
737.49	299.29
737.82	298.07
738.15	297.48
738.48	296.50
738.81	295.55
739.14	294.57
739.47	293.60
739.80	292.57
740.13	291.88
740.46	290.86
740.79	289.79
741.12	289.07
741.45	287.83
741.78	285.62
742.11	285.43
742.44	284.02
742.77	283.60
743.10	282.33
743.43	281.55
743.75	278.33
744.08	279.86
744.41	279.02
744.74	278.12
745.07	277.05
745.40	276.55
745.73	276.62
746.06	275.55
746.39	274.86
746.71	274.00
747.04	273.05
747.37	272.24
747.70	271.90
748.03	271.38
748.36	271.21
748.68	270.62
749.01	269.14
749.34	268.79
749.67	267.83
750.00	267.62
750.33	268.19
750.65	268.05
750.98	264.90
751.31	264.12
751.64	263.98
751.97	264.50
752.29	263.79
752.62	262.19
752.95	261.74
753.28	260.95
753.60	260.52
753.93	260.50
754.26	260.26
754.59	259.33
754.91	258.45
755.24	257.45
755.57	257.07
755.90	256.86
756.22	256.05
756.55	255.40
756.88	254.12
757.20	252.33
757.53	251.17
757.86	250.79
758.19	250.48
758.51	249.52
758.84	248.07
759.17	247.26
759.49	246.86
759.82	247.31
760.15	247.12
760.47	246.57
760.80	245.57
761.13	245.57
761.45	244.79
761.78	244.36
762.11	243.95
762.43	243.38
762.76	242.95
763.08	242.71
763.41	242.45
763.74	242.26
764.06	241.95
764.39	241.74
764.71	241.24
765.04	240.83
765.37	240.52
765.69	240.10
766.02	239.60
766.34	239.24
766.67	238.36
767.00	238.17
767.32	239.12
767.65	239.86
767.97	239.24
768.30	239.19
768.62	238.90
768.95	238.79
769.27	238.33
769.60	238.52
769.92	237.93
770.25	237.38
770.57	236.86
770.90	236.64
771.22	236.17
771.55	236.07
771.87	235.88
772.20	235.64
772.52	237.14
772.85	239.52
773.17	239.19
773.50	238.64
773.82	238.19
774.15	236.74
774.47	235.24
774.80	234.83
775.12	234.64
775.45	234.29
775.77	234.05
776.09	233.74
776.42	233.26
776.74	233.81
777.07	233.43
777.39	233.31
777.72	232.81
778.04	232.76
778.36	232.50
778.69	232.52
779.01	232.38
779.33	230.12
779.66	227.79
779.98	227.64
780.31	227.67
780.63	228.29
780.95	228.55
781.28	228.64
781.60	228.05
781.92	227.79
782.25	227.74
782.57	227.60
782.89	227.48
783.22	227.29
783.54	226.31
783.86	226.36
784.19	226.33
784.51	227.00
784.83	226.71
785.16	226.26
785.48	225.95
785.80	225.76
786.12	225.93
786.45	225.57
786.77	225.48
787.09	225.24
787.42	224.38
787.74	224.26
788.06	224.05
788.38	224.10
788.71	223.81
789.03	223.83
789.35	223.88
789.67	223.62
789.99	223.52
790.32	223.38
790.64	223.64
790.96	225.10
791.28	224.26
791.61	224.07
791.93	224.21
792.25	224.10
792.57	225.60
792.89	225.17
793.21	225.17
793.54	225.12
793.86	224.90
794.18	224.95
794.50	224.21
794.82	224.10
795.14	224.38
795.47	224.79
795.79	224.67
796.11	224.38
796.43	224.36
796.75	224.31
797.07	224.62
797.39	224.17
797.71	222.52
798.04	222.64
798.36	222.76
798.68	222.62
799.00	222.71
799.32	221.33
799.64	221.86
799.96	221.67
800.28	221.98
800.60	221.55
800.92	221.71
801.24	221.79
801.56	222.17
801.89	221.71
802.21	221.69
802.53	221.43
802.85	221.74
803.17	222.52
803.49	221.98
803.81	221.64
804.13	221.67
804.45	221.43
804.77	221.38
805.09	221.17
805.41	220.95
805.73	220.57
806.05	220.21
806.37	219.93
806.69	219.93
807.01	219.71
807.33	220.05
807.65	219.12
807.97	220.10
808.28	219.57
808.60	219.52
808.92	219.02
809.24	220.45
809.56	219.88
809.88	219.17
810.20	219.43
810.52	219.71
810.84	219.24
811.16	219.02
811.48	218.79
811.80	219.50
812.12	219.55
812.43	219.76
812.75	220.00
813.07	219.86
813.39	219.83
813.71	219.43
814.03	219.17
814.35	219.12
814.67	217.98
814.98	217.86
815.30	217.74
815.62	217.45
815.94	215.83
816.26	215.95
816.58	215.60
816.89	215.74
817.21	215.19
817.53	215.26
817.85	215.24
818.17	215.38
818.48	214.57
818.80	214.98
819.12	214.60
819.44	214.14
819.76	213.62
820.07	213.55
820.39	213.43
820.71	213.62
821.03	213.76
821.34	213.95
821.66	214.24
821.98	214.60
822.30	214.76
822.61	215.88
822.93	215.74
823.25	215.67
823.57	215.29
823.88	215.76
824.20	215.86
824.52	216.26
824.83	216.10
825.15	215.98
825.47	215.55
825.79	215.71
826.10	215.60
826.42	215.71
826.74	215.95
827.05	216.12
827.37	216.12
827.69	216.02
828.00	216.07
828.32	215.95
828.64	215.60
828.95	216.45
829.27	216.02
829.58	216.02
829.90	216.31
830.22	216.67
830.53	216.24
830.85	216.00
831.17	215.64
831.48	215.45
831.80	215.40
832.11	215.52
832.43	215.24
832.75	215.17
833.06	216.45
833.38	215.67
833.69	215.50
834.01	215.69
834.32	215.50
834.64	215.10
834.96	215.14
835.27	215.10
835.59	214.52
835.90	214.02
836.22	214.07
836.53	213.79
836.85	213.43
837.16	215.40
837.48	215.55
837.79	216.12
838.11	216.29
838.42	216.36
838.74	216.62
839.05	216.55
839.37	216.45
839.68	215.10
840.00	215.17
840.31	215.38
840.63	214.83
840.94	214.83
841.26	214.69
841.57	214.60
841.88	214.67
842.20	214.33
842.51	214.05
842.83	213.93
843.14	215.93
843.46	216.14
843.77	215.17
844.08	215.05
844.40	214.24
844.71	214.05
845.03	214.07
845.34	213.83
845.65	213.81
845.97	214.07
846.28	214.31
846.60	214.52
846.91	214.02
847.22	214.14
847.54	214.60
847.85	214.79
848.16	214.57
848.48	214.19
848.79	214.90
849.10	215.14
849.42	215.21
849.73	213.19
850.04	212.83
850.36	211.64
850.67	211.95
850.98	211.98
851.30	212.31
851.61	212.07
851.92	211.76
852.23	212.55
852.55	212.64
852.86	212.62
853.17	212.69
853.49	213.33
853.80	213.69
854.11	213.71
854.42	214.02
854.74	213.81
855.05	214.07
855.36	213.10
855.67	213.29
855.99	213.45
856.30	216.12
856.61	216.02
856.92	216.40
857.23	216.29
857.55	216.24
857.86	216.10
858.17	216.50
858.48	216.21
858.79	215.62
859.11	215.67
859.42	215.31
859.73	215.00
860.04	214.69
860.35	214.07
860.66	213.74
860.98	213.38
861.29	213.69
861.60	213.71
861.91	214.36
862.22	213.76
862.53	213.38
862.84	210.64
863.16	211.40
863.47	210.81
863.78	210.64
864.09	210.81
864.40	210.93
864.71	210.79
865.02	211.40
865.33	210.98
865.64	210.62
865.95	210.88
866.27	212.14
866.58	212.07
866.89	212.26
867.20	212.12
867.51	212.12
867.82	212.05
868.13	212.74
868.44	212.10
868.75	212.52
869.06	212.60
869.37	212.95
869.68	212.19
869.99	212.76
870.30	212.98
870.61	213.05
870.92	212.43
871.23	212.17
871.54	212.19
871.85	212.93
872.16	213.24
872.47	213.12
872.78	212.00
873.09	212.19
873.40	212.14
873.71	212.17
874.02	212.38
874.33	212.05
874.64	211.38
874.95	211.76
875.26	211.48
875.56	211.52
875.87	211.29
876.18	211.17
876.49	213.07
876.80	212.83
877.11	212.52
877.42	212.98
877.73	213.19
878.04	213.02
878.35	212.98
878.66	213.17
878.96	213.05
879.27	213.07
879.58	213.12
879.89	213.02
880.20	213.74
880.51	213.48
880.82	213.67
881.12	213.86
881.43	213.48
881.74	213.36
882.05	213.14
882.36	213.45
882.67	213.76
882.97	211.67
883.28	211.48
883.59	211.55
883.90	211.60
884.21	211.76
884.51	211.76
884.82	211.26
885.13	211.10
885.44	211.02
885.74	211.07
886.05	210.93
886.36	211.02
886.67	210.40
886.98	211.40
887.28	211.48
887.59	211.43
887.90	211.60
888.20	211.48
888.51	211.90
888.82	211.33
889.13	211.52
889.43	213.21
889.74	213.19
890.05	213.07
890.35	212.64
890.66	212.45
890.97	211.88
891.28	212.02
891.58	212.07
891.89	212.24
892.20	211.98
892.50	211.69
892.81	211.76
893.12	211.50
893.42	210.71
893.73	210.76
894.04	210.74
894.34	210.64
894.65	210.71
894.95	210.45
895.26	210.93
895.57	211.45
895.87	209.71
896.18	210.26
896.48	210.48
896.79	210.67
897.10	210.90
897.40	211.24
897.71	211.45
898.01	211.48
898.32	211.64
898.63	211.69
898.93	211.98
899.24	211.81
899.54	211.83
899.85	211.67
900.15	211.55
900.46	211.48
900.76	211.76
901.07	211.74
901.38	211.71
901.68	211.86
901.99	211.19
902.29	211.07
902.60	210.83
902.90	210.83
903.21	210.95
903.51	210.95
903.82	211.52
904.12	211.38
904.43	211.57
904.73	211.50
905.03	211.60
905.34	213.57
905.64	213.50
905.95	213.71
906.25	213.67
906.56	213.52
906.86	213.60
907.17	213.52
907.47	213.69
907.77	213.43
908.08	213.00
908.38	212.98
908.69	213.40
908.99	213.62
909.30	213.62
909.60	213.67
909.90	213.62
910.21	213.00
910.51	212.81
910.81	212.67
911.12	212.76
911.42	212.88
911.73	210.48
912.03	210.50
912.33	210.74
912.64	210.79
912.94	210.71
913.24	210.33
913.55	210.26
913.85	210.21
914.15	210.76
914.46	210.93
914.76	210.74
915.06	210.55
915.37	210.26
915.67	210.26
915.97	210.24
916.27	209.95
916.58	209.83
916.88	209.79
917.18	209.50
917.49	210.83
917.79	210.79
918.09	211.48
918.39	212.24
918.70	212.12
919.00	212.12
919.30	213.10
919.60	213.19
919.91	212.90
920.21	213.05
920.51	212.43
920.81	212.29
921.12	212.98
921.42	212.90
921.72	213.02
922.02	212.88
922.32	213.12
922.63	213.19
922.93	214.43
923.23	214.69
923.53	214.55
923.83	213.40
924.13	213.64
924.44	213.57
924.74	213.81
925.04	214.26
925.34	214.29
925.64	213.71
925.94	213.90
926.24	215.17
926.55	214.90
926.85	215.60
927.15	215.90
927.45	215.74
927.75	216.00
928.05	216.12
928.35	216.17
928.65	216.33
928.95	216.31
929.26	215.36
929.56	215.62
929.86	215.98
930.16	215.64
930.46	215.33
930.76	215.26
931.06	214.19
931.36	213.69
931.66	213.90
931.96	213.81
932.26	213.86
932.56	213.00
932.86	213.31
933.16	213.12
933.46	212.83
933.76	212.57
934.06	212.76
934.36	213.31
934.66	213.36
934.96	213.05
935.26	213.36
935.56	213.64
935.86	213.05
936.16	212.69
936.46	212.60
936.76	212.45
937.06	212.10
937.36	212.24
937.66	212.26
937.96	212.10
938.26	211.98
938.56	211.74
938.86	211.81
939.16	212.14
939.46	212.24
939.76	212.17
940.06	212.12
940.35	211.71
940.65	210.95
940.95	210.93
941.25	210.86
941.55	210.62
941.85	210.64
942.15	211.14
942.45	211.90
942.75	211.90
943.04	212.19
943.34	212.71
943.64	212.52
943.94	212.48
944.24	212.62
944.54	212.55
944.84	212.29
945.13	211.90
945.43	211.45
945.73	211.45
946.03	211.36
946.33	211.14
946.62	210.98
946.92	210.76
947.22	211.02
947.52	210.95
947.82	210.93
948.11	210.64
948.41	210.17
948.71	209.48
949.01	209.33
949.31	209.05
949.60	208.62
949.90	209.14
950.20	208.95
950.50	208.90
950.79	208.76
951.09	209.33
951.39	209.38
951.69	209.07
951.98	209.40
952.28	209.69
952.58	209.67
952.87	209.69
953.17	210.02
953.47	209.52
953.76	209.50
954.06	209.38
954.36	209.02
954.66	208.90
954.95	209.50
955.25	210.02
955.55	210.29
955.84	210.12
956.14	210.45
956.44	210.60
956.73	210.21
957.03	210.45
957.32	210.33
957.62	210.29
957.92	210.88
958.21	210.45
958.51	212.95
958.81	213.31
959.10	213.52
959.40	214.00
959.69	214.02
959.99	214.26
960.29	214.31
960.58	214.48
960.88	215.31
961.17	214.88
961.47	214.93
961.76	214.60
962.06	215.43
962.36	214.90
962.65	215.10
962.95	215.43
963.24	215.40
963.54	215.50
963.83	215.67
964.13	215.33
964.42	214.81
964.72	212.74
965.01	212.62
965.31	212.48
965.60	212.02
965.90	213.74
966.19	213.33
966.49	213.38
966.78	213.31
967.08	213.43
967.37	213.62
967.67	213.33
967.96	213.79
968.26	213.19
968.55	213.50
968.85	213.33
969.14	213.00
969.43	212.86
969.73	212.62
970.02	212.50
970.32	212.60
970.61	212.71
970.91	212.40
971.20	212.05
971.49	211.71
971.79	211.67
972.08	210.10
972.38	210.31
972.67	210.10
972.96	210.45
973.26	209.95
973.55	210.52
973.85	210.64
974.14	210.50
974.43	210.69
974.73	210.24
975.02	209.90
975.31	210.17
975.61	210.07
975.90	209.86
976.19	209.95
976.49	210.00
976.78	210.07
977.07	209.79
977.37	209.93
977.66	210.17
977.95	209.95
978.24	210.07
978.54	210.64
978.83	210.60
979.12	210.31
979.42	210.24
979.71	209.83
980.00	209.60
980.29	209.71
980.59	209.21
980.88	209.81
981.17	209.95
981.46	209.88
981.76	209.95
982.05	210.64
982.34	210.57
982.63	210.69
982.93	210.74
983.22	211.43
983.51	211.57
983.80	211.86
984.09	212.38
984.39	212.31
984.68	211.79
984.97	212.02
985.26	211.88
985.55	212.05
985.85	211.64
986.14	212.19
986.43	212.14
986.72	212.43
987.01	211.81
987.30	211.79
987.59	211.64
987.89	211.83
988.18	211.31
988.47	210.93
988.76	210.83
989.05	210.76
989.34	210.52
989.63	211.14
989.92	210.90
990.22	210.36
990.51	210.19
990.80	209.95
991.09	209.98
991.38	210.26
991.67	209.95
991.96	209.71
992.25	209.45
992.54	209.24
992.83	208.95
993.12	208.93
993.41	209.19
993.70	210.12
993.99	210.48
994.28	210.74
994.58	211.40
994.87	211.12
995.16	211.10
995.45	210.64
995.74	209.90
996.03	210.29
996.32	210.62
996.61	211.14
996.90	211.14
997.19	210.93
997.48	211.00
997.77	210.90
998.06	210.98
998.34	210.29
998.63	210.36
998.92	210.79
999.21	211.05
999.50	211.07
999.79	210.19
1000.08	209.93
1000.37	209.93
1000.66	209.55
1000.95	209.74
1001.24	210.02
1001.53	210.43
1001.82	210.31
1002.11	209.76
1002.40	210.05
1002.68	210.76
1002.97	212.45
1003.26	212.31
1003.55	211.86
1003.84	212.07
1004.13	212.95
1004.42	213.31
1004.71	213.29
1004.99	213.05
1005.28	213.62
1005.57	213.83
1005.86	213.76
1006.15	213.83
1006.44	213.50
1006.72	213.76
1007.01	213.69
1007.30	213.71
1007.59	213.48
1007.88	213.60
1008.17	213.95
1008.45	213.50
1008.74	212.36
1009.03	211.38
1009.32	211.57
1009.60	211.76
1009.89	211.69
1010.18	210.74
1010.47	210.81
1010.76	210.60
1011.04	210.52
1011.33	210.50
1011.62	210.40
1011.91	210.71
1012.19	210.52
1012.48	210.60
1012.77	210.48
1013.05	211.33
1013.34	211.36
1013.63	211.10
1013.92	211.10
1014.20	210.71
1014.49	210.95
1014.78	211.12
1015.06	210.43
1015.35	210.38
1015.64	210.48
1015.92	210.74
1016.21	210.88
1016.50	210.98
1016.78	211.33
1017.07	211.55
1017.36	210.98
1017.64	210.57
1017.93	210.64
1018.22	210.76
1018.50	210.79
1018.79	210.69
1019.08	209.79
1019.36	209.71
1019.65	209.67
1019.93	210.24
1020.22	210.55
1020.51	211.12
1020.79	210.86
1021.08	211.50
1021.36	208.50
1021.65	208.50
1021.94	208.00
1022.22	211.50
1022.51	205.00
1022.79	220.00
1023.08	212.00
1023.36	228.00
1023.65	204.00
>>>>>End Processed Spectral Data<<<<<
