SpectraSuite Data File
++++++++++++++++++++++++++++++++++++
Date: Tue Apr 02 18:42:49 EDT 2013
User: group
Dark Spectrum Present: No
Reference Spectrum Present: No
Number of Sampled Component Spectra: 1
Spectrometers: USB2E7196
Integration Time (usec): 580000 (USB2E7196)
Spectra Averaged: 2 (USB2E7196)
Boxcar Smoothing: 10 (USB2E7196)
Correct for Electrical Dark: No (USB2E7196)
Strobe/Lamp Enabled: No (USB2E7196)
Correct for Detector Non-linearity: No (USB2E7196)
Correct for Stray Light: No (USB2E7196)
Number of Pixels in Processed Spectrum: 2048
>>>>>Begin Processed Spectral Data<<<<<
339.09	0.00
339.48	193.50
339.86	194.50
340.24	192.00
340.63	197.50
341.01	233.00
341.39	197.50
341.78	204.00
342.16	208.50
342.54	205.00
342.93	197.02
343.31	206.86
343.69	207.33
344.07	207.81
344.46	208.76
344.84	209.40
345.22	208.21
345.60	208.79
345.99	208.90
346.37	209.00
346.75	209.00
347.13	208.76
347.52	208.90
347.90	209.50
348.28	209.21
348.66	209.81
349.05	209.07
349.43	209.33
349.81	209.24
350.19	209.38
350.57	209.31
350.96	209.50
351.34	209.67
351.72	209.95
352.10	210.14
352.48	210.10
352.87	210.10
353.25	210.14
353.63	210.02
354.01	210.24
354.39	210.48
354.77	210.67
355.15	211.50
355.54	211.33
355.92	211.00
356.30	211.43
356.68	212.62
357.06	213.12
357.44	212.93
357.82	213.05
358.20	213.90
358.58	214.02
358.97	213.95
359.35	214.55
359.73	215.10
360.11	215.10
360.49	214.95
360.87	214.88
361.25	215.12
361.63	216.07
362.01	216.19
362.39	215.98
362.77	216.17
363.15	216.07
363.53	216.14
363.91	216.29
364.29	216.12
364.67	213.98
365.05	214.02
365.43	214.24
365.81	214.52
366.19	214.67
366.57	215.45
366.95	215.55
367.33	214.98
367.71	214.81
368.09	215.31
368.47	215.52
368.85	215.79
369.23	216.14
369.61	215.29
369.99	215.83
370.37	216.24
370.75	217.31
371.13	216.79
371.51	216.64
371.89	216.71
372.27	217.14
372.65	217.52
373.03	217.57
373.41	217.55
373.78	217.38
374.16	216.38
374.54	215.57
374.92	215.36
375.30	215.40
375.68	215.21
376.06	215.24
376.44	215.17
376.82	214.93
377.19	214.90
377.57	214.76
377.95	214.31
378.33	214.00
378.71	212.60
379.09	212.93
379.47	213.24
379.84	213.14
380.22	212.69
380.60	212.40
380.98	212.38
381.36	212.33
381.73	211.86
382.11	212.45
382.49	212.74
382.87	212.60
383.25	212.67
383.62	214.74
384.00	214.24
384.38	213.98
384.76	214.52
385.13	215.07
385.51	215.31
385.89	214.98
386.27	215.17
386.64	215.79
387.02	215.60
387.40	215.50
387.78	215.71
388.15	215.83
388.53	215.67
388.91	215.62
389.29	215.50
389.66	216.10
390.04	215.62
390.42	216.05
390.79	216.26
391.17	216.12
391.55	214.00
391.92	214.02
392.30	214.52
392.68	214.10
393.05	213.90
393.43	213.83
393.81	213.83
394.18	213.43
394.56	213.31
394.94	213.86
395.31	213.48
395.69	213.81
396.06	214.29
396.44	214.45
396.82	214.29
397.19	215.50
397.57	215.26
397.95	215.55
398.32	214.90
398.70	215.07
399.07	215.52
399.45	215.33
399.82	215.43
400.20	215.19
400.58	215.17
400.95	214.43
401.33	214.93
401.70	216.52
402.08	216.79
402.45	216.81
402.83	217.10
403.20	217.43
403.58	217.31
403.95	217.55
404.33	218.12
404.71	218.24
405.08	219.50
405.46	219.86
405.83	220.26
406.21	220.69
406.58	220.88
406.96	221.07
407.33	221.60
407.70	222.31
408.08	224.40
408.45	225.12
408.83	226.31
409.20	226.76
409.58	226.36
409.95	227.31
410.33	228.29
410.70	228.69
411.08	230.21
411.45	231.57
411.82	232.12
412.20	233.69
412.57	236.26
412.95	235.50
413.32	237.24
413.69	238.64
414.07	240.10
414.44	242.10
414.82	244.31
415.19	246.83
415.56	248.90
415.94	249.93
416.31	252.83
416.68	255.64
417.06	258.88
417.43	262.48
417.81	266.02
418.18	269.86
418.55	273.83
418.93	277.45
419.30	281.60
419.67	286.48
420.04	290.67
420.42	294.81
420.79	302.14
421.16	307.93
421.54	315.17
421.91	321.40
422.28	327.62
422.66	334.19
423.03	342.00
423.40	349.19
423.77	356.69
424.15	364.00
424.52	371.43
424.89	380.19
425.26	388.10
425.64	395.69
426.01	403.95
426.38	412.79
426.75	422.52
427.13	431.64
427.50	441.29
427.87	451.62
428.24	462.14
428.61	470.50
428.99	481.69
429.36	492.05
429.73	503.55
430.10	515.52
430.47	527.19
430.85	537.90
431.22	550.57
431.59	565.48
431.96	578.36
432.33	592.57
432.70	606.07
433.08	622.02
433.45	637.60
433.82	652.90
434.19	669.71
434.56	686.86
434.93	702.81
435.30	718.60
435.68	735.69
436.05	752.14
436.42	769.19
436.79	784.81
437.16	801.79
437.53	819.55
437.90	837.17
438.27	855.79
438.64	873.98
439.01	890.76
439.38	904.36
439.75	918.81
440.13	936.26
440.50	951.21
440.87	964.21
441.24	977.33
441.61	991.98
441.98	1002.67
442.35	1014.81
442.72	1027.81
443.09	1041.74
443.46	1049.55
443.83	1055.45
444.20	1059.98
444.57	1065.24
444.94	1068.83
445.31	1072.50
445.68	1078.31
446.05	1079.05
446.42	1077.95
446.79	1076.95
447.16	1074.90
447.53	1074.36
447.90	1067.40
448.27	1061.69
448.64	1052.57
449.01	1046.86
449.37	1035.74
449.74	1024.95
450.11	1012.98
450.48	998.07
450.85	981.86
451.22	969.43
451.59	957.50
451.96	946.05
452.33	930.93
452.70	916.17
453.07	899.12
453.43	879.29
453.80	863.07
454.17	847.69
454.54	832.00
454.91	816.02
455.28	799.60
455.65	784.45
456.02	772.86
456.38	760.43
456.75	744.33
457.12	730.62
457.49	717.83
457.86	703.64
458.23	693.83
458.59	682.29
458.96	670.55
459.33	659.33
459.70	648.95
460.07	641.17
460.43	632.05
460.80	623.21
461.17	615.90
461.54	607.33
461.91	598.90
462.27	590.57
462.64	583.60
463.01	576.40
463.38	570.33
463.74	559.62
464.11	553.14
464.48	547.50
464.85	541.50
465.21	537.31
465.58	532.57
465.95	525.88
466.32	520.57
466.68	514.69
467.05	509.86
467.42	504.69
467.78	499.45
468.15	494.29
468.52	490.71
468.88	484.88
469.25	479.93
469.62	476.43
469.98	472.45
470.35	469.24
470.72	465.62
471.08	460.71
471.45	458.14
471.82	455.00
472.18	451.24
472.55	448.57
472.92	444.24
473.28	441.17
473.65	438.17
474.02	435.50
474.38	433.71
474.75	431.64
475.11	429.29
475.48	427.29
475.85	425.50
476.21	423.31
476.58	421.86
476.94	420.74
477.31	419.31
477.67	418.55
478.04	417.31
478.41	416.52
478.77	417.57
479.14	416.55
479.50	416.07
479.87	415.93
480.23	415.79
480.60	415.71
480.96	415.33
481.33	415.98
481.69	416.02
482.06	416.14
482.42	416.67
482.79	417.43
483.15	417.83
483.52	418.90
483.88	419.52
484.25	420.21
484.61	420.62
484.98	420.93
485.34	422.40
485.71	423.69
486.07	425.02
486.44	425.29
486.80	426.69
487.17	428.40
487.53	430.93
487.90	433.36
488.26	436.40
488.62	439.29
488.99	441.57
489.35	444.33
489.72	447.05
490.08	449.76
490.44	451.88
490.81	455.02
491.17	457.62
491.54	461.40
491.90	465.14
492.26	469.19
492.63	473.26
492.99	476.31
493.36	480.43
493.72	484.52
494.08	488.60
494.45	493.50
494.81	498.38
495.17	502.31
495.54	507.50
495.90	511.74
496.26	516.88
496.63	522.14
496.99	527.38
497.35	533.10
497.72	539.33
498.08	545.45
498.44	551.62
498.80	558.31
499.17	564.21
499.53	570.02
499.89	576.76
500.26	583.74
500.62	591.07
500.98	598.52
501.34	605.52
501.71	613.19
502.07	619.86
502.43	626.40
502.79	633.83
503.16	640.10
503.52	647.36
503.88	654.00
504.24	661.26
504.60	669.00
504.97	676.31
505.33	683.55
505.69	692.12
506.05	699.95
506.41	707.21
506.78	714.95
507.14	723.02
507.50	730.90
507.86	738.88
508.22	746.93
508.59	754.02
508.95	762.43
509.31	770.50
509.67	778.74
510.03	786.38
510.39	794.52
510.75	802.52
511.12	810.55
511.48	818.79
511.84	826.88
512.20	833.95
512.56	841.81
512.92	850.05
513.28	857.74
513.64	865.40
514.00	873.48
514.37	881.26
514.73	888.64
515.09	895.83
515.45	902.05
515.81	908.88
516.17	915.76
516.53	921.67
516.89	927.26
517.25	933.79
517.61	940.98
517.97	946.60
518.33	952.95
518.69	959.83
519.05	965.90
519.41	971.71
519.77	979.57
520.13	985.36
520.49	989.62
520.85	994.81
521.21	1001.88
521.57	1007.55
521.93	1012.26
522.29	1017.98
522.65	1023.07
523.01	1029.57
523.37	1034.74
523.73	1040.69
524.09	1045.88
524.45	1051.21
524.81	1056.02
525.17	1061.17
525.53	1066.57
525.89	1071.43
526.25	1076.62
526.61	1080.55
526.97	1084.33
527.33	1088.45
527.68	1094.55
528.04	1099.14
528.40	1103.24
528.76	1106.36
529.12	1110.79
529.48	1117.07
529.84	1121.10
530.20	1126.10
530.56	1130.17
530.91	1134.52
531.27	1138.12
531.63	1142.45
531.99	1146.29
532.35	1150.52
532.71	1153.93
533.07	1158.21
533.42	1164.57
533.78	1167.88
534.14	1173.31
534.50	1178.14
534.86	1182.19
535.21	1185.02
535.57	1190.26
535.93	1194.17
536.29	1198.62
536.65	1201.79
537.00	1203.29
537.36	1206.57
537.72	1209.76
538.08	1213.67
538.44	1216.76
538.79	1220.31
539.15	1223.38
539.51	1227.93
539.87	1231.14
540.22	1234.62
540.58	1238.00
540.94	1240.02
541.29	1243.43
541.65	1245.74
542.01	1248.95
542.37	1251.64
542.72	1254.17
543.08	1256.21
543.44	1259.95
543.79	1261.05
544.15	1264.52
544.51	1268.69
544.87	1272.83
545.22	1276.60
545.58	1279.36
545.94	1282.45
546.29	1285.29
546.65	1288.71
547.01	1290.71
547.36	1293.74
547.72	1295.64
548.07	1298.81
548.43	1300.74
548.79	1303.05
549.14	1305.79
549.50	1309.12
549.86	1310.95
550.21	1314.71
550.57	1318.21
550.92	1320.17
551.28	1324.67
551.64	1327.57
551.99	1330.62
552.35	1332.62
552.70	1334.98
553.06	1337.62
553.41	1340.88
553.77	1346.12
554.13	1349.64
554.48	1354.33
554.84	1359.00
555.19	1364.55
555.55	1369.31
555.90	1373.36
556.26	1376.90
556.61	1380.57
556.97	1382.83
557.32	1386.98
557.68	1389.52
558.03	1392.81
558.39	1397.74
558.74	1401.12
559.10	1404.93
559.45	1409.07
559.81	1414.00
560.16	1417.64
560.52	1421.93
560.87	1426.36
561.23	1429.07
561.58	1435.02
561.94	1437.79
562.29	1441.29
562.64	1444.90
563.00	1448.05
563.35	1452.95
563.71	1458.69
564.06	1464.07
564.42	1470.19
564.77	1475.79
565.12	1481.76
565.48	1489.60
565.83	1495.64
566.19	1501.40
566.54	1506.79
566.89	1511.98
567.25	1518.31
567.60	1525.71
567.96	1534.05
568.31	1541.48
568.66	1548.43
569.02	1552.36
569.37	1558.74
569.72	1564.12
570.08	1569.83
570.43	1575.07
570.78	1580.81
571.14	1586.48
571.49	1591.26
571.84	1596.90
572.20	1602.69
572.55	1609.05
572.90	1612.95
573.26	1616.55
573.61	1621.05
573.96	1626.38
574.31	1630.55
574.67	1633.76
575.02	1636.74
575.37	1637.43
575.72	1640.02
576.08	1643.38
576.43	1647.57
576.78	1650.86
577.13	1655.00
577.49	1658.69
577.84	1662.86
578.19	1666.64
578.54	1670.19
578.90	1674.81
579.25	1677.43
579.60	1679.79
579.95	1681.45
580.30	1683.81
580.66	1687.52
581.01	1690.93
581.36	1693.29
581.71	1697.00
582.06	1701.62
582.42	1705.43
582.77	1709.88
583.12	1712.29
583.47	1714.74
583.82	1716.76
584.17	1719.71
584.53	1722.98
584.88	1726.24
585.23	1729.57
585.58	1731.48
585.93	1732.69
586.28	1734.43
586.63	1737.90
586.98	1740.81
587.34	1744.02
587.69	1746.43
588.04	1748.67
588.39	1750.62
588.74	1751.93
589.09	1753.95
589.44	1753.86
589.79	1755.93
590.14	1757.19
590.49	1759.14
590.84	1760.52
591.19	1763.12
591.54	1764.69
591.89	1765.10
592.25	1768.24
592.60	1768.36
592.95	1769.38
593.30	1772.64
593.65	1774.36
594.00	1774.00
594.35	1780.64
594.70	1781.10
595.05	1781.74
595.40	1781.83
595.75	1782.29
596.10	1784.57
596.45	1784.62
596.80	1785.62
597.15	1785.48
597.50	1785.55
597.85	1786.52
598.19	1786.21
598.54	1785.07
598.89	1785.31
599.24	1787.10
599.59	1785.64
599.94	1786.38
600.29	1787.31
600.64	1786.12
600.99	1784.95
601.34	1785.69
601.69	1779.52
602.04	1778.55
602.39	1778.95
602.74	1779.43
603.08	1779.48
603.43	1780.07
603.78	1779.88
604.13	1778.83
604.48	1777.95
604.83	1778.79
605.18	1778.67
605.53	1778.81
605.87	1778.83
606.22	1778.12
606.57	1775.83
606.92	1774.29
607.27	1773.76
607.62	1772.64
607.96	1772.36
608.31	1772.79
608.66	1771.79
609.01	1770.50
609.36	1770.21
609.70	1768.83
610.05	1766.17
610.40	1764.14
610.75	1760.52
611.10	1758.57
611.44	1756.52
611.79	1754.57
612.14	1751.14
612.49	1746.81
612.83	1743.64
613.18	1741.17
613.53	1737.98
613.88	1735.19
614.22	1731.81
614.57	1726.86
614.92	1722.62
615.27	1718.33
615.61	1713.26
615.96	1709.00
616.31	1704.86
616.65	1701.79
617.00	1697.45
617.35	1694.12
617.70	1690.19
618.04	1686.52
618.39	1682.52
618.74	1679.12
619.08	1675.10
619.43	1670.93
619.78	1668.12
620.12	1664.90
620.47	1661.19
620.82	1657.26
621.16	1652.33
621.51	1649.17
621.85	1645.17
622.20	1641.40
622.55	1636.48
622.89	1633.00
623.24	1629.50
623.59	1625.67
623.93	1620.60
624.28	1616.57
624.62	1615.19
624.97	1612.05
625.32	1608.00
625.66	1603.50
626.01	1600.02
626.35	1595.88
626.70	1592.38
627.04	1587.71
627.39	1583.17
627.73	1579.26
628.08	1576.17
628.43	1572.14
628.77	1567.69
629.12	1564.69
629.46	1560.48
629.81	1556.43
630.15	1550.95
630.50	1546.29
630.84	1541.55
631.19	1536.74
631.53	1531.14
631.88	1522.33
632.22	1515.33
632.57	1510.90
632.91	1505.81
633.26	1500.40
633.60	1495.24
633.95	1489.07
634.29	1484.00
634.64	1479.12
634.98	1473.14
635.32	1468.76
635.67	1464.52
636.01	1459.48
636.36	1453.17
636.70	1448.43
637.05	1443.26
637.39	1439.12
637.73	1433.67
638.08	1429.74
638.42	1424.43
638.77	1420.12
639.11	1416.24
639.45	1412.19
639.80	1405.88
640.14	1400.79
640.49	1395.38
640.83	1389.31
641.17	1384.81
641.52	1378.88
641.86	1373.10
642.20	1368.95
642.55	1361.83
642.89	1355.52
643.23	1349.29
643.58	1345.07
643.92	1338.21
644.26	1332.40
644.61	1326.52
644.95	1320.57
645.29	1313.07
645.64	1307.29
645.98	1300.95
646.32	1294.98
646.66	1288.98
647.01	1283.50
647.35	1277.88
647.69	1271.45
648.04	1266.10
648.38	1260.31
648.72	1254.69
649.06	1248.21
649.41	1240.95
649.75	1234.12
650.09	1228.19
650.43	1221.29
650.78	1213.81
651.12	1207.62
651.46	1201.17
651.80	1194.67
652.14	1189.14
652.49	1183.60
652.83	1176.95
653.17	1169.62
653.51	1162.95
653.85	1155.79
654.20	1148.50
654.54	1141.50
654.88	1135.26
655.22	1129.29
655.56	1121.57
655.90	1114.64
656.25	1107.90
656.59	1101.69
656.93	1095.83
657.27	1090.07
657.61	1084.24
657.95	1078.79
658.29	1072.45
658.64	1066.95
658.98	1060.79
659.32	1053.17
659.66	1046.69
660.00	1040.36
660.34	1034.86
660.68	1028.95
661.02	1023.12
661.36	1016.83
661.70	1010.60
662.05	1003.95
662.39	997.43
662.73	992.90
663.07	988.10
663.41	981.81
663.75	974.90
664.09	969.14
664.43	962.29
664.77	956.12
665.11	949.29
665.45	943.17
665.79	937.36
666.13	931.17
666.47	924.93
666.81	918.90
667.15	913.05
667.49	907.52
667.83	901.90
668.17	896.07
668.51	891.17
668.85	886.29
669.19	881.86
669.53	875.69
669.87	868.79
670.21	862.43
670.55	856.88
670.89	852.86
671.23	847.10
671.57	842.29
671.91	837.31
672.25	831.86
672.58	827.29
672.92	820.83
673.26	815.86
673.60	810.64
673.94	805.90
674.28	800.81
674.62	795.76
674.96	790.40
675.30	785.52
675.64	780.64
675.97	775.26
676.31	769.55
676.65	764.83
676.99	761.00
677.33	755.71
677.67	751.14
678.01	745.31
678.34	740.93
678.68	735.95
679.02	730.33
679.36	725.45
679.70	719.95
680.04	715.55
680.37	710.36
680.71	705.69
681.05	700.86
681.39	696.55
681.73	691.79
682.06	686.88
682.40	682.29
682.74	677.67
683.08	673.67
683.42	669.14
683.75	664.76
684.09	659.69
684.43	655.60
684.77	651.14
685.10	646.93
685.44	642.07
685.78	637.10
686.12	632.95
686.45	628.74
686.79	624.40
687.13	620.67
687.46	616.33
687.80	613.33
688.14	609.26
688.48	605.07
688.81	600.74
689.15	597.45
689.49	593.05
689.82	588.43
690.16	583.26
690.50	578.83
690.83	574.14
691.17	569.38
691.51	565.21
691.84	561.40
692.18	556.81
692.52	552.71
692.85	549.36
693.19	546.17
693.52	542.10
693.86	538.05
694.20	533.69
694.53	530.29
694.87	525.93
695.21	521.45
695.54	517.64
695.88	513.31
696.21	508.31
696.55	504.60
696.88	501.26
697.22	497.93
697.56	495.02
697.89	491.71
698.23	488.76
698.56	485.26
698.90	482.05
699.23	478.81
699.57	475.48
699.90	472.05
700.24	468.12
700.58	465.07
700.91	462.29
701.25	461.17
701.58	458.10
701.92	455.64
702.25	452.90
702.59	449.90
702.92	447.67
703.26	445.55
703.59	442.81
703.93	442.02
704.26	439.79
704.60	436.93
704.93	434.31
705.26	431.60
705.60	429.29
705.93	426.40
706.27	424.60
706.60	422.26
706.94	420.48
707.27	417.90
707.61	415.57
707.94	413.21
708.27	408.98
708.61	406.40
708.94	403.57
709.28	401.36
709.61	398.83
709.94	397.00
710.28	394.74
710.61	392.55
710.95	388.33
711.28	388.33
711.61	386.36
711.95	384.93
712.28	382.71
712.61	380.43
712.95	379.64
713.28	378.31
713.61	376.21
713.95	373.69
714.28	372.10
714.61	370.24
714.95	368.14
715.28	365.71
715.61	363.74
715.95	362.14
716.28	360.24
716.61	358.60
716.95	356.31
717.28	354.52
717.61	352.67
717.94	350.88
718.28	346.71
718.61	344.50
718.94	342.29
719.27	340.52
719.61	339.00
719.94	336.48
720.27	333.69
720.60	331.86
720.94	330.07
721.27	328.52
721.60	327.24
721.93	325.79
722.27	325.14
722.60	323.93
722.93	322.19
723.26	320.79
723.59	319.05
723.93	317.67
724.26	316.36
724.59	315.14
724.92	313.83
725.25	313.05
725.59	312.02
725.92	311.12
726.25	310.31
726.58	309.43
726.91	308.29
727.24	307.67
727.57	306.76
727.91	305.57
728.24	304.67
728.57	303.26
728.90	302.55
729.23	300.90
729.56	300.79
729.89	299.95
730.22	298.98
730.55	298.31
730.89	297.33
731.22	296.19
731.55	295.31
731.88	294.48
732.21	293.17
732.54	292.12
732.87	291.17
733.20	290.10
733.53	289.07
733.86	288.31
734.19	286.86
734.52	286.17
734.85	286.43
735.18	285.33
735.51	285.21
735.84	284.48
736.17	284.40
736.50	282.48
736.83	284.00
737.16	283.19
737.49	282.29
737.82	281.48
738.15	281.19
738.48	280.43
738.81	279.60
739.14	278.76
739.47	278.07
739.80	277.29
740.13	276.79
740.46	275.93
740.79	275.12
741.12	274.69
741.45	273.71
741.78	272.05
742.11	272.05
742.44	271.00
742.77	270.50
743.10	269.45
743.43	268.93
743.75	266.24
744.08	268.50
744.41	267.79
744.74	267.10
745.07	265.93
745.40	265.64
745.73	265.88
746.06	265.43
746.39	265.07
746.71	263.98
747.04	262.95
747.37	262.07
747.70	261.83
748.03	261.29
748.36	260.95
748.68	260.38
749.01	259.14
749.34	258.55
749.67	258.05
750.00	257.83
750.33	258.45
750.65	257.90
750.98	254.50
751.31	254.00
751.64	253.67
751.97	254.60
752.29	254.07
752.62	252.90
752.95	252.14
753.28	251.38
753.60	251.10
753.93	251.36
754.26	251.12
754.59	250.02
754.91	249.29
755.24	248.69
755.57	248.36
755.90	247.88
756.22	247.02
756.55	246.10
756.88	245.14
757.20	243.48
757.53	242.52
757.86	242.12
758.19	242.19
758.51	241.86
758.84	240.14
759.17	239.64
759.49	239.38
759.82	240.02
760.15	239.76
760.47	239.43
760.80	238.31
761.13	238.38
761.45	237.79
761.78	237.38
762.11	237.10
762.43	236.67
762.76	236.26
763.08	236.48
763.41	236.36
763.74	236.10
764.06	235.98
764.39	235.95
764.71	235.86
765.04	235.21
765.37	234.76
765.69	234.55
766.02	234.14
766.34	233.64
766.67	232.74
767.00	232.98
767.32	233.98
767.65	235.38
767.97	234.76
768.30	234.95
768.62	234.88
768.95	234.57
769.27	234.36
769.60	234.60
769.92	234.07
770.25	233.45
770.57	233.19
770.90	233.12
771.22	232.62
771.55	232.38
771.87	232.31
772.20	232.10
772.52	233.45
772.85	235.62
773.17	235.33
773.50	234.90
773.82	234.36
774.15	233.05
774.47	231.29
774.80	231.10
775.12	230.64
775.45	230.21
775.77	230.05
776.09	229.86
776.42	229.55
776.74	230.05
777.07	229.83
777.39	229.79
777.72	229.21
778.04	229.48
778.36	229.07
778.69	228.83
779.01	229.00
779.33	227.45
779.66	225.45
779.98	225.10
780.31	225.14
780.63	225.67
780.95	225.81
781.28	225.83
781.60	225.33
781.92	225.19
782.25	225.19
782.57	225.05
782.89	224.67
783.22	224.48
783.54	223.69
783.86	223.83
784.19	223.76
784.51	224.31
784.83	223.88
785.16	223.60
785.48	223.48
785.80	223.26
786.12	223.19
786.45	222.74
786.77	223.10
787.09	222.74
787.42	221.93
787.74	222.07
788.06	221.83
788.38	221.98
788.71	221.83
789.03	222.05
789.35	222.12
789.67	222.02
789.99	221.93
790.32	221.71
790.64	222.14
790.96	223.67
791.28	223.00
791.61	222.79
791.93	223.07
792.25	223.02
792.57	224.33
792.89	223.93
793.21	224.02
793.54	223.88
793.86	223.81
794.18	223.93
794.50	223.31
794.82	223.45
795.14	223.74
795.47	224.14
795.79	223.81
796.11	223.43
796.43	223.26
796.75	223.43
797.07	223.67
797.39	223.29
797.71	221.69
798.04	221.79
798.36	222.00
798.68	221.83
799.00	221.95
799.32	220.62
799.64	221.00
799.96	220.81
800.28	220.76
800.60	220.64
800.92	220.57
801.24	220.67
801.56	220.45
801.89	220.12
802.21	220.26
802.53	219.90
802.85	220.38
803.17	221.36
803.49	220.74
803.81	220.48
804.13	220.17
804.45	219.88
804.77	219.88
805.09	219.76
805.41	219.62
805.73	219.24
806.05	218.79
806.37	218.45
806.69	218.26
807.01	218.07
807.33	218.31
807.65	217.62
807.97	218.26
808.28	218.00
808.60	217.86
808.92	217.26
809.24	218.74
809.56	218.31
809.88	217.57
810.20	217.64
810.52	217.95
810.84	218.02
811.16	218.00
811.48	217.81
811.80	218.40
812.12	218.40
812.43	218.79
812.75	219.00
813.07	218.79
813.39	218.79
813.71	218.31
814.03	217.76
814.35	218.02
814.67	217.29
814.98	217.19
815.30	216.95
815.62	216.67
815.94	215.07
816.26	215.14
816.58	214.76
816.89	215.00
817.21	214.52
817.53	214.40
817.85	214.26
818.17	214.05
818.48	213.33
818.80	213.52
819.12	212.95
819.44	212.55
819.76	212.45
820.07	212.38
820.39	212.62
820.71	212.90
821.03	212.76
821.34	212.62
821.66	213.02
821.98	213.40
822.30	213.40
822.61	214.69
822.93	214.55
823.25	214.48
823.57	214.31
823.88	214.79
824.20	214.95
824.52	215.26
824.83	215.52
825.15	215.43
825.47	215.26
825.79	215.55
826.10	215.33
826.42	215.31
826.74	215.64
827.05	215.74
827.37	215.79
827.69	215.69
828.00	215.86
828.32	215.76
828.64	215.50
828.95	216.60
829.27	215.86
829.58	215.81
829.90	216.14
830.22	216.14
830.53	215.43
830.85	214.83
831.17	214.69
831.48	214.52
831.80	214.62
832.11	214.48
832.43	214.33
832.75	214.50
833.06	215.76
833.38	215.00
833.69	214.79
834.01	214.86
834.32	214.71
834.64	214.31
834.96	214.40
835.27	214.21
835.59	213.55
835.90	213.19
836.22	213.19
836.53	212.76
836.85	212.60
837.16	214.79
837.48	214.90
837.79	215.40
838.11	215.45
838.42	215.36
838.74	215.62
839.05	215.40
839.37	215.31
839.68	214.07
840.00	214.24
840.31	214.40
840.63	214.24
840.94	214.33
841.26	214.10
841.57	214.14
841.88	214.52
842.20	214.17
842.51	214.07
842.83	214.00
843.14	216.07
843.46	216.21
843.77	214.95
844.08	214.93
844.40	214.24
844.71	213.95
845.03	213.79
845.34	213.67
845.65	213.52
845.97	213.50
846.28	213.52
846.60	213.71
846.91	213.71
847.22	213.62
847.54	213.74
847.85	214.19
848.16	213.86
848.48	213.36
848.79	214.05
849.10	214.33
849.42	214.50
849.73	212.31
850.04	212.21
850.36	211.45
850.67	211.60
850.98	211.64
851.30	212.05
851.61	212.02
851.92	212.12
852.23	213.00
852.55	213.31
852.86	213.21
853.17	213.26
853.49	213.52
853.80	214.00
854.11	214.33
854.42	214.52
854.74	214.26
855.05	214.31
855.36	213.24
855.67	213.31
855.99	213.40
856.30	216.10
856.61	215.76
856.92	215.95
857.23	215.98
857.55	215.64
857.86	215.48
858.17	215.64
858.48	215.31
858.79	214.83
859.11	215.10
859.42	215.12
859.73	214.86
860.04	214.71
860.35	214.10
860.66	213.55
860.98	213.38
861.29	213.71
861.60	213.95
861.91	214.62
862.22	214.38
862.53	213.95
862.84	211.38
863.16	212.05
863.47	211.81
863.78	211.76
864.09	212.02
864.40	212.14
864.71	212.10
865.02	212.48
865.33	212.24
865.64	211.57
865.95	211.60
866.27	212.86
866.58	212.62
866.89	212.93
867.20	212.88
867.51	212.50
867.82	212.48
868.13	212.95
868.44	212.62
868.75	213.05
869.06	213.31
869.37	213.36
869.68	212.62
869.99	213.19
870.30	213.26
870.61	213.33
870.92	213.05
871.23	212.95
871.54	213.10
871.85	213.64
872.16	214.05
872.47	214.00
872.78	213.17
873.09	213.64
873.40	213.50
873.71	213.69
874.02	213.93
874.33	213.62
874.64	213.12
874.95	213.45
875.26	212.95
875.56	212.71
875.87	212.79
876.18	213.00
876.49	214.64
876.80	214.71
877.11	214.50
877.42	214.48
877.73	214.57
878.04	214.12
878.35	214.02
878.66	213.93
878.96	213.93
879.27	213.57
879.58	213.24
879.89	212.98
880.20	213.71
880.51	213.67
880.82	213.88
881.12	213.86
881.43	213.21
881.74	213.10
882.05	212.95
882.36	213.19
882.67	213.19
882.97	211.21
883.28	210.83
883.59	210.67
883.90	210.83
884.21	211.10
884.51	211.19
884.82	210.98
885.13	210.90
885.44	210.83
885.74	210.62
886.05	210.43
886.36	210.60
886.67	209.83
886.98	210.86
887.28	211.02
887.59	211.21
887.90	211.81
888.20	211.55
888.51	211.93
888.82	211.62
889.13	211.88
889.43	213.52
889.74	213.55
890.05	213.50
890.35	213.29
890.66	212.93
890.97	212.71
891.28	212.33
891.58	212.43
891.89	212.48
892.20	212.69
892.50	212.52
892.81	212.55
893.12	212.62
893.42	211.79
893.73	211.62
894.04	211.69
894.34	211.29
894.65	211.38
894.95	211.14
895.26	211.10
895.57	212.19
895.87	210.38
896.18	210.88
896.48	211.12
896.79	211.26
897.10	211.67
897.40	211.71
897.71	212.10
898.01	212.00
898.32	212.21
898.63	211.98
898.93	212.14
899.24	212.10
899.54	211.95
899.85	211.83
900.15	212.17
900.46	211.88
900.76	212.45
901.07	212.45
901.38	212.55
901.68	212.93
901.99	211.74
902.29	211.71
902.60	211.43
902.90	211.43
903.21	211.40
903.51	211.21
903.82	211.83
904.12	211.88
904.43	212.10
904.73	211.90
905.03	212.05
905.34	214.10
905.64	213.95
905.95	214.12
906.25	214.00
906.56	213.52
906.86	213.60
907.17	213.12
907.47	213.52
907.77	213.26
908.08	212.88
908.38	213.07
908.69	213.48
908.99	213.76
909.30	213.81
909.60	213.74
909.90	213.95
910.21	213.12
910.51	212.74
910.81	212.83
911.12	212.83
911.42	213.00
911.73	210.90
912.03	211.12
912.33	211.36
912.64	211.29
912.94	211.40
913.24	211.12
913.55	211.17
913.85	210.69
914.15	211.29
914.46	211.48
914.76	211.17
915.06	210.79
915.37	210.40
915.67	210.33
915.97	210.50
916.27	210.02
916.58	210.29
916.88	210.45
917.18	210.14
917.49	211.86
917.79	211.71
918.09	211.98
918.39	212.40
918.70	212.36
919.00	212.33
919.30	213.00
919.60	213.02
919.91	212.95
920.21	213.21
920.51	212.83
920.81	212.90
921.12	213.17
921.42	213.14
921.72	213.38
922.02	213.50
922.32	213.67
922.63	213.71
922.93	214.62
923.23	214.64
923.53	214.62
923.83	213.12
924.13	213.29
924.44	213.29
924.74	213.81
925.04	214.17
925.34	214.29
925.64	213.62
925.94	213.60
926.24	214.67
926.55	214.57
926.85	214.86
927.15	214.83
927.45	214.90
927.75	214.79
928.05	214.93
928.35	214.76
928.65	215.36
928.95	215.45
929.26	214.90
929.56	215.14
929.86	215.29
930.16	215.00
930.46	214.95
930.76	214.90
931.06	213.74
931.36	212.98
931.66	213.12
931.96	213.29
932.26	213.31
932.56	212.43
932.86	212.64
933.16	212.38
933.46	212.12
933.76	211.79
934.06	212.26
934.36	212.81
934.66	212.71
934.96	212.33
935.26	212.31
935.56	212.67
935.86	212.00
936.16	211.60
936.46	211.45
936.76	211.29
937.06	211.21
937.36	211.57
937.66	211.71
937.96	211.50
938.26	211.21
938.56	211.24
938.86	211.21
939.16	211.40
939.46	211.67
939.76	211.69
940.06	211.69
940.35	211.24
940.65	210.24
940.95	210.40
941.25	210.07
941.55	210.02
941.85	209.64
942.15	210.55
942.45	211.38
942.75	211.40
943.04	211.29
943.34	211.55
943.64	211.26
943.94	211.05
944.24	211.33
944.54	211.40
944.84	211.43
945.13	211.21
945.43	210.88
945.73	210.69
946.03	210.57
946.33	210.48
946.62	210.29
946.92	210.12
947.22	210.31
947.52	210.07
947.82	210.38
948.11	210.21
948.41	209.57
948.71	208.93
949.01	209.07
949.31	209.17
949.60	209.05
949.90	209.40
950.20	209.50
950.50	209.60
950.79	209.64
951.09	209.93
951.39	209.90
951.69	209.95
951.98	210.50
952.28	210.50
952.58	210.55
952.87	210.76
953.17	211.00
953.47	210.76
953.76	210.86
954.06	210.52
954.36	210.26
954.66	210.29
954.95	210.74
955.25	211.12
955.55	211.33
955.84	211.19
956.14	211.07
956.44	211.24
956.73	210.64
957.03	210.60
957.32	210.60
957.62	210.57
957.92	210.69
958.21	210.38
958.51	213.12
958.81	213.19
959.10	213.29
959.40	213.95
959.69	213.93
959.99	214.31
960.29	214.26
960.58	214.12
960.88	214.86
961.17	214.69
961.47	214.45
961.76	214.10
962.06	214.45
962.36	214.17
962.65	214.33
962.95	214.64
963.24	214.43
963.54	214.38
963.83	214.48
964.13	214.62
964.42	214.10
964.72	212.12
965.01	212.29
965.31	212.36
965.60	211.71
965.90	213.07
966.19	212.52
966.49	212.71
966.78	212.88
967.08	212.62
967.37	212.69
967.67	212.43
967.96	212.86
968.26	212.64
968.55	213.29
968.85	213.29
969.14	213.14
969.43	213.43
969.73	213.45
970.02	213.48
970.32	213.14
970.61	213.19
970.91	212.52
971.20	212.19
971.49	211.90
971.79	212.21
972.08	210.69
972.38	210.98
972.67	210.69
972.96	211.05
973.26	210.64
973.55	211.12
973.85	211.24
974.14	211.24
974.43	211.29
974.73	210.88
975.02	210.36
975.31	210.45
975.61	210.36
975.90	209.98
976.19	209.67
976.49	209.86
976.78	210.12
977.07	210.29
977.37	210.43
977.66	210.79
977.95	210.64
978.24	211.07
978.54	211.38
978.83	211.29
979.12	210.86
979.42	210.98
979.71	210.48
980.00	210.12
980.29	210.33
980.59	210.12
980.88	210.69
981.17	210.48
981.46	210.55
981.76	210.62
982.05	211.31
982.34	211.64
982.63	211.90
982.93	211.88
983.22	212.50
983.51	212.45
983.80	212.55
984.09	212.76
984.39	212.33
984.68	212.02
984.97	212.38
985.26	212.40
985.55	212.57
985.85	212.19
986.14	212.81
986.43	212.98
986.72	212.76
987.01	212.10
987.30	212.55
987.59	212.36
987.89	212.17
988.18	211.57
988.47	211.38
988.76	210.98
989.05	210.83
989.34	210.43
989.63	210.98
989.92	210.67
990.22	210.43
990.51	210.62
990.80	210.62
991.09	210.88
991.38	211.14
991.67	210.93
991.96	210.98
992.25	210.86
992.54	210.33
992.83	210.45
993.12	210.29
993.41	210.60
993.70	211.33
993.99	211.83
994.28	212.14
994.58	212.48
994.87	212.26
995.16	212.19
995.45	211.93
995.74	211.21
996.03	211.62
996.32	212.02
996.61	212.60
996.90	212.55
997.19	212.12
997.48	212.19
997.77	211.88
998.06	211.88
998.34	211.79
998.63	211.83
998.92	211.88
999.21	212.19
999.50	212.12
999.79	211.38
1000.08	211.17
1000.37	211.17
1000.66	210.79
1000.95	211.40
1001.24	211.64
1001.53	212.05
1001.82	212.05
1002.11	211.55
1002.40	211.50
1002.68	211.71
1002.97	213.21
1003.26	213.07
1003.55	212.60
1003.84	212.79
1004.13	213.45
1004.42	213.31
1004.71	213.14
1004.99	213.12
1005.28	213.57
1005.57	213.52
1005.86	213.29
1006.15	213.31
1006.44	212.98
1006.72	213.38
1007.01	212.81
1007.30	212.67
1007.59	212.40
1007.88	212.45
1008.17	212.71
1008.45	212.24
1008.74	211.17
1009.03	209.95
1009.32	210.02
1009.60	209.95
1009.89	209.86
1010.18	209.19
1010.47	209.12
1010.76	209.21
1011.04	209.12
1011.33	209.14
1011.62	209.17
1011.91	209.36
1012.19	209.48
1012.48	209.50
1012.77	209.40
1013.05	210.38
1013.34	210.55
1013.63	210.45
1013.92	210.60
1014.20	210.26
1014.49	210.60
1014.78	211.00
1015.06	210.45
1015.35	210.26
1015.64	210.69
1015.92	211.02
1016.21	211.10
1016.50	211.21
1016.78	211.21
1017.07	211.17
1017.36	210.74
1017.64	210.50
1017.93	210.76
1018.22	210.69
1018.50	210.74
1018.79	210.55
1019.08	209.74
1019.36	209.81
1019.65	209.71
1019.93	210.24
1020.22	210.74
1020.51	211.74
1020.79	211.45
1021.08	213.50
1021.36	208.50
1021.65	208.00
1021.94	209.50
1022.22	213.50
1022.51	208.50
1022.79	220.50
1023.08	216.00
1023.36	237.50
1023.65	204.50
>>>>>End Processed Spectral Data<<<<<
