SpectraSuite Data File
++++++++++++++++++++++++++++++++++++
Date: Tue Apr 02 18:40:06 EDT 2013
User: group
Dark Spectrum Present: No
Reference Spectrum Present: No
Number of Sampled Component Spectra: 1
Spectrometers: USB2E7196
Integration Time (usec): 580000 (USB2E7196)
Spectra Averaged: 2 (USB2E7196)
Boxcar Smoothing: 10 (USB2E7196)
Correct for Electrical Dark: No (USB2E7196)
Strobe/Lamp Enabled: No (USB2E7196)
Correct for Detector Non-linearity: No (USB2E7196)
Correct for Stray Light: No (USB2E7196)
Number of Pixels in Processed Spectrum: 2048
>>>>>Begin Processed Spectral Data<<<<<
339.09	0.00
339.48	193.00
339.86	190.00
340.24	195.00
340.63	197.50
341.01	232.50
341.39	201.00
341.78	204.50
342.16	211.50
342.54	204.50
342.93	197.50
343.31	207.24
343.69	207.81
344.07	208.60
344.46	209.55
344.84	210.05
345.22	208.93
345.60	209.52
345.99	209.71
346.37	209.55
346.75	209.60
347.13	209.36
347.52	209.31
347.90	210.05
348.28	209.90
348.66	210.19
349.05	209.86
349.43	210.36
349.81	210.21
350.19	210.45
350.57	210.36
350.96	210.52
351.34	210.88
351.72	211.10
352.10	211.17
352.48	210.69
352.87	210.60
353.25	210.60
353.63	210.21
354.01	210.19
354.39	210.33
354.77	210.57
355.15	211.14
355.54	210.95
355.92	210.38
356.30	210.40
356.68	211.64
357.06	211.64
357.44	211.17
357.82	211.31
358.20	212.33
358.58	212.36
358.97	212.40
359.35	212.83
359.73	213.26
360.11	213.31
360.49	213.64
360.87	213.81
361.25	214.12
361.63	215.10
362.01	215.43
362.39	215.29
362.77	215.52
363.15	215.64
363.53	215.71
363.91	215.95
364.29	216.12
364.67	214.36
365.05	214.21
365.43	214.62
365.81	215.05
366.19	215.07
366.57	215.98
366.95	215.98
367.33	215.33
367.71	215.21
368.09	215.71
368.47	215.62
368.85	215.67
369.23	216.36
369.61	215.55
369.99	216.02
370.37	216.52
370.75	217.43
371.13	216.95
371.51	216.76
371.89	216.98
372.27	217.07
372.65	217.29
373.03	217.29
373.41	217.24
373.78	216.81
374.16	215.79
374.54	215.00
374.92	215.00
375.30	215.14
375.68	214.79
376.06	214.71
376.44	214.79
376.82	214.71
377.19	214.17
377.57	214.19
377.95	213.69
378.33	213.14
378.71	211.88
379.09	212.29
379.47	212.60
379.84	212.24
380.22	212.14
380.60	211.88
380.98	211.88
381.36	211.67
381.73	211.43
382.11	211.81
382.49	211.86
382.87	211.57
383.25	211.69
383.62	214.31
384.00	213.88
384.38	213.79
384.76	214.29
385.13	215.33
385.51	215.24
385.89	214.67
386.27	215.07
386.64	215.50
387.02	215.48
387.40	215.26
387.78	215.31
388.15	215.33
388.53	215.29
388.91	215.60
389.29	215.57
389.66	215.95
390.04	215.79
390.42	216.14
390.79	216.19
391.17	216.05
391.55	213.69
391.92	213.81
392.30	214.02
392.68	213.83
393.05	213.52
393.43	213.64
393.81	213.95
394.18	213.52
394.56	213.43
394.94	213.88
395.31	213.79
395.69	214.62
396.06	214.98
396.44	215.24
396.82	215.00
397.19	215.98
397.57	215.81
397.95	216.26
398.32	215.88
398.70	216.10
399.07	216.60
399.45	216.36
399.82	216.26
400.20	216.14
400.58	216.17
400.95	215.33
401.33	215.93
401.70	217.43
402.08	217.71
402.45	217.83
402.83	218.02
403.20	218.43
403.58	218.10
403.95	218.36
404.33	218.83
404.71	219.14
405.08	220.45
405.46	220.93
405.83	221.14
406.21	221.60
406.58	221.95
406.96	222.10
407.33	222.95
407.70	223.86
408.08	226.19
408.45	227.10
408.83	228.00
409.20	228.67
409.58	228.36
409.95	229.71
410.33	230.95
410.70	231.67
411.08	232.90
411.45	234.07
411.82	235.19
412.20	236.69
412.57	239.29
412.95	238.86
413.32	240.71
413.69	242.29
414.07	244.21
414.44	246.40
414.82	248.74
415.19	251.02
415.56	253.64
415.94	255.07
416.31	258.14
416.68	261.26
417.06	264.52
417.43	268.36
417.81	272.00
418.18	275.79
418.55	279.71
418.93	284.02
419.30	288.57
419.67	293.48
420.04	298.17
420.42	302.81
420.79	310.62
421.16	316.86
421.54	324.21
421.91	330.57
422.28	337.17
422.66	344.62
423.03	353.14
423.40	360.12
423.77	367.79
424.15	375.43
424.52	383.52
424.89	392.60
425.26	400.71
425.64	409.21
426.01	418.07
426.38	427.64
426.75	438.14
427.13	448.29
427.50	458.26
427.87	469.05
428.24	479.55
428.61	488.74
428.99	500.12
429.36	511.14
429.73	523.45
430.10	535.67
430.47	548.00
430.85	559.52
431.22	573.14
431.59	588.81
431.96	602.31
432.33	617.88
432.70	632.40
433.08	649.81
433.45	665.64
433.82	681.74
434.19	700.17
434.56	718.02
434.93	735.24
435.30	752.40
435.68	771.45
436.05	790.24
436.42	808.88
436.79	825.76
437.16	844.40
437.53	863.55
437.90	882.69
438.27	901.79
438.64	921.07
439.01	939.17
439.38	954.29
439.75	969.88
440.13	987.98
440.50	1005.33
440.87	1019.40
441.24	1033.86
441.61	1049.93
441.98	1061.88
442.35	1075.45
442.72	1089.19
443.09	1103.90
443.46	1112.05
443.83	1118.00
444.20	1122.45
444.57	1129.36
444.94	1132.60
445.31	1136.43
445.68	1142.74
446.05	1143.86
446.42	1142.79
446.79	1142.00
447.16	1140.26
447.53	1139.50
447.90	1132.45
448.27	1125.88
448.64	1116.26
449.01	1109.19
449.37	1097.69
449.74	1085.24
450.11	1072.31
450.48	1056.02
450.85	1039.21
451.22	1025.69
451.59	1012.29
451.96	1000.74
452.33	984.00
452.70	969.00
453.07	950.67
453.43	929.00
453.80	911.64
454.17	894.45
454.54	877.55
454.91	859.86
455.28	842.50
455.65	825.86
456.02	812.40
456.38	798.98
456.75	783.48
457.12	768.55
457.49	754.50
457.86	738.57
458.23	728.05
458.59	715.00
458.96	701.60
459.33	689.95
459.70	677.88
460.07	668.55
460.43	657.95
460.80	648.14
461.17	640.17
461.54	630.83
461.91	622.10
462.27	613.17
462.64	605.43
463.01	597.24
463.38	590.57
463.74	579.43
464.11	572.33
464.48	565.24
464.85	558.60
465.21	553.98
465.58	549.02
465.95	542.14
466.32	536.71
466.68	531.38
467.05	526.45
467.42	520.98
467.78	515.45
468.15	510.38
468.52	506.79
468.88	501.14
469.25	496.74
469.62	493.29
469.98	488.93
470.35	484.86
470.72	481.33
471.08	476.71
471.45	473.83
471.82	470.43
472.18	466.50
472.55	463.64
472.92	459.71
473.28	456.21
473.65	452.83
474.02	449.74
474.38	447.71
474.75	445.21
475.11	442.52
475.48	441.10
475.85	439.21
476.21	437.17
476.58	435.83
476.94	434.52
477.31	432.90
477.67	431.90
478.04	431.26
478.41	430.45
478.77	431.48
479.14	430.05
479.50	429.45
479.87	429.67
480.23	429.81
480.60	429.33
480.96	429.33
481.33	430.05
481.69	430.45
482.06	430.26
482.42	430.67
482.79	431.33
483.15	431.45
483.52	432.05
483.88	432.24
484.25	433.02
484.61	433.48
484.98	434.48
485.34	436.02
485.71	437.33
486.07	438.79
486.44	438.67
486.80	440.88
487.17	442.55
487.53	444.86
487.90	446.74
488.26	449.95
488.62	453.00
488.99	455.00
489.35	457.60
489.72	460.60
490.08	463.50
490.44	466.26
490.81	470.24
491.17	473.88
491.54	478.26
491.90	482.50
492.26	486.69
492.63	490.69
492.99	494.29
493.36	498.64
493.72	503.67
494.08	508.29
494.45	513.00
494.81	518.07
495.17	523.29
495.54	528.81
495.90	533.64
496.26	539.24
496.63	545.14
496.99	551.19
497.35	557.50
497.72	563.86
498.08	570.29
498.44	576.29
498.80	582.83
499.17	589.02
499.53	595.45
499.89	603.12
500.26	610.86
500.62	618.50
500.98	626.45
501.34	633.02
501.71	641.24
502.07	649.29
502.43	657.07
502.79	664.14
503.16	672.00
503.52	679.90
503.88	687.24
504.24	695.76
504.60	704.55
504.97	713.19
505.33	721.31
505.69	730.93
506.05	739.62
506.41	748.62
506.78	757.36
507.14	766.17
507.50	773.93
507.86	781.90
508.22	790.64
508.59	799.10
508.95	807.90
509.31	817.29
509.67	825.38
510.03	834.12
510.39	843.14
510.75	852.00
511.12	861.10
511.48	870.14
511.84	878.21
512.20	886.24
512.56	894.74
512.92	903.52
513.28	911.50
513.64	919.48
514.00	927.55
514.37	935.45
514.73	943.48
515.09	952.52
515.45	960.38
515.81	968.02
516.17	975.05
516.53	982.98
516.89	989.86
517.25	997.67
517.61	1005.24
517.97	1012.95
518.33	1020.33
518.69	1027.81
519.05	1035.00
519.41	1042.38
519.77	1050.50
520.13	1057.31
520.49	1063.98
520.85	1070.76
521.21	1077.76
521.57	1085.00
521.93	1091.93
522.29	1098.74
522.65	1104.67
523.01	1111.48
523.37	1117.88
523.73	1124.36
524.09	1130.74
524.45	1135.93
524.81	1142.02
525.17	1148.98
525.53	1154.95
525.89	1160.76
526.25	1166.52
526.61	1172.19
526.97	1178.10
527.33	1182.98
527.68	1189.98
528.04	1196.05
528.40	1201.10
528.76	1206.83
529.12	1212.05
529.48	1218.71
529.84	1224.19
530.20	1229.52
530.56	1235.29
530.91	1241.36
531.27	1246.83
531.63	1252.05
531.99	1258.02
532.35	1262.95
532.71	1267.50
533.07	1272.24
533.42	1279.69
533.78	1284.86
534.14	1290.14
534.50	1294.76
534.86	1300.83
535.21	1304.38
535.57	1309.64
535.93	1314.43
536.29	1320.24
536.65	1325.21
537.00	1328.86
537.36	1333.29
537.72	1337.57
538.08	1342.29
538.44	1346.40
538.79	1350.95
539.15	1354.40
539.51	1358.88
539.87	1363.67
540.22	1367.81
540.58	1372.50
540.94	1374.67
541.29	1378.71
541.65	1382.55
542.01	1387.21
542.37	1389.48
542.72	1393.33
543.08	1395.64
543.44	1400.52
543.79	1402.10
544.15	1405.64
544.51	1410.26
544.87	1414.24
545.22	1418.33
545.58	1422.07
545.94	1425.71
546.29	1429.60
546.65	1434.36
547.01	1437.60
547.36	1441.05
547.72	1444.14
548.07	1447.26
548.43	1449.64
548.79	1452.90
549.14	1456.45
549.50	1459.98
549.86	1463.40
550.21	1467.40
550.57	1471.74
550.92	1474.26
551.28	1478.90
551.64	1483.26
551.99	1486.71
552.35	1490.17
552.70	1493.64
553.06	1497.10
553.41	1501.24
553.77	1506.60
554.13	1510.98
554.48	1515.50
554.84	1520.33
555.19	1525.38
555.55	1532.29
555.90	1537.69
556.26	1542.45
556.61	1546.40
556.97	1549.69
557.32	1554.33
557.68	1558.40
558.03	1562.86
558.39	1567.83
558.74	1572.69
559.10	1575.98
559.45	1579.83
559.81	1585.12
560.16	1590.38
560.52	1595.38
560.87	1600.07
561.23	1603.79
561.58	1610.02
561.94	1614.50
562.29	1619.17
562.64	1623.81
563.00	1626.33
563.35	1630.95
563.71	1635.00
564.06	1641.21
564.42	1646.19
564.77	1652.00
565.12	1657.83
565.48	1664.76
565.83	1670.48
566.19	1675.43
566.54	1681.50
566.89	1686.55
567.25	1691.81
567.60	1697.10
567.96	1703.50
568.31	1709.29
568.66	1714.52
569.02	1717.38
569.37	1721.62
569.72	1725.90
570.08	1729.93
570.43	1732.95
570.78	1737.55
571.14	1742.76
571.49	1745.60
571.84	1750.55
572.20	1754.38
572.55	1757.90
572.90	1760.12
573.26	1762.36
573.61	1765.60
573.96	1768.95
574.31	1772.05
574.67	1774.17
575.02	1777.02
575.37	1777.40
575.72	1778.14
576.08	1779.64
576.43	1781.79
576.78	1783.83
577.13	1785.98
577.49	1788.62
577.84	1792.38
578.19	1793.69
578.54	1795.95
578.90	1798.57
579.25	1799.31
579.60	1800.31
579.95	1800.19
580.30	1802.45
580.66	1805.64
581.01	1807.43
581.36	1807.45
581.71	1809.14
582.06	1811.98
582.42	1812.64
582.77	1813.95
583.12	1815.86
583.47	1816.86
583.82	1818.57
584.17	1820.29
584.53	1821.52
584.88	1822.33
585.23	1822.69
585.58	1823.45
585.93	1822.93
586.28	1822.95
586.63	1824.38
586.98	1825.26
587.34	1827.90
587.69	1826.62
588.04	1825.38
588.39	1825.71
588.74	1825.48
589.09	1825.00
589.44	1821.71
589.79	1822.17
590.14	1822.21
590.49	1821.43
590.84	1820.50
591.19	1819.83
591.54	1819.52
591.89	1817.88
592.25	1817.48
592.60	1815.50
592.95	1814.79
593.30	1814.17
593.65	1812.81
594.00	1810.64
594.35	1815.62
594.70	1812.81
595.05	1811.26
595.40	1809.95
595.75	1807.76
596.10	1807.07
596.45	1805.74
596.80	1805.52
597.15	1802.90
597.50	1800.62
597.85	1799.33
598.19	1797.45
598.54	1795.43
598.89	1793.00
599.24	1791.69
599.59	1788.55
599.94	1786.55
600.29	1784.55
600.64	1782.10
600.99	1780.81
601.34	1779.52
601.69	1770.48
602.04	1768.00
602.39	1765.86
602.74	1763.50
603.08	1760.43
603.43	1757.98
603.78	1754.67
604.13	1753.05
604.48	1749.93
604.83	1748.69
605.18	1746.64
605.53	1744.48
605.87	1740.19
606.22	1737.21
606.57	1733.71
606.92	1730.57
607.27	1729.12
607.62	1726.00
607.96	1723.21
608.31	1720.12
608.66	1716.12
609.01	1712.33
609.36	1708.38
609.70	1705.26
610.05	1701.57
610.40	1698.36
610.75	1694.55
611.10	1691.12
611.44	1685.95
611.79	1681.10
612.14	1676.14
612.49	1670.45
612.83	1665.38
613.18	1661.05
613.53	1656.07
613.88	1650.79
614.22	1645.98
614.57	1640.19
614.92	1634.64
615.27	1629.55
615.61	1623.02
615.96	1617.62
616.31	1612.05
616.65	1608.31
617.00	1603.31
617.35	1598.07
617.70	1592.79
618.04	1587.26
618.39	1581.17
618.74	1574.81
619.08	1569.64
619.43	1563.31
619.78	1557.93
620.12	1552.88
620.47	1547.74
620.82	1541.71
621.16	1535.38
621.51	1530.88
621.85	1524.31
622.20	1519.21
622.55	1512.57
622.89	1506.31
623.24	1501.55
623.59	1496.69
623.93	1490.38
624.28	1484.55
624.62	1480.76
624.97	1475.69
625.32	1470.10
625.66	1465.40
626.01	1460.14
626.35	1455.76
626.70	1450.31
627.04	1445.17
627.39	1439.12
627.73	1434.88
628.08	1430.48
628.43	1426.29
628.77	1419.88
629.12	1415.55
629.46	1409.93
629.81	1404.67
630.15	1399.67
630.50	1393.76
630.84	1387.40
631.19	1381.90
631.53	1376.05
631.88	1367.57
632.22	1360.31
632.57	1354.90
632.91	1347.93
633.26	1343.19
633.60	1336.76
633.95	1330.93
634.29	1324.81
634.64	1319.12
634.98	1311.45
635.32	1305.90
635.67	1300.55
636.01	1294.36
636.36	1287.79
636.70	1282.55
637.05	1276.93
637.39	1271.38
637.73	1265.40
638.08	1261.02
638.42	1254.64
638.77	1248.55
639.11	1243.36
639.45	1238.71
639.80	1231.45
640.14	1226.12
640.49	1219.48
640.83	1213.12
641.17	1206.86
641.52	1200.31
641.86	1194.29
642.20	1189.29
642.55	1181.62
642.89	1174.64
643.23	1168.12
643.58	1162.43
643.92	1154.81
644.26	1147.57
644.61	1141.43
644.95	1134.57
645.29	1126.81
645.64	1120.69
645.98	1114.57
646.32	1107.95
646.66	1100.14
647.01	1093.67
647.35	1086.74
647.69	1080.12
648.04	1074.21
648.38	1068.12
648.72	1061.14
649.06	1054.64
649.41	1047.55
649.75	1041.26
650.09	1034.43
650.43	1028.14
650.78	1021.26
651.12	1014.81
651.46	1008.14
651.80	1001.02
652.14	994.88
652.49	988.98
652.83	982.21
653.17	975.31
653.51	968.38
653.85	962.26
654.20	956.60
654.54	949.64
654.88	943.50
655.22	937.67
655.56	930.74
655.90	924.45
656.25	918.05
656.59	912.29
656.93	905.90
657.27	900.83
657.61	894.43
657.95	888.05
658.29	882.17
658.64	877.33
658.98	871.05
659.32	864.40
659.66	858.55
660.00	852.05
660.34	846.05
660.68	840.62
661.02	834.93
661.36	828.43
661.70	823.57
662.05	817.14
662.39	810.93
662.73	806.26
663.07	802.57
663.41	797.19
663.75	790.98
664.09	785.64
664.43	779.14
664.77	773.88
665.11	768.43
665.45	763.05
665.79	757.67
666.13	752.62
666.47	747.33
666.81	741.81
667.15	736.74
667.49	731.86
667.83	727.24
668.17	722.10
668.51	717.26
668.85	712.10
669.19	708.55
669.53	702.74
669.87	697.17
670.21	690.81
670.55	685.74
670.89	682.00
671.23	677.29
671.57	672.93
671.91	668.60
672.25	664.14
672.58	660.24
672.92	655.02
673.26	650.74
673.60	646.36
673.94	642.05
674.28	638.07
674.62	634.19
674.96	629.57
675.30	625.21
675.64	620.88
675.97	617.29
676.31	612.21
676.65	608.07
676.99	604.64
677.33	600.29
677.67	596.50
678.01	591.50
678.34	587.50
678.68	583.98
679.02	579.83
679.36	575.81
679.70	571.12
680.04	567.45
680.37	563.31
680.71	559.74
681.05	555.55
681.39	552.00
681.73	547.81
682.06	544.02
682.40	540.62
682.74	537.38
683.08	534.07
683.42	530.40
683.75	527.74
684.09	523.55
684.43	520.45
684.77	516.33
685.10	513.33
685.44	509.45
685.78	505.19
686.12	501.83
686.45	498.29
686.79	494.55
687.13	491.76
687.46	488.55
687.80	485.48
688.14	482.43
688.48	479.31
688.81	476.05
689.15	473.21
689.49	469.64
689.82	466.71
690.16	462.64
690.50	459.29
690.83	455.57
691.17	452.07
691.51	449.48
691.84	447.05
692.18	443.55
692.52	441.05
692.85	438.88
693.19	436.71
693.52	433.74
693.86	431.07
694.20	427.98
694.53	425.95
694.87	423.29
695.21	420.71
695.54	417.69
695.88	414.40
696.21	410.98
696.55	408.71
696.88	405.88
697.22	403.64
697.56	401.29
697.89	398.86
698.23	397.19
698.56	394.05
698.90	391.95
699.23	389.79
699.57	387.79
699.90	384.81
700.24	381.69
700.58	379.93
700.91	378.02
701.25	377.55
701.58	375.69
701.92	373.95
702.25	371.88
702.59	369.81
702.92	368.31
703.26	366.60
703.59	364.74
703.93	364.43
704.26	362.69
704.60	361.05
704.93	359.40
705.26	356.98
705.60	355.71
705.93	352.95
706.27	351.57
706.60	349.95
706.94	349.43
707.27	347.81
707.61	346.19
707.94	344.52
708.27	341.38
708.61	339.00
708.94	337.24
709.28	336.10
709.61	334.29
709.94	332.79
710.28	331.21
710.61	329.71
710.95	326.40
711.28	326.26
711.61	324.74
711.95	323.69
712.28	322.26
712.61	320.48
712.95	320.52
713.28	320.33
713.61	318.79
713.95	317.33
714.28	316.24
714.61	314.76
714.95	313.21
715.28	311.43
715.61	310.33
715.95	309.14
716.28	307.40
716.61	306.83
716.95	305.45
717.28	304.19
717.61	302.98
717.94	301.88
718.28	299.26
718.61	298.12
718.94	296.60
719.27	295.52
719.61	294.79
719.94	293.33
720.27	291.07
720.60	289.79
720.94	288.00
721.27	286.98
721.60	286.36
721.93	285.55
722.27	285.67
722.60	284.83
722.93	283.88
723.26	283.17
723.59	281.93
723.93	280.98
724.26	280.74
724.59	279.83
724.92	279.24
725.25	279.17
725.59	278.43
725.92	277.86
726.25	277.14
726.58	276.60
726.91	275.57
727.24	275.10
727.57	274.62
727.91	274.05
728.24	273.62
728.57	272.76
728.90	272.45
729.23	271.24
729.56	271.60
729.89	270.95
730.22	270.38
730.55	269.60
730.89	269.36
731.22	268.33
731.55	267.45
731.88	266.62
732.21	265.29
732.54	264.64
732.87	264.05
733.20	263.71
733.53	263.14
733.86	262.98
734.19	261.81
734.52	261.43
734.85	262.31
735.18	261.43
735.51	261.69
735.84	261.12
736.17	261.05
736.50	259.40
736.83	261.10
737.16	260.43
737.49	260.00
737.82	259.40
738.15	259.19
738.48	258.83
738.81	258.55
739.14	257.83
739.47	257.40
739.80	256.76
740.13	256.43
740.46	255.69
740.79	254.74
741.12	254.38
741.45	253.69
741.78	251.93
742.11	252.02
742.44	250.79
742.77	250.71
743.10	249.88
743.43	249.50
743.75	246.83
744.08	249.12
744.41	248.86
744.74	248.36
745.07	247.67
745.40	247.74
745.73	248.43
746.06	248.40
746.39	248.31
746.71	247.81
747.04	247.21
747.37	246.79
747.70	246.45
748.03	246.29
748.36	245.95
748.68	245.62
749.01	244.64
749.34	244.33
749.67	243.60
750.00	243.55
750.33	244.71
750.65	244.62
750.98	241.62
751.31	241.10
751.64	240.83
751.97	241.69
752.29	241.14
752.62	239.52
752.95	239.02
753.28	238.19
753.60	237.79
753.93	238.00
754.26	237.81
754.59	237.24
754.91	236.71
755.24	236.38
755.57	235.93
755.90	235.79
756.22	235.55
756.55	235.14
756.88	234.48
757.20	232.50
757.53	231.55
757.86	231.43
758.19	231.52
758.51	231.29
758.84	229.86
759.17	229.57
759.49	229.60
759.82	230.17
760.15	230.21
760.47	230.05
760.80	229.21
761.13	229.52
761.45	229.17
761.78	229.36
762.11	229.43
762.43	229.33
762.76	229.07
763.08	228.81
763.41	228.95
763.74	228.81
764.06	228.88
764.39	229.24
764.71	229.12
765.04	228.69
765.37	228.45
765.69	228.21
766.02	228.00
766.34	227.76
766.67	226.95
767.00	227.21
767.32	228.14
767.65	229.33
767.97	228.83
768.30	229.19
768.62	228.55
768.95	228.43
769.27	228.17
769.60	228.48
769.92	228.29
770.25	227.64
770.57	227.26
770.90	227.21
771.22	226.88
771.55	226.69
771.87	226.48
772.20	226.38
772.52	227.67
772.85	229.93
773.17	229.76
773.50	229.52
773.82	228.83
774.15	227.83
774.47	226.69
774.80	226.33
775.12	226.00
775.45	225.86
775.77	225.55
776.09	225.67
776.42	225.31
776.74	225.64
777.07	225.36
777.39	225.62
777.72	225.31
778.04	225.55
778.36	225.26
778.69	225.33
779.01	225.05
779.33	223.48
779.66	220.90
779.98	220.64
780.31	220.64
780.63	221.48
780.95	221.90
781.28	221.90
781.60	221.81
781.92	221.88
782.25	221.88
782.57	221.67
782.89	221.26
783.22	220.95
783.54	220.43
783.86	220.69
784.19	220.29
784.51	220.69
784.83	220.02
785.16	219.98
785.48	219.98
785.80	220.10
786.12	220.43
786.45	220.38
786.77	220.57
787.09	220.43
787.42	219.71
787.74	219.76
788.06	219.26
788.38	218.98
788.71	218.55
789.03	218.88
789.35	219.26
789.67	218.95
789.99	219.33
790.32	219.17
790.64	219.17
790.96	220.79
791.28	220.17
791.61	219.98
791.93	219.88
792.25	219.76
792.57	221.40
792.89	220.79
793.21	220.83
793.54	220.40
793.86	220.31
794.18	220.50
794.50	219.81
794.82	219.79
795.14	220.19
795.47	220.64
795.79	220.52
796.11	219.98
796.43	220.12
796.75	219.95
797.07	220.14
797.39	220.17
797.71	218.64
798.04	218.62
798.36	219.00
798.68	219.02
799.00	219.12
799.32	217.60
799.64	218.05
799.96	218.14
800.28	218.64
800.60	218.52
800.92	218.55
801.24	218.52
801.56	218.83
801.89	218.40
802.21	218.52
802.53	218.02
802.85	218.60
803.17	219.64
803.49	219.21
803.81	219.07
804.13	219.07
804.45	218.86
804.77	218.93
805.09	218.74
805.41	218.57
805.73	217.93
806.05	217.83
806.37	217.67
806.69	217.52
807.01	217.40
807.33	217.50
807.65	216.69
807.97	217.50
808.28	217.17
808.60	217.05
808.92	216.67
809.24	218.05
809.56	217.48
809.88	216.88
810.20	217.05
810.52	217.33
810.84	217.00
811.16	216.90
811.48	216.79
811.80	217.55
812.12	217.36
812.43	218.00
812.75	217.95
813.07	217.52
813.39	217.60
813.71	217.26
814.03	217.29
814.35	217.29
814.67	216.55
814.98	216.43
815.30	216.62
815.62	216.10
815.94	214.48
816.26	214.29
816.58	213.52
816.89	213.69
817.21	213.05
817.53	213.19
817.85	213.24
818.17	213.12
818.48	212.57
818.80	213.21
819.12	212.83
819.44	212.55
819.76	212.52
820.07	212.43
820.39	212.36
820.71	212.43
821.03	212.52
821.34	212.43
821.66	212.86
821.98	212.88
822.30	213.12
822.61	214.55
822.93	214.62
823.25	214.71
823.57	214.43
823.88	214.86
824.20	214.76
824.52	214.90
824.83	215.07
825.15	214.81
825.47	214.45
825.79	214.69
826.10	214.43
826.42	214.60
826.74	215.05
827.05	215.00
827.37	215.10
827.69	215.14
828.00	215.19
828.32	214.90
828.64	214.74
828.95	215.79
829.27	215.40
829.58	215.45
829.90	215.81
830.22	215.95
830.53	215.69
830.85	215.45
831.17	215.29
831.48	215.07
831.80	215.14
832.11	214.98
832.43	214.74
832.75	214.83
833.06	215.88
833.38	215.00
833.69	215.00
834.01	215.10
834.32	214.86
834.64	214.50
834.96	214.52
835.27	214.71
835.59	214.14
835.90	213.26
836.22	213.21
836.53	212.67
836.85	212.52
837.16	214.45
837.48	214.74
837.79	215.26
838.11	215.45
838.42	215.36
838.74	215.88
839.05	215.62
839.37	215.71
839.68	214.48
840.00	214.55
840.31	214.71
840.63	214.40
840.94	214.62
841.26	214.43
841.57	214.67
841.88	214.64
842.20	214.33
842.51	214.43
842.83	214.60
843.14	216.74
843.46	216.81
843.77	215.79
844.08	215.33
844.40	214.71
844.71	214.55
845.03	214.40
845.34	214.00
845.65	214.05
845.97	213.93
846.28	214.14
846.60	214.17
846.91	213.93
847.22	213.95
847.54	214.17
847.85	214.33
848.16	214.00
848.48	213.81
848.79	214.74
849.10	214.81
849.42	214.81
849.73	212.60
850.04	212.45
850.36	211.52
850.67	212.17
850.98	212.19
851.30	212.40
851.61	212.38
851.92	212.33
852.23	212.90
852.55	213.02
852.86	213.00
853.17	213.45
853.49	213.90
853.80	214.12
854.11	214.12
854.42	214.40
854.74	214.19
855.05	214.21
855.36	213.12
855.67	213.38
855.99	213.29
856.30	215.86
856.61	215.76
856.92	216.02
857.23	216.00
857.55	215.98
857.86	216.00
858.17	216.21
858.48	216.02
858.79	215.69
859.11	215.88
859.42	215.62
859.73	215.17
860.04	215.10
860.35	214.67
860.66	214.31
860.98	214.55
861.29	214.98
861.60	214.67
861.91	214.88
862.22	214.55
862.53	214.45
862.84	212.05
863.16	212.52
863.47	212.19
863.78	211.90
864.09	211.93
864.40	212.07
864.71	212.00
865.02	212.60
865.33	212.40
865.64	212.17
865.95	212.31
866.27	213.71
866.58	213.43
866.89	213.67
867.20	213.76
867.51	213.29
867.82	212.98
868.13	213.71
868.44	213.31
868.75	213.62
869.06	213.57
869.37	213.76
869.68	213.12
869.99	213.40
870.30	213.62
870.61	213.69
870.92	213.21
871.23	212.90
871.54	212.83
871.85	213.19
872.16	213.50
872.47	213.31
872.78	211.95
873.09	212.12
873.40	211.90
873.71	211.95
874.02	212.07
874.33	212.10
874.64	211.62
874.95	212.12
875.26	211.79
875.56	211.69
875.87	211.45
876.18	211.36
876.49	213.17
876.80	212.93
877.11	212.40
877.42	212.55
877.73	212.81
878.04	212.57
878.35	212.50
878.66	212.60
878.96	212.67
879.27	212.64
879.58	212.64
879.89	212.55
880.20	213.05
880.51	213.00
880.82	213.05
881.12	213.17
881.43	212.74
881.74	212.55
882.05	212.55
882.36	213.02
882.67	213.29
882.97	211.21
883.28	211.12
883.59	211.40
883.90	211.55
884.21	212.02
884.51	211.79
884.82	211.40
885.13	211.24
885.44	211.12
885.74	211.10
886.05	210.93
886.36	210.81
886.67	209.95
886.98	210.98
887.28	211.05
887.59	211.02
887.90	211.10
888.20	211.12
888.51	211.57
888.82	211.10
889.13	211.29
889.43	213.05
889.74	212.88
890.05	212.74
890.35	212.57
890.66	211.93
890.97	211.76
891.28	211.83
891.58	211.81
891.89	211.90
892.20	211.71
892.50	211.62
892.81	211.83
893.12	212.17
893.42	211.14
893.73	211.31
894.04	211.36
894.34	211.69
894.65	211.60
894.95	211.21
895.26	211.38
895.57	212.19
895.87	210.36
896.18	210.81
896.48	210.90
896.79	210.98
897.10	211.48
897.40	211.62
897.71	211.93
898.01	211.74
898.32	211.98
898.63	211.93
898.93	211.93
899.24	211.95
899.54	211.83
899.85	211.83
900.15	211.57
900.46	211.79
900.76	211.83
901.07	211.86
901.38	211.95
901.68	212.14
901.99	211.33
902.29	211.50
902.60	211.29
902.90	211.26
903.21	211.29
903.51	211.02
903.82	211.52
904.12	211.31
904.43	211.52
904.73	211.31
905.03	211.60
905.34	213.86
905.64	213.60
905.95	213.50
906.25	213.36
906.56	213.43
906.86	213.26
907.17	212.88
907.47	212.88
907.77	212.57
908.08	212.24
908.38	212.19
908.69	212.29
908.99	212.60
909.30	212.81
909.60	212.69
909.90	212.98
910.21	212.55
910.51	212.48
910.81	212.40
911.12	212.60
911.42	212.52
911.73	210.24
912.03	210.43
912.33	211.00
912.64	211.14
912.94	211.02
913.24	210.76
913.55	210.98
913.85	211.00
914.15	211.60
914.46	211.93
914.76	211.71
915.06	211.43
915.37	210.98
915.67	210.67
915.97	210.71
916.27	210.05
916.58	209.83
916.88	209.67
917.18	209.52
917.49	210.86
917.79	210.88
918.09	211.17
918.39	211.67
918.70	211.33
919.00	211.33
919.30	212.26
919.60	212.12
919.91	211.79
920.21	211.98
920.51	211.48
920.81	211.31
921.12	211.74
921.42	212.02
921.72	212.40
922.02	212.81
922.32	212.93
922.63	213.33
922.93	214.48
923.23	214.76
923.53	214.79
923.83	213.79
924.13	214.07
924.44	214.26
924.74	214.60
925.04	215.24
925.34	215.07
925.64	214.07
925.94	213.98
926.24	215.05
926.55	214.98
926.85	215.36
927.15	215.19
927.45	215.05
927.75	214.83
928.05	214.86
928.35	214.40
928.65	214.98
928.95	215.02
929.26	214.14
929.56	214.69
929.86	214.86
930.16	214.40
930.46	214.12
930.76	214.12
931.06	213.19
931.36	212.57
931.66	213.21
931.96	213.52
932.26	213.83
932.56	212.90
932.86	213.19
933.16	213.19
933.46	213.26
933.76	213.12
934.06	213.62
934.36	214.19
934.66	214.33
934.96	213.90
935.26	213.88
935.56	214.26
935.86	213.64
936.16	213.48
936.46	213.45
936.76	213.45
937.06	213.05
937.36	213.14
937.66	213.02
937.96	212.64
938.26	212.24
938.56	212.02
938.86	212.29
939.16	212.38
939.46	212.57
939.76	212.60
940.06	212.71
940.35	212.21
940.65	211.43
940.95	211.60
941.25	211.24
941.55	211.24
941.85	211.24
942.15	211.50
942.45	211.86
942.75	211.76
943.04	211.88
943.34	212.40
943.64	212.24
943.94	212.14
944.24	212.05
944.54	212.31
944.84	212.33
945.13	212.14
945.43	211.86
945.73	211.57
946.03	211.48
946.33	211.02
946.62	210.83
946.92	210.64
947.22	210.88
947.52	211.02
947.82	211.07
948.11	210.95
948.41	210.45
948.71	209.90
949.01	210.21
949.31	209.88
949.60	209.67
949.90	210.10
950.20	210.12
950.50	210.43
950.79	210.14
951.09	210.60
951.39	210.64
951.69	210.52
951.98	211.10
952.28	211.07
952.58	211.24
952.87	211.33
953.17	211.43
953.47	211.00
953.76	210.81
954.06	210.40
954.36	210.02
954.66	210.10
954.95	210.79
955.25	210.74
955.55	211.00
955.84	210.62
956.14	210.74
956.44	210.81
956.73	210.33
957.03	210.67
957.32	210.31
957.62	210.05
957.92	210.17
958.21	209.81
958.51	212.48
958.81	212.69
959.10	213.07
959.40	213.74
959.69	213.86
959.99	214.31
960.29	214.45
960.58	214.40
960.88	215.33
961.17	215.10
961.47	215.33
961.76	215.07
962.06	215.62
962.36	215.29
962.65	215.36
962.95	215.52
963.24	215.40
963.54	215.62
963.83	215.90
964.13	216.05
964.42	215.50
964.72	213.60
965.01	213.62
965.31	213.48
965.60	212.67
965.90	214.07
966.19	213.74
966.49	214.02
966.78	214.02
967.08	213.76
967.37	213.71
967.67	213.21
967.96	213.74
968.26	213.48
968.55	213.83
968.85	213.74
969.14	213.71
969.43	213.74
969.73	213.50
970.02	213.45
970.32	213.12
970.61	213.10
970.91	212.67
971.20	212.45
971.49	212.24
971.79	212.69
972.08	211.19
972.38	211.21
972.67	210.88
972.96	211.24
973.26	210.79
973.55	211.52
973.85	211.50
974.14	211.19
974.43	211.29
974.73	210.93
975.02	210.83
975.31	210.93
975.61	210.81
975.90	210.76
976.19	210.40
976.49	210.79
976.78	210.88
977.07	210.71
977.37	210.83
977.66	211.17
977.95	210.98
978.24	211.24
978.54	211.67
978.83	211.62
979.12	211.45
979.42	211.52
979.71	210.76
980.00	210.93
980.29	211.05
980.59	210.52
980.88	210.98
981.17	210.90
981.46	210.81
981.76	210.69
982.05	211.31
982.34	211.52
982.63	211.43
982.93	211.64
983.22	212.10
983.51	212.26
983.80	212.38
984.09	212.55
984.39	212.19
984.68	211.88
984.97	211.98
985.26	211.52
985.55	211.67
985.85	211.36
986.14	211.69
986.43	211.93
986.72	212.14
987.01	211.45
987.30	211.29
987.59	211.21
987.89	211.45
988.18	210.93
988.47	210.95
988.76	210.79
989.05	210.36
989.34	210.14
989.63	210.48
989.92	210.12
990.22	209.90
990.51	210.07
990.80	209.83
991.09	209.88
991.38	210.29
991.67	209.95
991.96	210.07
992.25	209.90
992.54	209.55
992.83	209.50
993.12	209.76
993.41	210.26
993.70	211.05
993.99	211.21
994.28	211.48
994.58	211.50
994.87	211.50
995.16	211.83
995.45	211.69
995.74	211.10
996.03	211.29
996.32	211.57
996.61	211.86
996.90	211.88
997.19	211.76
997.48	212.02
997.77	211.83
998.06	211.98
998.34	211.95
998.63	211.90
998.92	212.00
999.21	212.29
999.50	212.31
999.79	211.50
1000.08	211.52
1000.37	211.62
1000.66	211.29
1000.95	211.69
1001.24	211.76
1001.53	212.02
1001.82	211.95
1002.11	211.64
1002.40	211.69
1002.68	212.14
1002.97	213.81
1003.26	213.57
1003.55	213.26
1003.84	213.81
1004.13	214.38
1004.42	214.38
1004.71	214.38
1004.99	214.40
1005.28	214.88
1005.57	214.71
1005.86	214.74
1006.15	214.36
1006.44	213.86
1006.72	214.33
1007.01	213.95
1007.30	213.76
1007.59	213.57
1007.88	213.50
1008.17	213.43
1008.45	213.07
1008.74	212.26
1009.03	211.19
1009.32	211.55
1009.60	211.40
1009.89	211.02
1010.18	210.21
1010.47	209.95
1010.76	209.93
1011.04	209.98
1011.33	209.86
1011.62	209.95
1011.91	209.95
1012.19	210.07
1012.48	210.24
1012.77	210.07
1013.05	211.17
1013.34	211.26
1013.63	211.26
1013.92	211.76
1014.20	211.90
1014.49	211.88
1014.78	212.14
1015.06	211.43
1015.35	211.29
1015.64	211.64
1015.92	211.90
1016.21	212.00
1016.50	212.07
1016.78	212.52
1017.07	212.36
1017.36	211.83
1017.64	211.38
1017.93	211.67
1018.22	211.52
1018.50	211.26
1018.79	211.29
1019.08	210.05
1019.36	210.31
1019.65	209.88
1019.93	210.17
1020.22	210.45
1020.51	211.57
1020.79	211.14
1021.08	206.00
1021.36	204.50
1021.65	210.50
1021.94	207.00
1022.22	214.50
1022.51	205.00
1022.79	221.50
1023.08	214.50
1023.36	233.50
1023.65	203.00
>>>>>End Processed Spectral Data<<<<<
