SpectraSuite Data File
++++++++++++++++++++++++++++++++++++
Date: Tue Apr 02 18:41:15 EDT 2013
User: group
Dark Spectrum Present: No
Reference Spectrum Present: No
Number of Sampled Component Spectra: 1
Spectrometers: USB2E7196
Integration Time (usec): 580000 (USB2E7196)
Spectra Averaged: 2 (USB2E7196)
Boxcar Smoothing: 10 (USB2E7196)
Correct for Electrical Dark: No (USB2E7196)
Strobe/Lamp Enabled: No (USB2E7196)
Correct for Detector Non-linearity: No (USB2E7196)
Correct for Stray Light: No (USB2E7196)
Number of Pixels in Processed Spectrum: 2048
>>>>>Begin Processed Spectral Data<<<<<
339.09	0.00
339.48	195.50
339.86	196.00
340.24	197.00
340.63	196.50
341.01	230.50
341.39	201.50
341.78	209.50
342.16	211.00
342.54	204.00
342.93	197.90
343.31	207.71
343.69	208.36
344.07	209.02
344.46	210.07
344.84	210.55
345.22	209.55
345.60	209.86
345.99	209.98
346.37	209.86
346.75	209.86
347.13	210.12
347.52	210.62
347.90	211.45
348.28	211.64
348.66	211.98
349.05	211.36
349.43	211.62
349.81	211.93
350.19	212.12
350.57	212.26
350.96	212.43
351.34	212.71
351.72	212.43
352.10	212.38
352.48	212.02
352.87	212.10
353.25	212.21
353.63	212.38
354.01	212.19
354.39	212.48
354.77	212.67
355.15	213.17
355.54	212.88
355.92	212.29
356.30	212.43
356.68	213.79
357.06	213.83
357.44	213.69
357.82	213.64
358.20	214.50
358.58	214.19
358.97	214.24
359.35	214.64
359.73	215.45
360.11	215.40
360.49	215.55
360.87	215.67
361.25	215.74
361.63	216.48
362.01	216.79
362.39	216.48
362.77	216.69
363.15	216.43
363.53	216.29
363.91	216.38
364.29	216.12
364.67	214.19
365.05	214.38
365.43	214.45
365.81	214.43
366.19	214.67
366.57	215.57
366.95	215.50
367.33	215.07
367.71	214.83
368.09	215.24
368.47	215.26
368.85	215.45
369.23	215.74
369.61	215.00
369.99	215.45
370.37	215.69
370.75	216.76
371.13	216.52
371.51	216.24
371.89	216.57
372.27	216.67
372.65	216.69
373.03	216.76
373.41	216.33
373.78	216.50
374.16	215.36
374.54	214.60
374.92	214.67
375.30	214.62
375.68	214.48
376.06	214.71
376.44	214.38
376.82	214.38
377.19	214.45
377.57	214.24
377.95	213.67
378.33	213.60
378.71	212.21
379.09	212.81
379.47	213.02
379.84	212.79
380.22	212.71
380.60	212.60
380.98	212.40
381.36	212.60
381.73	212.36
382.11	212.81
382.49	213.05
382.87	212.90
383.25	213.19
383.62	215.60
384.00	214.98
384.38	215.10
384.76	215.33
385.13	216.17
385.51	216.26
385.89	216.07
386.27	216.24
386.64	216.81
387.02	216.36
387.40	216.31
387.78	216.24
388.15	216.38
388.53	216.29
388.91	216.50
389.29	216.40
389.66	216.57
390.04	216.02
390.42	216.33
390.79	216.36
391.17	216.19
391.55	213.93
391.92	214.05
392.30	214.45
392.68	214.00
393.05	213.79
393.43	213.81
393.81	213.81
394.18	213.48
394.56	213.33
394.94	213.69
395.31	213.64
395.69	214.26
396.06	214.55
396.44	214.86
396.82	214.67
397.19	215.71
397.57	215.67
397.95	216.21
398.32	215.60
398.70	215.81
399.07	216.21
399.45	216.10
399.82	216.12
400.20	215.76
400.58	215.74
400.95	215.00
401.33	215.60
401.70	217.21
402.08	217.55
402.45	217.83
402.83	218.40
403.20	218.64
403.58	218.50
403.95	218.88
404.33	219.26
404.71	219.71
405.08	221.02
405.46	221.40
405.83	221.79
406.21	222.38
406.58	222.74
406.96	222.95
407.33	223.48
407.70	224.26
408.08	226.36
408.45	227.57
408.83	228.71
409.20	228.93
409.58	228.43
409.95	229.55
410.33	230.29
410.70	230.45
411.08	232.02
411.45	233.12
411.82	233.81
412.20	235.38
412.57	237.74
412.95	237.26
413.32	239.05
413.69	240.33
414.07	241.90
414.44	243.79
414.82	245.88
415.19	248.40
415.56	250.62
415.94	252.12
416.31	254.64
416.68	257.38
417.06	260.83
417.43	264.74
417.81	268.36
418.18	272.24
418.55	276.31
418.93	280.21
419.30	284.33
419.67	289.10
420.04	293.67
420.42	297.74
420.79	304.93
421.16	310.48
421.54	317.88
421.91	324.33
422.28	330.93
422.66	337.74
423.03	345.86
423.40	353.17
423.77	360.40
424.15	368.05
424.52	375.86
424.89	384.71
425.26	392.55
425.64	400.40
426.01	409.10
426.38	418.02
426.75	427.60
427.13	437.24
427.50	447.10
427.87	457.50
428.24	468.17
428.61	476.86
428.99	488.71
429.36	499.10
429.73	510.71
430.10	522.19
430.47	534.29
430.85	545.33
431.22	558.05
431.59	573.81
431.96	587.07
432.33	601.76
432.70	616.21
433.08	632.62
433.45	648.02
433.82	663.31
434.19	680.64
434.56	698.19
434.93	714.00
435.30	730.43
435.68	748.48
436.05	766.50
436.42	784.14
436.79	800.31
437.16	818.52
437.53	837.40
437.90	856.14
438.27	874.38
438.64	893.10
439.01	910.79
439.38	925.00
439.75	940.36
440.13	957.67
440.50	973.50
440.87	987.29
441.24	1001.45
441.61	1016.74
441.98	1028.05
442.35	1040.12
442.72	1053.98
443.09	1067.50
443.46	1075.88
443.83	1081.67
444.20	1086.33
444.57	1092.71
444.94	1095.74
445.31	1099.48
445.68	1105.50
446.05	1107.31
446.42	1106.02
446.79	1105.12
447.16	1103.17
447.53	1102.21
447.90	1095.07
448.27	1088.74
448.64	1079.52
449.01	1073.33
449.37	1061.88
449.74	1051.17
450.11	1039.55
450.48	1024.50
450.85	1008.21
451.22	994.76
451.59	982.12
451.96	970.43
452.33	954.60
452.70	940.10
453.07	921.98
453.43	901.17
453.80	884.02
454.17	867.95
454.54	851.48
454.91	834.64
455.28	817.76
455.65	802.93
456.02	790.29
456.38	776.74
456.75	760.45
457.12	746.40
457.49	732.79
457.86	718.10
458.23	708.00
458.59	696.31
458.96	683.98
459.33	672.40
459.70	661.88
460.07	652.83
460.43	643.17
460.80	634.81
461.17	627.67
461.54	619.02
461.91	610.31
462.27	601.81
462.64	594.21
463.01	586.36
463.38	579.50
463.74	568.86
464.11	562.57
464.48	556.29
464.85	550.02
465.21	545.52
465.58	540.67
465.95	533.45
466.32	528.14
466.68	522.57
467.05	517.21
467.42	512.00
467.78	506.17
468.15	500.55
468.52	495.83
468.88	489.79
469.25	484.60
469.62	480.95
469.98	476.90
470.35	473.52
470.72	469.76
471.08	464.69
471.45	462.02
471.82	459.07
472.18	455.71
472.55	453.38
472.92	449.43
473.28	445.95
473.65	443.26
474.02	440.38
474.38	438.55
474.75	437.05
475.11	434.31
475.48	432.64
475.85	431.19
476.21	429.57
476.58	428.40
476.94	427.43
477.31	426.26
477.67	425.24
478.04	423.74
478.41	423.26
478.77	425.10
479.14	423.90
479.50	422.90
479.87	422.62
480.23	421.90
480.60	421.29
480.96	421.00
481.33	421.36
481.69	421.71
482.06	421.40
482.42	421.45
482.79	422.00
483.15	422.83
483.52	423.57
483.88	424.29
484.25	424.60
484.61	425.29
484.98	425.81
485.34	427.67
485.71	429.00
486.07	430.05
486.44	429.43
486.80	430.74
487.17	432.12
487.53	434.83
487.90	437.29
488.26	440.64
488.62	444.05
488.99	445.90
489.35	448.69
489.72	451.50
490.08	454.05
490.44	456.45
490.81	459.90
491.17	463.05
491.54	466.69
491.90	471.07
492.26	474.93
492.63	478.93
492.99	482.38
493.36	486.76
493.72	491.67
494.08	495.90
494.45	501.14
494.81	506.43
495.17	510.60
495.54	516.00
495.90	520.52
496.26	525.31
496.63	531.17
496.99	536.31
497.35	542.19
497.72	548.79
498.08	555.43
498.44	561.29
498.80	568.48
499.17	574.48
499.53	580.57
499.89	587.95
500.26	595.21
500.62	602.07
500.98	609.79
501.34	616.62
501.71	624.76
502.07	632.21
502.43	639.33
502.79	647.05
503.16	654.43
503.52	661.81
503.88	668.95
504.24	676.86
504.60	685.00
504.97	693.17
505.33	700.62
505.69	709.33
506.05	717.55
506.41	724.33
506.78	732.64
507.14	740.64
507.50	748.43
507.86	756.02
508.22	764.62
508.59	771.86
508.95	780.29
509.31	789.45
509.67	797.55
510.03	806.26
510.39	813.57
510.75	821.02
511.12	829.52
511.48	838.00
511.84	845.31
512.20	853.17
512.56	861.05
512.92	869.55
513.28	877.26
513.64	884.38
514.00	893.00
514.37	900.29
514.73	907.88
515.09	915.19
515.45	922.31
515.81	929.38
516.17	936.45
516.53	943.24
516.89	948.93
517.25	955.52
517.61	962.95
517.97	969.90
518.33	976.88
518.69	984.52
519.05	990.86
519.41	997.98
519.77	1006.07
520.13	1012.21
520.49	1017.98
520.85	1023.76
521.21	1031.31
521.57	1037.10
521.93	1042.67
522.29	1048.86
522.65	1054.60
523.01	1061.17
523.37	1066.62
523.73	1072.81
524.09	1078.31
524.45	1083.69
524.81	1088.64
525.17	1093.31
525.53	1098.45
525.89	1103.95
526.25	1108.05
526.61	1112.29
526.97	1116.98
527.33	1121.24
527.68	1128.07
528.04	1132.83
528.40	1136.93
528.76	1140.90
529.12	1145.62
529.48	1151.26
529.84	1154.95
530.20	1159.69
530.56	1163.95
530.91	1168.60
531.27	1173.00
531.63	1177.43
531.99	1181.90
532.35	1187.19
532.71	1191.40
533.07	1196.64
533.42	1203.14
533.78	1207.86
534.14	1213.31
534.50	1216.71
534.86	1221.33
535.21	1223.31
535.57	1228.33
535.93	1232.21
536.29	1237.81
536.65	1242.24
537.00	1245.69
537.36	1250.57
537.72	1254.05
538.08	1258.43
538.44	1261.55
538.79	1266.05
539.15	1269.50
539.51	1272.90
539.87	1276.86
540.22	1280.93
540.58	1283.88
540.94	1285.29
541.29	1288.21
541.65	1290.98
542.01	1295.76
542.37	1298.02
542.72	1301.19
543.08	1303.62
543.44	1308.36
543.79	1309.93
544.15	1313.29
544.51	1317.40
544.87	1320.90
545.22	1325.07
545.58	1328.19
545.94	1331.57
546.29	1334.02
546.65	1337.57
547.01	1340.67
547.36	1342.93
547.72	1346.02
548.07	1350.21
548.43	1353.50
548.79	1356.26
549.14	1359.60
549.50	1362.98
549.86	1365.83
550.21	1369.60
550.57	1374.14
550.92	1376.81
551.28	1380.57
551.64	1383.83
551.99	1387.17
552.35	1389.83
552.70	1393.14
553.06	1396.00
553.41	1400.31
553.77	1406.05
554.13	1410.48
554.48	1415.57
554.84	1421.45
555.19	1425.38
555.55	1430.50
555.90	1434.93
556.26	1439.40
556.61	1444.02
556.97	1447.62
557.32	1452.21
557.68	1456.57
558.03	1459.88
558.39	1464.67
558.74	1468.67
559.10	1472.60
559.45	1476.60
559.81	1480.93
560.16	1485.10
560.52	1490.93
560.87	1495.48
561.23	1498.31
561.58	1504.07
561.94	1508.17
562.29	1511.19
562.64	1515.71
563.00	1519.76
563.35	1524.24
563.71	1529.90
564.06	1535.07
564.42	1540.52
564.77	1546.74
565.12	1553.21
565.48	1560.00
565.83	1566.00
566.19	1572.07
566.54	1577.62
566.89	1584.31
567.25	1591.81
567.60	1599.43
567.96	1606.67
568.31	1614.07
568.66	1620.67
569.02	1624.95
569.37	1629.74
569.72	1636.12
570.08	1641.64
570.43	1646.17
570.78	1652.36
571.14	1657.79
571.49	1662.62
571.84	1667.93
572.20	1672.38
572.55	1676.52
572.90	1679.76
573.26	1683.52
573.61	1687.26
573.96	1691.93
574.31	1694.98
574.67	1698.31
575.02	1700.38
575.37	1701.31
575.72	1703.33
576.08	1707.02
576.43	1710.36
576.78	1713.83
577.13	1717.43
577.49	1720.24
577.84	1724.38
578.19	1727.31
578.54	1730.43
578.90	1735.45
579.25	1738.38
579.60	1740.74
579.95	1742.86
580.30	1746.24
580.66	1749.50
581.01	1752.86
581.36	1755.10
581.71	1758.71
582.06	1762.64
582.42	1766.62
582.77	1769.79
583.12	1772.76
583.47	1773.74
583.82	1775.79
584.17	1778.64
584.53	1780.81
584.88	1783.81
585.23	1785.62
585.58	1786.93
585.93	1788.62
586.28	1788.24
586.63	1790.43
586.98	1791.67
587.34	1794.02
587.69	1794.64
588.04	1795.69
588.39	1797.02
588.74	1797.10
589.09	1798.14
589.44	1797.05
589.79	1797.38
590.14	1798.71
590.49	1798.93
590.84	1799.83
591.19	1801.21
591.54	1802.24
591.89	1801.74
592.25	1803.90
592.60	1804.00
592.95	1804.19
593.30	1804.90
593.65	1806.40
594.00	1805.21
594.35	1811.36
594.70	1810.38
595.05	1811.62
595.40	1811.33
595.75	1810.45
596.10	1812.19
596.45	1811.83
596.80	1812.38
597.15	1811.93
597.50	1810.88
597.85	1812.10
598.19	1811.95
598.54	1810.98
598.89	1810.19
599.24	1811.19
599.59	1808.90
599.94	1807.62
600.29	1807.21
600.64	1806.31
600.99	1805.12
601.34	1804.60
601.69	1798.17
602.04	1797.62
602.39	1795.76
602.74	1794.93
603.08	1793.48
603.43	1793.10
603.78	1791.88
604.13	1789.57
604.48	1788.26
604.83	1787.50
605.18	1785.79
605.53	1784.69
605.87	1783.10
606.22	1781.19
606.57	1778.29
606.92	1776.12
607.27	1774.83
607.62	1773.40
607.96	1771.50
608.31	1769.50
608.66	1767.71
609.01	1765.26
609.36	1763.00
609.70	1760.19
610.05	1757.12
610.40	1756.05
610.75	1752.79
611.10	1749.14
611.44	1746.36
611.79	1743.21
612.14	1739.74
612.49	1734.17
612.83	1730.14
613.18	1726.64
613.53	1722.26
613.88	1718.05
614.22	1714.05
614.57	1709.62
614.92	1705.43
615.27	1700.71
615.61	1695.10
615.96	1690.33
616.31	1686.26
616.65	1682.93
617.00	1678.88
617.35	1674.83
617.70	1669.24
618.04	1663.81
618.39	1657.79
618.74	1653.07
619.08	1646.98
619.43	1642.17
619.78	1638.33
620.12	1633.88
620.47	1629.74
620.82	1625.55
621.16	1620.02
621.51	1615.95
621.85	1610.52
622.20	1604.45
622.55	1598.88
622.89	1594.81
623.24	1590.33
623.59	1585.36
623.93	1579.57
624.28	1575.26
624.62	1572.90
624.97	1569.60
625.32	1564.98
625.66	1561.52
626.01	1556.74
626.35	1553.10
626.70	1547.67
627.04	1543.69
627.39	1538.05
627.73	1533.81
628.08	1529.36
628.43	1525.21
628.77	1519.43
629.12	1515.40
629.46	1511.71
629.81	1507.69
630.15	1501.83
630.50	1496.38
630.84	1490.07
631.19	1484.31
631.53	1478.45
631.88	1469.76
632.22	1462.50
632.57	1456.69
632.91	1450.81
633.26	1446.14
633.60	1439.83
633.95	1434.21
634.29	1427.69
634.64	1422.71
634.98	1416.12
635.32	1411.19
635.67	1406.36
636.01	1401.88
636.36	1395.43
636.70	1390.64
637.05	1384.98
637.39	1379.88
637.73	1374.88
638.08	1370.74
638.42	1365.81
638.77	1359.79
639.11	1354.81
639.45	1349.33
639.80	1343.52
640.14	1337.67
640.49	1331.50
640.83	1325.10
641.17	1319.55
641.52	1313.79
641.86	1307.57
642.20	1302.21
642.55	1294.10
642.89	1287.07
643.23	1279.83
643.58	1274.69
643.92	1266.67
644.26	1259.24
644.61	1253.74
644.95	1247.57
645.29	1240.38
645.64	1233.74
645.98	1227.64
646.32	1220.98
646.66	1214.14
647.01	1207.79
647.35	1202.10
647.69	1195.74
648.04	1190.40
648.38	1184.24
648.72	1177.98
649.06	1171.38
649.41	1163.50
649.75	1157.33
650.09	1151.12
650.43	1144.55
650.78	1136.76
651.12	1130.12
651.46	1124.36
651.80	1116.74
652.14	1109.76
652.49	1103.76
652.83	1097.19
653.17	1089.83
653.51	1082.93
653.85	1077.07
654.20	1070.33
654.54	1062.67
654.88	1054.74
655.22	1048.45
655.56	1041.19
655.90	1034.17
656.25	1027.88
656.59	1021.83
656.93	1015.74
657.27	1009.93
657.61	1002.62
657.95	997.00
658.29	990.83
658.64	984.81
658.98	978.02
659.32	971.17
659.66	964.62
660.00	958.43
660.34	952.88
660.68	947.21
661.02	940.43
661.36	934.07
661.70	928.57
662.05	923.45
662.39	917.81
662.73	913.00
663.07	907.67
663.41	901.57
663.75	895.33
664.09	889.79
664.43	882.90
664.77	877.71
665.11	871.12
665.45	865.21
665.79	859.21
666.13	854.14
666.47	848.26
666.81	842.60
667.15	836.74
667.49	830.93
667.83	825.90
668.17	820.45
668.51	814.95
668.85	809.79
669.19	805.52
669.53	798.88
669.87	792.38
670.21	786.55
670.55	781.21
670.89	776.79
671.23	771.29
671.57	766.33
671.91	761.31
672.25	756.98
672.58	752.90
672.92	747.60
673.26	743.02
673.60	738.29
673.94	733.57
674.28	729.14
674.62	725.14
674.96	720.24
675.30	716.10
675.64	711.81
675.97	707.21
676.31	701.26
676.65	696.64
676.99	693.36
677.33	688.64
677.67	684.60
678.01	679.71
678.34	675.38
678.68	671.43
679.02	666.98
679.36	662.90
679.70	657.79
680.04	653.24
680.37	648.48
680.71	644.36
681.05	640.02
681.39	635.24
681.73	630.40
682.06	625.71
682.40	621.14
682.74	617.19
683.08	613.69
683.42	609.17
683.75	605.40
684.09	600.17
684.43	595.62
684.77	590.79
685.10	586.29
685.44	581.64
685.78	576.83
686.12	572.90
686.45	568.05
686.79	563.93
687.13	560.17
687.46	556.00
687.80	552.40
688.14	548.40
688.48	544.83
688.81	541.19
689.15	538.05
689.49	533.98
689.82	530.10
690.16	525.00
690.50	521.55
690.83	517.93
691.17	513.69
691.51	510.21
691.84	506.83
692.18	502.88
692.52	499.62
692.85	497.02
693.19	493.64
693.52	490.93
693.86	487.12
694.20	483.93
694.53	481.07
694.87	477.26
695.21	473.64
695.54	469.93
695.88	466.43
696.21	462.19
696.55	458.83
696.88	455.62
697.22	452.90
697.56	450.12
697.89	446.74
698.23	444.86
698.56	441.88
698.90	439.43
699.23	436.57
699.57	434.21
699.90	430.90
700.24	428.33
700.58	425.21
700.91	422.98
701.25	421.86
701.58	419.29
701.92	417.43
702.25	415.07
702.59	412.43
702.92	409.71
703.26	407.50
703.59	405.29
703.93	404.52
704.26	402.40
704.60	400.14
704.93	397.69
705.26	394.81
705.60	393.40
705.93	390.50
706.27	389.40
706.60	387.36
706.94	385.98
707.27	383.29
707.61	381.31
707.94	379.33
708.27	375.71
708.61	373.31
708.94	370.74
709.28	369.12
709.61	367.36
709.94	365.79
710.28	364.10
710.61	362.21
710.95	358.38
711.28	357.76
711.61	355.98
711.95	354.83
712.28	353.07
712.61	350.98
712.95	350.57
713.28	349.43
713.61	347.36
713.95	345.02
714.28	343.76
714.61	341.90
714.95	340.02
715.28	337.98
715.61	336.26
715.95	334.90
716.28	333.10
716.61	332.00
716.95	330.17
717.28	328.48
717.61	327.05
717.94	325.90
718.28	322.90
718.61	321.52
718.94	319.81
719.27	318.33
719.61	316.69
719.94	314.86
720.27	312.45
720.60	311.19
720.94	309.90
721.27	308.62
721.60	307.64
721.93	306.74
722.27	306.33
722.60	305.40
722.93	304.12
723.26	303.07
723.59	301.48
723.93	300.69
724.26	299.79
724.59	298.74
724.92	297.74
725.25	297.40
725.59	296.29
725.92	295.43
726.25	294.60
726.58	294.19
726.91	293.00
727.24	292.26
727.57	291.17
727.91	289.76
728.24	288.90
728.57	287.90
728.90	287.26
729.23	285.86
729.56	285.95
729.89	285.33
730.22	284.40
730.55	283.67
730.89	282.95
731.22	282.02
731.55	280.95
731.88	280.33
732.21	279.17
732.54	278.26
732.87	277.64
733.20	277.19
733.53	276.14
733.86	275.55
734.19	274.57
734.52	274.19
734.85	274.86
735.18	274.10
735.51	273.90
735.84	273.33
736.17	273.38
736.50	271.67
736.83	273.31
737.16	272.69
737.49	272.33
737.82	271.26
738.15	271.07
738.48	270.67
738.81	269.83
739.14	269.07
739.47	268.29
739.80	267.36
740.13	266.90
740.46	265.83
740.79	264.79
741.12	264.50
741.45	263.60
741.78	262.33
742.11	262.38
742.44	261.40
742.77	260.76
743.10	259.52
743.43	258.90
743.75	256.07
744.08	258.24
744.41	257.33
744.74	257.02
745.07	255.86
745.40	255.57
745.73	255.93
746.06	255.38
746.39	255.14
746.71	254.45
747.04	253.40
747.37	253.31
747.70	253.26
748.03	252.57
748.36	252.69
748.68	252.14
749.01	250.98
749.34	250.62
749.67	250.33
750.00	250.45
750.33	251.71
750.65	251.60
750.98	248.57
751.31	248.36
751.64	247.98
751.97	248.95
752.29	248.74
752.62	247.36
752.95	246.95
753.28	246.60
753.60	246.31
753.93	246.81
754.26	246.45
754.59	245.36
754.91	245.00
755.24	244.21
755.57	243.62
755.90	243.26
756.22	242.69
756.55	242.07
756.88	241.26
757.20	239.36
757.53	238.19
757.86	237.95
758.19	237.50
758.51	237.17
758.84	235.79
759.17	235.02
759.49	234.69
759.82	235.55
760.15	235.33
760.47	235.05
760.80	234.10
761.13	234.33
761.45	234.50
761.78	234.21
762.11	234.00
762.43	233.79
762.76	233.60
763.08	233.50
763.41	233.29
763.74	233.24
764.06	233.19
764.39	233.14
764.71	232.76
765.04	232.33
765.37	231.81
765.69	231.50
766.02	231.48
766.34	231.24
766.67	230.29
767.00	230.21
767.32	231.24
767.65	232.24
767.97	231.64
768.30	231.26
768.62	231.05
768.95	230.76
769.27	230.45
769.60	230.40
769.92	230.10
770.25	229.60
770.57	228.98
770.90	228.64
771.22	228.60
771.55	228.57
771.87	228.60
772.20	228.48
772.52	229.98
772.85	232.05
773.17	232.02
773.50	231.64
773.82	231.40
774.15	230.29
774.47	228.90
774.80	228.57
775.12	228.48
775.45	228.17
775.77	228.26
776.09	228.31
776.42	228.33
776.74	228.93
777.07	228.81
777.39	228.90
777.72	228.81
778.04	228.60
778.36	228.14
778.69	228.21
779.01	228.14
779.33	226.17
779.66	223.83
779.98	223.57
780.31	223.55
780.63	224.31
780.95	224.38
781.28	224.24
781.60	223.76
781.92	223.64
782.25	223.67
782.57	223.26
782.89	222.86
783.22	222.45
783.54	221.64
783.86	221.60
784.19	221.33
784.51	221.67
784.83	221.57
785.16	221.48
785.48	221.36
785.80	221.55
786.12	221.67
786.45	221.67
786.77	221.83
787.09	221.48
787.42	220.43
787.74	220.38
788.06	220.50
788.38	220.52
788.71	220.33
789.03	220.12
789.35	220.38
789.67	220.26
789.99	220.36
790.32	220.19
790.64	220.55
790.96	222.29
791.28	221.64
791.61	221.38
791.93	221.43
792.25	221.31
792.57	222.57
792.89	222.43
793.21	222.48
793.54	222.10
793.86	221.90
794.18	222.05
794.50	221.55
794.82	221.33
795.14	221.81
795.47	222.02
795.79	221.98
796.11	221.48
796.43	221.55
796.75	221.45
797.07	221.45
797.39	221.14
797.71	219.79
798.04	220.00
798.36	220.05
798.68	220.10
799.00	220.19
799.32	219.07
799.64	219.40
799.96	219.26
800.28	219.71
800.60	219.74
800.92	219.88
801.24	219.90
801.56	219.95
801.89	219.67
802.21	220.21
802.53	219.93
802.85	220.36
803.17	220.98
803.49	220.55
803.81	220.48
804.13	220.07
804.45	219.55
804.77	219.64
805.09	219.74
805.41	219.52
805.73	219.12
806.05	218.55
806.37	218.14
806.69	217.88
807.01	217.62
807.33	217.69
807.65	216.93
807.97	217.67
808.28	217.57
808.60	217.55
808.92	216.95
809.24	218.33
809.56	217.90
809.88	217.33
810.20	217.55
810.52	217.98
810.84	217.86
811.16	217.62
811.48	217.43
811.80	218.12
812.12	218.05
812.43	218.43
812.75	218.67
813.07	218.45
813.39	218.71
813.71	218.40
814.03	218.17
814.35	218.21
814.67	217.67
814.98	217.48
815.30	217.40
815.62	216.95
815.94	215.57
816.26	215.60
816.58	215.17
816.89	215.38
817.21	214.74
817.53	214.98
817.85	215.12
818.17	214.88
818.48	214.17
818.80	214.60
819.12	214.10
819.44	213.67
819.76	213.40
820.07	213.14
820.39	213.00
820.71	213.19
821.03	213.24
821.34	213.00
821.66	213.24
821.98	213.45
822.30	213.60
822.61	214.98
822.93	214.86
823.25	214.81
823.57	214.48
823.88	215.07
824.20	215.02
824.52	215.50
824.83	215.55
825.15	215.12
825.47	214.95
825.79	215.29
826.10	215.33
826.42	215.31
826.74	215.67
827.05	216.00
827.37	215.90
827.69	215.69
828.00	215.64
828.32	215.60
828.64	215.29
828.95	216.00
829.27	215.31
829.58	215.43
829.90	215.83
830.22	216.02
830.53	215.29
830.85	215.05
831.17	214.52
831.48	214.43
831.80	214.79
832.11	214.57
832.43	214.36
832.75	214.21
833.06	215.79
833.38	215.17
833.69	214.67
834.01	214.76
834.32	214.67
834.64	214.36
834.96	214.40
835.27	214.38
835.59	213.88
835.90	213.40
836.22	213.31
836.53	212.71
836.85	212.43
837.16	214.64
837.48	214.57
837.79	215.00
838.11	215.19
838.42	215.05
838.74	215.43
839.05	215.45
839.37	215.55
839.68	214.17
840.00	214.05
840.31	214.43
840.63	214.19
840.94	214.14
841.26	214.10
841.57	213.93
841.88	214.05
842.20	213.79
842.51	213.67
842.83	213.90
843.14	216.00
843.46	216.07
843.77	214.86
844.08	214.81
844.40	214.33
844.71	214.24
845.03	214.12
845.34	213.76
845.65	213.55
845.97	213.60
846.28	213.69
846.60	213.83
846.91	213.69
847.22	213.79
847.54	214.36
847.85	214.55
848.16	214.67
848.48	214.29
848.79	215.19
849.10	215.43
849.42	215.33
849.73	213.45
850.04	213.48
850.36	212.88
850.67	213.40
850.98	213.40
851.30	213.43
851.61	213.40
851.92	213.40
852.23	213.98
852.55	213.86
852.86	213.76
853.17	213.90
853.49	214.29
853.80	214.71
854.11	214.81
854.42	215.10
854.74	214.69
855.05	214.88
855.36	213.64
855.67	213.71
855.99	213.60
856.30	216.14
856.61	215.95
856.92	215.93
857.23	215.88
857.55	215.93
857.86	215.67
858.17	215.79
858.48	215.50
858.79	215.19
859.11	215.38
859.42	215.19
859.73	214.93
860.04	214.93
860.35	214.36
860.66	213.62
860.98	213.50
861.29	213.79
861.60	213.64
861.91	214.02
862.22	213.79
862.53	213.36
862.84	210.74
863.16	211.40
863.47	210.98
863.78	210.88
864.09	210.81
864.40	211.17
864.71	211.33
865.02	211.50
865.33	211.17
865.64	210.93
865.95	211.02
866.27	212.26
866.58	211.90
866.89	212.33
867.20	212.45
867.51	212.19
867.82	212.10
868.13	212.79
868.44	212.45
868.75	212.76
869.06	213.17
869.37	213.45
869.68	212.67
869.99	213.00
870.30	213.24
870.61	213.48
870.92	213.07
871.23	212.76
871.54	213.07
871.85	213.64
872.16	213.98
872.47	213.86
872.78	212.79
873.09	213.00
873.40	212.60
873.71	212.81
874.02	212.93
874.33	212.67
874.64	211.90
874.95	212.36
875.26	212.02
875.56	211.88
875.87	211.79
876.18	211.74
876.49	213.69
876.80	213.36
877.11	212.93
877.42	213.00
877.73	212.98
878.04	212.50
878.35	212.43
878.66	212.36
878.96	212.36
879.27	212.48
879.58	212.31
879.89	212.10
880.20	212.38
880.51	212.36
880.82	212.55
881.12	212.88
881.43	212.36
881.74	212.21
882.05	212.31
882.36	212.57
882.67	212.67
882.97	210.43
883.28	210.31
883.59	210.26
883.90	210.31
884.21	210.74
884.51	210.76
884.82	210.33
885.13	210.14
885.44	210.14
885.74	209.95
886.05	209.83
886.36	209.95
886.67	209.40
886.98	210.24
887.28	210.38
887.59	210.38
887.90	210.86
888.20	210.74
888.51	210.86
888.82	210.38
889.13	210.83
889.43	212.52
889.74	212.52
890.05	212.60
890.35	212.52
890.66	212.33
890.97	212.17
891.28	212.00
891.58	212.07
891.89	212.21
892.20	212.17
892.50	212.10
892.81	212.12
893.12	212.19
893.42	211.14
893.73	211.38
894.04	211.45
894.34	211.36
894.65	211.38
894.95	211.19
895.26	211.40
895.57	212.26
895.87	210.38
896.18	210.67
896.48	210.98
896.79	210.98
897.10	211.05
897.40	211.26
897.71	211.67
898.01	211.69
898.32	211.81
898.63	211.90
898.93	211.90
899.24	211.88
899.54	211.74
899.85	212.14
900.15	211.86
900.46	211.64
900.76	211.98
901.07	211.79
901.38	211.90
901.68	212.07
901.99	211.07
902.29	211.48
902.60	211.00
902.90	210.71
903.21	210.81
903.51	210.62
903.82	211.24
904.12	211.45
904.43	211.69
904.73	211.62
905.03	211.45
905.34	213.48
905.64	213.52
905.95	213.62
906.25	213.45
906.56	213.60
906.86	213.64
907.17	213.26
907.47	213.50
907.77	213.40
908.08	212.79
908.38	212.76
908.69	212.81
908.99	213.19
909.30	213.33
909.60	213.48
909.90	213.71
910.21	212.90
910.51	212.26
910.81	212.17
911.12	212.36
911.42	212.69
911.73	210.71
912.03	210.86
912.33	211.12
912.64	211.12
912.94	210.86
913.24	210.60
913.55	210.33
913.85	210.29
914.15	210.45
914.46	210.88
914.76	210.71
915.06	210.60
915.37	210.24
915.67	209.95
915.97	209.69
916.27	209.24
916.58	209.38
916.88	209.48
917.18	209.38
917.49	210.55
917.79	210.21
918.09	210.43
918.39	210.83
918.70	210.76
919.00	210.74
919.30	211.69
919.60	211.67
919.91	211.40
920.21	211.60
920.51	211.36
920.81	211.33
921.12	211.67
921.42	211.74
921.72	212.05
922.02	212.29
922.32	212.67
922.63	213.05
922.93	214.07
923.23	214.17
923.53	214.02
923.83	212.83
924.13	213.17
924.44	213.14
924.74	213.60
925.04	214.12
925.34	214.14
925.64	213.40
925.94	213.40
926.24	214.60
926.55	214.43
926.85	214.69
927.15	214.67
927.45	214.60
927.75	214.62
928.05	214.71
928.35	214.71
928.65	215.21
928.95	215.24
929.26	214.52
929.56	215.02
929.86	215.29
930.16	215.10
930.46	214.93
930.76	215.02
931.06	214.17
931.36	213.62
931.66	213.83
931.96	213.93
932.26	213.88
932.56	213.26
932.86	213.33
933.16	213.21
933.46	213.17
933.76	212.95
934.06	213.43
934.36	214.33
934.66	214.29
934.96	213.83
935.26	213.64
935.56	213.79
935.86	213.31
936.16	212.86
936.46	212.79
936.76	212.62
937.06	212.55
937.36	212.57
937.66	212.79
937.96	212.67
938.26	212.00
938.56	212.10
938.86	212.21
939.16	212.57
939.46	212.69
939.76	212.69
940.06	212.55
940.35	211.76
940.65	210.43
940.95	210.45
941.25	210.10
941.55	210.07
941.85	210.12
942.15	210.52
942.45	211.12
942.75	210.93
943.04	211.07
943.34	211.33
943.64	211.36
943.94	210.90
944.24	210.88
944.54	211.31
944.84	211.36
945.13	211.02
945.43	210.76
945.73	210.71
946.03	210.69
946.33	210.64
946.62	210.57
946.92	210.57
947.22	210.86
947.52	210.86
947.82	211.14
948.11	210.79
948.41	210.36
948.71	210.05
949.01	210.19
949.31	209.81
949.60	209.55
949.90	209.60
950.20	209.57
950.50	209.60
950.79	209.43
951.09	209.57
951.39	209.62
951.69	209.50
951.98	209.76
952.28	209.69
952.58	209.79
952.87	210.07
953.17	210.67
953.47	210.24
953.76	210.19
954.06	209.83
954.36	209.52
954.66	209.45
954.95	209.93
955.25	210.31
955.55	210.71
955.84	210.43
956.14	210.50
956.44	210.79
956.73	210.64
957.03	210.76
957.32	210.74
957.62	210.67
957.92	210.98
958.21	210.71
958.51	213.24
958.81	213.60
959.10	213.86
959.40	214.19
959.69	214.43
959.99	214.83
960.29	215.00
960.58	215.24
960.88	216.07
961.17	215.83
961.47	216.07
961.76	215.79
962.06	216.31
962.36	216.02
962.65	216.05
962.95	216.12
963.24	216.14
963.54	216.17
963.83	216.31
964.13	216.19
964.42	215.83
964.72	214.05
965.01	213.95
965.31	213.62
965.60	212.98
965.90	214.33
966.19	213.86
966.49	213.86
966.78	213.45
967.08	213.26
967.37	213.17
967.67	212.57
967.96	213.02
968.26	212.76
968.55	212.95
968.85	213.05
969.14	212.83
969.43	212.71
969.73	212.64
970.02	212.57
970.32	212.36
970.61	212.29
970.91	211.64
971.20	211.26
971.49	211.38
971.79	211.45
972.08	210.02
972.38	210.21
972.67	210.02
972.96	210.74
973.26	210.21
973.55	210.86
973.85	210.60
974.14	210.48
974.43	210.57
974.73	210.45
975.02	210.12
975.31	210.24
975.61	210.02
975.90	209.71
976.19	209.52
976.49	209.81
976.78	210.14
977.07	209.88
977.37	209.95
977.66	209.95
977.95	210.12
978.24	210.26
978.54	210.55
978.83	210.55
979.12	210.21
979.42	210.05
979.71	209.69
980.00	209.93
980.29	210.07
980.59	209.76
980.88	210.31
981.17	210.19
981.46	210.07
981.76	210.14
982.05	210.90
982.34	211.19
982.63	211.12
982.93	211.05
983.22	211.86
983.51	212.02
983.80	212.38
984.09	212.36
984.39	212.26
984.68	212.07
984.97	212.14
985.26	212.00
985.55	212.38
985.85	211.79
986.14	212.05
986.43	212.00
986.72	211.90
987.01	211.36
987.30	211.40
987.59	211.50
987.89	211.48
988.18	210.98
988.47	210.71
988.76	210.31
989.05	210.12
989.34	209.76
989.63	210.33
989.92	209.98
990.22	209.64
990.51	209.71
990.80	209.55
991.09	209.57
991.38	209.98
991.67	209.79
991.96	209.55
992.25	209.57
992.54	209.14
992.83	209.10
993.12	208.74
993.41	209.07
993.70	209.90
993.99	210.45
994.28	210.86
994.58	211.38
994.87	211.62
995.16	211.62
995.45	211.48
995.74	210.81
996.03	211.12
996.32	211.52
996.61	211.79
996.90	211.86
997.19	211.98
997.48	212.12
997.77	211.90
998.06	212.33
998.34	212.05
998.63	212.38
998.92	212.64
999.21	213.10
999.50	213.10
999.79	212.10
1000.08	212.02
1000.37	211.93
1000.66	211.45
1000.95	211.69
1001.24	211.64
1001.53	211.98
1001.82	211.64
1002.11	211.21
1002.40	211.24
1002.68	211.48
1002.97	212.95
1003.26	212.64
1003.55	212.02
1003.84	212.38
1004.13	213.12
1004.42	213.24
1004.71	213.05
1004.99	212.74
1005.28	213.21
1005.57	213.10
1005.86	213.14
1006.15	213.07
1006.44	212.64
1006.72	212.93
1007.01	212.69
1007.30	212.76
1007.59	212.60
1007.88	212.74
1008.17	212.67
1008.45	212.38
1008.74	211.74
1009.03	210.69
1009.32	210.64
1009.60	210.50
1009.89	210.29
1010.18	209.45
1010.47	209.26
1010.76	209.36
1011.04	209.57
1011.33	209.55
1011.62	209.64
1011.91	209.67
1012.19	209.71
1012.48	209.88
1012.77	209.81
1013.05	210.62
1013.34	210.76
1013.63	210.69
1013.92	211.02
1014.20	210.86
1014.49	211.00
1014.78	211.19
1015.06	210.40
1015.35	210.40
1015.64	211.02
1015.92	211.31
1016.21	211.36
1016.50	211.55
1016.78	211.71
1017.07	211.86
1017.36	211.43
1017.64	211.17
1017.93	211.57
1018.22	211.12
1018.50	211.12
1018.79	211.07
1019.08	210.21
1019.36	210.29
1019.65	210.05
1019.93	210.38
1020.22	210.81
1020.51	211.90
1020.79	211.57
1021.08	204.00
1021.36	209.00
1021.65	211.00
1021.94	209.00
1022.22	211.00
1022.51	207.00
1022.79	219.50
1023.08	212.50
1023.36	237.00
1023.65	205.00
>>>>>End Processed Spectral Data<<<<<
