SpectraSuite Data File
++++++++++++++++++++++++++++++++++++
Date: Tue Apr 02 18:41:43 EDT 2013
User: group
Dark Spectrum Present: No
Reference Spectrum Present: No
Number of Sampled Component Spectra: 1
Spectrometers: USB2E7196
Integration Time (usec): 580000 (USB2E7196)
Spectra Averaged: 2 (USB2E7196)
Boxcar Smoothing: 10 (USB2E7196)
Correct for Electrical Dark: No (USB2E7196)
Strobe/Lamp Enabled: No (USB2E7196)
Correct for Detector Non-linearity: No (USB2E7196)
Correct for Stray Light: No (USB2E7196)
Number of Pixels in Processed Spectrum: 2048
>>>>>Begin Processed Spectral Data<<<<<
339.09	0.00
339.48	191.50
339.86	195.50
340.24	193.00
340.63	199.00
341.01	230.50
341.39	204.00
341.78	211.50
342.16	216.00
342.54	209.00
342.93	198.52
343.31	208.48
343.69	209.10
344.07	209.76
344.46	210.76
344.84	211.33
345.22	210.36
345.60	210.81
345.99	210.86
346.37	210.67
346.75	210.38
347.13	210.31
347.52	210.43
347.90	211.00
348.28	210.81
348.66	211.45
349.05	210.45
349.43	211.10
349.81	211.29
350.19	211.40
350.57	211.90
350.96	212.19
351.34	212.40
351.72	212.64
352.10	212.69
352.48	212.31
352.87	212.07
353.25	212.07
353.63	211.88
354.01	211.86
354.39	212.00
354.77	212.36
355.15	212.90
355.54	212.64
355.92	212.19
356.30	212.33
356.68	213.76
357.06	214.19
357.44	213.76
357.82	213.50
358.20	214.31
358.58	214.00
358.97	214.19
359.35	214.45
359.73	214.90
360.11	214.88
360.49	215.17
360.87	215.14
361.25	215.36
361.63	216.07
362.01	216.10
362.39	216.00
362.77	216.12
363.15	216.12
363.53	216.33
363.91	216.45
364.29	216.48
364.67	214.45
365.05	214.38
365.43	214.19
365.81	214.57
366.19	214.62
366.57	215.12
366.95	214.79
367.33	214.33
367.71	214.26
368.09	214.50
368.47	214.52
368.85	214.71
369.23	215.24
369.61	214.24
369.99	214.79
370.37	215.10
370.75	216.17
371.13	215.69
371.51	215.48
371.89	215.62
372.27	215.62
372.65	215.93
373.03	215.98
373.41	216.26
373.78	216.17
374.16	215.33
374.54	214.90
374.92	214.88
375.30	215.02
375.68	214.60
376.06	214.69
376.44	214.55
376.82	214.60
377.19	214.29
377.57	214.36
377.95	213.64
378.33	213.38
378.71	212.05
379.09	212.40
379.47	212.74
379.84	212.62
380.22	212.36
380.60	211.88
380.98	211.71
381.36	211.62
381.73	211.33
382.11	211.69
382.49	211.64
382.87	211.52
383.25	211.62
383.62	214.00
384.00	213.79
384.38	213.86
384.76	214.31
385.13	215.38
385.51	215.50
385.89	215.33
386.27	215.38
386.64	215.95
387.02	216.10
387.40	215.93
387.78	216.00
388.15	216.26
388.53	216.17
388.91	216.24
389.29	215.95
389.66	216.36
390.04	216.14
390.42	216.64
390.79	216.62
391.17	216.43
391.55	214.29
391.92	214.24
392.30	214.26
392.68	213.93
393.05	213.43
393.43	213.50
393.81	213.83
394.18	213.38
394.56	213.38
394.94	213.71
395.31	213.24
395.69	213.81
396.06	214.10
396.44	214.40
396.82	214.31
397.19	215.50
397.57	215.26
397.95	215.48
398.32	214.90
398.70	215.33
399.07	215.60
399.45	215.45
399.82	215.57
400.20	215.71
400.58	215.67
400.95	214.71
401.33	215.45
401.70	216.98
402.08	217.26
402.45	217.10
402.83	217.43
403.20	217.81
403.58	217.64
403.95	218.05
404.33	218.50
404.71	218.74
405.08	219.88
405.46	220.24
405.83	220.48
406.21	220.86
406.58	221.21
406.96	221.48
407.33	222.31
407.70	223.12
408.08	225.24
408.45	226.10
408.83	227.45
409.20	227.88
409.58	227.29
409.95	228.48
410.33	229.50
410.70	230.10
411.08	231.57
411.45	232.64
411.82	233.38
412.20	235.05
412.57	237.19
412.95	236.90
413.32	238.79
413.69	240.40
414.07	242.21
414.44	243.86
414.82	246.21
415.19	248.24
415.56	250.21
415.94	251.29
416.31	254.45
416.68	257.10
417.06	260.33
417.43	264.10
417.81	267.71
418.18	271.55
418.55	275.52
418.93	279.19
419.30	283.24
419.67	288.02
420.04	292.50
420.42	297.50
420.79	305.05
421.16	310.50
421.54	317.62
421.91	323.95
422.28	330.69
422.66	337.00
423.03	345.14
423.40	352.50
423.77	359.74
424.15	366.60
424.52	374.24
424.89	383.00
425.26	390.55
425.64	398.31
426.01	406.45
426.38	415.10
426.75	425.29
427.13	435.02
427.50	444.69
427.87	454.67
428.24	464.76
428.61	473.12
428.99	484.98
429.36	495.95
429.73	507.07
430.10	518.31
430.47	530.90
430.85	541.45
431.22	554.12
431.59	569.38
431.96	582.83
432.33	597.48
432.70	611.31
433.08	627.69
433.45	643.36
433.82	658.69
434.19	675.69
434.56	692.86
434.93	708.64
435.30	725.29
435.68	743.24
436.05	760.55
436.42	777.67
436.79	793.90
437.16	811.36
437.53	829.86
437.90	848.17
438.27	866.24
438.64	885.45
439.01	902.43
439.38	916.98
439.75	932.12
440.13	949.21
440.50	965.17
440.87	978.07
441.24	992.19
441.61	1008.05
441.98	1019.40
442.35	1031.21
442.72	1044.93
443.09	1058.48
443.46	1066.67
443.83	1072.57
444.20	1077.93
444.57	1082.88
444.94	1085.76
445.31	1089.38
445.68	1095.71
446.05	1096.43
446.42	1094.95
446.79	1094.43
447.16	1092.17
447.53	1091.33
447.90	1084.98
448.27	1078.29
448.64	1069.67
449.01	1062.29
449.37	1050.29
449.74	1038.69
450.11	1027.48
450.48	1012.45
450.85	995.86
451.22	982.52
451.59	969.48
451.96	957.14
452.33	942.12
452.70	927.95
453.07	910.29
453.43	889.93
453.80	874.10
454.17	857.64
454.54	841.12
454.91	824.88
455.28	808.19
455.65	792.86
456.02	781.24
456.38	768.29
456.75	752.60
457.12	739.02
457.49	726.07
457.86	711.14
458.23	700.88
458.59	688.93
458.96	676.98
459.33	666.50
459.70	656.10
460.07	647.60
460.43	637.45
460.80	629.00
461.17	621.19
461.54	612.07
461.91	603.81
462.27	595.74
462.64	588.33
463.01	580.64
463.38	573.90
463.74	562.57
464.11	555.90
464.48	550.45
464.85	544.74
465.21	540.55
465.58	535.64
465.95	528.40
466.32	523.17
466.68	517.71
467.05	512.10
467.42	506.76
467.78	501.38
468.15	496.36
468.52	492.64
468.88	486.76
469.25	482.17
469.62	478.90
469.98	474.71
470.35	470.79
470.72	466.86
471.08	462.17
471.45	459.76
471.82	457.05
472.18	453.19
472.55	450.50
472.92	446.31
473.28	442.93
473.65	440.69
474.02	438.43
474.38	436.45
474.75	435.33
475.11	433.12
475.48	431.26
475.85	429.45
476.21	427.12
476.58	426.21
476.94	424.86
477.31	423.43
477.67	422.64
478.04	421.67
478.41	421.00
478.77	422.24
479.14	421.33
479.50	420.50
479.87	420.40
480.23	419.36
480.60	419.24
480.96	419.05
481.33	419.12
481.69	418.90
482.06	418.81
482.42	418.45
482.79	418.90
483.15	419.31
483.52	420.26
483.88	421.10
484.25	421.45
484.61	422.17
484.98	422.95
485.34	424.29
485.71	426.05
486.07	427.31
486.44	427.29
486.80	428.69
487.17	430.36
487.53	432.62
487.90	435.24
488.26	438.60
488.62	441.86
488.99	444.38
489.35	447.02
489.72	449.90
490.08	452.55
490.44	455.38
490.81	458.88
491.17	461.93
491.54	465.81
491.90	469.93
492.26	473.67
492.63	477.38
492.99	480.74
493.36	485.00
493.72	489.52
494.08	493.88
494.45	498.71
494.81	503.81
495.17	508.62
495.54	513.90
495.90	518.31
496.26	523.50
496.63	528.83
496.99	534.60
497.35	540.00
497.72	546.14
498.08	551.93
498.44	557.83
498.80	564.17
499.17	569.64
499.53	575.52
499.89	582.88
500.26	589.83
500.62	597.10
500.98	603.64
501.34	610.71
501.71	618.00
502.07	624.76
502.43	631.57
502.79	638.64
503.16	645.76
503.52	653.43
503.88	660.26
504.24	668.07
504.60	675.62
504.97	684.14
505.33	692.14
505.69	701.19
506.05	708.67
506.41	716.36
506.78	724.05
507.14	732.21
507.50	739.90
507.86	748.17
508.22	756.00
508.59	763.98
508.95	771.69
509.31	780.48
509.67	789.00
510.03	797.12
510.39	804.57
510.75	812.33
511.12	819.71
511.48	827.93
511.84	835.48
512.20	843.48
512.56	851.00
512.92	858.81
513.28	865.81
513.64	873.45
514.00	880.76
514.37	889.10
514.73	896.55
515.09	904.29
515.45	911.36
515.81	918.62
516.17	925.43
516.53	931.90
516.89	937.74
517.25	943.64
517.61	950.45
517.97	957.43
518.33	964.05
518.69	971.50
519.05	977.60
519.41	983.83
519.77	991.33
520.13	997.14
520.49	1002.60
520.85	1008.48
521.21	1015.62
521.57	1021.81
521.93	1026.60
522.29	1032.43
522.65	1037.33
523.01	1043.17
523.37	1048.88
523.73	1054.50
524.09	1060.55
524.45	1065.21
524.81	1071.10
525.17	1076.10
525.53	1080.36
525.89	1085.29
526.25	1090.36
526.61	1095.00
526.97	1099.14
527.33	1102.55
527.68	1109.12
528.04	1114.52
528.40	1118.71
528.76	1122.71
529.12	1127.64
529.48	1132.74
529.84	1137.21
530.20	1141.83
530.56	1146.43
530.91	1151.05
531.27	1155.29
531.63	1159.74
531.99	1164.57
532.35	1168.10
532.71	1172.31
533.07	1177.29
533.42	1183.74
533.78	1186.81
534.14	1191.83
534.50	1195.83
534.86	1200.50
535.21	1202.90
535.57	1207.24
535.93	1210.71
536.29	1215.43
536.65	1219.76
537.00	1222.95
537.36	1226.21
537.72	1229.50
538.08	1233.50
538.44	1236.38
538.79	1240.45
539.15	1242.93
539.51	1246.74
539.87	1250.98
540.22	1255.26
540.58	1259.38
540.94	1261.43
541.29	1265.10
541.65	1267.14
542.01	1271.48
542.37	1273.74
542.72	1276.31
543.08	1278.69
543.44	1282.88
543.79	1284.69
544.15	1287.55
544.51	1292.17
544.87	1295.95
545.22	1299.05
545.58	1301.33
545.94	1304.81
546.29	1307.95
546.65	1311.64
547.01	1314.26
547.36	1317.31
547.72	1320.36
548.07	1323.33
548.43	1325.50
548.79	1328.33
549.14	1332.00
549.50	1335.50
549.86	1338.93
550.21	1342.45
550.57	1345.67
550.92	1348.40
551.28	1352.33
551.64	1355.50
551.99	1358.02
552.35	1360.95
552.70	1364.40
553.06	1368.14
553.41	1371.33
553.77	1376.19
554.13	1380.76
554.48	1385.67
554.84	1390.05
555.19	1393.64
555.55	1398.50
555.90	1402.64
556.26	1406.71
556.61	1409.93
556.97	1412.71
557.32	1417.50
557.68	1421.88
558.03	1426.10
558.39	1430.52
558.74	1434.31
559.10	1438.21
559.45	1443.33
559.81	1448.17
560.16	1452.90
560.52	1457.93
560.87	1463.55
561.23	1466.74
561.58	1472.52
561.94	1475.71
562.29	1479.05
562.64	1484.31
563.00	1488.60
563.35	1493.02
563.71	1497.81
564.06	1504.57
564.42	1509.86
564.77	1515.45
565.12	1521.24
565.48	1528.60
565.83	1533.76
566.19	1539.43
566.54	1544.62
566.89	1549.36
567.25	1555.93
567.60	1562.67
567.96	1569.69
568.31	1576.31
568.66	1582.45
569.02	1586.05
569.37	1591.40
569.72	1597.50
570.08	1601.67
570.43	1605.98
570.78	1611.79
571.14	1618.02
571.49	1621.93
571.84	1626.81
572.20	1631.12
572.55	1635.71
572.90	1638.40
573.26	1643.64
573.61	1648.52
573.96	1653.40
574.31	1658.00
574.67	1661.07
575.02	1664.00
575.37	1665.79
575.72	1667.88
576.08	1671.38
576.43	1675.69
576.78	1680.05
577.13	1682.93
577.49	1686.55
577.84	1690.64
578.19	1693.67
578.54	1697.43
578.90	1701.88
579.25	1705.14
579.60	1708.36
579.95	1710.88
580.30	1714.79
580.66	1717.33
581.01	1720.14
581.36	1722.98
581.71	1725.38
582.06	1729.79
582.42	1733.10
582.77	1734.55
583.12	1737.12
583.47	1739.52
583.82	1740.93
584.17	1743.90
584.53	1747.69
584.88	1750.69
585.23	1753.17
585.58	1756.40
585.93	1757.69
586.28	1760.26
586.63	1763.43
586.98	1764.88
587.34	1768.02
587.69	1769.38
588.04	1771.90
588.39	1773.24
588.74	1773.86
589.09	1776.17
589.44	1775.21
589.79	1776.31
590.14	1778.81
590.49	1779.93
590.84	1779.95
591.19	1782.00
591.54	1783.21
591.89	1783.26
592.25	1786.31
592.60	1786.12
592.95	1785.93
593.30	1786.98
593.65	1785.86
594.00	1785.43
594.35	1791.55
594.70	1790.98
595.05	1791.90
595.40	1791.36
595.75	1790.52
596.10	1791.93
596.45	1792.50
596.80	1792.88
597.15	1793.07
597.50	1792.55
597.85	1794.07
598.19	1794.52
598.54	1794.26
598.89	1793.17
599.24	1794.33
599.59	1792.69
599.94	1792.69
600.29	1793.48
600.64	1793.29
600.99	1793.17
601.34	1793.24
601.69	1787.38
602.04	1786.48
602.39	1785.88
602.74	1787.12
603.08	1787.71
603.43	1787.26
603.78	1786.17
604.13	1786.67
604.48	1785.36
604.83	1784.86
605.18	1782.93
605.53	1782.50
605.87	1780.24
606.22	1778.14
606.57	1775.67
606.92	1772.83
607.27	1771.86
607.62	1769.48
607.96	1767.36
608.31	1766.69
608.66	1764.74
609.01	1762.71
609.36	1761.45
609.70	1758.57
610.05	1754.17
610.40	1751.52
610.75	1748.02
611.10	1745.29
611.44	1741.05
611.79	1738.29
612.14	1735.07
612.49	1730.50
612.83	1726.29
613.18	1723.71
613.53	1720.88
613.88	1717.10
614.22	1713.90
614.57	1708.95
614.92	1704.45
615.27	1700.67
615.61	1695.45
615.96	1691.69
616.31	1687.55
616.65	1683.67
617.00	1679.90
617.35	1675.76
617.70	1671.07
618.04	1666.76
618.39	1662.02
618.74	1657.69
619.08	1652.57
619.43	1649.05
619.78	1645.45
620.12	1641.86
620.47	1638.29
620.82	1633.33
621.16	1628.29
621.51	1624.00
621.85	1619.81
622.20	1615.02
622.55	1609.24
622.89	1604.43
623.24	1600.40
623.59	1595.69
623.93	1590.21
624.28	1585.52
624.62	1583.69
624.97	1579.90
625.32	1576.24
625.66	1571.76
626.01	1566.81
626.35	1562.52
626.70	1557.26
627.04	1554.00
627.39	1549.55
627.73	1545.48
628.08	1542.17
628.43	1538.60
628.77	1533.26
629.12	1529.57
629.46	1526.05
629.81	1521.93
630.15	1517.45
630.50	1511.74
630.84	1506.05
631.19	1501.07
631.53	1494.52
631.88	1485.98
632.22	1479.81
632.57	1474.55
632.91	1468.29
633.26	1463.14
633.60	1457.64
633.95	1451.45
634.29	1444.21
634.64	1438.69
634.98	1432.38
635.32	1428.21
635.67	1423.98
636.01	1420.21
636.36	1413.67
636.70	1409.14
637.05	1404.19
637.39	1399.07
637.73	1394.07
638.08	1390.24
638.42	1384.83
638.77	1381.02
639.11	1376.55
639.45	1371.14
639.80	1365.02
640.14	1359.90
640.49	1354.95
640.83	1349.88
641.17	1345.69
641.52	1340.50
641.86	1335.14
642.20	1329.93
642.55	1322.60
642.89	1314.98
643.23	1307.19
643.58	1302.52
643.92	1294.17
644.26	1287.69
644.61	1281.50
644.95	1274.60
645.29	1267.33
645.64	1261.45
645.98	1254.50
646.32	1248.69
646.66	1241.90
647.01	1235.43
647.35	1229.74
647.69	1223.07
648.04	1216.93
648.38	1210.55
648.72	1204.00
649.06	1196.90
649.41	1188.74
649.75	1181.81
650.09	1176.00
650.43	1169.62
650.78	1162.95
651.12	1156.71
651.46	1149.93
651.80	1143.10
652.14	1137.10
652.49	1131.86
652.83	1125.71
653.17	1119.29
653.51	1112.29
653.85	1106.10
654.20	1099.31
654.54	1092.10
654.88	1085.10
655.22	1079.14
655.56	1072.00
655.90	1065.64
656.25	1059.12
656.59	1053.88
656.93	1047.48
657.27	1041.88
657.61	1035.71
657.95	1029.12
658.29	1023.12
658.64	1017.45
658.98	1011.12
659.32	1003.86
659.66	996.62
660.00	990.07
660.34	983.36
660.68	977.00
661.02	970.95
661.36	964.79
661.70	959.17
662.05	953.52
662.39	946.76
662.73	941.45
663.07	936.64
663.41	930.07
663.75	924.24
664.09	918.60
664.43	911.52
664.77	905.48
665.11	898.86
665.45	893.21
665.79	887.10
666.13	881.38
666.47	876.45
666.81	870.62
667.15	864.81
667.49	860.00
667.83	854.90
668.17	849.50
668.51	844.02
668.85	838.40
669.19	833.71
669.53	828.00
669.87	821.48
670.21	815.38
670.55	810.31
670.89	805.21
671.23	799.76
671.57	794.55
671.91	789.21
672.25	784.74
672.58	780.55
672.92	775.31
673.26	770.38
673.60	765.71
673.94	760.71
674.28	755.29
674.62	750.31
674.96	744.98
675.30	740.71
675.64	736.48
675.97	731.60
676.31	726.21
676.65	721.52
676.99	717.90
677.33	712.67
677.67	709.24
678.01	703.52
678.34	699.45
678.68	695.24
679.02	690.57
679.36	685.55
679.70	680.24
680.04	675.81
680.37	671.31
680.71	666.62
681.05	662.26
681.39	658.21
681.73	653.33
682.06	649.31
682.40	644.57
682.74	639.95
683.08	636.10
683.42	631.62
683.75	627.45
684.09	622.71
684.43	618.05
684.77	613.02
685.10	609.14
685.44	604.57
685.78	600.00
686.12	596.26
686.45	591.93
686.79	587.50
687.13	583.62
687.46	579.38
687.80	575.24
688.14	571.45
688.48	567.36
688.81	563.62
689.15	560.26
689.49	556.45
689.82	553.07
690.16	548.10
690.50	544.52
690.83	540.29
691.17	536.19
691.51	532.86
691.84	529.38
692.18	525.76
692.52	521.95
692.85	518.71
693.19	515.90
693.52	512.79
693.86	509.07
694.20	505.19
694.53	502.02
694.87	498.14
695.21	494.24
695.54	490.81
695.88	486.98
696.21	482.60
696.55	479.24
696.88	475.88
697.22	472.98
697.56	469.86
697.89	466.67
698.23	463.76
698.56	460.43
698.90	457.05
699.23	453.50
699.57	450.69
699.90	447.21
700.24	443.45
700.58	440.31
700.91	437.74
701.25	436.69
701.58	434.36
701.92	432.29
702.25	429.83
702.59	426.98
702.92	424.74
703.26	422.40
703.59	419.52
703.93	418.62
704.26	416.52
704.60	414.05
704.93	411.93
705.26	409.21
705.60	407.33
705.93	404.62
706.27	402.90
706.60	400.71
706.94	399.33
707.27	397.17
707.61	394.95
707.94	392.76
708.27	389.19
708.61	386.24
708.94	383.90
709.28	381.60
709.61	379.50
709.94	377.38
710.28	374.98
710.61	372.93
710.95	368.93
711.28	368.17
711.61	366.17
711.95	364.48
712.28	362.57
712.61	360.48
712.95	359.76
713.28	358.88
713.61	356.76
713.95	354.43
714.28	352.62
714.61	350.62
714.95	348.83
715.28	346.57
715.61	345.02
715.95	343.38
716.28	341.74
716.61	340.43
716.95	338.64
717.28	337.21
717.61	335.48
717.94	333.74
718.28	330.79
718.61	329.43
718.94	327.57
719.27	325.88
719.61	324.64
719.94	322.67
720.27	320.29
720.60	318.90
720.94	317.76
721.27	316.48
721.60	315.79
721.93	314.40
722.27	314.12
722.60	312.86
722.93	311.50
723.26	310.45
723.59	308.81
723.93	308.10
724.26	306.90
724.59	306.19
724.92	305.40
725.25	304.86
725.59	303.67
725.92	302.93
726.25	302.38
726.58	301.40
726.91	300.36
727.24	299.67
727.57	298.67
727.91	297.12
728.24	296.31
728.57	294.98
728.90	294.33
729.23	292.57
729.56	292.45
729.89	291.45
730.22	290.45
730.55	289.81
730.89	288.62
731.22	287.81
731.55	286.88
731.88	286.36
732.21	285.26
732.54	284.21
732.87	283.26
733.20	282.26
733.53	281.52
733.86	280.88
734.19	279.64
734.52	279.10
734.85	279.62
735.18	278.55
735.51	278.31
735.84	277.79
736.17	277.81
736.50	276.45
736.83	278.12
737.16	277.57
737.49	276.83
737.82	276.12
738.15	275.79
738.48	275.10
738.81	274.05
739.14	273.12
739.47	272.60
739.80	271.83
740.13	271.43
740.46	270.19
740.79	269.07
741.12	268.50
741.45	267.74
741.78	266.21
742.11	266.19
742.44	265.19
742.77	264.90
743.10	263.81
743.43	263.05
743.75	260.43
744.08	262.19
744.41	261.36
744.74	260.67
745.07	259.76
745.40	259.43
745.73	259.98
746.06	259.50
746.39	259.21
746.71	258.52
747.04	257.67
747.37	257.12
747.70	256.93
748.03	256.52
748.36	256.14
748.68	255.74
749.01	254.45
749.34	253.79
749.67	253.02
750.00	253.10
750.33	254.26
750.65	253.83
750.98	251.14
751.31	250.79
751.64	250.50
751.97	251.24
752.29	250.48
752.62	248.98
752.95	248.52
753.28	247.62
753.60	247.14
753.93	247.33
754.26	247.43
754.59	246.33
754.91	245.69
755.24	245.10
755.57	244.48
755.90	244.33
756.22	244.00
756.55	243.38
756.88	242.31
757.20	240.50
757.53	239.40
757.86	239.02
758.19	238.93
758.51	238.50
758.84	237.07
759.17	236.76
759.49	236.43
759.82	237.05
760.15	237.00
760.47	237.00
760.80	236.29
761.13	236.14
761.45	236.02
761.78	235.57
762.11	235.43
762.43	235.24
762.76	234.74
763.08	234.48
763.41	234.26
763.74	234.50
764.06	234.24
764.39	234.36
764.71	233.81
765.04	233.50
765.37	233.17
765.69	232.81
766.02	232.40
766.34	232.17
766.67	231.26
767.00	231.29
767.32	232.17
767.65	233.00
767.97	232.71
768.30	232.62
768.62	232.31
768.95	231.86
769.27	231.29
769.60	231.40
769.92	231.05
770.25	230.57
770.57	229.79
770.90	229.64
771.22	229.29
771.55	229.36
771.87	229.00
772.20	228.86
772.52	230.55
772.85	232.88
773.17	232.88
773.50	232.38
773.82	231.93
774.15	230.67
774.47	229.14
774.80	228.60
775.12	228.52
775.45	228.60
775.77	228.71
776.09	228.83
776.42	228.86
776.74	229.29
777.07	229.10
777.39	229.17
777.72	228.52
778.04	228.60
778.36	228.24
778.69	228.33
779.01	228.40
779.33	226.33
779.66	224.05
779.98	223.69
780.31	223.81
780.63	224.69
780.95	224.86
781.28	224.86
781.60	224.83
781.92	224.60
782.25	224.40
782.57	224.29
782.89	224.02
783.22	223.67
783.54	223.19
783.86	223.40
784.19	223.19
784.51	223.83
784.83	223.67
785.16	223.24
785.48	223.36
785.80	223.02
786.12	223.24
786.45	223.29
786.77	223.24
787.09	223.05
787.42	222.26
787.74	222.19
788.06	222.00
788.38	221.76
788.71	221.69
789.03	221.88
789.35	221.81
789.67	221.69
789.99	221.79
790.32	221.52
790.64	221.50
790.96	222.95
791.28	222.24
791.61	222.07
791.93	222.48
792.25	222.02
792.57	223.45
792.89	223.05
793.21	223.10
793.54	222.95
793.86	222.62
794.18	222.62
794.50	222.12
794.82	222.33
795.14	222.55
795.47	222.74
795.79	222.64
796.11	222.02
796.43	221.79
796.75	221.67
797.07	221.60
797.39	221.69
797.71	220.14
798.04	220.29
798.36	220.26
798.68	220.07
799.00	220.14
799.32	219.00
799.64	219.26
799.96	218.95
800.28	219.26
800.60	219.17
800.92	219.31
801.24	219.19
801.56	219.07
801.89	218.79
802.21	219.05
802.53	218.81
802.85	219.29
803.17	220.38
803.49	220.12
803.81	219.86
804.13	219.19
804.45	218.79
804.77	218.95
805.09	218.86
805.41	218.71
805.73	218.31
806.05	217.79
806.37	217.57
806.69	217.31
807.01	217.05
807.33	217.02
807.65	216.31
807.97	217.33
808.28	217.24
808.60	217.14
808.92	216.52
809.24	217.71
809.56	217.48
809.88	216.67
810.20	216.90
810.52	217.55
810.84	217.48
811.16	217.69
811.48	217.38
811.80	218.00
812.12	218.02
812.43	218.33
812.75	218.69
813.07	218.52
813.39	218.67
813.71	218.26
814.03	218.17
814.35	218.21
814.67	217.17
814.98	216.93
815.30	217.19
815.62	217.17
815.94	215.67
816.26	215.86
816.58	215.48
816.89	215.36
817.21	214.64
817.53	215.05
817.85	215.14
818.17	215.21
818.48	214.38
818.80	214.64
819.12	214.45
819.44	214.07
819.76	213.83
820.07	213.79
820.39	214.14
820.71	214.57
821.03	214.43
821.34	214.38
821.66	214.83
821.98	214.83
822.30	214.55
822.61	215.76
822.93	215.60
823.25	215.60
823.57	215.43
823.88	215.88
824.20	215.60
824.52	215.88
824.83	215.83
825.15	215.52
825.47	215.43
825.79	215.60
826.10	215.40
826.42	215.38
826.74	215.55
827.05	215.31
827.37	215.05
827.69	214.83
828.00	215.17
828.32	214.98
828.64	214.67
828.95	215.93
829.27	215.36
829.58	215.21
829.90	215.57
830.22	215.69
830.53	215.40
830.85	215.00
831.17	214.43
831.48	214.33
831.80	214.60
832.11	214.29
832.43	214.00
832.75	214.05
833.06	215.17
833.38	214.52
833.69	214.52
834.01	214.64
834.32	214.76
834.64	214.45
834.96	214.40
835.27	214.57
835.59	213.86
835.90	213.43
836.22	213.48
836.53	213.14
836.85	212.93
837.16	214.88
837.48	215.02
837.79	215.74
838.11	215.71
838.42	215.76
838.74	216.05
839.05	215.88
839.37	215.88
839.68	214.79
840.00	214.88
840.31	215.02
840.63	214.90
840.94	214.67
841.26	214.50
841.57	214.31
841.88	214.55
842.20	214.29
842.51	214.26
842.83	214.24
843.14	215.88
843.46	215.88
843.77	214.81
844.08	214.74
844.40	214.07
844.71	214.17
845.03	214.05
845.34	214.00
845.65	213.95
845.97	214.05
846.28	214.14
846.60	214.38
846.91	214.21
847.22	214.14
847.54	214.79
847.85	214.93
848.16	214.90
848.48	214.26
848.79	215.14
849.10	215.19
849.42	215.29
849.73	213.45
850.04	213.40
850.36	212.62
850.67	212.93
850.98	213.07
851.30	213.19
851.61	213.12
851.92	213.07
852.23	213.83
852.55	213.98
852.86	214.14
853.17	214.02
853.49	214.29
853.80	214.69
854.11	214.64
854.42	214.79
854.74	214.71
855.05	214.81
855.36	213.52
855.67	213.81
855.99	213.79
856.30	216.40
856.61	216.38
856.92	216.40
857.23	216.43
857.55	216.19
857.86	215.95
858.17	216.12
858.48	215.60
858.79	215.05
859.11	214.93
859.42	214.69
859.73	214.50
860.04	214.48
860.35	214.02
860.66	213.52
860.98	213.21
861.29	213.43
861.60	213.48
861.91	214.00
862.22	213.45
862.53	213.02
862.84	210.48
863.16	210.93
863.47	210.40
863.78	210.31
864.09	210.36
864.40	210.57
864.71	210.81
865.02	211.21
865.33	211.19
865.64	211.10
865.95	210.98
866.27	212.38
866.58	211.98
866.89	212.14
867.20	212.29
867.51	212.38
867.82	212.24
868.13	212.83
868.44	212.38
868.75	212.95
869.06	213.10
869.37	213.38
869.68	212.69
869.99	213.31
870.30	213.40
870.61	213.67
870.92	213.31
871.23	213.10
871.54	213.38
871.85	213.69
872.16	213.90
872.47	213.88
872.78	212.79
873.09	213.12
873.40	212.81
873.71	212.55
874.02	212.48
874.33	212.26
874.64	211.81
874.95	212.14
875.26	211.67
875.56	211.86
875.87	211.81
876.18	211.71
876.49	213.55
876.80	213.48
877.11	213.02
877.42	213.38
877.73	213.38
878.04	212.95
878.35	212.98
878.66	212.90
878.96	212.86
879.27	212.76
879.58	212.71
879.89	212.69
880.20	213.71
880.51	213.69
880.82	213.69
881.12	213.60
881.43	213.57
881.74	213.57
882.05	213.31
882.36	213.45
882.67	213.81
882.97	211.90
883.28	211.95
883.59	212.07
883.90	211.98
884.21	212.21
884.51	212.19
884.82	211.79
885.13	211.69
885.44	212.02
885.74	211.95
886.05	211.76
886.36	212.05
886.67	211.17
886.98	212.26
887.28	212.67
887.59	212.86
887.90	212.60
888.20	212.38
888.51	212.69
888.82	212.40
889.13	212.55
889.43	213.81
889.74	213.60
890.05	213.50
890.35	213.33
890.66	213.12
890.97	212.90
891.28	212.90
891.58	213.24
891.89	212.93
892.20	212.76
892.50	212.74
892.81	212.52
893.12	212.40
893.42	211.48
893.73	211.43
894.04	211.43
894.34	211.76
894.65	211.79
894.95	211.64
895.26	211.74
895.57	212.48
895.87	210.81
896.18	211.19
896.48	211.29
896.79	211.36
897.10	211.67
897.40	211.76
897.71	211.93
898.01	211.50
898.32	211.74
898.63	211.79
898.93	211.79
899.24	211.64
899.54	211.71
899.85	211.62
900.15	211.55
900.46	211.52
900.76	211.74
901.07	211.83
901.38	211.81
901.68	211.90
901.99	211.00
902.29	211.19
902.60	211.00
902.90	210.93
903.21	210.95
903.51	210.74
903.82	211.38
904.12	211.55
904.43	211.64
904.73	211.45
905.03	211.57
905.34	213.55
905.64	213.45
905.95	213.60
906.25	213.62
906.56	213.48
906.86	213.40
907.17	213.24
907.47	213.24
907.77	213.14
908.08	212.86
908.38	213.17
908.69	213.33
908.99	213.62
909.30	213.62
909.60	213.60
909.90	213.76
910.21	213.05
910.51	212.90
910.81	213.12
911.12	213.33
911.42	213.40
911.73	211.36
912.03	211.69
912.33	211.90
912.64	212.02
912.94	211.86
913.24	211.57
913.55	211.33
913.85	211.24
914.15	211.76
914.46	211.95
914.76	211.57
915.06	211.40
915.37	211.05
915.67	210.88
915.97	210.81
916.27	210.14
916.58	210.45
916.88	210.29
917.18	210.21
917.49	211.79
917.79	211.74
918.09	211.90
918.39	212.31
918.70	212.14
919.00	211.90
919.30	212.90
919.60	212.79
919.91	212.60
920.21	212.69
920.51	212.10
920.81	211.86
921.12	212.45
921.42	212.60
921.72	212.88
922.02	213.17
922.32	213.40
922.63	213.79
922.93	214.55
923.23	214.62
923.53	214.40
923.83	213.10
924.13	213.48
924.44	213.55
924.74	213.90
925.04	214.57
925.34	214.50
925.64	213.88
925.94	214.07
926.24	215.07
926.55	214.93
926.85	215.55
927.15	215.62
927.45	215.52
927.75	215.50
928.05	215.36
928.35	215.33
928.65	215.74
928.95	215.83
929.26	215.24
929.56	215.71
929.86	216.07
930.16	215.81
930.46	215.43
930.76	215.50
931.06	214.60
931.36	213.93
931.66	214.48
931.96	214.55
932.26	214.50
932.56	213.83
932.86	214.14
933.16	213.83
933.46	213.60
933.76	213.24
934.06	213.79
934.36	214.50
934.66	214.48
934.96	214.21
935.26	214.40
935.56	214.48
935.86	213.79
936.16	213.50
936.46	213.14
936.76	213.19
937.06	212.83
937.36	213.17
937.66	213.36
937.96	213.05
938.26	212.60
938.56	212.62
938.86	212.57
939.16	212.67
939.46	212.90
939.76	213.24
940.06	213.24
940.35	212.69
940.65	211.57
940.95	211.67
941.25	211.17
941.55	210.62
941.85	210.64
942.15	211.17
942.45	211.50
942.75	211.50
943.04	211.33
943.34	211.81
943.64	211.19
943.94	210.76
944.24	211.07
944.54	211.29
944.84	211.45
945.13	211.45
945.43	211.26
945.73	211.14
946.03	210.98
946.33	210.64
946.62	210.50
946.92	210.62
947.22	210.71
947.52	211.02
947.82	211.38
948.11	211.07
948.41	210.48
948.71	209.90
949.01	210.14
949.31	210.14
949.60	210.00
949.90	210.38
950.20	210.38
950.50	210.12
950.79	209.81
951.09	209.79
951.39	209.52
951.69	209.26
951.98	209.67
952.28	209.67
952.58	209.67
952.87	209.57
953.17	209.76
953.47	209.31
953.76	209.21
954.06	208.93
954.36	208.79
954.66	208.86
954.95	209.67
955.25	209.62
955.55	209.81
955.84	209.52
956.14	210.00
956.44	210.05
956.73	209.69
957.03	209.90
957.32	210.00
957.62	209.83
957.92	210.45
958.21	210.21
958.51	212.71
958.81	213.19
959.10	213.60
959.40	213.93
959.69	214.33
959.99	214.43
960.29	214.64
960.58	214.76
960.88	215.57
961.17	215.24
961.47	215.57
961.76	215.38
962.06	215.83
962.36	215.64
962.65	215.67
962.95	215.79
963.24	215.67
963.54	215.74
963.83	216.10
964.13	215.76
964.42	215.14
964.72	213.45
965.01	213.48
965.31	213.24
965.60	213.00
965.90	214.14
966.19	213.86
966.49	213.95
966.78	213.71
967.08	213.50
967.37	213.38
967.67	212.88
967.96	213.36
968.26	213.17
968.55	213.24
968.85	213.21
969.14	213.19
969.43	213.12
969.73	212.79
970.02	212.62
970.32	212.52
970.61	212.76
970.91	211.86
971.20	211.29
971.49	211.17
971.79	211.31
972.08	209.76
972.38	209.90
972.67	209.74
972.96	210.07
973.26	209.76
973.55	210.43
973.85	210.57
974.14	210.10
974.43	210.24
974.73	210.02
975.02	209.90
975.31	210.02
975.61	209.98
975.90	209.83
976.19	209.69
976.49	209.95
976.78	209.86
977.07	209.90
977.37	210.24
977.66	210.26
977.95	209.95
978.24	210.21
978.54	210.48
978.83	210.19
979.12	209.90
979.42	209.95
979.71	209.36
980.00	209.21
980.29	209.31
980.59	208.93
980.88	209.19
981.17	209.31
981.46	209.17
981.76	209.40
982.05	210.05
982.34	210.24
982.63	210.07
982.93	210.14
983.22	210.83
983.51	210.67
983.80	211.12
984.09	211.29
984.39	211.38
984.68	211.12
984.97	211.50
985.26	211.52
985.55	211.60
985.85	211.48
986.14	211.90
986.43	212.24
986.72	212.26
987.01	211.69
987.30	211.60
987.59	211.57
987.89	211.57
988.18	210.90
988.47	210.64
988.76	210.52
989.05	210.21
989.34	209.88
989.63	210.57
989.92	210.02
990.22	209.83
990.51	209.60
990.80	209.64
991.09	209.64
991.38	210.02
991.67	209.95
991.96	209.74
992.25	209.62
992.54	209.14
992.83	209.12
993.12	209.07
993.41	209.43
993.70	210.24
993.99	210.67
994.28	211.07
994.58	211.33
994.87	211.26
995.16	211.50
995.45	211.38
995.74	210.48
996.03	211.05
996.32	211.38
996.61	211.71
996.90	211.45
997.19	211.17
997.48	210.90
997.77	210.57
998.06	210.64
998.34	210.52
998.63	210.67
998.92	210.69
999.21	211.19
999.50	211.24
999.79	210.67
1000.08	210.33
1000.37	210.26
1000.66	210.14
1000.95	210.50
1001.24	210.50
1001.53	210.86
1001.82	211.05
1002.11	210.60
1002.40	210.67
1002.68	211.10
1002.97	212.67
1003.26	212.71
1003.55	212.55
1003.84	212.71
1004.13	213.38
1004.42	213.14
1004.71	213.21
1004.99	213.05
1005.28	213.48
1005.57	213.26
1005.86	213.02
1006.15	213.21
1006.44	213.14
1006.72	213.33
1007.01	213.07
1007.30	213.21
1007.59	212.88
1007.88	212.90
1008.17	212.95
1008.45	212.64
1008.74	211.93
1009.03	211.07
1009.32	211.12
1009.60	211.21
1009.89	210.93
1010.18	210.14
1010.47	210.40
1010.76	210.17
1011.04	210.26
1011.33	210.19
1011.62	210.29
1011.91	210.43
1012.19	210.45
1012.48	210.19
1012.77	210.12
1013.05	211.02
1013.34	210.93
1013.63	210.71
1013.92	210.90
1014.20	210.64
1014.49	210.48
1014.78	210.62
1015.06	209.93
1015.35	209.88
1015.64	210.12
1015.92	210.60
1016.21	210.71
1016.50	210.55
1016.78	211.07
1017.07	211.17
1017.36	210.50
1017.64	210.21
1017.93	210.45
1018.22	210.14
1018.50	210.31
1018.79	210.43
1019.08	209.50
1019.36	209.52
1019.65	209.45
1019.93	209.74
1020.22	210.17
1020.51	211.48
1020.79	211.26
1021.08	208.50
1021.36	208.00
1021.65	212.00
1021.94	208.50
1022.22	210.00
1022.51	206.50
1022.79	217.50
1023.08	213.50
1023.36	235.00
1023.65	205.50
>>>>>End Processed Spectral Data<<<<<
