SpectraSuite Data File
++++++++++++++++++++++++++++++++++++
Date: Tue Apr 02 18:41:26 EDT 2013
User: group
Dark Spectrum Present: No
Reference Spectrum Present: No
Number of Sampled Component Spectra: 1
Spectrometers: USB2E7196
Integration Time (usec): 580000 (USB2E7196)
Spectra Averaged: 2 (USB2E7196)
Boxcar Smoothing: 10 (USB2E7196)
Correct for Electrical Dark: No (USB2E7196)
Strobe/Lamp Enabled: No (USB2E7196)
Correct for Detector Non-linearity: No (USB2E7196)
Correct for Stray Light: No (USB2E7196)
Number of Pixels in Processed Spectrum: 2048
>>>>>Begin Processed Spectral Data<<<<<
339.09	0.00
339.48	192.00
339.86	196.00
340.24	195.00
340.63	193.00
341.01	228.00
341.39	200.00
341.78	208.50
342.16	211.00
342.54	210.00
342.93	198.10
343.31	207.88
343.69	208.48
344.07	209.26
344.46	210.10
344.84	210.83
345.22	209.88
345.60	210.40
345.99	210.43
346.37	210.17
346.75	210.00
347.13	209.83
347.52	209.88
347.90	210.81
348.28	210.95
348.66	211.38
349.05	210.67
349.43	211.10
349.81	211.29
350.19	211.12
350.57	211.21
350.96	211.64
351.34	212.10
351.72	212.38
352.10	212.40
352.48	212.33
352.87	212.36
353.25	212.57
353.63	212.62
354.01	212.76
354.39	213.24
354.77	213.55
355.15	214.21
355.54	214.31
355.92	213.67
356.30	213.64
356.68	214.98
357.06	215.38
357.44	214.86
357.82	214.79
358.20	216.07
358.58	215.88
358.97	215.93
359.35	216.40
359.73	216.81
360.11	216.81
360.49	216.79
360.87	216.88
361.25	216.98
361.63	217.69
362.01	217.79
362.39	217.52
362.77	217.57
363.15	217.38
363.53	217.19
363.91	217.26
364.29	217.36
364.67	215.43
365.05	215.33
365.43	215.83
365.81	216.17
366.19	216.00
366.57	216.76
366.95	216.79
367.33	216.19
367.71	215.98
368.09	216.36
368.47	216.48
368.85	216.38
369.23	216.81
369.61	215.81
369.99	216.31
370.37	216.52
370.75	217.48
371.13	217.05
371.51	216.86
371.89	217.21
372.27	217.00
372.65	217.19
373.03	217.07
373.41	216.88
373.78	216.62
374.16	215.67
374.54	215.05
374.92	214.57
375.30	214.33
375.68	214.02
376.06	214.02
376.44	213.81
376.82	213.95
377.19	213.93
377.57	214.02
377.95	213.43
378.33	213.29
378.71	212.14
379.09	212.43
379.47	212.62
379.84	212.29
380.22	212.29
380.60	211.95
380.98	211.90
381.36	211.83
381.73	211.36
382.11	211.74
382.49	211.83
382.87	211.74
383.25	211.93
383.62	214.36
384.00	213.81
384.38	214.02
384.76	214.57
385.13	215.26
385.51	215.21
385.89	215.02
386.27	215.14
386.64	215.64
387.02	215.38
387.40	215.10
387.78	215.07
388.15	215.19
388.53	215.14
388.91	215.24
389.29	215.17
389.66	215.79
390.04	215.62
390.42	215.88
390.79	216.10
391.17	215.88
391.55	213.69
391.92	213.64
392.30	213.81
392.68	213.12
393.05	212.67
393.43	212.57
393.81	212.55
394.18	212.36
394.56	212.10
394.94	212.62
395.31	212.69
395.69	213.43
396.06	213.79
396.44	213.95
396.82	213.81
397.19	214.83
397.57	214.55
397.95	214.83
398.32	214.21
398.70	214.24
399.07	214.90
399.45	214.62
399.82	214.50
400.20	214.17
400.58	214.31
400.95	213.52
401.33	214.19
401.70	215.76
402.08	215.69
402.45	215.83
402.83	216.14
403.20	216.48
403.58	216.31
403.95	216.62
404.33	216.95
404.71	217.43
405.08	218.57
405.46	218.79
405.83	219.14
406.21	219.67
406.58	220.26
406.96	220.31
407.33	221.40
407.70	222.52
408.08	224.98
408.45	225.83
408.83	227.07
409.20	227.55
409.58	227.17
409.95	228.71
410.33	229.74
410.70	230.17
411.08	231.36
411.45	232.40
411.82	233.31
412.20	235.02
412.57	237.12
412.95	236.69
413.32	238.86
413.69	240.02
414.07	241.64
414.44	243.38
414.82	245.67
415.19	247.88
415.56	249.76
415.94	250.69
416.31	253.67
416.68	256.50
417.06	259.90
417.43	263.38
417.81	266.64
418.18	270.45
418.55	274.38
418.93	278.60
419.30	282.76
419.67	287.50
420.04	291.86
420.42	296.33
420.79	303.64
421.16	309.21
421.54	316.14
421.91	322.76
422.28	329.26
422.66	336.07
423.03	344.29
423.40	351.57
423.77	359.60
424.15	366.81
424.52	374.52
424.89	382.98
425.26	391.21
425.64	399.07
426.01	407.19
426.38	416.26
426.75	425.81
427.13	435.57
427.50	445.21
427.87	455.48
428.24	465.88
428.61	474.52
428.99	486.36
429.36	497.93
429.73	509.83
430.10	521.33
430.47	533.33
430.85	544.02
431.22	556.95
431.59	571.12
431.96	584.14
432.33	598.71
432.70	613.40
433.08	630.12
433.45	646.26
433.82	661.76
434.19	679.31
434.56	696.40
434.93	712.17
435.30	728.79
435.68	746.45
436.05	764.31
436.42	782.19
436.79	798.14
437.16	815.26
437.53	833.64
437.90	852.14
438.27	870.79
438.64	889.19
439.01	906.88
439.38	921.43
439.75	936.83
440.13	954.64
440.50	970.14
440.87	983.10
441.24	996.88
441.61	1012.29
441.98	1023.17
442.35	1035.60
442.72	1049.55
443.09	1063.31
443.46	1071.88
443.83	1076.93
444.20	1081.48
444.57	1087.74
444.94	1091.64
445.31	1094.38
445.68	1099.83
446.05	1100.76
446.42	1100.52
446.79	1099.79
447.16	1098.05
447.53	1097.45
447.90	1090.26
448.27	1083.40
448.64	1074.24
449.01	1067.50
449.37	1056.55
449.74	1045.21
450.11	1033.48
450.48	1018.14
450.85	1001.31
451.22	987.98
451.59	976.24
451.96	964.26
452.33	948.14
452.70	933.48
453.07	916.26
453.43	896.76
453.80	879.93
454.17	862.93
454.54	846.33
454.91	829.36
455.28	812.69
455.65	797.64
456.02	786.36
456.38	774.00
456.75	758.05
457.12	744.33
457.49	731.69
457.86	717.52
458.23	707.19
458.59	696.12
458.96	683.95
459.33	672.74
459.70	662.14
460.07	653.74
460.43	643.48
460.80	634.69
461.17	627.05
461.54	618.38
461.91	610.05
462.27	601.67
462.64	594.45
463.01	586.36
463.38	579.45
463.74	568.00
464.11	560.93
464.48	554.86
464.85	548.00
465.21	542.93
465.58	537.31
465.95	530.24
466.32	524.57
466.68	519.55
467.05	514.24
467.42	509.17
467.78	503.60
468.15	498.29
468.52	494.40
468.88	488.52
469.25	483.74
469.62	480.40
469.98	476.40
470.35	472.86
470.72	469.48
471.08	464.79
471.45	462.36
471.82	459.19
472.18	455.14
472.55	452.76
472.92	449.48
473.28	446.45
473.65	443.79
474.02	440.93
474.38	438.57
474.75	436.79
475.11	434.50
475.48	432.83
475.85	431.24
476.21	429.31
476.58	428.02
476.94	426.95
477.31	425.33
477.67	424.24
478.04	423.36
478.41	422.19
478.77	423.71
479.14	422.55
479.50	421.95
479.87	422.10
480.23	421.43
480.60	420.76
480.96	420.86
481.33	421.57
481.69	421.74
482.06	421.62
482.42	421.48
482.79	421.83
483.15	422.19
483.52	423.21
483.88	423.48
484.25	423.98
484.61	424.81
484.98	425.45
485.34	426.93
485.71	428.50
486.07	429.90
486.44	429.24
486.80	431.14
487.17	432.38
487.53	434.86
487.90	437.14
488.26	440.48
488.62	442.71
488.99	444.40
489.35	447.21
489.72	450.17
490.08	453.33
490.44	455.88
490.81	459.14
491.17	462.24
491.54	466.05
491.90	470.21
492.26	473.79
492.63	477.71
492.99	481.17
493.36	485.10
493.72	489.52
494.08	494.50
494.45	499.26
494.81	504.98
495.17	509.29
495.54	514.57
495.90	519.05
496.26	524.12
496.63	530.48
496.99	535.95
497.35	541.57
497.72	547.31
498.08	553.38
498.44	559.26
498.80	566.00
499.17	572.02
499.53	577.98
499.89	584.74
500.26	591.95
500.62	598.79
500.98	606.00
501.34	612.88
501.71	620.48
502.07	627.29
502.43	633.95
502.79	641.07
503.16	648.43
503.52	655.50
503.88	663.12
504.24	670.95
504.60	679.05
504.97	686.64
505.33	694.31
505.69	703.45
506.05	711.64
506.41	718.81
506.78	726.98
507.14	734.43
507.50	742.81
507.86	750.57
508.22	759.10
508.59	766.83
508.95	775.57
509.31	783.83
509.67	792.07
510.03	800.26
510.39	808.69
510.75	816.76
511.12	824.48
511.48	832.10
511.84	839.38
512.20	846.88
512.56	855.26
512.92	863.21
513.28	870.69
513.64	878.00
514.00	885.60
514.37	893.31
514.73	901.07
515.09	908.71
515.45	916.07
515.81	923.10
516.17	930.45
516.53	936.71
516.89	943.05
517.25	950.31
517.61	957.76
517.97	964.31
518.33	971.00
518.69	978.24
519.05	985.24
519.41	991.95
519.77	999.81
520.13	1005.71
520.49	1011.60
520.85	1017.02
521.21	1024.19
521.57	1030.88
521.93	1036.14
522.29	1042.67
522.65	1047.38
523.01	1053.40
523.37	1058.95
523.73	1064.21
524.09	1069.90
524.45	1074.81
524.81	1079.69
525.17	1084.17
525.53	1089.17
525.89	1093.83
526.25	1099.12
526.61	1103.88
526.97	1108.33
527.33	1111.90
527.68	1117.88
528.04	1122.74
528.40	1127.36
528.76	1131.31
529.12	1135.62
529.48	1141.38
529.84	1145.24
530.20	1150.50
530.56	1154.83
530.91	1159.40
531.27	1164.29
531.63	1168.40
531.99	1172.71
532.35	1176.88
532.71	1181.43
533.07	1186.50
533.42	1193.21
533.78	1197.50
534.14	1202.31
534.50	1205.90
534.86	1211.10
535.21	1214.19
535.57	1219.43
535.93	1222.52
536.29	1227.38
536.65	1232.33
537.00	1235.43
537.36	1239.88
537.72	1243.33
538.08	1246.57
538.44	1249.67
538.79	1253.83
539.15	1257.79
539.51	1262.33
539.87	1266.10
540.22	1269.40
540.58	1272.88
540.94	1274.07
541.29	1277.69
541.65	1280.00
542.01	1284.05
542.37	1286.33
542.72	1288.67
543.08	1290.95
543.44	1295.40
543.79	1296.90
544.15	1299.74
544.51	1303.19
544.87	1306.24
545.22	1310.17
545.58	1313.67
545.94	1317.67
546.29	1320.19
546.65	1323.83
547.01	1326.57
547.36	1329.74
547.72	1332.88
548.07	1335.40
548.43	1338.79
548.79	1341.48
549.14	1345.36
549.50	1348.62
549.86	1351.43
550.21	1355.81
550.57	1358.93
550.92	1361.31
551.28	1365.52
551.64	1368.19
551.99	1372.05
552.35	1375.93
552.70	1379.29
553.06	1383.98
553.41	1387.29
553.77	1392.10
554.13	1396.00
554.48	1400.38
554.84	1405.07
555.19	1409.43
555.55	1415.10
555.90	1419.38
556.26	1423.17
556.61	1426.79
556.97	1430.69
557.32	1435.36
557.68	1439.26
558.03	1444.10
558.39	1448.69
558.74	1453.52
559.10	1458.29
559.45	1461.90
559.81	1465.74
560.16	1469.79
560.52	1473.36
560.87	1478.64
561.23	1482.10
561.58	1487.26
561.94	1491.90
562.29	1496.36
562.64	1502.14
563.00	1506.40
563.35	1510.50
563.71	1515.95
564.06	1522.00
564.42	1526.93
564.77	1532.50
565.12	1538.79
565.48	1546.31
565.83	1552.95
566.19	1558.71
566.54	1564.26
566.89	1569.88
567.25	1576.62
567.60	1583.76
567.96	1592.02
568.31	1598.33
568.66	1605.12
569.02	1609.38
569.37	1614.21
569.72	1620.10
570.08	1624.52
570.43	1629.12
570.78	1635.45
571.14	1640.90
571.49	1644.57
571.84	1650.26
572.20	1655.69
572.55	1660.45
572.90	1662.60
573.26	1666.55
573.61	1670.71
573.96	1675.40
574.31	1680.62
574.67	1684.62
575.02	1687.95
575.37	1688.81
575.72	1690.60
576.08	1694.05
576.43	1697.74
576.78	1701.79
577.13	1704.21
577.49	1707.07
577.84	1711.14
578.19	1714.76
578.54	1718.60
578.90	1723.14
579.25	1726.76
579.60	1728.55
579.95	1730.38
580.30	1733.95
580.66	1737.55
581.01	1740.38
581.36	1741.95
581.71	1744.29
582.06	1747.60
582.42	1750.67
582.77	1754.21
583.12	1757.71
583.47	1759.95
583.82	1763.02
584.17	1765.24
584.53	1768.69
584.88	1771.90
585.23	1774.40
585.58	1775.57
585.93	1776.86
586.28	1778.81
586.63	1780.50
586.98	1783.14
587.34	1787.10
587.69	1788.69
588.04	1789.74
588.39	1791.19
588.74	1792.57
589.09	1794.79
589.44	1794.29
589.79	1794.50
590.14	1795.69
590.49	1796.76
590.84	1796.79
591.19	1798.29
591.54	1798.57
591.89	1798.14
592.25	1800.07
592.60	1799.62
592.95	1800.88
593.30	1801.76
593.65	1801.36
594.00	1800.14
594.35	1805.69
594.70	1803.26
595.05	1803.57
595.40	1802.90
595.75	1802.69
596.10	1803.81
596.45	1803.29
596.80	1803.64
597.15	1803.67
597.50	1802.67
597.85	1803.19
598.19	1803.88
598.54	1803.62
598.89	1803.19
599.24	1803.69
599.59	1801.43
599.94	1801.74
600.29	1801.24
600.64	1799.52
600.99	1798.74
601.34	1799.43
601.69	1793.26
602.04	1792.64
602.39	1791.71
602.74	1792.67
603.08	1791.26
603.43	1790.57
603.78	1789.14
604.13	1787.31
604.48	1786.10
604.83	1785.50
605.18	1783.64
605.53	1781.76
605.87	1779.64
606.22	1777.95
606.57	1776.05
606.92	1775.02
607.27	1773.17
607.62	1771.79
607.96	1770.81
608.31	1770.52
608.66	1768.71
609.01	1765.83
609.36	1764.81
609.70	1761.00
610.05	1757.00
610.40	1754.81
610.75	1751.60
611.10	1749.83
611.44	1747.31
611.79	1743.60
612.14	1739.71
612.49	1735.90
612.83	1732.55
613.18	1728.98
613.53	1725.55
613.88	1720.76
614.22	1716.48
614.57	1711.17
614.92	1706.26
615.27	1701.88
615.61	1696.50
615.96	1691.38
616.31	1687.88
616.65	1683.50
617.00	1681.02
617.35	1677.10
617.70	1672.17
618.04	1668.00
618.39	1661.57
618.74	1657.05
619.08	1651.95
619.43	1646.90
619.78	1642.21
620.12	1638.05
620.47	1632.90
620.82	1627.86
621.16	1622.95
621.51	1618.64
621.85	1614.48
622.20	1609.12
622.55	1602.90
622.89	1598.62
623.24	1594.31
623.59	1588.88
623.93	1584.29
624.28	1579.38
624.62	1576.88
624.97	1573.98
625.32	1568.29
625.66	1564.98
626.01	1560.40
626.35	1557.55
626.70	1554.45
627.04	1551.24
627.39	1545.57
627.73	1541.31
628.08	1537.33
628.43	1533.86
628.77	1529.36
629.12	1524.57
629.46	1521.10
629.81	1518.07
630.15	1512.45
630.50	1506.95
630.84	1501.00
631.19	1494.45
631.53	1488.12
631.88	1479.55
632.22	1472.31
632.57	1468.10
632.91	1461.83
633.26	1456.33
633.60	1449.43
633.95	1442.55
634.29	1435.14
634.64	1430.10
634.98	1423.79
635.32	1418.88
635.67	1413.48
636.01	1407.45
636.36	1401.90
636.70	1396.19
637.05	1390.52
637.39	1385.17
637.73	1379.90
638.08	1375.93
638.42	1371.36
638.77	1366.60
639.11	1361.69
639.45	1356.02
639.80	1349.17
640.14	1343.88
640.49	1337.69
640.83	1331.81
641.17	1326.50
641.52	1320.69
641.86	1315.14
642.20	1311.02
642.55	1303.40
642.89	1295.88
643.23	1289.38
643.58	1283.64
643.92	1276.55
644.26	1269.33
644.61	1263.50
644.95	1256.79
645.29	1249.81
645.64	1243.55
645.98	1236.31
646.32	1230.12
646.66	1223.62
647.01	1217.05
647.35	1210.57
647.69	1204.50
648.04	1198.48
648.38	1192.64
648.72	1186.76
649.06	1179.64
649.41	1171.62
649.75	1165.33
650.09	1159.33
650.43	1152.79
650.78	1146.33
651.12	1139.79
651.46	1133.29
651.80	1126.21
652.14	1120.17
652.49	1113.86
652.83	1107.14
653.17	1100.79
653.51	1094.29
653.85	1088.24
654.20	1081.71
654.54	1074.57
654.88	1067.98
655.22	1062.17
655.56	1054.86
655.90	1047.81
656.25	1041.60
656.59	1035.98
656.93	1030.21
657.27	1024.86
657.61	1018.81
657.95	1012.00
658.29	1005.50
658.64	999.83
658.98	993.55
659.32	986.55
659.66	980.29
660.00	973.93
660.34	967.26
660.68	961.17
661.02	954.40
661.36	948.64
661.70	943.00
662.05	937.19
662.39	930.86
662.73	925.67
663.07	921.19
663.41	915.02
663.75	908.07
664.09	901.95
664.43	895.76
664.77	889.69
665.11	883.64
665.45	878.05
665.79	872.07
666.13	866.10
666.47	860.67
666.81	855.07
667.15	849.52
667.49	845.19
667.83	839.98
668.17	834.76
668.51	829.24
668.85	823.52
669.19	819.45
669.53	813.81
669.87	807.76
670.21	801.57
670.55	795.48
670.89	791.29
671.23	786.29
671.57	780.76
671.91	775.31
672.25	770.29
672.58	765.67
672.92	760.50
673.26	755.76
673.60	751.02
673.94	745.64
674.28	740.74
674.62	735.69
674.96	730.21
675.30	725.64
675.64	721.36
675.97	716.60
676.31	710.79
676.65	705.79
676.99	701.98
677.33	697.62
677.67	694.00
678.01	688.45
678.34	684.10
678.68	680.21
679.02	675.45
679.36	671.14
679.70	665.86
680.04	661.10
680.37	656.45
680.71	651.79
681.05	648.19
681.39	643.71
681.73	639.07
682.06	634.55
682.40	630.12
682.74	625.88
683.08	622.36
683.42	618.07
683.75	614.19
684.09	609.24
684.43	604.79
684.77	600.12
685.10	596.14
685.44	591.43
685.78	586.74
686.12	583.00
686.45	578.62
686.79	574.69
687.13	571.29
687.46	567.43
687.80	564.21
688.14	559.60
688.48	555.90
688.81	551.79
689.15	548.98
689.49	545.33
689.82	541.14
690.16	536.12
690.50	532.14
690.83	528.07
691.17	523.83
691.51	519.55
691.84	516.43
692.18	512.76
692.52	509.31
692.85	506.10
693.19	503.52
693.52	500.12
693.86	496.38
694.20	492.98
694.53	489.38
694.87	485.36
695.21	481.81
695.54	478.17
695.88	474.67
696.21	470.48
696.55	467.14
696.88	463.79
697.22	460.88
697.56	457.90
697.89	454.79
698.23	452.33
698.56	449.33
698.90	446.48
699.23	443.79
699.57	440.81
699.90	437.57
700.24	433.62
700.58	430.90
700.91	428.67
701.25	427.38
701.58	425.50
701.92	423.14
702.25	420.62
702.59	417.81
702.92	415.57
703.26	413.02
703.59	410.64
703.93	410.26
704.26	408.43
704.60	405.98
704.93	403.29
705.26	400.76
705.60	398.90
705.93	396.21
706.27	394.31
706.60	392.43
706.94	390.95
707.27	388.76
707.61	386.50
707.94	384.12
708.27	380.48
708.61	377.81
708.94	375.71
709.28	373.76
709.61	371.86
709.94	369.74
710.28	368.05
710.61	366.10
710.95	362.21
711.28	361.33
711.61	359.52
711.95	358.74
712.28	356.57
712.61	354.90
712.95	354.05
713.28	352.69
713.61	350.90
713.95	348.71
714.28	347.24
714.61	345.79
714.95	344.29
715.28	342.33
715.61	340.52
715.95	339.26
716.28	337.76
716.61	336.50
716.95	334.81
717.28	333.07
717.61	331.14
717.94	329.38
718.28	326.40
718.61	324.81
718.94	322.90
719.27	321.81
719.61	320.36
719.94	318.38
720.27	316.12
720.60	314.31
720.94	312.69
721.27	311.24
721.60	310.19
721.93	308.71
722.27	308.43
722.60	307.45
722.93	305.83
723.26	304.74
723.59	303.26
723.93	302.57
724.26	301.67
724.59	300.81
724.92	300.17
725.25	299.90
725.59	298.60
725.92	297.74
726.25	296.62
726.58	295.57
726.91	294.55
727.24	294.00
727.57	293.12
727.91	292.10
728.24	291.26
728.57	290.02
728.90	289.71
729.23	288.02
729.56	288.31
729.89	287.64
730.22	286.60
730.55	285.93
730.89	284.93
731.22	283.88
731.55	282.74
731.88	281.95
732.21	280.71
732.54	279.93
732.87	278.93
733.20	278.38
733.53	277.60
733.86	277.10
734.19	275.81
734.52	275.57
734.85	276.57
735.18	275.67
735.51	275.69
735.84	274.83
736.17	274.69
736.50	272.86
736.83	274.45
737.16	273.74
737.49	273.14
737.82	272.38
738.15	272.10
738.48	271.71
738.81	270.62
739.14	270.05
739.47	269.50
739.80	268.98
740.13	268.21
740.46	267.24
740.79	266.14
741.12	265.81
741.45	264.74
741.78	262.83
742.11	263.07
742.44	261.88
742.77	261.64
743.10	260.69
743.43	259.98
743.75	257.24
744.08	259.45
744.41	258.62
744.74	258.19
745.07	257.05
745.40	256.93
745.73	257.57
746.06	256.90
746.39	256.62
746.71	256.02
747.04	255.33
747.37	254.98
747.70	254.95
748.03	254.64
748.36	254.50
748.68	254.14
749.01	252.76
749.34	252.17
749.67	251.52
750.00	251.52
750.33	252.67
750.65	252.48
750.98	249.40
751.31	249.31
751.64	248.90
751.97	249.93
752.29	249.24
752.62	248.02
752.95	247.45
753.28	246.69
753.60	246.14
753.93	246.36
754.26	246.38
754.59	245.50
754.91	244.79
755.24	244.36
755.57	243.81
755.90	243.48
756.22	243.17
756.55	242.50
756.88	241.71
757.20	239.95
757.53	238.95
757.86	238.71
758.19	238.45
758.51	238.10
758.84	236.48
759.17	235.86
759.49	235.64
759.82	236.62
760.15	236.69
760.47	236.48
760.80	235.69
761.13	235.36
761.45	234.83
761.78	234.69
762.11	234.48
762.43	233.76
762.76	233.62
763.08	233.67
763.41	233.76
763.74	233.69
764.06	233.52
764.39	233.62
764.71	233.43
765.04	232.88
765.37	232.29
765.69	232.24
766.02	232.02
766.34	231.64
766.67	230.43
767.00	230.48
767.32	231.29
767.65	232.33
767.97	232.10
768.30	232.33
768.62	232.26
768.95	231.93
769.27	232.00
769.60	232.07
769.92	231.40
770.25	230.93
770.57	230.40
770.90	230.05
771.22	229.38
771.55	229.26
771.87	229.14
772.20	228.83
772.52	230.38
772.85	232.74
773.17	232.62
773.50	232.24
773.82	231.93
774.15	230.62
774.47	229.10
774.80	228.57
775.12	228.21
775.45	227.74
775.77	227.88
776.09	228.19
776.42	228.00
776.74	228.45
777.07	228.10
777.39	227.98
777.72	227.81
778.04	228.31
778.36	228.14
778.69	228.10
779.01	228.50
779.33	226.52
779.66	224.14
779.98	223.83
780.31	223.98
780.63	224.48
780.95	224.95
781.28	225.07
781.60	224.95
781.92	224.88
782.25	224.79
782.57	224.38
782.89	223.71
783.22	223.33
783.54	222.57
783.86	222.64
784.19	222.57
784.51	223.14
784.83	222.52
785.16	222.12
785.48	221.90
785.80	221.55
786.12	221.79
786.45	221.48
786.77	221.60
787.09	221.24
787.42	220.45
787.74	220.19
788.06	220.07
788.38	219.81
788.71	219.55
789.03	219.67
789.35	219.86
789.67	219.55
789.99	219.62
790.32	219.52
790.64	219.83
790.96	221.45
791.28	220.52
791.61	220.45
791.93	220.62
792.25	220.67
792.57	222.14
792.89	221.52
793.21	221.67
793.54	221.40
793.86	221.40
794.18	221.69
794.50	221.31
794.82	221.26
795.14	221.57
795.47	221.86
795.79	221.95
796.11	221.40
796.43	221.52
796.75	221.64
797.07	221.79
797.39	221.57
797.71	219.90
798.04	220.07
798.36	220.05
798.68	219.83
799.00	219.88
799.32	218.62
799.64	219.02
799.96	219.10
800.28	219.55
800.60	219.26
800.92	219.29
801.24	219.40
801.56	219.43
801.89	219.36
802.21	219.50
802.53	218.88
802.85	219.12
803.17	220.05
803.49	219.33
803.81	219.29
804.13	219.02
804.45	218.81
804.77	219.10
805.09	219.07
805.41	218.86
805.73	218.45
806.05	218.17
806.37	218.14
806.69	217.86
807.01	217.52
807.33	218.05
807.65	217.00
807.97	217.79
808.28	217.60
808.60	217.40
808.92	217.10
809.24	218.50
809.56	218.38
809.88	217.62
810.20	218.07
810.52	218.50
810.84	218.29
811.16	217.93
811.48	217.60
811.80	218.57
812.12	218.43
812.43	218.64
812.75	218.90
813.07	218.55
813.39	218.83
813.71	218.52
814.03	218.00
814.35	218.33
814.67	217.36
814.98	217.00
815.30	217.07
815.62	216.62
815.94	215.07
816.26	215.14
816.58	214.69
816.89	214.67
817.21	214.10
817.53	214.19
817.85	214.52
818.17	214.52
818.48	213.55
818.80	214.05
819.12	213.88
819.44	213.36
819.76	213.21
820.07	212.98
820.39	213.14
820.71	213.14
821.03	213.14
821.34	213.14
821.66	213.71
821.98	213.93
822.30	214.00
822.61	215.43
822.93	215.33
823.25	215.55
823.57	215.31
823.88	215.71
824.20	215.62
824.52	215.62
824.83	215.57
825.15	215.36
825.47	215.33
825.79	215.45
826.10	215.52
826.42	215.60
826.74	215.79
827.05	215.52
827.37	215.62
827.69	215.52
828.00	215.74
828.32	215.48
828.64	215.10
828.95	216.00
829.27	215.43
829.58	215.33
829.90	215.43
830.22	215.74
830.53	215.07
830.85	215.19
831.17	215.07
831.48	215.12
831.80	215.17
832.11	214.95
832.43	214.74
832.75	214.62
833.06	215.67
833.38	215.14
833.69	215.19
834.01	215.31
834.32	215.17
834.64	215.00
834.96	215.21
835.27	215.19
835.59	214.67
835.90	214.33
836.22	214.21
836.53	213.74
836.85	213.50
837.16	215.79
837.48	215.64
837.79	216.19
838.11	216.24
838.42	216.26
838.74	216.38
839.05	216.33
839.37	216.24
839.68	214.79
840.00	214.76
840.31	215.10
840.63	214.88
840.94	214.50
841.26	214.19
841.57	214.12
841.88	214.36
842.20	214.07
842.51	213.90
842.83	214.02
843.14	216.00
843.46	215.88
843.77	214.86
844.08	214.62
844.40	214.00
844.71	213.67
845.03	213.48
845.34	213.43
845.65	213.21
845.97	213.24
846.28	213.81
846.60	214.07
846.91	213.57
847.22	213.48
847.54	214.36
847.85	214.57
848.16	214.43
848.48	214.12
848.79	215.10
849.10	215.07
849.42	215.21
849.73	213.24
850.04	213.48
850.36	212.36
850.67	212.93
850.98	212.95
851.30	213.19
851.61	213.36
851.92	213.31
852.23	214.00
852.55	214.29
852.86	214.17
853.17	214.17
853.49	214.71
853.80	215.26
854.11	215.40
854.42	215.79
854.74	215.40
855.05	215.64
855.36	214.36
855.67	214.71
855.99	214.52
856.30	217.07
856.61	216.81
856.92	217.14
857.23	217.02
857.55	216.88
857.86	217.00
858.17	217.43
858.48	217.12
858.79	216.69
859.11	216.93
859.42	216.69
859.73	216.43
860.04	216.31
860.35	215.60
860.66	214.76
860.98	214.38
861.29	214.81
861.60	214.57
861.91	214.90
862.22	214.36
862.53	214.12
862.84	211.69
863.16	212.55
863.47	212.12
863.78	212.00
864.09	212.29
864.40	212.31
864.71	212.07
865.02	212.48
865.33	212.26
865.64	211.83
865.95	211.88
866.27	213.50
866.58	213.38
866.89	213.88
867.20	214.00
867.51	213.83
867.82	213.86
868.13	214.55
868.44	214.36
868.75	214.88
869.06	215.10
869.37	215.33
869.68	214.21
869.99	214.81
870.30	214.86
870.61	214.93
870.92	214.48
871.23	214.33
871.54	214.36
871.85	214.86
872.16	214.95
872.47	214.81
872.78	213.38
873.09	213.50
873.40	213.12
873.71	213.17
874.02	213.21
874.33	212.76
874.64	212.24
874.95	212.79
875.26	212.40
875.56	212.31
875.87	212.19
876.18	212.43
876.49	214.17
876.80	214.12
877.11	213.71
877.42	213.95
877.73	213.98
878.04	213.79
878.35	213.88
878.66	214.12
878.96	214.12
879.27	214.02
879.58	214.12
879.89	213.95
880.20	214.52
880.51	214.48
880.82	214.38
881.12	214.38
881.43	213.81
881.74	213.52
882.05	213.48
882.36	213.62
882.67	213.69
882.97	211.50
883.28	211.40
883.59	211.45
883.90	211.45
884.21	211.71
884.51	211.64
884.82	211.29
885.13	211.21
885.44	211.12
885.74	211.29
886.05	211.10
886.36	211.36
886.67	210.52
886.98	211.50
887.28	211.86
887.59	211.93
887.90	211.90
888.20	211.79
888.51	212.40
888.82	212.02
889.13	212.29
889.43	213.90
889.74	213.79
890.05	213.67
890.35	213.64
890.66	213.21
890.97	213.10
891.28	212.86
891.58	212.55
891.89	212.67
892.20	212.10
892.50	211.98
892.81	211.69
893.12	211.69
893.42	210.86
893.73	210.90
894.04	210.83
894.34	211.05
894.65	211.14
894.95	210.69
895.26	210.83
895.57	211.38
895.87	209.57
896.18	209.93
896.48	210.12
896.79	210.19
897.10	210.55
897.40	210.57
897.71	210.98
898.01	211.10
898.32	211.40
898.63	211.57
898.93	211.57
899.24	211.79
899.54	212.07
899.85	211.86
900.15	211.83
900.46	211.81
900.76	212.31
901.07	212.21
901.38	212.10
901.68	212.48
901.99	211.52
902.29	211.74
902.60	211.52
902.90	211.55
903.21	211.31
903.51	211.29
903.82	211.57
904.12	211.45
904.43	211.74
904.73	211.55
905.03	211.76
905.34	213.52
905.64	213.48
905.95	213.36
906.25	213.55
906.56	213.38
906.86	213.60
907.17	213.12
907.47	213.29
907.77	213.19
908.08	212.67
908.38	212.81
908.69	212.81
908.99	213.21
909.30	213.14
909.60	213.24
909.90	213.43
910.21	213.05
910.51	212.81
910.81	212.74
911.12	213.00
911.42	213.19
911.73	211.21
912.03	211.43
912.33	211.88
912.64	211.62
912.94	211.62
913.24	211.02
913.55	211.00
913.85	210.86
914.15	211.00
914.46	211.26
914.76	211.17
915.06	211.14
915.37	210.64
915.67	210.55
915.97	210.71
916.27	210.19
916.58	210.33
916.88	210.45
917.18	210.14
917.49	211.38
917.79	210.90
918.09	211.07
918.39	211.40
918.70	211.31
919.00	211.38
919.30	212.40
919.60	212.45
919.91	212.24
920.21	212.21
920.51	212.07
920.81	211.79
921.12	212.14
921.42	212.14
921.72	212.29
922.02	212.26
922.32	212.24
922.63	212.29
922.93	213.14
923.23	213.10
923.53	212.81
923.83	211.45
924.13	211.88
924.44	211.98
924.74	212.19
925.04	212.50
925.34	212.45
925.64	211.50
925.94	211.60
926.24	212.74
926.55	212.83
926.85	213.12
927.15	213.24
927.45	213.14
927.75	213.12
928.05	213.17
928.35	213.17
928.65	213.52
928.95	213.74
929.26	212.86
929.56	213.40
929.86	213.69
930.16	213.55
930.46	213.31
930.76	213.48
931.06	212.81
931.36	212.26
931.66	212.76
931.96	213.10
932.26	213.12
932.56	212.24
932.86	212.48
933.16	212.38
933.46	212.33
933.76	212.19
934.06	212.69
934.36	213.40
934.66	213.21
934.96	213.05
935.26	212.81
935.56	213.36
935.86	212.55
936.16	212.52
936.46	212.26
936.76	212.26
937.06	211.95
937.36	211.79
937.66	211.81
937.96	211.60
938.26	211.05
938.56	211.02
938.86	211.36
939.16	211.60
939.46	211.88
939.76	211.90
940.06	212.07
940.35	211.62
940.65	210.64
940.95	210.90
941.25	210.40
941.55	210.36
941.85	209.90
942.15	210.64
942.45	210.98
942.75	211.00
943.04	211.19
943.34	211.48
943.64	211.50
943.94	211.31
944.24	211.43
944.54	211.71
944.84	211.57
945.13	211.00
945.43	210.69
945.73	210.50
946.03	210.31
946.33	209.98
946.62	209.83
946.92	209.69
947.22	210.00
947.52	210.26
947.82	210.71
948.11	210.88
948.41	210.36
948.71	209.95
949.01	210.12
949.31	210.14
949.60	210.07
949.90	210.24
950.20	210.26
950.50	210.21
950.79	209.98
951.09	210.33
951.39	210.40
951.69	210.10
951.98	210.55
952.28	210.88
952.58	210.81
952.87	210.64
953.17	210.93
953.47	210.64
953.76	210.76
954.06	210.02
954.36	209.48
954.66	209.43
954.95	209.98
955.25	210.14
955.55	210.14
955.84	209.95
956.14	210.02
956.44	210.21
956.73	209.95
957.03	210.36
957.32	210.36
957.62	210.24
957.92	210.81
958.21	210.45
958.51	212.74
958.81	213.02
959.10	213.52
959.40	213.79
959.69	213.88
959.99	213.95
960.29	214.19
960.58	214.43
960.88	215.07
961.17	214.95
961.47	215.17
961.76	215.07
962.06	215.57
962.36	215.48
962.65	215.55
962.95	215.48
963.24	215.12
963.54	215.12
963.83	215.62
964.13	215.38
964.42	215.05
964.72	213.43
965.01	213.50
965.31	213.31
965.60	213.10
965.90	214.36
966.19	213.86
966.49	214.07
966.78	213.95
967.08	213.74
967.37	213.67
967.67	213.38
967.96	213.67
968.26	213.62
968.55	214.12
968.85	213.86
969.14	213.98
969.43	213.95
969.73	213.74
970.02	213.26
970.32	213.14
970.61	212.90
970.91	212.26
971.20	212.05
971.49	212.02
971.79	212.43
972.08	211.00
972.38	211.31
972.67	210.95
972.96	211.31
973.26	210.98
973.55	211.36
973.85	211.12
974.14	210.95
974.43	210.74
974.73	210.31
975.02	210.21
975.31	210.17
975.61	209.98
975.90	209.98
976.19	210.00
976.49	210.21
976.78	210.67
977.07	210.40
977.37	210.52
977.66	210.60
977.95	210.17
978.24	210.29
978.54	210.64
978.83	210.57
979.12	210.26
979.42	210.31
979.71	210.07
980.00	210.24
980.29	210.33
980.59	209.83
980.88	210.43
981.17	210.48
981.46	210.48
981.76	210.60
982.05	211.38
982.34	211.67
982.63	211.71
982.93	211.62
983.22	212.45
983.51	212.52
983.80	212.81
984.09	213.07
984.39	212.88
984.68	212.67
984.97	212.98
985.26	213.00
985.55	213.26
985.85	212.79
986.14	213.05
986.43	213.12
986.72	213.36
987.01	212.40
987.30	212.26
987.59	212.10
987.89	212.29
988.18	211.31
988.47	210.93
988.76	210.74
989.05	210.52
989.34	209.88
989.63	210.29
989.92	209.90
990.22	209.40
990.51	209.60
990.80	209.50
991.09	209.55
991.38	209.76
991.67	209.50
991.96	209.38
992.25	209.33
992.54	209.02
992.83	209.05
993.12	209.19
993.41	209.50
993.70	210.50
993.99	210.74
994.28	211.05
994.58	211.38
994.87	211.14
995.16	211.05
995.45	211.02
995.74	210.26
996.03	210.76
996.32	211.33
996.61	211.60
996.90	211.45
997.19	211.60
997.48	211.62
997.77	211.50
998.06	211.71
998.34	211.57
998.63	211.69
998.92	211.83
999.21	212.26
999.50	212.21
999.79	211.40
1000.08	211.26
1000.37	211.29
1000.66	211.02
1000.95	211.55
1001.24	211.98
1001.53	212.17
1001.82	212.07
1002.11	211.45
1002.40	211.43
1002.68	212.00
1002.97	213.60
1003.26	213.29
1003.55	213.02
1003.84	212.98
1004.13	213.57
1004.42	213.50
1004.71	213.38
1004.99	213.07
1005.28	213.48
1005.57	213.55
1005.86	213.52
1006.15	213.55
1006.44	213.21
1006.72	213.31
1007.01	213.07
1007.30	212.83
1007.59	212.81
1007.88	213.00
1008.17	213.19
1008.45	212.76
1008.74	211.76
1009.03	210.50
1009.32	210.26
1009.60	210.24
1009.89	210.29
1010.18	209.64
1010.47	209.62
1010.76	209.57
1011.04	209.55
1011.33	209.38
1011.62	209.55
1011.91	209.43
1012.19	209.38
1012.48	209.62
1012.77	209.67
1013.05	210.60
1013.34	210.50
1013.63	210.40
1013.92	210.50
1014.20	210.29
1014.49	210.60
1014.78	210.98
1015.06	210.40
1015.35	210.64
1015.64	211.07
1015.92	211.52
1016.21	211.64
1016.50	211.45
1016.78	211.67
1017.07	211.93
1017.36	211.55
1017.64	211.31
1017.93	211.64
1018.22	211.40
1018.50	211.43
1018.79	211.48
1019.08	210.67
1019.36	210.98
1019.65	210.62
1019.93	211.26
1020.22	211.60
1020.51	212.50
1020.79	212.02
1021.08	206.50
1021.36	209.50
1021.65	212.00
1021.94	213.50
1022.22	213.50
1022.51	203.50
1022.79	223.00
1023.08	213.50
1023.36	234.50
1023.65	203.50
>>>>>End Processed Spectral Data<<<<<
