SpectraSuite Data File
++++++++++++++++++++++++++++++++++++
Date: Tue Apr 02 18:41:54 EDT 2013
User: group
Dark Spectrum Present: No
Reference Spectrum Present: No
Number of Sampled Component Spectra: 1
Spectrometers: USB2E7196
Integration Time (usec): 580000 (USB2E7196)
Spectra Averaged: 2 (USB2E7196)
Boxcar Smoothing: 10 (USB2E7196)
Correct for Electrical Dark: No (USB2E7196)
Strobe/Lamp Enabled: No (USB2E7196)
Correct for Detector Non-linearity: No (USB2E7196)
Correct for Stray Light: No (USB2E7196)
Number of Pixels in Processed Spectrum: 2048
>>>>>Begin Processed Spectral Data<<<<<
339.09	0.00
339.48	194.50
339.86	197.00
340.24	196.50
340.63	198.50
341.01	233.50
341.39	200.50
341.78	207.50
342.16	211.00
342.54	207.50
342.93	198.10
343.31	207.98
343.69	208.50
344.07	208.90
344.46	209.74
344.84	210.57
345.22	209.26
345.60	209.83
345.99	209.98
346.37	209.95
346.75	209.98
347.13	210.29
347.52	210.43
347.90	211.21
348.28	211.52
348.66	211.88
349.05	211.07
349.43	211.36
349.81	211.40
350.19	211.48
350.57	211.60
350.96	211.95
351.34	212.36
351.72	212.36
352.10	212.52
352.48	212.29
352.87	211.90
353.25	212.12
353.63	212.02
354.01	211.90
354.39	212.17
354.77	212.36
355.15	212.81
355.54	212.79
355.92	212.24
356.30	212.12
356.68	213.45
357.06	213.79
357.44	213.43
357.82	213.40
358.20	214.29
358.58	214.26
358.97	214.24
359.35	214.55
359.73	215.26
360.11	215.10
360.49	215.14
360.87	215.24
361.25	215.57
361.63	216.17
362.01	216.36
362.39	216.12
362.77	216.36
363.15	216.17
363.53	216.24
363.91	216.33
364.29	216.31
364.67	214.38
365.05	214.55
365.43	214.74
365.81	215.00
366.19	215.17
366.57	216.02
366.95	215.98
367.33	215.31
367.71	215.21
368.09	215.90
368.47	215.90
368.85	215.64
369.23	216.05
369.61	215.24
369.99	216.00
370.37	216.36
370.75	217.10
371.13	216.57
371.51	216.10
371.89	216.12
372.27	216.31
372.65	216.55
373.03	216.50
373.41	216.45
373.78	216.38
374.16	215.00
374.54	214.29
374.92	214.10
375.30	214.21
375.68	213.55
376.06	213.38
376.44	213.40
376.82	213.88
377.19	213.79
377.57	213.98
377.95	213.26
378.33	213.00
378.71	211.86
379.09	212.33
379.47	212.67
379.84	212.67
380.22	212.21
380.60	211.95
380.98	211.88
381.36	211.95
381.73	211.50
382.11	212.19
382.49	212.33
382.87	212.00
383.25	212.00
383.62	214.50
384.00	214.17
384.38	214.26
384.76	214.57
385.13	215.14
385.51	214.88
385.89	214.62
386.27	214.86
386.64	215.10
387.02	214.90
387.40	214.60
387.78	214.52
388.15	214.83
388.53	214.93
388.91	214.93
389.29	214.55
389.66	214.93
390.04	214.81
390.42	215.05
390.79	215.29
391.17	215.36
391.55	213.36
391.92	213.38
392.30	213.69
392.68	213.48
393.05	213.26
393.43	213.50
393.81	213.69
394.18	213.29
394.56	213.31
394.94	213.79
395.31	214.02
395.69	214.90
396.06	215.24
396.44	215.52
396.82	215.26
397.19	216.79
397.57	216.93
397.95	217.21
398.32	216.69
398.70	216.90
399.07	217.07
399.45	216.79
399.82	217.05
400.20	216.60
400.58	216.33
400.95	215.45
401.33	216.14
401.70	217.55
402.08	217.60
402.45	217.69
402.83	217.95
403.20	218.07
403.58	217.79
403.95	218.26
404.33	218.40
404.71	218.81
405.08	219.64
405.46	219.52
405.83	219.60
406.21	219.95
406.58	220.45
406.96	221.00
407.33	221.86
407.70	222.43
408.08	224.98
408.45	225.83
408.83	226.93
409.20	227.29
409.58	227.14
409.95	228.33
410.33	229.45
410.70	229.71
411.08	231.02
411.45	232.14
411.82	232.95
412.20	234.69
412.57	237.29
412.95	237.10
413.32	239.05
413.69	240.64
414.07	242.57
414.44	244.38
414.82	246.31
415.19	248.62
415.56	250.98
415.94	252.05
416.31	254.90
416.68	257.79
417.06	261.24
417.43	264.62
417.81	268.33
418.18	271.79
418.55	276.14
418.93	279.79
419.30	284.19
419.67	288.43
420.04	293.10
420.42	297.00
420.79	304.26
421.16	309.90
421.54	316.74
421.91	322.64
422.28	328.71
422.66	335.40
423.03	343.10
423.40	349.67
423.77	357.00
424.15	364.55
424.52	372.55
424.89	381.14
425.26	389.00
425.64	396.24
426.01	405.24
426.38	414.05
426.75	424.29
427.13	433.86
427.50	443.83
427.87	453.43
428.24	464.33
428.61	472.86
428.99	484.38
429.36	495.17
429.73	507.21
430.10	518.62
430.47	530.36
430.85	541.19
431.22	554.52
431.59	569.38
431.96	582.17
432.33	596.83
432.70	610.26
433.08	626.86
433.45	642.55
433.82	657.88
434.19	675.40
434.56	692.26
434.93	707.79
435.30	724.02
435.68	742.36
436.05	759.43
436.42	776.36
436.79	792.02
437.16	810.14
437.53	828.21
437.90	846.90
438.27	864.79
438.64	883.43
439.01	901.33
439.38	915.71
439.75	930.64
440.13	947.38
440.50	963.40
440.87	975.81
441.24	989.71
441.61	1004.83
441.98	1015.90
442.35	1028.36
442.72	1042.21
443.09	1056.17
443.46	1064.10
443.83	1069.86
444.20	1075.33
444.57	1081.43
444.94	1084.62
445.31	1087.76
445.68	1093.62
446.05	1095.02
446.42	1094.12
446.79	1092.45
447.16	1090.38
447.53	1089.05
447.90	1082.64
448.27	1076.24
448.64	1067.76
449.01	1061.29
449.37	1049.76
449.74	1037.98
450.11	1025.71
450.48	1010.26
450.85	993.64
451.22	980.45
451.59	968.31
451.96	956.40
452.33	941.14
452.70	926.14
453.07	908.93
453.43	888.62
453.80	872.33
454.17	855.95
454.54	840.07
454.91	823.05
455.28	807.00
455.65	791.40
456.02	780.02
456.38	767.57
456.75	752.07
457.12	738.10
457.49	725.52
457.86	711.50
458.23	701.19
458.59	689.62
458.96	677.62
459.33	666.90
459.70	656.02
460.07	647.69
460.43	637.81
460.80	628.79
461.17	621.81
461.54	613.50
461.91	605.29
462.27	596.74
462.64	589.81
463.01	582.10
463.38	575.71
463.74	564.21
464.11	556.86
464.48	550.69
464.85	544.48
465.21	539.60
465.58	534.71
465.95	528.19
466.32	523.12
466.68	517.43
467.05	511.62
467.42	506.29
467.78	500.31
468.15	495.45
468.52	492.17
468.88	485.81
469.25	480.90
469.62	477.55
469.98	473.93
470.35	470.57
470.72	467.29
471.08	462.60
471.45	459.98
471.82	457.14
472.18	453.55
472.55	451.21
472.92	447.55
473.28	443.81
473.65	440.45
474.02	437.67
474.38	435.90
474.75	434.00
475.11	431.64
475.48	430.24
475.85	428.33
476.21	425.95
476.58	425.05
476.94	423.81
477.31	422.29
477.67	420.50
478.04	418.79
478.41	417.86
478.77	419.17
479.14	418.02
479.50	417.74
479.87	417.38
480.23	416.81
480.60	416.48
480.96	416.21
481.33	417.26
481.69	417.12
482.06	416.93
482.42	417.00
482.79	418.07
483.15	418.26
483.52	419.48
483.88	420.45
484.25	420.71
484.61	421.43
484.98	422.14
485.34	423.79
485.71	425.79
486.07	427.10
486.44	426.62
486.80	428.71
487.17	429.88
487.53	432.38
487.90	434.74
488.26	437.88
488.62	441.17
488.99	443.33
489.35	446.14
489.72	449.19
490.08	451.88
490.44	454.12
490.81	457.48
491.17	460.17
491.54	463.76
491.90	468.02
492.26	471.74
492.63	475.31
492.99	478.67
493.36	482.90
493.72	487.76
494.08	492.31
494.45	496.88
494.81	502.29
495.17	506.48
495.54	511.55
495.90	516.19
496.26	521.17
496.63	526.50
496.99	532.19
497.35	537.79
497.72	543.86
498.08	550.02
498.44	555.90
498.80	562.81
499.17	568.69
499.53	574.93
499.89	581.83
500.26	588.71
500.62	596.07
500.98	603.76
501.34	610.45
501.71	617.79
502.07	624.95
502.43	631.76
502.79	638.98
503.16	646.38
503.52	653.57
503.88	660.05
504.24	667.95
504.60	675.60
504.97	683.69
505.33	691.79
505.69	700.14
506.05	708.05
506.41	715.19
506.78	723.00
507.14	730.67
507.50	738.79
507.86	747.19
508.22	755.50
508.59	762.05
508.95	770.12
509.31	778.79
509.67	786.40
510.03	793.79
510.39	802.26
510.75	810.07
511.12	818.12
511.48	826.90
511.84	834.40
512.20	841.76
512.56	849.05
512.92	856.40
513.28	863.40
513.64	871.02
514.00	878.83
514.37	886.26
514.73	893.74
515.09	901.57
515.45	908.31
515.81	914.95
516.17	922.05
516.53	928.33
516.89	934.55
517.25	941.69
517.61	949.21
517.97	955.02
518.33	961.52
518.69	968.17
519.05	974.95
519.41	980.52
519.77	988.45
520.13	994.24
520.49	1000.17
520.85	1007.07
521.21	1013.76
521.57	1020.00
521.93	1025.64
522.29	1031.52
522.65	1035.90
523.01	1041.43
523.37	1046.69
523.73	1052.71
524.09	1058.31
524.45	1062.62
524.81	1066.95
525.17	1072.10
525.53	1078.02
525.89	1082.81
526.25	1087.76
526.61	1091.60
526.97	1096.64
527.33	1100.79
527.68	1107.33
528.04	1112.10
528.40	1115.74
528.76	1120.38
529.12	1124.93
529.48	1130.05
529.84	1134.05
530.20	1139.02
530.56	1143.74
530.91	1148.60
531.27	1152.21
531.63	1157.45
531.99	1161.81
532.35	1166.43
532.71	1170.55
533.07	1174.90
533.42	1181.07
533.78	1185.60
534.14	1190.95
534.50	1196.05
534.86	1200.21
535.21	1202.62
535.57	1207.24
535.93	1210.76
536.29	1215.60
536.65	1219.64
537.00	1223.83
537.36	1227.79
537.72	1230.64
538.08	1234.31
538.44	1237.36
538.79	1241.93
539.15	1244.33
539.51	1248.95
539.87	1252.19
540.22	1256.02
540.58	1259.14
540.94	1261.02
541.29	1264.21
541.65	1265.95
542.01	1268.19
542.37	1270.43
542.72	1273.10
543.08	1275.21
543.44	1279.29
543.79	1280.69
544.15	1283.74
544.51	1286.64
544.87	1290.52
545.22	1294.93
545.58	1298.07
545.94	1301.05
546.29	1303.79
546.65	1307.12
547.01	1309.24
547.36	1312.69
547.72	1315.64
548.07	1319.24
548.43	1321.67
548.79	1323.95
549.14	1327.07
549.50	1330.74
549.86	1333.43
550.21	1337.17
550.57	1341.10
550.92	1343.90
551.28	1346.64
551.64	1349.38
551.99	1353.10
552.35	1355.17
552.70	1357.67
553.06	1361.40
553.41	1364.74
553.77	1369.05
554.13	1373.43
554.48	1377.62
554.84	1382.57
555.19	1386.17
555.55	1391.17
555.90	1395.19
556.26	1398.71
556.61	1403.69
556.97	1407.48
557.32	1411.93
557.68	1416.02
558.03	1419.90
558.39	1423.55
558.74	1428.26
559.10	1432.36
559.45	1435.38
559.81	1440.76
560.16	1445.69
560.52	1449.45
560.87	1456.02
561.23	1458.88
561.58	1464.45
561.94	1469.00
562.29	1472.50
562.64	1477.33
563.00	1480.67
563.35	1485.88
563.71	1491.55
564.06	1496.88
564.42	1501.90
564.77	1508.10
565.12	1513.45
565.48	1520.90
565.83	1528.24
566.19	1534.40
566.54	1540.19
566.89	1546.21
567.25	1551.83
567.60	1558.98
567.96	1567.36
568.31	1572.43
568.66	1579.81
569.02	1584.00
569.37	1589.98
569.72	1596.02
570.08	1601.62
570.43	1605.98
570.78	1611.52
571.14	1617.74
571.49	1622.12
571.84	1627.62
572.20	1631.74
572.55	1637.29
572.90	1639.79
573.26	1643.71
573.61	1647.50
573.96	1652.74
574.31	1656.88
574.67	1661.17
575.02	1663.64
575.37	1665.69
575.72	1668.57
576.08	1671.90
576.43	1675.00
576.78	1677.64
577.13	1681.05
577.49	1684.57
577.84	1689.33
578.19	1693.00
578.54	1696.79
578.90	1701.43
579.25	1704.64
579.60	1707.38
579.95	1708.62
580.30	1713.12
580.66	1716.17
581.01	1719.62
581.36	1721.57
581.71	1724.64
582.06	1728.69
582.42	1732.07
582.77	1733.98
583.12	1736.83
583.47	1739.24
583.82	1742.69
584.17	1746.02
584.53	1749.52
584.88	1751.81
585.23	1754.07
585.58	1755.74
585.93	1757.05
586.28	1758.76
586.63	1761.45
586.98	1764.95
587.34	1768.86
587.69	1769.21
588.04	1770.60
588.39	1772.14
588.74	1773.07
589.09	1775.57
589.44	1775.07
589.79	1776.74
590.14	1778.29
590.49	1779.71
590.84	1781.17
591.19	1781.98
591.54	1782.83
591.89	1782.19
592.25	1784.31
592.60	1784.17
592.95	1784.76
593.30	1785.55
593.65	1786.05
594.00	1785.79
594.35	1790.57
594.70	1790.24
595.05	1791.26
595.40	1791.55
595.75	1791.57
596.10	1793.02
596.45	1792.52
596.80	1793.55
597.15	1793.76
597.50	1793.62
597.85	1794.83
598.19	1794.19
598.54	1794.81
598.89	1794.71
599.24	1795.98
599.59	1794.95
599.94	1795.36
600.29	1795.62
600.64	1795.29
600.99	1794.14
601.34	1794.74
601.69	1788.76
602.04	1788.14
602.39	1787.67
602.74	1788.50
603.08	1787.60
603.43	1787.10
603.78	1786.48
604.13	1784.71
604.48	1782.33
604.83	1781.88
605.18	1780.12
605.53	1779.79
605.87	1777.24
606.22	1775.81
606.57	1772.95
606.92	1771.02
607.27	1769.86
607.62	1768.64
607.96	1767.67
608.31	1767.55
608.66	1764.74
609.01	1763.21
609.36	1762.05
609.70	1759.52
610.05	1755.38
610.40	1752.95
610.75	1749.69
611.10	1747.05
611.44	1743.26
611.79	1740.52
612.14	1737.55
612.49	1733.24
612.83	1729.24
613.18	1726.95
613.53	1723.74
613.88	1719.86
614.22	1716.10
614.57	1711.17
614.92	1706.19
615.27	1701.00
615.61	1695.81
615.96	1691.60
616.31	1687.19
616.65	1683.67
617.00	1681.02
617.35	1677.19
617.70	1673.62
618.04	1669.93
618.39	1664.83
618.74	1662.29
619.08	1657.76
619.43	1653.31
619.78	1649.93
620.12	1646.07
620.47	1640.74
620.82	1635.50
621.16	1631.17
621.51	1626.98
621.85	1622.95
622.20	1618.67
622.55	1613.64
622.89	1608.86
623.24	1604.95
623.59	1600.43
623.93	1595.24
624.28	1589.81
624.62	1588.05
624.97	1584.81
625.32	1580.24
625.66	1575.98
626.01	1570.50
626.35	1566.76
626.70	1562.69
627.04	1558.60
627.39	1554.10
627.73	1551.33
628.08	1547.67
628.43	1543.90
628.77	1539.40
629.12	1535.38
629.46	1531.24
629.81	1526.95
630.15	1522.05
630.50	1516.67
630.84	1511.52
631.19	1505.33
631.53	1499.95
631.88	1491.38
632.22	1484.81
632.57	1479.71
632.91	1474.45
633.26	1470.40
633.60	1464.60
633.95	1458.38
634.29	1452.38
634.64	1447.29
634.98	1441.38
635.32	1436.48
635.67	1432.10
636.01	1427.31
636.36	1421.48
636.70	1416.98
637.05	1412.31
637.39	1407.79
637.73	1403.83
638.08	1400.02
638.42	1395.26
638.77	1390.07
639.11	1385.33
639.45	1380.24
639.80	1374.36
640.14	1368.29
640.49	1362.38
640.83	1357.07
641.17	1351.43
641.52	1345.76
641.86	1340.14
642.20	1334.69
642.55	1327.67
642.89	1321.31
643.23	1314.88
643.58	1310.05
643.92	1301.57
644.26	1294.83
644.61	1288.98
644.95	1281.95
645.29	1274.17
645.64	1268.19
645.98	1262.17
646.32	1257.19
646.66	1250.17
647.01	1244.10
647.35	1238.74
647.69	1232.81
648.04	1226.90
648.38	1221.57
648.72	1215.55
649.06	1208.60
649.41	1201.36
649.75	1195.10
650.09	1188.43
650.43	1181.95
650.78	1174.81
651.12	1169.60
651.46	1163.07
651.80	1155.98
652.14	1149.33
652.49	1144.14
652.83	1137.95
653.17	1130.17
653.51	1122.02
653.85	1116.29
654.20	1109.76
654.54	1102.36
654.88	1094.57
655.22	1088.07
655.56	1080.55
655.90	1073.45
656.25	1066.33
656.59	1060.07
656.93	1054.00
657.27	1048.31
657.61	1041.31
657.95	1035.07
658.29	1028.71
658.64	1023.64
658.98	1017.60
659.32	1010.95
659.66	1003.67
660.00	997.19
660.34	991.55
660.68	985.71
661.02	978.64
661.36	972.00
661.70	966.60
662.05	961.24
662.39	955.31
662.73	950.83
663.07	946.10
663.41	940.55
663.75	933.74
664.09	927.98
664.43	920.88
664.77	915.21
665.11	908.98
665.45	903.57
665.79	897.33
666.13	890.83
666.47	885.19
666.81	880.05
667.15	874.69
667.49	869.50
667.83	865.26
668.17	860.14
668.51	854.50
668.85	849.02
669.19	844.38
669.53	838.05
669.87	831.57
670.21	825.26
670.55	819.93
670.89	816.21
671.23	810.95
671.57	806.00
671.91	800.50
672.25	795.50
672.58	790.88
672.92	785.21
673.26	780.36
673.60	775.43
673.94	770.14
674.28	764.52
674.62	760.33
674.96	754.36
675.30	749.93
675.64	745.52
675.97	740.93
676.31	735.17
676.65	730.55
676.99	726.93
677.33	722.14
677.67	717.48
678.01	712.14
678.34	707.31
678.68	703.43
679.02	698.43
679.36	693.81
679.70	688.31
680.04	684.19
680.37	679.67
680.71	675.05
681.05	670.81
681.39	666.55
681.73	661.71
682.06	656.90
682.40	652.55
682.74	648.14
683.08	644.50
683.42	640.33
683.75	636.38
684.09	630.88
684.43	626.33
684.77	621.98
685.10	617.31
685.44	612.98
685.78	608.40
686.12	604.74
686.45	600.38
686.79	595.71
687.13	591.45
687.46	587.45
687.80	584.10
688.14	580.07
688.48	576.48
688.81	571.90
689.15	568.93
689.49	564.36
689.82	560.50
690.16	555.07
690.50	551.10
690.83	547.55
691.17	543.29
691.51	539.33
691.84	536.00
692.18	532.12
692.52	528.52
692.85	525.05
693.19	522.48
693.52	518.69
693.86	515.31
694.20	511.57
694.53	508.05
694.87	503.98
695.21	500.07
695.54	496.07
695.88	492.52
696.21	488.38
696.55	485.24
696.88	481.81
697.22	479.02
697.56	475.98
697.89	472.45
698.23	469.95
698.56	467.10
698.90	463.95
699.23	460.86
699.57	458.07
699.90	454.40
700.24	450.64
700.58	447.81
700.91	445.55
701.25	444.52
701.58	442.12
701.92	439.40
702.25	436.57
702.59	433.62
702.92	431.14
703.26	428.33
703.59	425.38
703.93	424.43
704.26	421.95
704.60	418.98
704.93	416.12
705.26	413.29
705.60	411.26
705.93	408.24
706.27	406.26
706.60	404.19
706.94	402.69
707.27	400.10
707.61	397.74
707.94	394.95
708.27	390.67
708.61	387.69
708.94	385.33
709.28	383.40
709.61	381.45
709.94	379.05
710.28	377.05
710.61	375.19
710.95	371.36
711.28	370.95
711.61	369.29
711.95	367.81
712.28	366.00
712.61	363.88
712.95	363.12
713.28	362.26
713.61	360.00
713.95	357.24
714.28	355.79
714.61	354.17
714.95	352.83
715.28	351.17
715.61	349.67
715.95	348.24
716.28	346.52
716.61	345.26
716.95	343.64
717.28	341.90
717.61	340.17
717.94	338.69
718.28	335.55
718.61	333.69
718.94	331.62
719.27	329.95
719.61	328.36
719.94	326.33
720.27	323.55
720.60	321.71
720.94	320.64
721.27	318.88
721.60	317.90
721.93	316.21
722.27	315.52
722.60	314.45
722.93	312.86
723.26	311.69
723.59	309.83
723.93	309.10
724.26	308.17
724.59	306.69
724.92	305.67
725.25	305.00
725.59	304.24
725.92	303.33
726.25	302.24
726.58	301.43
726.91	300.45
727.24	300.05
727.57	299.24
727.91	297.69
728.24	296.98
728.57	295.57
728.90	294.93
729.23	293.24
729.56	293.19
729.89	292.52
730.22	291.24
730.55	290.45
730.89	289.36
731.22	288.24
731.55	287.55
731.88	287.07
732.21	285.88
732.54	284.50
732.87	283.90
733.20	283.36
733.53	282.24
733.86	281.36
734.19	280.00
734.52	279.50
734.85	280.48
735.18	279.69
735.51	279.50
735.84	278.93
736.17	278.90
736.50	277.31
736.83	279.05
737.16	278.64
737.49	278.21
737.82	277.38
738.15	277.24
738.48	276.38
738.81	275.14
739.14	274.10
739.47	273.60
739.80	272.67
740.13	272.24
740.46	271.33
740.79	270.48
741.12	269.79
741.45	268.67
741.78	266.88
742.11	266.83
742.44	265.69
742.77	265.33
743.10	264.48
743.43	263.86
743.75	260.60
744.08	262.55
744.41	261.90
744.74	260.93
745.07	259.81
745.40	259.67
745.73	260.21
746.06	259.81
746.39	259.48
746.71	258.86
747.04	257.98
747.37	257.43
747.70	257.33
748.03	256.90
748.36	256.93
748.68	256.64
749.01	255.31
749.34	254.95
749.67	254.26
750.00	253.69
750.33	254.69
750.65	254.60
750.98	251.67
751.31	251.17
751.64	251.14
751.97	251.81
752.29	251.33
752.62	249.81
752.95	249.21
753.28	248.67
753.60	248.17
753.93	248.21
754.26	248.00
754.59	246.98
754.91	246.36
755.24	245.71
755.57	245.17
755.90	244.71
756.22	244.24
756.55	243.60
756.88	243.17
757.20	241.40
757.53	240.55
757.86	240.12
758.19	239.90
758.51	239.50
758.84	238.17
759.17	237.74
759.49	237.60
759.82	238.33
760.15	238.14
760.47	238.07
760.80	237.33
761.13	237.43
761.45	237.12
761.78	236.71
762.11	236.50
762.43	235.86
762.76	235.69
763.08	235.52
763.41	235.33
763.74	235.10
764.06	234.52
764.39	234.43
764.71	234.31
765.04	233.79
765.37	233.26
765.69	232.74
766.02	232.50
766.34	232.12
766.67	231.10
767.00	231.12
767.32	231.74
767.65	232.86
767.97	232.19
768.30	232.10
768.62	231.95
768.95	231.43
769.27	231.24
769.60	231.48
769.92	231.26
770.25	230.83
770.57	230.31
770.90	230.00
771.22	229.55
771.55	229.19
771.87	229.19
772.20	229.14
772.52	231.07
772.85	233.21
773.17	232.98
773.50	232.67
773.82	232.24
774.15	231.10
774.47	229.31
774.80	229.07
775.12	229.12
775.45	229.10
775.77	229.21
776.09	229.40
776.42	228.86
776.74	228.98
777.07	228.79
777.39	228.60
777.72	228.50
778.04	228.50
778.36	228.14
778.69	227.88
779.01	227.76
779.33	225.62
779.66	223.10
779.98	222.86
780.31	223.05
780.63	223.64
780.95	223.83
781.28	223.81
781.60	223.48
781.92	223.38
782.25	223.02
782.57	222.86
782.89	222.60
783.22	222.48
783.54	221.95
783.86	221.86
784.19	221.71
784.51	222.19
784.83	221.93
785.16	222.00
785.48	222.00
785.80	221.90
786.12	222.14
786.45	221.93
786.77	222.02
787.09	221.76
787.42	221.12
787.74	221.40
788.06	221.50
788.38	221.45
788.71	221.14
789.03	221.69
789.35	221.76
789.67	221.40
789.99	221.52
790.32	221.19
790.64	221.57
790.96	223.19
791.28	222.48
791.61	222.40
791.93	222.12
792.25	221.98
792.57	223.57
792.89	223.17
793.21	223.31
793.54	223.14
793.86	222.81
794.18	222.83
794.50	222.10
794.82	222.00
795.14	222.48
795.47	222.74
795.79	222.31
796.11	221.79
796.43	221.50
796.75	221.62
797.07	221.81
797.39	221.43
797.71	219.93
798.04	219.83
798.36	220.07
798.68	219.93
799.00	219.98
799.32	218.67
799.64	219.07
799.96	218.90
800.28	219.29
800.60	218.93
800.92	219.00
801.24	218.93
801.56	219.19
801.89	218.71
802.21	218.71
802.53	218.52
802.85	218.93
803.17	219.95
803.49	219.26
803.81	219.21
804.13	218.90
804.45	218.79
804.77	219.02
805.09	218.90
805.41	218.95
805.73	218.43
806.05	217.98
806.37	217.64
806.69	217.69
807.01	217.52
807.33	218.00
807.65	217.26
807.97	218.38
808.28	217.86
808.60	217.79
808.92	217.33
809.24	218.45
809.56	218.00
809.88	217.40
810.20	217.57
810.52	218.00
810.84	217.98
811.16	217.83
811.48	217.60
811.80	218.29
812.12	218.29
812.43	218.83
812.75	219.17
813.07	218.86
813.39	218.74
813.71	218.21
814.03	218.12
814.35	218.17
814.67	217.05
814.98	217.07
815.30	217.12
815.62	216.86
815.94	215.62
816.26	216.00
816.58	215.29
816.89	215.48
817.21	214.83
817.53	215.02
817.85	215.05
818.17	215.17
818.48	214.43
818.80	214.67
819.12	214.29
819.44	213.67
819.76	213.74
820.07	214.02
820.39	214.26
820.71	214.29
821.03	214.24
821.34	214.07
821.66	214.24
821.98	214.40
822.30	214.52
822.61	215.86
822.93	215.64
823.25	215.93
823.57	215.69
823.88	216.05
824.20	215.90
824.52	216.12
824.83	215.98
825.15	215.60
825.47	215.79
825.79	216.05
826.10	216.00
826.42	215.93
826.74	215.98
827.05	215.74
827.37	215.64
827.69	215.69
828.00	215.95
828.32	215.86
828.64	215.67
828.95	216.76
829.27	216.14
829.58	216.17
829.90	216.52
830.22	216.71
830.53	216.26
830.85	215.98
831.17	215.62
831.48	215.90
831.80	215.81
832.11	215.43
832.43	215.02
832.75	215.10
833.06	216.24
833.38	215.79
833.69	215.76
834.01	216.05
834.32	215.93
834.64	215.57
834.96	215.71
835.27	215.62
835.59	215.00
835.90	214.24
836.22	213.93
836.53	213.50
836.85	213.14
837.16	215.19
837.48	215.26
837.79	215.93
838.11	215.69
838.42	216.00
838.74	216.31
839.05	216.07
839.37	216.00
839.68	214.57
840.00	214.24
840.31	214.57
840.63	214.21
840.94	214.10
841.26	213.88
841.57	213.86
841.88	213.95
842.20	213.36
842.51	213.45
842.83	213.86
843.14	215.48
843.46	215.48
843.77	214.36
844.08	214.40
844.40	213.71
844.71	213.64
845.03	213.29
845.34	212.90
845.65	213.10
845.97	213.10
846.28	213.60
846.60	213.69
846.91	213.24
847.22	213.14
847.54	213.64
847.85	213.88
848.16	213.64
848.48	213.29
848.79	214.19
849.10	214.17
849.42	214.00
849.73	212.21
850.04	212.36
850.36	211.43
850.67	211.71
850.98	211.81
851.30	212.05
851.61	212.02
851.92	212.19
852.23	212.67
852.55	212.95
852.86	212.83
853.17	213.10
853.49	213.64
853.80	214.21
854.11	214.43
854.42	214.93
854.74	214.67
855.05	214.83
855.36	213.79
855.67	214.07
855.99	214.05
856.30	216.79
856.61	216.57
856.92	216.83
857.23	216.60
857.55	216.10
857.86	215.79
858.17	216.36
858.48	216.07
858.79	215.81
859.11	216.05
859.42	215.79
859.73	215.48
860.04	215.33
860.35	214.74
860.66	213.81
860.98	213.62
861.29	214.02
861.60	213.90
861.91	214.50
862.22	214.02
862.53	213.90
862.84	211.26
863.16	211.90
863.47	211.45
863.78	211.55
864.09	211.98
864.40	212.10
864.71	211.98
865.02	212.17
865.33	211.93
865.64	211.24
865.95	211.26
866.27	212.74
866.58	212.67
866.89	212.93
867.20	213.17
867.51	212.69
867.82	212.45
868.13	212.93
868.44	212.48
868.75	213.00
869.06	212.88
869.37	213.24
869.68	212.55
869.99	212.95
870.30	213.02
870.61	213.17
870.92	213.10
871.23	212.90
871.54	213.00
871.85	213.43
872.16	213.90
872.47	213.95
872.78	212.79
873.09	212.83
873.40	212.48
873.71	212.50
874.02	212.62
874.33	212.55
874.64	212.14
874.95	212.50
875.26	212.02
875.56	212.05
875.87	211.76
876.18	211.81
876.49	213.83
876.80	213.62
877.11	213.38
877.42	213.38
877.73	213.24
878.04	213.00
878.35	212.98
878.66	212.86
878.96	212.71
879.27	212.60
879.58	212.48
879.89	212.60
880.20	213.10
880.51	213.31
880.82	213.29
881.12	213.64
881.43	213.05
881.74	212.95
882.05	213.02
882.36	213.17
882.67	213.29
882.97	211.07
883.28	211.02
883.59	210.98
883.90	211.14
884.21	211.43
884.51	211.40
884.82	211.05
885.13	211.07
885.44	211.07
885.74	211.05
886.05	211.00
886.36	210.86
886.67	210.26
886.98	211.17
887.28	211.38
887.59	211.21
887.90	211.50
888.20	211.50
888.51	211.67
888.82	211.24
889.13	211.60
889.43	213.48
889.74	213.31
890.05	213.21
890.35	213.12
890.66	213.02
890.97	212.90
891.28	212.95
891.58	213.02
891.89	213.12
892.20	212.83
892.50	212.71
892.81	212.74
893.12	212.86
893.42	211.74
893.73	211.71
894.04	211.71
894.34	211.90
894.65	211.79
894.95	211.74
895.26	212.19
895.57	212.93
895.87	210.81
896.18	211.29
896.48	211.40
896.79	211.19
897.10	211.62
897.40	211.71
897.71	211.79
898.01	211.33
898.32	211.60
898.63	211.64
898.93	211.83
899.24	211.76
899.54	211.64
899.85	211.67
900.15	211.52
900.46	211.60
900.76	211.90
901.07	212.12
901.38	212.17
901.68	212.26
901.99	211.31
902.29	211.60
902.60	211.48
902.90	211.24
903.21	211.40
903.51	211.07
903.82	211.50
904.12	211.45
904.43	211.81
904.73	211.64
905.03	211.95
905.34	213.71
905.64	213.83
905.95	213.62
906.25	213.55
906.56	213.62
906.86	213.50
907.17	212.95
907.47	213.19
907.77	213.07
908.08	212.40
908.38	212.52
908.69	212.62
908.99	212.90
909.30	213.29
909.60	213.24
909.90	213.24
910.21	212.71
910.51	212.40
910.81	212.43
911.12	212.50
911.42	212.48
911.73	210.50
912.03	210.79
912.33	211.26
912.64	211.33
912.94	211.24
913.24	211.00
913.55	211.10
913.85	210.67
914.15	210.93
914.46	211.38
914.76	211.19
915.06	211.07
915.37	210.69
915.67	210.33
915.97	210.24
916.27	209.76
916.58	209.71
916.88	209.71
917.18	209.71
917.49	211.19
917.79	211.02
918.09	211.33
918.39	211.81
918.70	211.67
919.00	211.74
919.30	212.55
919.60	212.48
919.91	212.38
920.21	212.71
920.51	212.31
920.81	212.50
921.12	212.69
921.42	212.81
921.72	212.93
922.02	213.07
922.32	213.45
922.63	213.74
922.93	214.83
923.23	214.90
923.53	214.48
923.83	213.05
924.13	213.48
924.44	213.33
924.74	213.48
925.04	214.10
925.34	214.12
925.64	213.31
925.94	213.38
926.24	214.38
926.55	214.14
926.85	214.55
927.15	214.24
927.45	214.33
927.75	214.31
928.05	214.33
928.35	214.31
928.65	214.71
928.95	214.90
929.26	214.07
929.56	214.60
929.86	214.95
930.16	214.76
930.46	214.55
930.76	214.90
931.06	214.05
931.36	213.45
931.66	213.69
931.96	214.05
932.26	214.21
932.56	213.38
932.86	213.38
933.16	213.14
933.46	212.98
933.76	212.60
934.06	212.93
934.36	213.76
934.66	213.67
934.96	213.52
935.26	213.62
935.56	213.88
935.86	213.38
936.16	213.02
936.46	212.71
936.76	212.38
937.06	211.86
937.36	211.98
937.66	212.19
937.96	211.88
938.26	211.64
938.56	211.43
938.86	211.74
939.16	212.26
939.46	212.50
939.76	212.74
940.06	212.98
940.35	212.40
940.65	211.43
940.95	211.67
941.25	211.02
941.55	210.79
941.85	210.88
942.15	211.57
942.45	212.24
942.75	212.24
943.04	212.57
943.34	213.19
943.64	213.07
943.94	212.67
944.24	212.95
944.54	212.90
944.84	212.93
945.13	212.43
945.43	212.19
945.73	212.14
946.03	211.93
946.33	211.69
946.62	211.55
946.92	211.36
947.22	211.48
947.52	211.43
947.82	211.76
948.11	211.40
948.41	210.69
948.71	210.24
949.01	210.60
949.31	210.43
949.60	209.95
949.90	210.10
950.20	210.21
950.50	210.02
950.79	209.98
951.09	210.12
951.39	210.17
951.69	209.88
951.98	210.21
952.28	210.43
952.58	210.38
952.87	210.55
953.17	210.90
953.47	210.64
953.76	210.81
954.06	210.38
954.36	210.02
954.66	209.93
954.95	210.38
955.25	210.52
955.55	210.62
955.84	210.33
956.14	210.55
956.44	210.52
956.73	210.21
957.03	210.24
957.32	210.33
957.62	210.29
957.92	210.74
958.21	210.60
958.51	212.95
958.81	213.12
959.10	213.33
959.40	213.62
959.69	213.71
959.99	214.07
960.29	214.00
960.58	214.07
960.88	214.93
961.17	214.62
961.47	214.76
961.76	214.57
962.06	215.14
962.36	214.93
962.65	214.98
962.95	215.10
963.24	214.81
963.54	214.95
963.83	215.07
964.13	214.81
964.42	214.07
964.72	212.10
965.01	212.05
965.31	211.93
965.60	211.38
965.90	212.71
966.19	212.26
966.49	212.43
966.78	212.50
967.08	212.43
967.37	212.55
967.67	212.26
967.96	212.67
968.26	212.60
968.55	212.95
968.85	212.81
969.14	212.81
969.43	213.00
969.73	212.79
970.02	212.69
970.32	212.67
970.61	212.81
970.91	212.33
971.20	212.21
971.49	211.93
971.79	212.33
972.08	210.90
972.38	211.14
972.67	210.88
972.96	211.10
973.26	210.76
973.55	211.45
973.85	211.19
974.14	210.98
974.43	211.02
974.73	210.52
975.02	210.38
975.31	210.57
975.61	210.69
975.90	210.50
976.19	210.38
976.49	210.62
976.78	210.74
977.07	210.81
977.37	210.83
977.66	211.02
977.95	210.71
978.24	210.76
978.54	211.00
978.83	210.90
979.12	210.79
979.42	210.50
979.71	209.93
980.00	209.93
980.29	209.93
980.59	209.69
980.88	210.10
981.17	210.17
981.46	209.90
981.76	209.81
982.05	210.36
982.34	210.50
982.63	210.36
982.93	210.24
983.22	210.86
983.51	211.00
983.80	211.48
984.09	211.52
984.39	211.64
984.68	211.38
984.97	211.86
985.26	211.48
985.55	211.64
985.85	210.95
986.14	211.60
986.43	211.81
986.72	211.57
987.01	210.90
987.30	210.86
987.59	210.79
987.89	211.00
988.18	210.52
988.47	210.45
988.76	210.17
989.05	210.26
989.34	209.88
989.63	210.33
989.92	209.98
990.22	209.86
990.51	209.64
990.80	209.60
991.09	209.48
991.38	209.98
991.67	209.98
991.96	210.26
992.25	210.02
992.54	209.67
992.83	209.71
993.12	210.00
993.41	210.38
993.70	211.38
993.99	211.60
994.28	211.86
994.58	212.12
994.87	212.14
995.16	212.10
995.45	211.88
995.74	211.29
996.03	211.62
996.32	212.07
996.61	212.60
996.90	212.48
997.19	212.48
997.48	212.62
997.77	212.33
998.06	212.50
998.34	212.36
998.63	212.36
998.92	212.43
999.21	212.60
999.50	212.62
999.79	211.76
1000.08	211.60
1000.37	211.55
1000.66	211.02
1000.95	211.57
1001.24	211.31
1001.53	211.60
1001.82	211.55
1002.11	210.98
1002.40	211.19
1002.68	211.45
1002.97	212.76
1003.26	212.26
1003.55	211.71
1003.84	211.86
1004.13	212.45
1004.42	212.33
1004.71	212.45
1004.99	212.33
1005.28	212.83
1005.57	212.69
1005.86	212.71
1006.15	212.50
1006.44	212.12
1006.72	212.57
1007.01	212.00
1007.30	212.24
1007.59	212.10
1007.88	212.14
1008.17	212.50
1008.45	211.88
1008.74	211.24
1009.03	210.43
1009.32	210.90
1009.60	210.83
1009.89	210.81
1010.18	210.14
1010.47	209.86
1010.76	209.74
1011.04	209.81
1011.33	209.76
1011.62	210.02
1011.91	210.12
1012.19	210.50
1012.48	210.57
1012.77	210.60
1013.05	211.52
1013.34	211.62
1013.63	211.48
1013.92	211.40
1014.20	211.10
1014.49	211.31
1014.78	211.40
1015.06	210.55
1015.35	210.21
1015.64	210.90
1015.92	211.33
1016.21	211.33
1016.50	211.55
1016.78	211.95
1017.07	211.95
1017.36	211.55
1017.64	211.10
1017.93	211.33
1018.22	211.12
1018.50	211.24
1018.79	211.21
1019.08	210.43
1019.36	210.52
1019.65	210.40
1019.93	210.95
1020.22	211.24
1020.51	212.07
1020.79	211.74
1021.08	212.00
1021.36	208.50
1021.65	212.50
1021.94	210.00
1022.22	211.00
1022.51	208.00
1022.79	219.00
1023.08	213.00
1023.36	232.50
1023.65	204.00
>>>>>End Processed Spectral Data<<<<<
