SpectraSuite Data File
++++++++++++++++++++++++++++++++++++
Date: Tue Apr 02 18:41:53 EDT 2013
User: group
Dark Spectrum Present: No
Reference Spectrum Present: No
Number of Sampled Component Spectra: 1
Spectrometers: USB2E7196
Integration Time (usec): 580000 (USB2E7196)
Spectra Averaged: 2 (USB2E7196)
Boxcar Smoothing: 10 (USB2E7196)
Correct for Electrical Dark: No (USB2E7196)
Strobe/Lamp Enabled: No (USB2E7196)
Correct for Detector Non-linearity: No (USB2E7196)
Correct for Stray Light: No (USB2E7196)
Number of Pixels in Processed Spectrum: 2048
>>>>>Begin Processed Spectral Data<<<<<
339.09	0.00
339.48	197.50
339.86	199.00
340.24	193.00
340.63	202.00
341.01	229.50
341.39	195.50
341.78	204.00
342.16	210.50
342.54	204.50
342.93	198.26
343.31	208.19
343.69	208.71
344.07	209.14
344.46	210.05
344.84	210.60
345.22	209.64
345.60	210.64
345.99	211.00
346.37	210.98
346.75	211.38
347.13	211.60
347.52	211.67
347.90	212.52
348.28	212.69
348.66	213.21
349.05	212.38
349.43	212.88
349.81	213.02
350.19	213.12
350.57	213.40
350.96	213.69
351.34	213.98
351.72	214.26
352.10	214.38
352.48	214.29
352.87	214.07
353.25	214.12
353.63	213.79
354.01	213.57
354.39	213.74
354.77	213.43
355.15	214.17
355.54	214.05
355.92	213.24
356.30	213.36
356.68	214.57
357.06	214.69
357.44	214.00
357.82	214.12
358.20	215.02
358.58	214.86
358.97	214.81
359.35	215.14
359.73	215.29
360.11	215.38
360.49	215.33
360.87	215.17
361.25	215.50
361.63	215.95
362.01	216.26
362.39	216.14
362.77	216.57
363.15	216.07
363.53	216.05
363.91	216.05
364.29	215.93
364.67	213.83
365.05	213.81
365.43	214.40
365.81	214.48
366.19	214.52
366.57	215.40
366.95	215.36
367.33	214.79
367.71	214.67
368.09	214.76
368.47	214.93
368.85	215.00
369.23	215.19
369.61	214.64
369.99	215.24
370.37	215.43
370.75	216.10
371.13	215.69
371.51	215.33
371.89	215.48
372.27	215.48
372.65	215.83
373.03	216.00
373.41	215.64
373.78	215.45
374.16	214.19
374.54	213.33
374.92	213.02
375.30	213.05
375.68	212.86
376.06	213.00
376.44	212.83
376.82	213.07
377.19	212.88
377.57	212.90
377.95	212.24
378.33	212.14
378.71	211.17
379.09	211.64
379.47	211.86
379.84	211.76
380.22	211.57
380.60	210.98
380.98	210.98
381.36	210.98
381.73	210.86
382.11	211.36
382.49	211.67
382.87	211.50
383.25	211.52
383.62	213.67
384.00	213.07
384.38	212.98
384.76	213.45
385.13	214.36
385.51	214.33
385.89	214.02
386.27	213.95
386.64	214.19
387.02	214.02
387.40	214.10
387.78	214.12
388.15	214.36
388.53	214.62
388.91	214.67
389.29	214.62
389.66	214.83
390.04	214.74
390.42	214.95
390.79	215.29
391.17	215.19
391.55	213.17
391.92	213.52
392.30	214.00
392.68	213.48
393.05	213.50
393.43	213.76
393.81	214.05
394.18	213.76
394.56	213.86
394.94	214.40
395.31	214.29
395.69	215.05
396.06	215.40
396.44	215.40
396.82	215.40
397.19	216.40
397.57	216.29
397.95	216.48
398.32	215.64
398.70	215.93
399.07	216.33
399.45	216.29
399.82	216.29
400.20	216.10
400.58	215.83
400.95	214.79
401.33	215.12
401.70	216.45
402.08	216.76
402.45	216.79
402.83	217.31
403.20	217.64
403.58	217.36
403.95	217.76
404.33	218.26
404.71	218.43
405.08	219.81
405.46	220.14
405.83	220.55
406.21	221.17
406.58	221.38
406.96	222.00
407.33	222.62
407.70	223.14
408.08	225.38
408.45	226.52
408.83	227.50
409.20	227.95
409.58	227.57
409.95	228.76
410.33	229.81
410.70	230.00
411.08	231.19
411.45	232.40
411.82	233.14
412.20	234.98
412.57	237.43
412.95	236.93
413.32	238.79
413.69	240.26
414.07	242.29
414.44	244.02
414.82	245.95
415.19	248.48
415.56	250.98
415.94	251.95
416.31	254.98
416.68	257.86
417.06	261.21
417.43	264.81
417.81	268.36
418.18	272.02
418.55	275.95
418.93	279.69
419.30	283.90
419.67	288.14
420.04	292.36
420.42	296.64
420.79	304.02
421.16	309.62
421.54	316.71
421.91	322.95
422.28	329.60
422.66	336.02
423.03	344.07
423.40	350.86
423.77	358.19
424.15	365.52
424.52	373.02
424.89	381.98
425.26	389.67
425.64	397.31
426.01	405.60
426.38	414.29
426.75	423.88
427.13	432.95
427.50	442.74
427.87	452.83
428.24	462.93
428.61	471.29
428.99	482.93
429.36	493.33
429.73	504.45
430.10	515.76
430.47	527.88
430.85	538.83
431.22	551.62
431.59	566.76
431.96	579.83
432.33	594.17
432.70	607.93
433.08	624.60
433.45	640.33
433.82	655.90
434.19	673.52
434.56	690.86
434.93	707.21
435.30	723.86
435.68	741.52
436.05	758.98
436.42	776.07
436.79	792.00
437.16	810.45
437.53	828.29
437.90	846.55
438.27	865.19
438.64	882.93
439.01	900.67
439.38	914.88
439.75	929.52
440.13	946.64
440.50	961.95
440.87	975.21
441.24	989.38
441.61	1003.88
441.98	1014.52
442.35	1027.21
442.72	1040.74
443.09	1054.07
443.46	1062.31
443.83	1067.93
444.20	1073.07
444.57	1079.64
444.94	1082.43
445.31	1086.19
445.68	1092.67
446.05	1093.57
446.42	1092.95
446.79	1091.64
447.16	1089.07
447.53	1088.67
447.90	1082.31
448.27	1076.93
448.64	1067.60
449.01	1060.76
449.37	1049.81
449.74	1038.81
450.11	1026.86
450.48	1011.62
450.85	995.79
451.22	982.98
451.59	970.76
451.96	959.31
452.33	942.76
452.70	928.14
453.07	910.88
453.43	890.33
453.80	873.52
454.17	856.83
454.54	840.88
454.91	824.79
455.28	808.17
455.65	793.21
456.02	780.81
456.38	767.93
456.75	751.83
457.12	738.33
457.49	725.07
457.86	710.79
458.23	700.76
458.59	688.64
458.96	676.71
459.33	665.48
459.70	654.24
460.07	646.55
460.43	636.60
460.80	627.88
461.17	620.69
461.54	611.98
461.91	604.07
462.27	595.69
462.64	588.74
463.01	580.98
463.38	574.21
463.74	563.29
464.11	556.67
464.48	551.24
464.85	545.48
465.21	541.24
465.58	535.71
465.95	528.76
466.32	523.60
466.68	517.76
467.05	513.26
467.42	508.62
467.78	502.19
468.15	496.79
468.52	493.07
468.88	487.45
469.25	482.81
469.62	479.29
469.98	475.71
470.35	471.98
470.72	468.21
471.08	463.40
471.45	460.83
471.82	458.05
472.18	454.33
472.55	451.24
472.92	447.26
473.28	444.45
473.65	441.57
474.02	439.12
474.38	437.02
474.75	434.88
475.11	432.19
475.48	430.79
475.85	429.48
476.21	427.38
476.58	425.69
476.94	424.60
477.31	423.24
477.67	421.69
478.04	420.60
478.41	419.95
478.77	421.57
479.14	420.29
479.50	419.69
479.87	419.33
480.23	419.07
480.60	418.88
480.96	418.86
481.33	419.52
481.69	419.31
482.06	419.05
482.42	419.33
482.79	419.57
483.15	420.02
483.52	420.86
483.88	421.24
484.25	422.17
484.61	423.33
484.98	424.07
485.34	426.17
485.71	427.93
486.07	429.26
486.44	428.60
486.80	429.95
487.17	431.43
487.53	433.60
487.90	436.12
488.26	439.21
488.62	441.79
488.99	443.52
489.35	446.31
489.72	449.43
490.08	451.98
490.44	454.98
490.81	458.33
491.17	461.64
491.54	465.48
491.90	468.83
492.26	472.36
492.63	476.21
492.99	479.24
493.36	482.90
493.72	487.38
494.08	492.69
494.45	497.83
494.81	502.60
495.17	506.76
495.54	511.64
495.90	515.83
496.26	520.74
496.63	526.93
496.99	531.95
497.35	537.40
497.72	543.40
498.08	549.33
498.44	555.12
498.80	561.79
499.17	568.29
499.53	574.88
499.89	581.86
500.26	588.45
500.62	595.52
500.98	603.45
501.34	610.88
501.71	617.52
502.07	624.36
502.43	631.86
502.79	639.64
503.16	646.81
503.52	654.48
503.88	661.64
504.24	668.86
504.60	677.38
504.97	685.52
505.33	692.64
505.69	701.40
506.05	709.10
506.41	716.29
506.78	723.52
507.14	731.12
507.50	739.05
507.86	747.26
508.22	755.21
508.59	761.71
508.95	769.10
509.31	777.45
509.67	785.90
510.03	793.62
510.39	801.12
510.75	808.71
511.12	816.55
511.48	824.86
511.84	832.10
512.20	839.52
512.56	846.69
512.92	855.19
513.28	862.40
513.64	870.10
514.00	878.02
514.37	886.07
514.73	893.79
515.09	900.90
515.45	907.71
515.81	914.62
516.17	922.31
516.53	929.33
516.89	935.21
517.25	942.14
517.61	949.55
517.97	956.52
518.33	963.40
518.69	970.24
519.05	976.62
519.41	983.62
519.77	991.31
520.13	997.76
520.49	1003.71
520.85	1009.45
521.21	1016.31
521.57	1022.21
521.93	1027.81
522.29	1033.43
522.65	1038.48
523.01	1044.81
523.37	1049.81
523.73	1055.02
524.09	1060.36
524.45	1065.69
524.81	1070.14
525.17	1075.29
525.53	1080.12
525.89	1084.88
526.25	1089.88
526.61	1093.93
526.97	1097.52
527.33	1101.12
527.68	1107.57
528.04	1111.95
528.40	1116.52
528.76	1120.31
529.12	1125.12
529.48	1130.29
529.84	1134.29
530.20	1139.21
530.56	1143.67
530.91	1148.86
531.27	1153.17
531.63	1157.38
531.99	1161.38
532.35	1165.14
532.71	1168.69
533.07	1173.62
533.42	1179.55
533.78	1183.71
534.14	1189.14
534.50	1194.00
534.86	1198.98
535.21	1201.81
535.57	1206.79
535.93	1210.36
536.29	1215.43
536.65	1219.79
537.00	1222.38
537.36	1227.00
537.72	1230.26
538.08	1233.26
538.44	1236.40
538.79	1240.07
539.15	1243.45
539.51	1248.21
539.87	1251.95
540.22	1255.69
540.58	1258.74
540.94	1260.74
541.29	1263.93
541.65	1265.95
542.01	1269.31
542.37	1271.43
542.72	1273.50
543.08	1274.93
543.44	1278.38
543.79	1280.26
544.15	1283.07
544.51	1287.24
544.87	1290.12
545.22	1293.95
545.58	1297.81
545.94	1301.24
546.29	1304.40
546.65	1307.55
547.01	1309.86
547.36	1313.24
547.72	1315.98
548.07	1318.98
548.43	1321.98
548.79	1324.55
549.14	1327.98
549.50	1331.14
549.86	1333.52
550.21	1337.36
550.57	1341.45
550.92	1344.86
551.28	1348.76
551.64	1350.64
551.99	1352.81
552.35	1356.36
552.70	1358.60
553.06	1361.62
553.41	1364.90
553.77	1369.38
554.13	1372.62
554.48	1376.86
554.84	1381.86
555.19	1385.93
555.55	1391.29
555.90	1394.55
556.26	1398.57
556.61	1403.14
556.97	1407.19
557.32	1412.29
557.68	1416.74
558.03	1420.71
558.39	1424.45
558.74	1427.93
559.10	1432.33
559.45	1437.67
559.81	1441.83
560.16	1446.67
560.52	1451.76
560.87	1456.55
561.23	1460.07
561.58	1466.31
561.94	1470.36
562.29	1474.67
562.64	1479.67
563.00	1482.76
563.35	1487.83
563.71	1493.00
564.06	1496.74
564.42	1502.26
564.77	1507.52
565.12	1513.12
565.48	1521.07
565.83	1528.00
566.19	1533.83
566.54	1540.21
566.89	1545.36
567.25	1551.62
567.60	1559.10
567.96	1566.00
568.31	1572.93
568.66	1579.43
569.02	1584.24
569.37	1589.52
569.72	1594.64
570.08	1599.07
570.43	1604.52
570.78	1610.31
571.14	1615.93
571.49	1622.45
571.84	1627.07
572.20	1631.48
572.55	1635.69
572.90	1637.50
573.26	1641.07
573.61	1645.81
573.96	1649.38
574.31	1654.00
574.67	1657.17
575.02	1659.86
575.37	1662.02
575.72	1664.12
576.08	1668.14
576.43	1671.17
576.78	1674.81
577.13	1678.12
577.49	1681.52
577.84	1685.45
578.19	1689.21
578.54	1693.36
578.90	1696.33
579.25	1699.19
579.60	1702.79
579.95	1706.76
580.30	1710.76
580.66	1713.95
581.01	1717.43
581.36	1720.83
581.71	1723.52
582.06	1727.60
582.42	1730.52
582.77	1732.83
583.12	1735.71
583.47	1738.10
583.82	1741.74
584.17	1744.81
584.53	1748.24
584.88	1751.19
585.23	1753.79
585.58	1755.19
585.93	1756.81
586.28	1759.36
586.63	1762.90
586.98	1764.90
587.34	1766.21
587.69	1767.69
588.04	1769.76
588.39	1770.95
588.74	1772.33
589.09	1774.43
589.44	1774.24
589.79	1775.69
590.14	1776.88
590.49	1777.95
590.84	1777.60
591.19	1778.64
591.54	1780.21
591.89	1780.57
592.25	1783.90
592.60	1784.71
592.95	1786.83
593.30	1788.12
593.65	1788.62
594.00	1787.64
594.35	1793.31
594.70	1793.00
595.05	1792.81
595.40	1792.45
595.75	1792.40
596.10	1792.98
596.45	1792.81
596.80	1793.69
597.15	1793.95
597.50	1794.19
597.85	1796.07
598.19	1795.93
598.54	1795.24
598.89	1794.93
599.24	1795.29
599.59	1793.67
599.94	1792.81
600.29	1792.33
600.64	1791.33
600.99	1790.98
601.34	1791.40
601.69	1785.50
602.04	1784.90
602.39	1785.19
602.74	1785.38
603.08	1784.88
603.43	1784.33
603.78	1784.48
604.13	1784.12
604.48	1781.76
604.83	1782.10
605.18	1780.36
605.53	1781.07
605.87	1779.62
606.22	1777.19
606.57	1774.93
606.92	1772.93
607.27	1771.50
607.62	1770.10
607.96	1768.83
608.31	1768.33
608.66	1767.12
609.01	1764.98
609.36	1764.05
609.70	1761.26
610.05	1757.83
610.40	1756.33
610.75	1753.19
611.10	1749.83
611.44	1746.02
611.79	1743.62
612.14	1738.98
612.49	1734.00
612.83	1730.12
613.18	1727.07
613.53	1724.05
613.88	1719.79
614.22	1716.19
614.57	1712.19
614.92	1707.07
615.27	1702.21
615.61	1696.57
615.96	1691.55
616.31	1687.88
616.65	1684.05
617.00	1680.76
617.35	1676.95
617.70	1672.40
618.04	1668.10
618.39	1663.36
618.74	1659.93
619.08	1656.24
619.43	1652.88
619.78	1649.52
620.12	1645.21
620.47	1640.62
620.82	1636.38
621.16	1632.21
621.51	1628.07
621.85	1623.98
622.20	1619.62
622.55	1614.40
622.89	1609.86
623.24	1605.86
623.59	1601.14
623.93	1596.67
624.28	1592.14
624.62	1590.17
624.97	1587.55
625.32	1583.33
625.66	1579.00
626.01	1573.48
626.35	1569.55
626.70	1564.48
627.04	1561.40
627.39	1557.07
627.73	1553.71
628.08	1550.21
628.43	1546.24
628.77	1541.60
629.12	1537.48
629.46	1533.88
629.81	1530.74
630.15	1526.26
630.50	1520.93
630.84	1515.88
631.19	1510.05
631.53	1504.40
631.88	1496.48
632.22	1488.69
632.57	1484.19
632.91	1478.93
633.26	1474.50
633.60	1468.69
633.95	1463.10
634.29	1455.71
634.64	1450.05
634.98	1444.00
635.32	1439.14
635.67	1434.74
636.01	1429.60
636.36	1423.31
636.70	1418.21
637.05	1412.38
637.39	1407.19
637.73	1403.00
638.08	1398.88
638.42	1394.55
638.77	1390.10
639.11	1384.90
639.45	1379.38
639.80	1373.24
640.14	1367.88
640.49	1362.02
640.83	1355.83
641.17	1350.98
641.52	1345.93
641.86	1339.86
642.20	1335.26
642.55	1327.50
642.89	1320.31
643.23	1313.62
643.58	1309.17
643.92	1301.76
644.26	1295.71
644.61	1289.57
644.95	1282.31
645.29	1275.45
645.64	1269.17
645.98	1262.07
646.32	1256.62
646.66	1250.45
647.01	1243.83
647.35	1237.50
647.69	1231.48
648.04	1226.19
648.38	1220.05
648.72	1213.81
649.06	1207.62
649.41	1199.67
649.75	1193.57
650.09	1187.40
650.43	1181.07
650.78	1173.33
651.12	1167.05
651.46	1160.74
651.80	1154.43
652.14	1148.64
652.49	1142.14
652.83	1134.64
653.17	1128.00
653.51	1120.50
653.85	1114.33
654.20	1108.33
654.54	1100.76
654.88	1093.52
655.22	1086.79
655.56	1080.00
655.90	1074.02
656.25	1067.64
656.59	1061.60
656.93	1055.55
657.27	1050.02
657.61	1043.12
657.95	1037.24
658.29	1030.71
658.64	1024.29
658.98	1017.57
659.32	1010.67
659.66	1004.33
660.00	998.55
660.34	992.60
660.68	986.33
661.02	979.86
661.36	973.40
661.70	968.69
662.05	963.00
662.39	957.36
662.73	951.74
663.07	945.60
663.41	939.69
663.75	933.29
664.09	927.29
664.43	920.19
664.77	914.57
665.11	908.05
665.45	902.86
665.79	896.98
666.13	891.10
666.47	885.19
666.81	878.90
667.15	872.90
667.49	867.64
667.83	863.31
668.17	857.95
668.51	852.21
668.85	846.86
669.19	842.45
669.53	836.19
669.87	830.17
670.21	824.69
670.55	818.81
670.89	814.69
671.23	809.52
671.57	804.88
671.91	799.93
672.25	795.17
672.58	790.48
672.92	784.98
673.26	779.86
673.60	774.67
673.94	769.76
674.28	765.07
674.62	759.81
674.96	754.50
675.30	749.60
675.64	745.21
675.97	740.14
676.31	734.38
676.65	729.67
676.99	725.81
677.33	720.55
677.67	716.36
678.01	710.60
678.34	705.93
678.68	702.26
679.02	697.17
679.36	692.33
679.70	686.74
680.04	682.10
680.37	677.67
680.71	673.26
681.05	669.05
681.39	664.40
681.73	660.05
682.06	655.40
682.40	650.93
682.74	646.79
683.08	642.50
683.42	637.57
683.75	633.52
684.09	628.48
684.43	624.40
684.77	620.26
685.10	615.88
685.44	611.26
685.78	606.07
686.12	602.10
686.45	597.88
686.79	593.86
687.13	590.07
687.46	585.50
687.80	581.90
688.14	577.74
688.48	574.07
688.81	570.12
689.15	566.62
689.49	562.60
689.82	558.57
690.16	553.90
690.50	550.40
690.83	546.29
691.17	541.74
691.51	537.67
691.84	534.07
692.18	530.10
692.52	526.38
692.85	523.02
693.19	520.29
693.52	516.50
693.86	512.83
694.20	508.95
694.53	505.57
694.87	501.52
695.21	497.64
695.54	494.21
695.88	490.33
696.21	485.74
696.55	482.31
696.88	478.90
697.22	475.45
697.56	472.76
697.89	469.90
698.23	467.50
698.56	464.55
698.90	461.26
699.23	458.29
699.57	455.40
699.90	451.88
700.24	447.79
700.58	444.83
700.91	442.00
701.25	441.19
701.58	439.05
701.92	437.29
702.25	434.86
702.59	431.74
702.92	429.36
703.26	427.52
703.59	424.90
703.93	423.98
704.26	421.95
704.60	419.10
704.93	416.00
705.26	413.29
705.60	411.19
705.93	408.62
706.27	406.93
706.60	404.98
706.94	403.50
707.27	401.43
707.61	399.24
707.94	396.83
708.27	392.60
708.61	389.81
708.94	386.95
709.28	385.10
709.61	382.79
709.94	380.52
710.28	378.05
710.61	375.86
710.95	371.79
711.28	371.02
711.61	369.19
711.95	367.71
712.28	365.55
712.61	363.31
712.95	362.07
713.28	360.86
713.61	358.36
713.95	355.67
714.28	353.95
714.61	352.05
714.95	350.19
715.28	348.60
715.61	346.76
715.95	345.19
716.28	343.36
716.61	342.29
716.95	340.57
717.28	339.07
717.61	337.50
717.94	335.90
718.28	333.02
718.61	331.45
718.94	329.64
719.27	328.12
719.61	326.86
719.94	324.90
720.27	322.36
720.60	320.86
720.94	319.31
721.27	318.00
721.60	317.14
721.93	316.02
722.27	315.64
722.60	314.79
722.93	313.12
723.26	312.02
723.59	310.12
723.93	309.07
724.26	308.02
724.59	306.90
724.92	306.26
725.25	305.64
725.59	304.38
725.92	303.60
726.25	302.38
726.58	301.24
726.91	300.07
727.24	299.60
727.57	299.05
727.91	298.00
728.24	297.07
728.57	295.55
728.90	295.00
729.23	293.36
729.56	293.24
729.89	292.45
730.22	290.95
730.55	289.81
730.89	288.95
731.22	288.02
731.55	287.14
731.88	286.17
732.21	285.12
732.54	284.24
732.87	283.36
733.20	282.62
733.53	281.81
733.86	281.36
734.19	280.29
734.52	279.69
734.85	280.36
735.18	279.17
735.51	279.52
735.84	278.69
736.17	278.07
736.50	276.45
736.83	278.19
737.16	278.02
737.49	277.98
737.82	277.10
738.15	276.76
738.48	275.76
738.81	274.76
739.14	273.71
739.47	272.79
739.80	271.90
740.13	271.62
740.46	270.71
740.79	269.74
741.12	268.98
741.45	268.05
741.78	266.31
742.11	266.60
742.44	265.36
742.77	264.79
743.10	263.93
743.43	263.29
743.75	260.26
744.08	262.05
744.41	261.02
744.74	260.40
745.07	259.10
745.40	259.14
745.73	259.40
746.06	258.62
746.39	258.31
746.71	257.48
747.04	256.64
747.37	256.02
747.70	256.00
748.03	255.67
748.36	255.14
748.68	254.76
749.01	253.55
749.34	253.14
749.67	252.86
750.00	252.98
750.33	254.02
750.65	253.93
750.98	251.00
751.31	250.74
751.64	250.55
751.97	251.52
752.29	250.69
752.62	249.36
752.95	249.26
753.28	248.62
753.60	248.21
753.93	248.50
754.26	248.50
754.59	247.31
754.91	246.71
755.24	246.48
755.57	245.86
755.90	245.50
756.22	244.76
756.55	243.90
756.88	242.86
757.20	240.83
757.53	239.76
757.86	239.19
758.19	239.00
758.51	238.64
758.84	237.21
759.17	236.88
759.49	236.93
759.82	237.62
760.15	237.74
760.47	237.52
760.80	236.57
761.13	236.55
761.45	236.24
761.78	235.98
762.11	235.69
762.43	235.33
762.76	234.86
763.08	234.83
763.41	234.88
763.74	234.88
764.06	234.71
764.39	234.69
764.71	234.62
765.04	233.95
765.37	233.38
765.69	232.98
766.02	232.71
766.34	232.64
766.67	231.48
767.00	231.55
767.32	232.55
767.65	233.57
767.97	233.02
768.30	233.12
768.62	232.83
768.95	232.40
769.27	232.00
769.60	232.29
769.92	231.81
770.25	231.26
770.57	230.60
770.90	230.38
771.22	229.88
771.55	229.76
771.87	229.74
772.20	229.57
772.52	231.05
772.85	233.24
773.17	232.88
773.50	232.69
773.82	231.98
774.15	230.67
774.47	229.29
774.80	229.02
775.12	228.74
775.45	228.45
775.77	228.52
776.09	228.79
776.42	228.67
776.74	229.19
777.07	228.95
777.39	229.24
777.72	228.88
778.04	229.29
778.36	228.69
778.69	228.88
779.01	228.88
779.33	227.21
779.66	225.05
779.98	224.69
780.31	224.74
780.63	225.67
780.95	225.95
781.28	225.93
781.60	225.64
781.92	225.55
782.25	225.64
782.57	225.14
782.89	224.86
783.22	224.60
783.54	223.88
783.86	224.12
784.19	223.79
784.51	224.57
784.83	224.07
785.16	224.10
785.48	224.00
785.80	223.83
786.12	224.00
786.45	223.76
786.77	223.64
787.09	223.29
787.42	222.19
787.74	222.12
788.06	222.05
788.38	221.81
788.71	221.45
789.03	221.21
789.35	221.57
789.67	221.26
789.99	221.31
790.32	221.02
790.64	220.98
790.96	222.60
791.28	221.60
791.61	221.48
791.93	221.74
792.25	221.26
792.57	222.81
792.89	222.26
793.21	222.24
793.54	222.21
793.86	222.00
794.18	222.05
794.50	221.64
794.82	221.64
795.14	221.90
795.47	222.33
795.79	222.38
796.11	221.86
796.43	221.67
796.75	221.36
797.07	221.52
797.39	221.29
797.71	219.76
798.04	219.81
798.36	220.07
798.68	219.81
799.00	220.26
799.32	218.88
799.64	219.43
799.96	219.29
800.28	219.57
800.60	219.64
800.92	219.79
801.24	219.74
801.56	219.64
801.89	219.57
802.21	219.60
802.53	219.24
802.85	219.71
803.17	220.74
803.49	220.64
803.81	220.31
804.13	220.07
804.45	219.64
804.77	219.86
805.09	219.67
805.41	219.40
805.73	218.71
806.05	218.50
806.37	217.88
806.69	217.76
807.01	217.52
807.33	217.33
807.65	216.62
807.97	217.48
808.28	217.50
808.60	217.19
808.92	216.90
809.24	218.31
809.56	217.88
809.88	217.17
810.20	217.29
810.52	217.60
810.84	217.55
811.16	217.50
811.48	217.17
811.80	217.67
812.12	217.69
812.43	218.12
812.75	218.33
813.07	218.29
813.39	218.26
813.71	218.00
814.03	217.88
814.35	218.07
814.67	217.07
814.98	216.90
815.30	216.90
815.62	216.60
815.94	214.95
816.26	214.98
816.58	214.38
816.89	214.40
817.21	214.05
817.53	214.19
817.85	214.33
818.17	214.50
818.48	213.76
818.80	214.24
819.12	214.14
819.44	213.62
819.76	213.43
820.07	213.48
820.39	213.57
820.71	213.79
821.03	213.64
821.34	213.52
821.66	213.81
821.98	214.24
822.30	214.05
822.61	215.38
822.93	215.02
823.25	215.21
823.57	214.95
823.88	215.52
824.20	215.45
824.52	215.71
824.83	215.48
825.15	215.43
825.47	215.43
825.79	215.45
826.10	215.21
826.42	215.12
826.74	215.50
827.05	215.12
827.37	215.12
827.69	215.21
828.00	215.50
828.32	215.19
828.64	214.83
828.95	215.93
829.27	215.60
829.58	215.93
829.90	216.17
830.22	216.29
830.53	215.62
830.85	215.45
831.17	214.88
831.48	215.07
831.80	214.90
832.11	214.67
832.43	214.43
832.75	214.71
833.06	215.98
833.38	215.12
833.69	215.19
834.01	215.26
834.32	215.24
834.64	214.81
834.96	214.98
835.27	214.98
835.59	214.14
835.90	213.55
836.22	213.36
836.53	213.00
836.85	212.88
837.16	215.00
837.48	214.81
837.79	215.33
838.11	215.19
838.42	215.45
838.74	215.52
839.05	215.48
839.37	215.29
839.68	214.14
840.00	214.17
840.31	214.36
840.63	214.00
840.94	213.83
841.26	213.74
841.57	213.57
841.88	213.90
842.20	213.74
842.51	213.67
842.83	213.79
843.14	215.52
843.46	215.57
843.77	214.29
844.08	214.33
844.40	213.76
844.71	213.57
845.03	213.31
845.34	213.17
845.65	212.76
845.97	212.93
846.28	213.17
846.60	213.50
846.91	213.19
847.22	213.12
847.54	213.31
847.85	213.43
848.16	213.29
848.48	212.50
848.79	213.45
849.10	213.60
849.42	213.74
849.73	212.05
850.04	212.00
850.36	211.38
850.67	211.74
850.98	211.90
851.30	212.21
851.61	212.12
851.92	212.26
852.23	213.07
852.55	212.98
852.86	212.83
853.17	212.67
853.49	213.29
853.80	213.86
854.11	214.14
854.42	214.29
854.74	214.21
855.05	214.29
855.36	213.26
855.67	213.31
855.99	213.12
856.30	215.81
856.61	215.74
856.92	215.74
857.23	215.69
857.55	215.64
857.86	215.50
858.17	216.12
858.48	215.33
858.79	215.17
859.11	215.36
859.42	215.21
859.73	215.29
860.04	215.17
860.35	214.50
860.66	213.95
860.98	213.93
861.29	214.12
861.60	214.10
861.91	214.43
862.22	214.00
862.53	213.76
862.84	210.93
863.16	211.60
863.47	211.48
863.78	211.38
864.09	211.26
864.40	211.36
864.71	211.26
865.02	212.00
865.33	211.71
865.64	211.43
865.95	211.55
866.27	212.67
866.58	212.43
866.89	212.76
867.20	212.88
867.51	212.55
867.82	212.50
868.13	213.45
868.44	212.98
868.75	213.43
869.06	213.62
869.37	214.10
869.68	212.95
869.99	213.07
870.30	213.07
870.61	213.64
870.92	213.21
871.23	212.71
871.54	212.74
871.85	213.10
872.16	213.33
872.47	213.10
872.78	211.93
873.09	212.21
873.40	212.10
873.71	212.19
874.02	212.52
874.33	212.31
874.64	211.60
874.95	212.33
875.26	211.86
875.56	211.69
875.87	211.38
876.18	211.67
876.49	213.90
876.80	213.90
877.11	213.43
877.42	213.67
877.73	214.12
878.04	213.88
878.35	213.90
878.66	214.21
878.96	214.36
879.27	214.31
879.58	214.19
879.89	214.12
880.20	214.79
880.51	214.62
880.82	214.50
881.12	214.57
881.43	213.83
881.74	213.74
882.05	213.62
882.36	213.83
882.67	214.24
882.97	212.02
883.28	212.00
883.59	211.76
883.90	212.02
884.21	212.14
884.51	212.02
884.82	211.67
885.13	211.19
885.44	211.02
885.74	211.02
886.05	210.86
886.36	210.83
886.67	209.81
886.98	211.05
887.28	211.48
887.59	211.48
887.90	211.67
888.20	211.60
888.51	212.05
888.82	211.52
889.13	211.31
889.43	212.88
889.74	212.64
890.05	212.69
890.35	212.48
890.66	212.05
890.97	212.02
891.28	211.76
891.58	211.81
891.89	211.83
892.20	211.60
892.50	211.48
892.81	211.26
893.12	211.55
893.42	210.33
893.73	210.48
894.04	210.50
894.34	210.71
894.65	210.69
894.95	210.60
895.26	211.00
895.57	212.02
895.87	209.86
896.18	210.10
896.48	210.43
896.79	210.48
897.10	210.83
897.40	210.79
897.71	211.24
898.01	211.14
898.32	211.43
898.63	211.60
898.93	211.57
899.24	211.81
899.54	211.67
899.85	211.60
900.15	211.33
900.46	211.36
900.76	211.55
901.07	211.64
901.38	211.74
901.68	212.05
901.99	211.14
902.29	211.79
902.60	211.86
902.90	211.64
903.21	211.52
903.51	211.38
903.82	211.95
904.12	211.71
904.43	212.05
904.73	211.90
905.03	212.10
905.34	214.21
905.64	214.24
905.95	214.29
906.25	214.40
906.56	214.43
906.86	214.40
907.17	214.38
907.47	214.79
907.77	214.33
908.08	213.98
908.38	213.93
908.69	214.07
908.99	214.17
909.30	214.12
909.60	214.29
909.90	214.48
910.21	213.67
910.51	213.67
910.81	213.69
911.12	214.00
911.42	213.79
911.73	211.79
912.03	211.74
912.33	212.07
912.64	212.12
912.94	211.79
913.24	211.62
913.55	211.19
913.85	210.71
914.15	211.17
914.46	211.36
914.76	211.12
915.06	210.86
915.37	210.62
915.67	210.71
915.97	210.81
916.27	210.26
916.58	210.67
916.88	210.43
917.18	210.26
917.49	211.45
917.79	211.62
918.09	211.74
918.39	212.31
918.70	212.24
919.00	212.29
919.30	213.26
919.60	213.21
919.91	213.05
920.21	213.14
920.51	212.81
920.81	212.67
921.12	213.24
921.42	213.12
921.72	213.26
922.02	213.29
922.32	213.26
922.63	213.52
922.93	214.60
923.23	214.81
923.53	214.81
923.83	213.52
924.13	213.69
924.44	213.76
924.74	214.10
925.04	214.45
925.34	214.33
925.64	213.48
925.94	213.26
926.24	214.69
926.55	214.55
926.85	214.88
927.15	214.64
927.45	214.45
927.75	214.55
928.05	214.62
928.35	214.69
928.65	215.24
928.95	215.33
929.26	214.40
929.56	214.74
929.86	214.76
930.16	214.64
930.46	214.33
930.76	214.40
931.06	213.50
931.36	213.10
931.66	213.36
931.96	213.76
932.26	214.36
932.56	213.31
932.86	213.57
933.16	213.38
933.46	213.29
933.76	212.79
934.06	213.40
934.36	213.90
934.66	213.69
934.96	213.40
935.26	213.33
935.56	213.74
935.86	213.19
936.16	212.93
936.46	212.76
936.76	212.81
937.06	212.38
937.36	212.36
937.66	212.45
937.96	212.38
938.26	212.00
938.56	211.62
938.86	211.76
939.16	212.02
939.46	212.33
939.76	212.57
940.06	212.71
940.35	212.12
940.65	211.10
940.95	211.38
941.25	210.79
941.55	210.57
941.85	210.36
942.15	210.71
942.45	211.31
942.75	211.17
943.04	211.24
943.34	211.86
943.64	211.79
943.94	211.38
944.24	211.33
944.54	211.64
944.84	211.52
945.13	211.24
945.43	210.98
945.73	210.93
946.03	210.79
946.33	210.64
946.62	210.62
946.92	210.76
947.22	210.83
947.52	210.86
947.82	211.12
948.11	210.86
948.41	210.50
948.71	209.93
949.01	210.14
949.31	209.86
949.60	209.52
949.90	209.86
950.20	209.76
950.50	209.81
950.79	209.31
951.09	209.52
951.39	209.48
951.69	209.31
951.98	209.67
952.28	209.81
952.58	209.81
952.87	209.81
953.17	210.17
953.47	209.79
953.76	209.98
954.06	209.67
954.36	209.55
954.66	209.69
954.95	210.14
955.25	210.33
955.55	210.57
955.84	210.50
956.14	210.64
956.44	210.74
956.73	210.19
957.03	210.33
957.32	210.43
957.62	210.29
957.92	210.79
958.21	210.50
958.51	212.95
958.81	213.33
959.10	213.52
959.40	213.83
959.69	214.21
959.99	214.24
960.29	214.38
960.58	214.24
960.88	215.14
961.17	214.88
961.47	215.00
961.76	214.83
962.06	215.17
962.36	214.76
962.65	214.93
962.95	215.29
963.24	215.17
963.54	215.12
963.83	215.33
964.13	214.98
964.42	214.43
964.72	212.52
965.01	212.29
965.31	212.10
965.60	211.62
965.90	212.67
966.19	212.50
966.49	212.55
966.78	212.52
967.08	212.10
967.37	212.24
967.67	211.69
967.96	212.19
968.26	212.05
968.55	212.55
968.85	212.40
969.14	212.10
969.43	212.07
969.73	211.95
970.02	211.81
970.32	211.71
970.61	211.69
970.91	211.21
971.20	211.07
971.49	211.02
971.79	211.21
972.08	209.69
972.38	209.88
972.67	209.71
972.96	210.07
973.26	209.76
973.55	210.10
973.85	210.24
974.14	209.90
974.43	209.76
974.73	209.33
975.02	209.31
975.31	209.69
975.61	209.64
975.90	209.62
976.19	209.57
976.49	209.76
976.78	209.95
977.07	209.93
977.37	210.24
977.66	210.38
977.95	210.10
978.24	210.19
978.54	210.33
978.83	210.26
979.12	210.00
979.42	209.88
979.71	209.86
980.00	209.67
980.29	209.83
980.59	209.57
980.88	209.93
981.17	209.90
981.46	209.74
981.76	209.83
982.05	210.40
982.34	210.62
982.63	210.55
982.93	210.52
983.22	211.02
983.51	211.00
983.80	211.00
984.09	211.40
984.39	211.50
984.68	211.31
984.97	211.52
985.26	211.31
985.55	211.50
985.85	211.05
986.14	211.45
986.43	211.60
986.72	211.57
987.01	211.05
987.30	211.10
987.59	210.76
987.89	210.79
988.18	210.05
988.47	209.79
988.76	209.69
989.05	209.76
989.34	209.38
989.63	209.88
989.92	209.86
990.22	209.45
990.51	209.48
990.80	209.38
991.09	209.64
991.38	209.98
991.67	209.90
991.96	209.69
992.25	209.81
992.54	209.50
992.83	209.69
993.12	209.79
993.41	210.02
993.70	211.07
993.99	211.62
994.28	211.93
994.58	212.26
994.87	212.12
995.16	211.79
995.45	211.64
995.74	210.93
996.03	211.24
996.32	211.55
996.61	211.98
996.90	211.86
997.19	211.50
997.48	211.64
997.77	211.21
998.06	211.26
998.34	210.74
998.63	210.69
998.92	210.62
999.21	210.79
999.50	211.05
999.79	210.12
1000.08	209.98
1000.37	210.00
1000.66	209.88
1000.95	210.38
1001.24	210.81
1001.53	210.93
1001.82	210.93
1002.11	210.05
1002.40	210.14
1002.68	210.40
1002.97	211.95
1003.26	212.05
1003.55	211.76
1003.84	212.00
1004.13	212.93
1004.42	213.00
1004.71	212.93
1004.99	212.79
1005.28	213.40
1005.57	212.98
1005.86	213.10
1006.15	212.95
1006.44	212.64
1006.72	212.86
1007.01	212.57
1007.30	212.48
1007.59	212.50
1007.88	212.48
1008.17	212.83
1008.45	212.48
1008.74	211.76
1009.03	210.74
1009.32	210.67
1009.60	210.62
1009.89	210.64
1010.18	209.48
1010.47	209.52
1010.76	209.71
1011.04	209.81
1011.33	209.74
1011.62	209.90
1011.91	209.90
1012.19	209.93
1012.48	210.00
1012.77	209.90
1013.05	210.83
1013.34	210.76
1013.63	210.79
1013.92	210.95
1014.20	210.98
1014.49	211.26
1014.78	211.29
1015.06	210.64
1015.35	210.60
1015.64	210.86
1015.92	211.14
1016.21	211.50
1016.50	211.64
1016.78	211.74
1017.07	211.90
1017.36	211.38
1017.64	211.14
1017.93	211.40
1018.22	211.14
1018.50	211.31
1018.79	211.33
1019.08	210.26
1019.36	210.52
1019.65	210.12
1019.93	210.43
1020.22	210.69
1020.51	211.81
1020.79	211.71
1021.08	207.00
1021.36	210.00
1021.65	213.50
1021.94	207.00
1022.22	214.50
1022.51	205.00
1022.79	216.50
1023.08	213.50
1023.36	239.50
1023.65	206.00
>>>>>End Processed Spectral Data<<<<<
