SpectraSuite Data File
++++++++++++++++++++++++++++++++++++
Date: Tue Apr 02 18:44:42 EDT 2013
User: group
Dark Spectrum Present: No
Reference Spectrum Present: No
Number of Sampled Component Spectra: 1
Spectrometers: USB2E7196
Integration Time (usec): 580000 (USB2E7196)
Spectra Averaged: 2 (USB2E7196)
Boxcar Smoothing: 10 (USB2E7196)
Correct for Electrical Dark: No (USB2E7196)
Strobe/Lamp Enabled: No (USB2E7196)
Correct for Detector Non-linearity: No (USB2E7196)
Correct for Stray Light: No (USB2E7196)
Number of Pixels in Processed Spectrum: 2048
>>>>>Begin Processed Spectral Data<<<<<
339.09	0.00
339.48	191.50
339.86	195.50
340.24	192.50
340.63	200.00
341.01	229.50
341.39	202.50
341.78	203.50
342.16	210.00
342.54	206.00
342.93	197.52
343.31	207.29
343.69	208.10
344.07	208.71
344.46	209.76
344.84	210.29
345.22	209.36
345.60	209.69
345.99	210.10
346.37	210.07
346.75	210.33
347.13	210.45
347.52	210.48
347.90	211.19
348.28	211.10
348.66	211.64
349.05	211.21
349.43	211.45
349.81	211.83
350.19	211.88
350.57	211.88
350.96	212.33
351.34	212.95
351.72	213.05
352.10	213.21
352.48	213.02
352.87	212.95
353.25	213.00
353.63	213.05
354.01	213.05
354.39	213.33
354.77	213.24
355.15	213.76
355.54	213.86
355.92	213.29
356.30	213.52
356.68	214.60
357.06	214.79
357.44	214.67
357.82	214.55
358.20	215.55
358.58	215.43
358.97	215.19
359.35	215.45
359.73	215.83
360.11	215.79
360.49	215.79
360.87	216.07
361.25	216.26
361.63	217.00
362.01	216.93
362.39	216.55
362.77	216.86
363.15	216.74
363.53	216.57
363.91	216.98
364.29	216.93
364.67	215.17
365.05	215.14
365.43	215.43
365.81	215.76
366.19	215.86
366.57	217.05
366.95	217.14
367.33	216.55
367.71	216.43
368.09	216.81
368.47	216.86
368.85	216.55
369.23	217.02
369.61	216.24
369.99	217.00
370.37	217.43
370.75	218.21
371.13	217.83
371.51	217.57
371.89	217.52
372.27	217.52
372.65	217.57
373.03	217.74
373.41	217.43
373.78	217.14
374.16	215.83
374.54	215.10
374.92	214.95
375.30	214.95
375.68	214.60
376.06	214.55
376.44	214.55
376.82	214.60
377.19	214.26
377.57	214.21
377.95	213.40
378.33	213.29
378.71	212.26
379.09	212.40
379.47	212.74
379.84	212.55
380.22	212.40
380.60	212.19
380.98	211.98
381.36	212.12
381.73	211.95
382.11	212.62
382.49	212.71
382.87	212.17
383.25	212.02
383.62	214.43
384.00	214.14
384.38	214.29
384.76	214.81
385.13	215.71
385.51	215.69
385.89	215.67
386.27	215.55
386.64	215.64
387.02	215.52
387.40	215.36
387.78	215.67
388.15	215.71
388.53	215.86
388.91	215.81
389.29	215.48
389.66	215.62
390.04	215.14
390.42	215.45
390.79	215.93
391.17	216.19
391.55	214.07
391.92	214.07
392.30	213.98
392.68	213.31
393.05	212.93
393.43	212.93
393.81	213.07
394.18	212.83
394.56	213.29
394.94	213.81
395.31	213.86
395.69	214.31
396.06	214.81
396.44	215.17
396.82	214.83
397.19	216.21
397.57	215.90
397.95	216.43
398.32	215.90
398.70	216.07
399.07	216.29
399.45	216.07
399.82	215.90
400.20	215.83
400.58	216.00
400.95	215.36
401.33	215.88
401.70	217.33
402.08	217.79
402.45	217.48
402.83	217.93
403.20	217.95
403.58	217.95
403.95	218.19
404.33	218.33
404.71	218.90
405.08	219.95
405.46	220.48
405.83	220.88
406.21	221.14
406.58	221.62
406.96	222.05
407.33	222.69
407.70	223.81
408.08	226.05
408.45	227.02
408.83	228.00
409.20	228.43
409.58	227.88
409.95	228.88
410.33	229.81
410.70	230.24
411.08	231.64
411.45	232.52
411.82	233.29
412.20	234.83
412.57	237.21
412.95	236.79
413.32	238.67
413.69	239.86
414.07	241.67
414.44	243.64
414.82	245.57
415.19	247.88
415.56	249.76
415.94	251.05
416.31	253.67
416.68	256.38
417.06	259.83
417.43	263.36
417.81	266.76
418.18	270.55
418.55	274.17
418.93	277.93
419.30	281.98
419.67	286.45
420.04	290.74
420.42	294.48
420.79	301.60
421.16	307.10
421.54	313.93
421.91	320.12
422.28	326.00
422.66	332.40
423.03	340.64
423.40	347.71
423.77	354.60
424.15	361.88
424.52	369.76
424.89	378.21
425.26	385.71
425.64	393.12
426.01	401.40
426.38	410.17
426.75	419.62
427.13	429.10
427.50	438.83
427.87	448.90
428.24	459.12
428.61	467.90
428.99	479.26
429.36	490.07
429.73	501.64
430.10	512.95
430.47	525.00
430.85	535.05
431.22	547.29
431.59	562.29
431.96	574.90
432.33	588.62
432.70	602.19
433.08	618.36
433.45	633.86
433.82	649.19
434.19	666.36
434.56	683.50
434.93	698.88
435.30	715.21
435.68	732.83
436.05	750.74
436.42	767.69
436.79	783.38
437.16	800.48
437.53	817.38
437.90	835.21
438.27	852.62
438.64	870.93
439.01	888.02
439.38	901.40
439.75	915.76
440.13	932.36
440.50	947.64
440.87	960.48
441.24	973.64
441.61	987.98
441.98	998.52
442.35	1010.10
442.72	1023.33
443.09	1035.36
443.46	1042.19
443.83	1047.79
444.20	1052.29
444.57	1057.81
444.94	1060.81
445.31	1064.86
445.68	1071.31
446.05	1072.76
446.42	1071.88
446.79	1070.50
447.16	1068.98
447.53	1068.74
447.90	1062.26
448.27	1056.07
448.64	1047.74
449.01	1041.74
449.37	1030.64
449.74	1019.60
450.11	1008.50
450.48	993.88
450.85	978.24
451.22	966.67
451.59	954.10
451.96	942.26
452.33	926.95
452.70	912.67
453.07	895.88
453.43	875.55
453.80	859.50
454.17	843.36
454.54	828.74
454.91	812.12
455.28	795.62
455.65	780.98
456.02	769.12
456.38	755.93
456.75	740.21
457.12	726.93
457.49	713.98
457.86	699.88
458.23	690.24
458.59	679.17
458.96	666.79
459.33	655.93
459.70	645.33
460.07	637.45
460.43	627.90
460.80	618.86
461.17	611.76
461.54	603.07
461.91	594.81
462.27	585.98
462.64	578.93
463.01	571.93
463.38	565.93
463.74	555.40
464.11	549.14
464.48	543.69
464.85	537.26
465.21	533.36
465.58	528.31
465.95	520.86
466.32	515.93
466.68	511.12
467.05	505.86
467.42	500.83
467.78	494.81
468.15	489.86
468.52	486.50
468.88	480.76
469.25	476.31
469.62	473.62
469.98	470.17
470.35	467.07
470.72	463.31
471.08	458.38
471.45	455.98
471.82	453.33
472.18	449.55
472.55	447.43
472.92	443.55
473.28	440.40
473.65	437.76
474.02	435.12
474.38	432.98
474.75	430.98
475.11	429.10
475.48	428.19
475.85	426.50
476.21	424.36
476.58	423.29
476.94	421.71
477.31	419.95
477.67	418.36
478.04	417.26
478.41	416.69
478.77	418.19
479.14	417.26
479.50	416.43
479.87	416.55
480.23	415.95
480.60	415.57
480.96	415.05
481.33	415.95
481.69	415.76
482.06	415.95
482.42	416.57
482.79	416.79
483.15	416.86
483.52	418.02
483.88	418.55
484.25	419.07
484.61	419.95
484.98	420.67
485.34	422.62
485.71	424.07
486.07	424.93
486.44	424.69
486.80	426.05
487.17	427.33
487.53	429.36
487.90	431.55
488.26	434.95
488.62	438.02
488.99	439.93
489.35	442.55
489.72	444.52
490.08	447.02
490.44	449.79
490.81	452.90
491.17	455.79
491.54	459.50
491.90	463.21
492.26	467.07
492.63	470.83
492.99	474.12
493.36	478.21
493.72	483.05
494.08	487.36
494.45	492.26
494.81	497.52
495.17	501.71
495.54	506.79
495.90	511.07
496.26	515.74
496.63	521.05
496.99	526.67
497.35	532.43
497.72	538.62
498.08	544.33
498.44	550.33
498.80	556.76
499.17	562.29
499.53	568.52
499.89	575.38
500.26	581.83
500.62	588.33
500.98	595.43
501.34	601.90
501.71	608.81
502.07	615.45
502.43	622.57
502.79	630.14
503.16	637.29
503.52	644.40
503.88	651.86
504.24	659.76
504.60	667.14
504.97	674.98
505.33	682.38
505.69	691.40
506.05	699.33
506.41	706.98
506.78	714.69
507.14	722.67
507.50	730.55
507.86	738.62
508.22	747.31
508.59	754.40
508.95	762.55
509.31	771.48
509.67	779.48
510.03	786.67
510.39	794.29
510.75	801.95
511.12	809.71
511.48	817.07
511.84	824.12
512.20	831.79
512.56	839.43
512.92	847.00
513.28	853.62
513.64	860.60
514.00	868.21
514.37	875.69
514.73	882.71
515.09	890.29
515.45	897.12
515.81	903.43
516.17	910.10
516.53	916.45
516.89	921.88
517.25	928.81
517.61	936.17
517.97	942.60
518.33	948.60
518.69	954.98
519.05	962.31
519.41	969.00
519.77	976.21
520.13	982.38
520.49	988.21
520.85	993.93
521.21	1000.31
521.57	1005.45
521.93	1010.45
522.29	1015.71
522.65	1020.05
523.01	1025.33
523.37	1030.21
523.73	1035.57
524.09	1040.50
524.45	1045.33
524.81	1049.93
525.17	1054.52
525.53	1059.74
525.89	1065.10
526.25	1069.83
526.61	1073.45
526.97	1076.79
527.33	1080.52
527.68	1086.64
528.04	1091.48
528.40	1095.60
528.76	1099.76
529.12	1104.26
529.48	1109.76
529.84	1113.69
530.20	1118.43
530.56	1123.55
530.91	1128.14
531.27	1132.52
531.63	1137.69
531.99	1141.29
532.35	1144.88
532.71	1148.64
533.07	1152.60
533.42	1158.62
533.78	1162.79
534.14	1166.95
534.50	1171.40
534.86	1175.33
535.21	1177.31
535.57	1181.24
535.93	1184.98
536.29	1189.40
536.65	1193.29
537.00	1196.50
537.36	1200.40
537.72	1203.95
538.08	1206.98
538.44	1210.10
538.79	1213.60
539.15	1215.71
539.51	1219.69
539.87	1223.36
540.22	1226.45
540.58	1229.26
540.94	1230.52
541.29	1233.62
541.65	1236.14
542.01	1239.38
542.37	1241.95
542.72	1244.14
543.08	1245.81
543.44	1248.50
543.79	1249.64
544.15	1251.93
544.51	1255.81
544.87	1258.95
545.22	1261.74
545.58	1264.38
545.94	1267.17
546.29	1269.45
546.65	1272.50
547.01	1275.21
547.36	1276.81
547.72	1279.38
548.07	1282.24
548.43	1284.33
548.79	1285.90
549.14	1288.67
549.50	1291.52
549.86	1293.86
550.21	1297.14
550.57	1300.29
550.92	1302.74
551.28	1306.69
551.64	1309.50
551.99	1310.95
552.35	1314.19
552.70	1317.05
553.06	1320.17
553.41	1323.50
553.77	1328.48
554.13	1332.21
554.48	1336.64
554.84	1342.19
555.19	1345.81
555.55	1350.86
555.90	1354.90
556.26	1359.33
556.61	1363.57
556.97	1367.12
557.32	1371.52
557.68	1375.29
558.03	1379.64
558.39	1384.31
558.74	1388.05
559.10	1391.88
559.45	1396.43
559.81	1400.36
560.16	1404.29
560.52	1408.12
560.87	1412.14
561.23	1414.98
561.58	1420.67
561.94	1424.33
562.29	1427.74
562.64	1432.98
563.00	1436.26
563.35	1441.00
563.71	1446.26
564.06	1451.26
564.42	1456.62
564.77	1461.86
565.12	1468.07
565.48	1475.64
565.83	1482.21
566.19	1487.88
566.54	1494.26
566.89	1499.83
567.25	1506.02
567.60	1513.40
567.96	1522.00
568.31	1529.21
568.66	1535.76
569.02	1540.40
569.37	1545.83
569.72	1551.74
570.08	1556.76
570.43	1561.86
570.78	1568.05
571.14	1574.38
571.49	1579.86
571.84	1585.45
572.20	1590.74
572.55	1595.81
572.90	1597.95
573.26	1601.36
573.61	1605.67
573.96	1610.69
574.31	1615.81
574.67	1619.60
575.02	1622.05
575.37	1623.48
575.72	1625.29
576.08	1629.48
576.43	1632.52
576.78	1635.79
577.13	1639.24
577.49	1643.02
577.84	1647.14
578.19	1650.00
578.54	1653.79
578.90	1657.45
579.25	1660.24
579.60	1663.50
579.95	1666.02
580.30	1670.43
580.66	1674.98
581.01	1677.93
581.36	1680.00
581.71	1682.95
582.06	1687.69
582.42	1692.29
582.77	1695.45
583.12	1699.48
583.47	1702.14
583.82	1706.02
584.17	1710.02
584.53	1714.26
584.88	1717.93
585.23	1721.31
585.58	1723.83
585.93	1725.36
586.28	1728.48
586.63	1731.64
586.98	1735.29
587.34	1739.31
587.69	1741.36
588.04	1742.67
588.39	1745.26
588.74	1746.98
589.09	1750.02
589.44	1749.69
589.79	1750.86
590.14	1753.76
590.49	1755.36
590.84	1756.29
591.19	1758.05
591.54	1759.07
591.89	1760.43
592.25	1763.07
592.60	1764.67
592.95	1768.19
593.30	1769.76
593.65	1770.07
594.00	1770.31
594.35	1775.48
594.70	1774.86
595.05	1775.67
595.40	1776.76
595.75	1777.69
596.10	1779.33
596.45	1779.45
596.80	1781.40
597.15	1782.40
597.50	1782.45
597.85	1784.31
598.19	1785.57
598.54	1784.83
598.89	1785.88
599.24	1785.98
599.59	1784.62
599.94	1783.95
600.29	1783.21
600.64	1782.95
600.99	1783.55
601.34	1785.36
601.69	1780.29
602.04	1779.19
602.39	1779.12
602.74	1779.50
603.08	1779.57
603.43	1779.83
603.78	1779.36
604.13	1778.48
604.48	1778.00
604.83	1777.40
605.18	1776.90
605.53	1776.74
605.87	1775.76
606.22	1774.64
606.57	1773.24
606.92	1772.07
607.27	1772.24
607.62	1770.88
607.96	1770.12
608.31	1769.40
608.66	1767.86
609.01	1766.14
609.36	1766.36
609.70	1764.71
610.05	1763.00
610.40	1761.31
610.75	1758.90
611.10	1756.57
611.44	1754.10
611.79	1751.62
612.14	1749.57
612.49	1745.60
612.83	1742.40
613.18	1741.21
613.53	1738.48
613.88	1735.74
614.22	1732.55
614.57	1728.10
614.92	1724.60
615.27	1720.90
615.61	1715.83
615.96	1711.10
616.31	1707.74
616.65	1704.86
617.00	1702.81
617.35	1699.60
617.70	1696.12
618.04	1692.62
618.39	1689.55
618.74	1685.21
619.08	1680.88
619.43	1676.69
619.78	1673.74
620.12	1670.40
620.47	1665.88
620.82	1661.88
621.16	1657.26
621.51	1654.52
621.85	1650.24
622.20	1645.83
622.55	1641.98
622.89	1639.24
623.24	1637.19
623.59	1632.88
623.93	1628.12
624.28	1622.19
624.62	1619.95
624.97	1616.98
625.32	1613.05
625.66	1608.60
626.01	1605.76
626.35	1603.48
626.70	1599.48
627.04	1595.29
627.39	1590.40
627.73	1588.02
628.08	1584.60
628.43	1581.36
628.77	1577.02
629.12	1573.88
629.46	1570.52
629.81	1566.24
630.15	1561.88
630.50	1555.67
630.84	1550.52
631.19	1546.40
631.53	1542.69
631.88	1535.36
632.22	1528.90
632.57	1524.88
632.91	1519.98
633.26	1515.12
633.60	1508.83
633.95	1504.17
634.29	1498.93
634.64	1495.79
634.98	1490.12
635.32	1485.64
635.67	1481.36
636.01	1476.90
636.36	1471.74
636.70	1468.67
637.05	1464.43
637.39	1460.29
637.73	1456.93
638.08	1454.26
638.42	1449.74
638.77	1445.12
639.11	1440.81
639.45	1437.24
639.80	1431.81
640.14	1426.86
640.49	1422.26
640.83	1418.07
641.17	1413.07
641.52	1409.33
641.86	1403.48
642.20	1398.79
642.55	1393.21
642.89	1386.88
643.23	1381.24
643.58	1376.90
643.92	1369.38
644.26	1363.95
644.61	1358.69
644.95	1352.81
645.29	1346.02
645.64	1340.95
645.98	1336.02
646.32	1330.81
646.66	1324.21
647.01	1318.48
647.35	1312.81
647.69	1306.48
648.04	1300.07
648.38	1295.26
648.72	1289.19
649.06	1283.62
649.41	1277.86
649.75	1271.14
650.09	1266.31
650.43	1259.62
650.78	1253.02
651.12	1247.10
651.46	1240.71
651.80	1234.29
652.14	1227.93
652.49	1222.69
652.83	1215.69
653.17	1208.21
653.51	1201.29
653.85	1195.55
654.20	1189.45
654.54	1182.48
654.88	1176.29
655.22	1171.31
655.56	1163.81
655.90	1157.10
656.25	1150.19
656.59	1142.74
656.93	1136.43
657.27	1130.40
657.61	1124.57
657.95	1118.64
658.29	1112.52
658.64	1106.69
658.98	1099.93
659.32	1092.74
659.66	1086.29
660.00	1080.10
660.34	1073.98
660.68	1067.69
661.02	1061.31
661.36	1054.69
661.70	1049.55
662.05	1043.00
662.39	1035.95
662.73	1031.00
663.07	1025.64
663.41	1019.81
663.75	1014.21
664.09	1009.12
664.43	1002.31
664.77	995.71
665.11	988.67
665.45	982.64
665.79	976.45
666.13	970.50
666.47	965.26
666.81	958.81
667.15	952.88
667.49	947.38
667.83	943.02
668.17	937.26
668.51	932.17
668.85	926.52
669.19	922.29
669.53	916.43
669.87	909.95
670.21	904.31
670.55	898.21
670.89	893.52
671.23	888.02
671.57	882.62
671.91	877.64
672.25	872.98
672.58	868.07
672.92	862.67
673.26	857.10
673.60	852.05
673.94	847.17
674.28	842.36
674.62	837.57
674.96	831.76
675.30	826.60
675.64	821.07
675.97	816.05
676.31	810.31
676.65	804.98
676.99	801.17
677.33	795.98
677.67	791.90
678.01	785.88
678.34	781.00
678.68	776.57
679.02	771.10
679.36	765.74
679.70	760.86
680.04	755.62
680.37	750.88
680.71	745.57
681.05	741.10
681.39	736.33
681.73	731.67
682.06	726.86
682.40	722.57
682.74	718.43
683.08	713.83
683.42	709.31
683.75	705.86
684.09	700.19
684.43	694.71
684.77	689.55
685.10	685.55
685.44	680.52
685.78	675.33
686.12	671.02
686.45	666.83
686.79	661.43
687.13	657.69
687.46	653.31
687.80	649.81
688.14	644.93
688.48	640.67
688.81	635.93
689.15	632.19
689.49	626.95
689.82	622.05
690.16	617.12
690.50	612.45
690.83	607.17
691.17	602.26
691.51	598.02
691.84	593.76
692.18	588.64
692.52	584.76
692.85	581.33
693.19	578.69
693.52	574.69
693.86	570.90
694.20	566.64
694.53	562.83
694.87	558.31
695.21	554.50
695.54	550.07
695.88	545.93
696.21	540.33
696.55	536.83
696.88	533.33
697.22	529.90
697.56	526.86
697.89	523.55
698.23	520.93
698.56	517.40
698.90	514.57
699.23	511.57
699.57	508.31
699.90	504.48
700.24	500.33
700.58	496.43
700.91	493.31
701.25	491.33
701.58	488.76
701.92	486.38
702.25	483.31
702.59	479.79
702.92	476.60
703.26	474.40
703.59	471.74
703.93	470.24
704.26	467.64
704.60	464.60
704.93	461.29
705.26	458.05
705.60	455.83
705.93	452.21
706.27	449.95
706.60	447.31
706.94	445.12
707.27	442.31
707.61	439.86
707.94	436.88
708.27	432.71
708.61	429.21
708.94	425.83
709.28	423.45
709.61	421.38
709.94	419.05
710.28	416.52
710.61	413.67
710.95	409.50
711.28	408.10
711.61	405.29
711.95	403.36
712.28	400.81
712.61	398.05
712.95	396.60
713.28	394.76
713.61	391.67
713.95	388.76
714.28	386.38
714.61	384.45
714.95	382.33
715.28	380.05
715.61	377.86
715.95	376.12
716.28	373.98
716.61	372.36
716.95	370.00
717.28	367.76
717.61	365.74
717.94	363.76
718.28	360.52
718.61	358.95
718.94	356.69
719.27	354.79
719.61	353.26
719.94	351.05
720.27	348.33
720.60	346.79
720.94	345.40
721.27	343.81
721.60	342.52
721.93	341.10
722.27	340.52
722.60	339.17
722.93	337.38
723.26	335.83
723.59	333.69
723.93	332.67
724.26	331.57
724.59	330.36
724.92	329.33
725.25	328.67
725.59	326.98
725.92	326.14
726.25	325.00
726.58	323.81
726.91	322.60
727.24	321.60
727.57	320.83
727.91	319.40
728.24	318.19
728.57	316.55
728.90	315.67
729.23	313.69
729.56	313.50
729.89	312.57
730.22	311.52
730.55	310.26
730.89	309.14
731.22	308.10
731.55	306.88
731.88	305.76
732.21	304.19
732.54	303.14
732.87	302.21
733.20	301.26
733.53	300.45
733.86	299.64
734.19	298.33
734.52	297.10
734.85	297.55
735.18	296.83
735.51	296.52
735.84	295.40
736.17	295.12
736.50	293.31
736.83	294.62
737.16	293.62
737.49	292.62
737.82	291.74
738.15	290.76
738.48	290.00
738.81	289.02
739.14	288.14
739.47	287.17
739.80	286.02
740.13	285.48
740.46	284.19
740.79	282.86
741.12	282.05
741.45	280.93
741.78	278.86
742.11	278.71
742.44	277.64
742.77	277.29
743.10	276.33
743.43	275.21
743.75	272.12
744.08	273.90
744.41	273.38
744.74	272.60
745.07	271.62
745.40	270.95
745.73	271.38
746.06	270.48
746.39	270.31
746.71	269.36
747.04	268.19
747.37	267.48
747.70	267.26
748.03	266.90
748.36	266.86
748.68	266.21
749.01	264.67
749.34	263.95
749.67	263.21
750.00	262.81
750.33	264.17
750.65	263.93
750.98	260.98
751.31	260.64
751.64	260.07
751.97	260.98
752.29	260.57
752.62	258.86
752.95	258.45
753.28	257.57
753.60	257.19
753.93	257.36
754.26	256.95
754.59	255.76
754.91	254.88
755.24	254.07
755.57	253.64
755.90	253.21
756.22	252.43
756.55	251.62
756.88	250.62
757.20	248.45
757.53	247.21
757.86	246.69
758.19	246.10
758.51	245.71
758.84	243.98
759.17	243.26
759.49	243.17
759.82	243.62
760.15	243.33
760.47	242.81
760.80	241.60
761.13	241.52
761.45	241.07
761.78	240.79
762.11	240.57
762.43	239.88
762.76	239.33
763.08	239.24
763.41	239.14
763.74	239.02
764.06	238.88
764.39	238.88
764.71	238.38
765.04	237.98
765.37	237.26
765.69	237.00
766.02	236.71
766.34	236.02
766.67	235.05
767.00	235.21
767.32	236.21
767.65	237.24
767.97	236.95
768.30	236.98
768.62	236.67
768.95	236.07
769.27	235.90
769.60	235.88
769.92	235.43
770.25	234.93
770.57	234.17
770.90	233.86
771.22	233.45
771.55	233.60
771.87	233.57
772.20	233.33
772.52	234.79
772.85	237.24
773.17	237.38
773.50	237.10
773.82	236.43
774.15	235.07
774.47	233.67
774.80	232.95
775.12	232.90
775.45	232.76
775.77	232.79
776.09	232.88
776.42	232.83
776.74	233.24
777.07	232.79
777.39	232.81
777.72	232.38
778.04	232.40
778.36	231.74
778.69	231.40
779.01	231.60
779.33	229.86
779.66	227.36
779.98	226.62
780.31	226.43
780.63	227.14
780.95	227.33
781.28	227.40
781.60	227.45
781.92	227.05
782.25	226.90
782.57	226.55
782.89	226.29
783.22	226.00
783.54	225.40
783.86	225.57
784.19	225.40
784.51	226.02
784.83	225.55
785.16	225.60
785.48	225.52
785.80	225.38
786.12	225.36
786.45	224.90
786.77	225.29
787.09	224.98
787.42	224.00
787.74	223.81
788.06	223.62
788.38	223.45
788.71	223.26
789.03	223.17
789.35	223.55
789.67	222.98
789.99	223.07
790.32	222.55
790.64	222.67
790.96	224.24
791.28	223.33
791.61	223.19
791.93	223.31
792.25	223.24
792.57	224.60
792.89	223.88
793.21	224.17
793.54	223.95
793.86	223.98
794.18	223.93
794.50	223.64
794.82	223.50
795.14	223.60
795.47	224.02
795.79	224.10
796.11	223.45
796.43	223.48
796.75	223.26
797.07	223.43
797.39	223.29
797.71	221.81
798.04	221.88
798.36	222.00
798.68	221.83
799.00	221.95
799.32	220.57
799.64	221.05
799.96	220.74
800.28	220.67
800.60	220.40
800.92	220.62
801.24	220.48
801.56	220.55
801.89	220.31
802.21	220.36
802.53	219.95
802.85	220.40
803.17	221.21
803.49	220.60
803.81	220.36
804.13	220.12
804.45	219.79
804.77	220.10
805.09	220.12
805.41	219.71
805.73	219.31
806.05	218.95
806.37	218.95
806.69	218.90
807.01	218.76
807.33	218.69
807.65	218.00
807.97	219.00
808.28	218.71
808.60	218.71
808.92	218.14
809.24	219.36
809.56	218.86
809.88	218.29
810.20	218.71
810.52	219.33
810.84	219.10
811.16	218.98
811.48	218.57
811.80	219.36
812.12	219.36
812.43	219.62
812.75	219.86
813.07	219.55
813.39	219.62
813.71	219.29
814.03	219.26
814.35	219.14
814.67	218.26
814.98	218.12
815.30	218.05
815.62	217.98
815.94	216.50
816.26	216.60
816.58	216.17
816.89	215.93
817.21	215.36
817.53	215.55
817.85	215.60
818.17	215.90
818.48	214.86
818.80	215.24
819.12	214.93
819.44	214.60
819.76	214.21
820.07	214.02
820.39	214.12
820.71	214.31
821.03	214.50
821.34	214.40
821.66	214.79
821.98	214.86
822.30	214.55
822.61	216.02
822.93	215.88
823.25	215.62
823.57	215.76
823.88	215.83
824.20	215.67
824.52	216.10
824.83	215.79
825.15	215.55
825.47	215.55
825.79	215.79
826.10	215.43
826.42	215.52
826.74	215.88
827.05	215.74
827.37	215.79
827.69	215.74
828.00	215.67
828.32	215.50
828.64	215.26
828.95	216.50
829.27	215.90
829.58	215.95
829.90	216.52
830.22	216.79
830.53	216.71
830.85	216.67
831.17	216.07
831.48	216.02
831.80	216.21
832.11	215.90
832.43	215.48
832.75	215.64
833.06	216.83
833.38	216.05
833.69	216.10
834.01	216.14
834.32	216.00
834.64	215.55
834.96	215.60
835.27	215.55
835.59	214.79
835.90	214.24
836.22	214.00
836.53	213.57
836.85	213.26
837.16	215.50
837.48	215.38
837.79	216.14
838.11	216.33
838.42	216.50
838.74	216.60
839.05	216.48
839.37	216.50
839.68	215.21
840.00	215.36
840.31	215.38
840.63	215.31
840.94	215.17
841.26	215.24
841.57	215.12
841.88	215.38
842.20	215.05
842.51	214.76
842.83	215.00
843.14	216.79
843.46	216.69
843.77	215.31
844.08	215.07
844.40	214.05
844.71	213.90
845.03	213.55
845.34	213.55
845.65	213.64
845.97	213.62
846.28	213.86
846.60	213.90
846.91	213.79
847.22	213.40
847.54	213.81
847.85	213.90
848.16	213.79
848.48	213.48
848.79	214.21
849.10	214.60
849.42	214.55
849.73	212.95
850.04	212.93
850.36	212.17
850.67	212.79
850.98	213.10
851.30	213.17
851.61	213.19
851.92	212.95
852.23	213.83
852.55	213.88
852.86	213.98
853.17	214.12
853.49	214.57
853.80	215.10
854.11	215.14
854.42	215.33
854.74	215.31
855.05	215.26
855.36	214.48
855.67	214.64
855.99	214.71
856.30	216.88
856.61	216.81
856.92	216.62
857.23	216.64
857.55	216.52
857.86	216.38
858.17	216.62
858.48	216.69
858.79	215.86
859.11	216.21
859.42	215.88
859.73	215.62
860.04	215.40
860.35	214.79
860.66	214.24
860.98	214.14
861.29	214.14
861.60	214.14
861.91	214.33
862.22	213.90
862.53	213.76
862.84	211.45
863.16	211.98
863.47	211.81
863.78	211.43
864.09	211.29
864.40	211.40
864.71	211.45
865.02	211.38
865.33	211.26
865.64	210.60
865.95	210.64
866.27	211.90
866.58	211.88
866.89	212.24
867.20	212.26
867.51	211.98
867.82	212.14
868.13	212.71
868.44	212.33
868.75	212.62
869.06	212.57
869.37	212.67
869.68	212.05
869.99	212.55
870.30	212.60
870.61	212.79
870.92	212.38
871.23	212.12
871.54	212.40
871.85	213.07
872.16	213.29
872.47	213.24
872.78	212.26
873.09	212.52
873.40	212.21
873.71	212.29
874.02	212.57
874.33	212.26
874.64	211.81
874.95	212.60
875.26	212.21
875.56	212.21
875.87	212.10
876.18	211.90
876.49	214.02
876.80	214.05
877.11	213.95
877.42	214.07
877.73	214.21
878.04	214.02
878.35	213.86
878.66	214.21
878.96	214.12
879.27	213.98
879.58	213.88
879.89	213.88
880.20	214.62
880.51	214.45
880.82	214.52
881.12	214.62
881.43	214.26
881.74	214.19
882.05	214.07
882.36	214.31
882.67	214.57
882.97	212.21
883.28	211.95
883.59	211.76
883.90	212.05
884.21	212.26
884.51	212.21
884.82	211.74
885.13	211.76
885.44	211.86
885.74	211.81
886.05	211.48
886.36	211.50
886.67	210.76
886.98	211.71
887.28	212.21
887.59	212.21
887.90	212.21
888.20	212.02
888.51	212.38
888.82	212.19
889.13	212.48
889.43	214.17
889.74	214.05
890.05	214.14
890.35	213.74
890.66	213.33
890.97	213.29
891.28	213.31
891.58	213.26
891.89	213.19
892.20	213.10
892.50	213.10
892.81	213.00
893.12	212.86
893.42	212.00
893.73	211.62
894.04	211.67
894.34	211.64
894.65	211.57
894.95	211.29
895.26	211.33
895.57	212.12
895.87	210.14
896.18	210.52
896.48	210.57
896.79	210.79
897.10	211.31
897.40	211.36
897.71	211.31
898.01	211.00
898.32	211.36
898.63	211.33
898.93	211.52
899.24	211.50
899.54	211.40
899.85	211.33
900.15	211.24
900.46	211.10
900.76	211.21
901.07	211.40
901.38	211.50
901.68	211.69
901.99	210.83
902.29	211.17
902.60	211.02
902.90	210.67
903.21	210.64
903.51	210.45
903.82	210.69
904.12	210.98
904.43	211.21
904.73	211.02
905.03	211.24
905.34	213.02
905.64	213.02
905.95	213.21
906.25	213.12
906.56	213.17
906.86	213.10
907.17	212.98
907.47	213.10
907.77	212.95
908.08	212.52
908.38	212.64
908.69	212.74
908.99	213.17
909.30	213.69
909.60	213.90
909.90	213.98
910.21	213.69
910.51	213.50
910.81	213.40
911.12	213.48
911.42	213.52
911.73	211.57
912.03	211.71
912.33	212.17
912.64	212.43
912.94	212.29
913.24	212.07
913.55	211.90
913.85	211.74
914.15	212.21
914.46	212.29
914.76	211.95
915.06	211.67
915.37	211.31
915.67	211.00
915.97	210.60
916.27	210.17
916.58	210.17
916.88	209.98
917.18	209.95
917.49	211.36
917.79	211.40
918.09	211.64
918.39	212.33
918.70	212.14
919.00	212.00
919.30	212.95
919.60	212.98
919.91	212.71
920.21	212.88
920.51	212.29
920.81	212.36
921.12	212.69
921.42	212.79
921.72	213.00
922.02	213.07
922.32	213.55
922.63	213.67
922.93	214.67
923.23	214.93
923.53	214.64
923.83	213.24
924.13	213.26
924.44	213.21
924.74	213.26
925.04	213.74
925.34	213.83
925.64	213.26
925.94	213.36
926.24	214.74
926.55	214.64
926.85	214.93
927.15	215.00
927.45	215.00
927.75	214.88
928.05	214.76
928.35	214.76
928.65	215.00
928.95	215.17
929.26	214.14
929.56	214.33
929.86	214.71
930.16	214.64
930.46	214.31
930.76	214.29
931.06	213.33
931.36	212.71
931.66	213.10
931.96	213.14
932.26	213.12
932.56	212.05
932.86	212.10
933.16	212.19
933.46	212.00
933.76	211.74
934.06	212.52
934.36	213.52
934.66	213.43
934.96	212.98
935.26	213.12
935.56	213.48
935.86	213.02
936.16	212.62
936.46	212.50
936.76	212.43
937.06	212.24
937.36	212.48
937.66	212.67
937.96	212.26
938.26	211.76
938.56	211.57
938.86	211.83
939.16	212.17
939.46	212.40
939.76	212.57
940.06	212.48
940.35	211.86
940.65	210.48
940.95	210.81
941.25	210.55
941.55	210.31
941.85	210.21
942.15	210.93
942.45	211.62
942.75	211.69
943.04	211.88
943.34	212.33
943.64	212.10
943.94	211.93
944.24	212.19
944.54	212.21
944.84	212.38
945.13	212.19
945.43	212.31
945.73	212.02
946.03	211.76
946.33	211.57
946.62	211.55
946.92	211.57
947.22	211.76
947.52	211.90
947.82	212.17
948.11	212.10
948.41	211.55
948.71	210.76
949.01	210.62
949.31	210.40
949.60	210.19
949.90	210.48
950.20	210.43
950.50	210.24
950.79	210.36
951.09	210.52
951.39	210.33
951.69	209.74
951.98	210.12
952.28	210.24
952.58	210.33
952.87	210.10
953.17	210.50
953.47	210.12
953.76	210.26
954.06	209.81
954.36	209.21
954.66	209.19
954.95	210.02
955.25	210.19
955.55	210.36
955.84	209.95
956.14	210.12
956.44	210.10
956.73	209.79
957.03	209.71
957.32	209.76
957.62	209.71
957.92	210.29
958.21	210.29
958.51	212.86
958.81	213.12
959.10	213.60
959.40	213.98
959.69	214.07
959.99	214.26
960.29	214.36
960.58	214.71
960.88	215.38
961.17	215.00
961.47	215.19
961.76	215.17
962.06	215.64
962.36	215.50
962.65	215.33
962.95	215.74
963.24	215.57
963.54	215.64
963.83	215.86
964.13	215.64
964.42	214.79
964.72	213.21
965.01	213.24
965.31	212.69
965.60	212.29
965.90	213.90
966.19	213.55
966.49	213.83
966.78	213.86
967.08	213.86
967.37	213.81
967.67	213.45
967.96	213.55
968.26	213.48
968.55	213.83
968.85	214.00
969.14	213.76
969.43	213.79
969.73	213.55
970.02	213.43
970.32	213.48
970.61	213.76
970.91	212.83
971.20	212.48
971.49	212.48
971.79	212.50
972.08	210.62
972.38	210.74
972.67	210.52
972.96	210.57
973.26	209.79
973.55	210.26
973.85	210.21
974.14	210.14
974.43	210.26
974.73	209.64
975.02	209.43
975.31	209.40
975.61	209.69
975.90	209.50
976.19	209.24
976.49	209.12
976.78	209.24
977.07	209.12
977.37	209.29
977.66	209.69
977.95	209.52
978.24	209.86
978.54	210.07
978.83	209.86
979.12	209.81
979.42	210.31
979.71	210.00
980.00	209.93
980.29	210.07
980.59	209.62
980.88	210.38
981.17	210.50
981.46	210.64
981.76	210.45
982.05	211.33
982.34	211.43
982.63	211.62
982.93	211.50
983.22	212.45
983.51	212.43
983.80	212.50
984.09	212.67
984.39	212.29
984.68	212.14
984.97	212.21
985.26	212.29
985.55	212.33
985.85	212.02
986.14	212.52
986.43	212.69
986.72	212.81
987.01	212.02
987.30	212.07
987.59	211.79
987.89	211.83
988.18	211.10
988.47	211.02
988.76	210.52
989.05	210.57
989.34	209.90
989.63	210.60
989.92	210.43
990.22	210.19
990.51	210.26
990.80	210.17
991.09	210.36
991.38	210.33
991.67	210.05
991.96	209.88
992.25	209.74
992.54	209.40
992.83	209.33
993.12	209.36
993.41	209.62
993.70	210.55
993.99	210.90
994.28	211.02
994.58	211.45
994.87	211.67
995.16	211.60
995.45	211.48
995.74	210.67
996.03	210.93
996.32	211.19
996.61	211.69
996.90	211.69
997.19	211.50
997.48	211.29
997.77	211.07
998.06	211.33
998.34	211.31
998.63	211.17
998.92	211.38
999.21	211.64
999.50	211.62
999.79	210.71
1000.08	210.52
1000.37	210.64
1000.66	210.26
1000.95	210.55
1001.24	210.60
1001.53	210.88
1001.82	210.88
1002.11	210.38
1002.40	210.62
1002.68	210.95
1002.97	212.45
1003.26	212.36
1003.55	212.45
1003.84	212.52
1004.13	213.17
1004.42	213.12
1004.71	213.21
1004.99	212.93
1005.28	213.48
1005.57	213.26
1005.86	213.14
1006.15	213.05
1006.44	212.76
1006.72	212.98
1007.01	212.60
1007.30	212.57
1007.59	212.33
1007.88	212.17
1008.17	212.26
1008.45	211.95
1008.74	211.12
1009.03	209.90
1009.32	209.81
1009.60	209.52
1009.89	209.48
1010.18	208.57
1010.47	208.40
1010.76	208.48
1011.04	208.55
1011.33	208.64
1011.62	208.93
1011.91	209.24
1012.19	209.43
1012.48	209.38
1012.77	209.40
1013.05	210.45
1013.34	210.45
1013.63	210.36
1013.92	210.88
1014.20	210.86
1014.49	210.95
1014.78	211.43
1015.06	210.90
1015.35	210.90
1015.64	211.38
1015.92	211.69
1016.21	211.88
1016.50	211.81
1016.78	211.93
1017.07	212.10
1017.36	211.52
1017.64	211.07
1017.93	211.14
1018.22	211.10
1018.50	211.12
1018.79	211.14
1019.08	210.14
1019.36	210.19
1019.65	210.10
1019.93	210.14
1020.22	210.29
1020.51	211.02
1020.79	210.57
1021.08	212.00
1021.36	206.50
1021.65	211.50
1021.94	209.00
1022.22	210.00
1022.51	207.00
1022.79	215.50
1023.08	210.50
1023.36	231.00
1023.65	205.50
>>>>>End Processed Spectral Data<<<<<
