SpectraSuite Data File
++++++++++++++++++++++++++++++++++++
Date: Tue Apr 02 18:45:22 EDT 2013
User: group
Dark Spectrum Present: No
Reference Spectrum Present: No
Number of Sampled Component Spectra: 1
Spectrometers: USB2E7196
Integration Time (usec): 580000 (USB2E7196)
Spectra Averaged: 2 (USB2E7196)
Boxcar Smoothing: 10 (USB2E7196)
Correct for Electrical Dark: No (USB2E7196)
Strobe/Lamp Enabled: No (USB2E7196)
Correct for Detector Non-linearity: No (USB2E7196)
Correct for Stray Light: No (USB2E7196)
Number of Pixels in Processed Spectrum: 2048
>>>>>Begin Processed Spectral Data<<<<<
339.09	0.00
339.48	192.50
339.86	192.00
340.24	195.50
340.63	199.00
341.01	228.00
341.39	203.00
341.78	205.00
342.16	210.50
342.54	201.50
342.93	197.57
343.31	207.62
343.69	208.19
344.07	208.98
344.46	209.79
344.84	210.40
345.22	209.57
345.60	209.88
345.99	210.24
346.37	210.19
346.75	210.48
347.13	210.79
347.52	211.14
347.90	211.74
348.28	211.48
348.66	211.86
349.05	211.14
349.43	211.48
349.81	211.50
350.19	211.33
350.57	211.55
350.96	211.69
351.34	211.83
351.72	212.02
352.10	212.14
352.48	211.98
352.87	211.83
353.25	211.71
353.63	211.67
354.01	211.67
354.39	211.86
354.77	212.02
355.15	212.33
355.54	212.00
355.92	211.36
356.30	211.71
356.68	213.12
357.06	213.36
357.44	212.90
357.82	213.14
358.20	214.17
358.58	214.14
358.97	213.98
359.35	214.45
359.73	214.90
360.11	214.83
360.49	215.02
360.87	215.10
361.25	215.62
361.63	216.36
362.01	216.33
362.39	216.19
362.77	216.33
363.15	216.38
363.53	216.48
363.91	216.64
364.29	216.45
364.67	214.64
365.05	214.74
365.43	215.19
365.81	215.36
366.19	215.62
366.57	216.60
366.95	216.62
367.33	215.93
367.71	215.93
368.09	216.40
368.47	216.43
368.85	216.48
369.23	216.81
369.61	216.17
369.99	216.83
370.37	217.10
370.75	217.93
371.13	217.52
371.51	217.31
371.89	217.55
372.27	217.64
372.65	217.69
373.03	217.67
373.41	217.43
373.78	217.07
374.16	216.05
374.54	215.14
374.92	215.26
375.30	215.33
375.68	214.88
376.06	214.88
376.44	214.74
376.82	214.76
377.19	214.38
377.57	214.21
377.95	213.60
378.33	213.50
378.71	212.45
379.09	212.64
379.47	213.00
379.84	212.64
380.22	212.52
380.60	212.21
380.98	211.93
381.36	212.02
381.73	211.79
382.11	212.24
382.49	212.43
382.87	212.26
383.25	212.21
383.62	214.86
384.00	214.43
384.38	214.38
384.76	214.71
385.13	215.40
385.51	215.52
385.89	215.14
386.27	215.26
386.64	215.52
387.02	215.29
387.40	214.83
387.78	215.00
388.15	215.07
388.53	214.93
388.91	215.24
389.29	214.98
389.66	215.48
390.04	215.17
390.42	215.60
390.79	215.60
391.17	215.69
391.55	213.29
391.92	213.38
392.30	213.55
392.68	213.31
393.05	213.31
393.43	213.64
393.81	213.88
394.18	213.48
394.56	213.40
394.94	213.83
395.31	214.05
395.69	214.60
396.06	214.81
396.44	215.10
396.82	214.81
397.19	215.90
397.57	215.74
397.95	216.14
398.32	215.43
398.70	215.64
399.07	216.21
399.45	216.26
399.82	216.19
400.20	216.14
400.58	216.12
400.95	215.29
401.33	215.57
401.70	217.10
402.08	217.24
402.45	217.52
402.83	218.14
403.20	218.43
403.58	218.07
403.95	218.45
404.33	218.98
404.71	219.52
405.08	220.62
405.46	220.69
405.83	221.24
406.21	221.62
406.58	222.07
406.96	222.05
407.33	222.29
407.70	222.88
408.08	225.02
408.45	225.81
408.83	226.86
409.20	227.00
409.58	226.55
409.95	227.67
410.33	228.57
410.70	228.62
411.08	229.79
411.45	230.83
411.82	231.86
412.20	233.29
412.57	235.50
412.95	235.14
413.32	236.95
413.69	237.98
414.07	239.60
414.44	241.45
414.82	243.62
415.19	246.36
415.56	248.55
415.94	249.81
416.31	252.52
416.68	255.17
417.06	258.57
417.43	262.07
417.81	265.74
418.18	269.36
418.55	273.31
418.93	276.76
419.30	281.14
419.67	285.62
420.04	290.02
420.42	294.50
420.79	301.69
421.16	307.31
421.54	314.24
421.91	320.48
422.28	326.83
422.66	333.19
423.03	340.64
423.40	347.83
423.77	354.93
424.15	361.79
424.52	369.67
424.89	378.12
425.26	385.26
425.64	392.76
426.01	400.81
426.38	409.69
426.75	419.48
427.13	429.02
427.50	438.24
427.87	448.24
428.24	457.83
428.61	465.83
428.99	477.17
429.36	487.69
429.73	499.00
430.10	510.36
430.47	522.10
430.85	533.00
431.22	545.19
431.59	559.88
431.96	572.90
432.33	586.64
432.70	600.21
433.08	616.83
433.45	632.05
433.82	647.43
434.19	664.07
434.56	680.64
434.93	696.00
435.30	711.52
435.68	728.93
436.05	746.10
436.42	762.90
436.79	778.57
437.16	794.88
437.53	812.55
437.90	829.83
438.27	847.76
438.64	865.67
439.01	883.12
439.38	896.50
439.75	911.74
440.13	928.19
440.50	944.02
440.87	957.19
441.24	970.76
441.61	985.24
441.98	996.33
442.35	1008.45
442.72	1021.93
443.09	1035.55
443.46	1043.12
443.83	1048.14
444.20	1053.76
444.57	1059.67
444.94	1064.17
445.31	1067.62
445.68	1073.48
446.05	1074.26
446.42	1073.02
446.79	1071.45
447.16	1069.88
447.53	1068.43
447.90	1062.45
448.27	1055.67
448.64	1046.33
449.01	1039.79
449.37	1028.67
449.74	1017.43
450.11	1005.93
450.48	990.45
450.85	974.48
451.22	961.52
451.59	949.74
451.96	937.55
452.33	922.29
452.70	907.95
453.07	891.05
453.43	871.57
453.80	855.10
454.17	839.74
454.54	824.43
454.91	808.43
455.28	792.17
455.65	777.21
456.02	765.48
456.38	753.17
456.75	737.50
457.12	724.17
457.49	711.86
457.86	697.57
458.23	687.55
458.59	676.07
458.96	664.83
459.33	654.17
459.70	643.74
460.07	635.10
460.43	624.95
460.80	616.64
461.17	609.14
461.54	601.33
461.91	592.83
462.27	584.74
462.64	577.74
463.01	570.95
463.38	564.79
463.74	554.43
464.11	547.98
464.48	542.45
464.85	536.33
465.21	531.90
465.58	527.14
465.95	520.95
466.32	516.29
466.68	511.38
467.05	506.60
467.42	501.74
467.78	496.48
468.15	491.69
468.52	487.83
468.88	482.36
469.25	477.90
469.62	474.48
469.98	470.93
470.35	467.17
470.72	463.21
471.08	458.76
471.45	456.29
471.82	453.31
472.18	449.86
472.55	447.55
472.92	443.69
473.28	440.98
473.65	438.29
474.02	435.31
474.38	432.64
474.75	430.71
475.11	428.31
475.48	426.90
475.85	425.29
476.21	423.17
476.58	421.64
476.94	420.45
477.31	419.31
477.67	417.74
478.04	416.88
478.41	416.17
478.77	417.57
479.14	416.55
479.50	415.81
479.87	416.00
480.23	415.52
480.60	415.10
480.96	414.86
481.33	415.55
481.69	415.62
482.06	415.86
482.42	416.31
482.79	417.17
483.15	417.21
483.52	418.33
483.88	419.10
484.25	420.24
484.61	421.26
484.98	421.69
485.34	423.24
485.71	424.52
486.07	425.79
486.44	425.24
486.80	426.38
487.17	428.31
487.53	430.24
487.90	432.40
488.26	435.79
488.62	438.29
488.99	440.00
489.35	443.02
489.72	445.64
490.08	448.45
490.44	451.10
490.81	454.69
491.17	457.40
491.54	460.81
491.90	464.67
492.26	467.69
492.63	471.79
492.99	475.26
493.36	479.19
493.72	483.60
494.08	488.00
494.45	493.38
494.81	497.79
495.17	502.40
495.54	507.52
495.90	511.90
496.26	517.33
496.63	522.76
496.99	527.79
497.35	533.12
497.72	538.64
498.08	544.21
498.44	550.26
498.80	556.36
499.17	562.74
499.53	568.62
499.89	576.05
500.26	582.95
500.62	589.74
500.98	597.19
501.34	603.83
501.71	611.57
502.07	618.79
502.43	625.93
502.79	632.43
503.16	639.43
503.52	646.81
503.88	653.55
504.24	661.07
504.60	668.83
504.97	677.00
505.33	684.10
505.69	692.88
506.05	700.24
506.41	708.02
506.78	715.36
507.14	723.12
507.50	730.36
507.86	738.10
508.22	746.26
508.59	753.55
508.95	761.71
509.31	769.71
509.67	777.14
510.03	785.12
510.39	793.29
510.75	801.10
511.12	808.07
511.48	816.21
511.84	823.43
512.20	831.07
512.56	838.19
512.92	846.93
513.28	853.74
513.64	861.10
514.00	868.45
514.37	876.07
514.73	883.12
515.09	890.83
515.45	897.67
515.81	904.12
516.17	910.93
516.53	917.33
516.89	923.43
517.25	930.05
517.61	936.98
517.97	943.19
518.33	949.33
518.69	955.93
519.05	961.86
519.41	968.17
519.77	975.50
520.13	982.02
520.49	987.31
520.85	993.36
521.21	1000.05
521.57	1005.98
521.93	1011.50
522.29	1016.90
522.65	1021.05
523.01	1026.45
523.37	1031.31
523.73	1035.95
524.09	1040.50
524.45	1045.12
524.81	1049.55
525.17	1054.19
525.53	1059.45
525.89	1064.14
526.25	1069.48
526.61	1073.31
526.97	1077.43
527.33	1080.57
527.68	1086.05
528.04	1090.52
528.40	1094.26
528.76	1097.86
529.12	1102.26
529.48	1105.95
529.84	1110.24
530.20	1115.00
530.56	1119.76
530.91	1124.67
531.27	1129.71
531.63	1134.57
531.99	1138.21
532.35	1141.79
532.71	1145.36
533.07	1149.31
533.42	1155.50
533.78	1159.43
534.14	1164.67
534.50	1168.90
534.86	1173.71
535.21	1175.98
535.57	1180.29
535.93	1183.62
536.29	1188.29
536.65	1191.69
537.00	1195.62
537.36	1199.45
537.72	1202.90
538.08	1206.36
538.44	1208.76
538.79	1212.14
539.15	1215.24
539.51	1219.17
539.87	1222.55
540.22	1225.43
540.58	1228.48
540.94	1230.17
541.29	1233.48
541.65	1235.07
542.01	1238.24
542.37	1240.21
542.72	1242.64
543.08	1244.07
543.44	1247.76
543.79	1248.98
544.15	1252.33
544.51	1255.38
544.87	1258.14
545.22	1261.71
545.58	1263.64
545.94	1267.43
546.29	1269.93
546.65	1272.90
547.01	1274.60
547.36	1277.64
547.72	1280.17
548.07	1282.07
548.43	1283.81
548.79	1284.90
549.14	1287.17
549.50	1290.45
549.86	1292.14
550.21	1295.38
550.57	1299.24
550.92	1300.74
551.28	1303.74
551.64	1305.24
551.99	1307.50
552.35	1309.64
552.70	1311.26
553.06	1314.93
553.41	1316.36
553.77	1320.90
554.13	1323.95
554.48	1328.93
554.84	1333.74
555.19	1337.69
555.55	1343.02
555.90	1346.60
556.26	1351.12
556.61	1355.43
556.97	1358.10
557.32	1362.43
557.68	1366.31
558.03	1369.29
558.39	1373.95
558.74	1377.79
559.10	1382.62
559.45	1386.76
559.81	1391.88
560.16	1396.31
560.52	1399.81
560.87	1406.05
561.23	1408.98
561.58	1415.55
561.94	1418.76
562.29	1421.86
562.64	1425.86
563.00	1429.57
563.35	1434.00
563.71	1438.69
564.06	1443.45
564.42	1448.14
564.77	1454.00
565.12	1459.62
565.48	1466.57
565.83	1472.76
566.19	1478.79
566.54	1484.21
566.89	1490.50
567.25	1496.60
567.60	1503.81
567.96	1511.62
568.31	1517.98
568.66	1524.12
569.02	1527.71
569.37	1532.88
569.72	1538.71
570.08	1545.26
570.43	1550.29
570.78	1556.29
571.14	1561.64
571.49	1567.33
571.84	1573.67
572.20	1577.93
572.55	1582.50
572.90	1585.90
573.26	1589.50
573.61	1593.76
573.96	1598.90
574.31	1602.79
574.67	1606.29
575.02	1609.29
575.37	1611.26
575.72	1614.24
576.08	1617.79
576.43	1621.55
576.78	1625.98
577.13	1629.14
577.49	1632.21
577.84	1636.55
578.19	1640.36
578.54	1644.71
578.90	1649.10
579.25	1652.50
579.60	1656.05
579.95	1659.79
580.30	1664.31
580.66	1668.74
581.01	1672.83
581.36	1674.62
581.71	1678.55
582.06	1683.02
582.42	1686.69
582.77	1689.95
583.12	1693.38
583.47	1696.62
583.82	1700.21
584.17	1702.93
584.53	1707.19
584.88	1709.86
585.23	1713.07
585.58	1716.29
585.93	1718.07
586.28	1720.21
586.63	1723.36
586.98	1727.10
587.34	1729.88
587.69	1731.57
588.04	1734.69
588.39	1736.40
588.74	1738.69
589.09	1740.81
589.44	1741.50
589.79	1742.95
590.14	1745.79
590.49	1747.10
590.84	1748.19
591.19	1750.17
591.54	1751.71
591.89	1752.52
592.25	1756.02
592.60	1756.31
592.95	1758.31
593.30	1760.40
593.65	1762.21
594.00	1761.62
594.35	1768.26
594.70	1768.62
595.05	1770.14
595.40	1769.93
595.75	1771.24
596.10	1773.19
596.45	1774.69
596.80	1775.81
597.15	1776.86
597.50	1777.07
597.85	1779.31
598.19	1779.74
598.54	1779.50
598.89	1780.02
599.24	1781.90
599.59	1781.95
599.94	1782.19
600.29	1782.02
600.64	1782.31
600.99	1782.05
601.34	1783.71
601.69	1778.29
602.04	1778.14
602.39	1777.86
602.74	1779.10
603.08	1777.95
603.43	1778.38
603.78	1777.02
604.13	1777.36
604.48	1776.88
604.83	1776.52
605.18	1774.90
605.53	1775.79
605.87	1774.88
606.22	1773.93
606.57	1771.69
606.92	1769.86
607.27	1769.64
607.62	1768.90
607.96	1768.33
608.31	1768.64
608.66	1767.52
609.01	1765.62
609.36	1765.76
609.70	1764.31
610.05	1761.24
610.40	1759.93
610.75	1757.86
611.10	1756.64
611.44	1753.07
611.79	1751.00
612.14	1748.93
612.49	1745.93
612.83	1742.00
613.18	1739.83
613.53	1737.40
613.88	1734.12
614.22	1731.21
614.57	1728.48
614.92	1724.55
615.27	1720.83
615.61	1715.64
615.96	1711.50
616.31	1708.81
616.65	1706.14
617.00	1703.10
617.35	1700.29
617.70	1697.29
618.04	1693.10
618.39	1689.31
618.74	1686.74
619.08	1683.81
619.43	1680.40
619.78	1677.62
620.12	1675.69
620.47	1672.07
620.82	1668.10
621.16	1664.74
621.51	1661.98
621.85	1656.76
622.20	1653.48
622.55	1648.83
622.89	1646.26
623.24	1643.93
623.59	1639.86
623.93	1635.43
624.28	1631.24
624.62	1629.45
624.97	1627.38
625.32	1623.45
625.66	1620.31
626.01	1616.74
626.35	1613.05
626.70	1609.17
627.04	1605.60
627.39	1600.60
627.73	1598.14
628.08	1595.38
628.43	1591.07
628.77	1586.29
629.12	1584.40
629.46	1580.71
629.81	1577.55
630.15	1572.64
630.50	1567.79
630.84	1562.76
631.19	1557.31
631.53	1552.81
631.88	1545.74
632.22	1539.33
632.57	1535.55
632.91	1529.81
633.26	1524.71
633.60	1518.93
633.95	1513.40
634.29	1507.14
634.64	1503.83
634.98	1498.55
635.32	1495.00
635.67	1492.21
636.01	1487.93
636.36	1482.05
636.70	1478.00
637.05	1473.33
637.39	1469.21
637.73	1465.17
638.08	1461.12
638.42	1457.26
638.77	1452.98
639.11	1449.14
639.45	1444.55
639.80	1438.93
640.14	1434.14
640.49	1429.64
640.83	1424.81
641.17	1420.83
641.52	1417.02
641.86	1410.67
642.20	1405.98
642.55	1398.98
642.89	1392.74
643.23	1387.57
643.58	1383.50
643.92	1376.33
644.26	1370.64
644.61	1365.12
644.95	1359.57
645.29	1354.24
645.64	1348.60
645.98	1342.81
646.32	1336.98
646.66	1331.33
647.01	1325.93
647.35	1321.19
647.69	1315.24
648.04	1310.76
648.38	1305.64
648.72	1300.05
649.06	1294.38
649.41	1287.76
649.75	1281.81
650.09	1275.64
650.43	1269.10
650.78	1262.00
651.12	1256.64
651.46	1250.90
651.80	1244.74
652.14	1237.76
652.49	1232.29
652.83	1226.12
653.17	1219.88
653.51	1213.64
653.85	1207.31
654.20	1201.38
654.54	1194.33
654.88	1188.05
655.22	1181.33
655.56	1173.45
655.90	1166.79
656.25	1160.71
656.59	1154.26
656.93	1148.86
657.27	1143.57
657.61	1137.60
657.95	1132.07
658.29	1125.83
658.64	1120.10
658.98	1113.79
659.32	1107.98
659.66	1100.71
660.00	1094.12
660.34	1088.10
660.68	1081.79
661.02	1075.57
661.36	1069.33
661.70	1063.76
662.05	1057.86
662.39	1051.74
662.73	1046.38
663.07	1041.43
663.41	1035.55
663.75	1029.76
664.09	1023.79
664.43	1017.60
664.77	1011.76
665.11	1004.93
665.45	999.19
665.79	993.07
666.13	986.93
666.47	980.64
666.81	975.38
667.15	969.62
667.49	964.21
667.83	959.05
668.17	953.21
668.51	947.74
668.85	941.93
669.19	936.93
669.53	931.12
669.87	925.60
670.21	919.17
670.55	913.33
670.89	908.88
671.23	903.60
671.57	898.12
671.91	892.31
672.25	887.14
672.58	882.57
672.92	876.31
673.26	871.69
673.60	866.76
673.94	861.62
674.28	857.00
674.62	851.74
674.96	846.76
675.30	842.43
675.64	837.14
675.97	832.17
676.31	826.21
676.65	821.36
676.99	817.19
677.33	812.14
677.67	807.60
678.01	801.14
678.34	795.90
678.68	791.07
679.02	786.55
679.36	781.76
679.70	776.05
680.04	771.76
680.37	766.81
680.71	762.05
681.05	757.36
681.39	752.38
681.73	748.05
682.06	742.60
682.40	737.31
682.74	732.71
683.08	728.31
683.42	723.45
683.75	719.02
684.09	713.83
684.43	708.71
684.77	703.40
685.10	698.76
685.44	693.83
685.78	688.98
686.12	684.33
686.45	679.81
686.79	674.86
687.13	670.36
687.46	665.48
687.80	661.76
688.14	656.86
688.48	652.45
688.81	647.26
689.15	643.76
689.49	639.02
689.82	634.62
690.16	629.17
690.50	625.33
690.83	620.00
691.17	615.38
691.51	611.21
691.84	607.19
692.18	603.31
692.52	599.10
692.85	595.64
693.19	592.17
693.52	588.17
693.86	583.81
694.20	579.62
694.53	575.62
694.87	570.48
695.21	566.26
695.54	562.19
695.88	557.76
696.21	552.69
696.55	549.52
696.88	545.74
697.22	542.26
697.56	538.55
697.89	535.33
698.23	531.40
698.56	527.76
698.90	524.76
699.23	520.64
699.57	517.57
699.90	513.19
700.24	509.21
700.58	505.52
700.91	502.55
701.25	500.88
701.58	498.57
701.92	495.76
702.25	492.79
702.59	488.93
702.92	486.17
703.26	483.12
703.59	479.45
703.93	478.07
704.26	475.31
704.60	472.14
704.93	468.64
705.26	465.52
705.60	463.12
705.93	459.40
706.27	457.21
706.60	454.21
706.94	452.31
707.27	449.07
707.61	446.69
707.94	444.02
708.27	439.31
708.61	435.79
708.94	433.24
709.28	430.45
709.61	427.81
709.94	425.57
710.28	423.00
710.61	420.29
710.95	415.40
711.28	414.29
711.61	412.00
711.95	410.38
712.28	408.02
712.61	405.17
712.95	404.26
713.28	403.02
713.61	400.60
713.95	397.69
714.28	395.88
714.61	393.26
714.95	391.05
715.28	389.21
715.61	386.57
715.95	384.36
716.28	382.31
716.61	380.81
716.95	378.07
717.28	376.10
717.61	374.19
717.94	372.67
718.28	368.95
718.61	366.95
718.94	364.64
719.27	362.69
719.61	361.05
719.94	358.33
720.27	355.02
720.60	353.05
720.94	351.10
721.27	349.00
721.60	347.69
721.93	345.79
722.27	344.69
722.60	343.69
722.93	341.60
723.26	340.26
723.59	338.19
723.93	336.93
724.26	335.79
724.59	334.43
724.92	333.02
725.25	332.36
725.59	330.62
725.92	329.43
726.25	327.71
726.58	326.57
726.91	325.10
727.24	324.24
727.57	322.98
727.91	321.62
728.24	320.74
728.57	319.10
728.90	318.38
729.23	316.36
729.56	315.64
729.89	314.52
730.22	313.07
730.55	311.81
730.89	310.86
731.22	309.50
731.55	308.29
731.88	307.40
732.21	305.81
732.54	304.81
732.87	303.69
733.20	303.10
733.53	302.00
733.86	301.24
734.19	300.12
734.52	299.43
734.85	299.57
735.18	298.33
735.51	298.05
735.84	297.21
736.17	297.05
736.50	295.40
736.83	296.83
737.16	295.71
737.49	295.14
737.82	293.98
738.15	293.50
738.48	292.81
738.81	291.67
739.14	290.60
739.47	289.76
739.80	289.07
740.13	288.45
740.46	287.33
740.79	286.31
741.12	285.19
741.45	283.95
741.78	282.00
742.11	281.52
742.44	280.19
742.77	279.50
743.10	278.36
743.43	277.36
743.75	274.43
744.08	276.64
744.41	275.93
744.74	275.29
745.07	273.95
745.40	273.36
745.73	273.74
746.06	273.29
746.39	272.98
746.71	271.90
747.04	270.95
747.37	270.24
747.70	269.71
748.03	269.33
748.36	269.21
748.68	268.50
749.01	267.21
749.34	266.95
749.67	266.14
750.00	266.07
750.33	267.12
750.65	266.83
750.98	263.74
751.31	263.10
751.64	262.45
751.97	263.10
752.29	262.43
752.62	260.62
752.95	260.07
753.28	258.95
753.60	258.12
753.93	258.24
754.26	257.83
754.59	256.88
754.91	255.95
755.24	254.95
755.57	254.81
755.90	254.36
756.22	253.55
756.55	252.86
756.88	251.60
757.20	249.57
757.53	248.43
757.86	247.88
758.19	247.64
758.51	247.24
758.84	245.71
759.17	245.05
759.49	244.79
759.82	245.12
760.15	245.10
760.47	245.07
760.80	243.83
761.13	243.71
761.45	243.12
761.78	242.88
762.11	242.62
762.43	241.74
762.76	241.48
763.08	241.33
763.41	241.24
763.74	241.12
764.06	240.62
764.39	240.64
764.71	240.02
765.04	239.17
765.37	238.69
765.69	238.36
766.02	238.24
766.34	237.90
766.67	236.64
767.00	236.55
767.32	237.33
767.65	238.31
767.97	237.62
768.30	237.57
768.62	237.19
768.95	236.81
769.27	236.55
769.60	236.45
769.92	235.79
770.25	234.93
770.57	234.29
770.90	234.00
771.22	233.14
771.55	233.26
771.87	233.26
772.20	233.10
772.52	234.48
772.85	236.71
773.17	236.31
773.50	236.19
773.82	235.79
774.15	234.43
774.47	232.90
774.80	232.62
775.12	232.43
775.45	232.10
775.77	232.10
776.09	232.31
776.42	232.38
776.74	232.86
777.07	232.67
777.39	232.64
777.72	232.62
778.04	232.79
778.36	232.17
778.69	231.93
779.01	231.67
779.33	229.79
779.66	227.17
779.98	226.83
780.31	226.88
780.63	227.38
780.95	227.52
781.28	227.67
781.60	227.38
781.92	227.14
782.25	227.14
782.57	226.86
782.89	226.45
783.22	226.02
783.54	225.50
783.86	225.62
784.19	225.38
784.51	225.81
784.83	225.40
785.16	225.21
785.48	225.00
785.80	225.07
786.12	225.33
786.45	225.19
786.77	225.43
787.09	225.10
787.42	224.45
787.74	224.55
788.06	224.12
788.38	223.88
788.71	223.67
789.03	223.79
789.35	223.62
789.67	223.31
789.99	223.24
790.32	222.95
790.64	223.14
790.96	224.83
791.28	224.00
791.61	224.10
791.93	224.40
792.25	224.31
792.57	225.38
792.89	224.71
793.21	224.76
793.54	224.69
793.86	224.36
794.18	224.29
794.50	223.74
794.82	223.90
795.14	224.26
795.47	224.64
795.79	224.38
796.11	224.19
796.43	223.88
796.75	223.79
797.07	223.62
797.39	223.19
797.71	221.29
798.04	221.26
798.36	221.24
798.68	220.98
799.00	221.00
799.32	219.93
799.64	220.29
799.96	220.19
800.28	220.33
800.60	220.19
800.92	220.36
801.24	220.02
801.56	220.12
801.89	220.07
802.21	220.12
802.53	219.81
802.85	220.21
803.17	221.55
803.49	221.33
803.81	221.36
804.13	221.38
804.45	221.21
804.77	221.36
805.09	221.07
805.41	220.86
805.73	220.57
806.05	220.10
806.37	219.98
806.69	219.71
807.01	219.36
807.33	219.50
807.65	218.74
807.97	219.93
808.28	219.69
808.60	219.31
808.92	218.83
809.24	220.07
809.56	219.67
809.88	218.55
810.20	218.43
810.52	218.67
810.84	218.45
811.16	218.21
811.48	217.71
811.80	218.62
812.12	218.43
812.43	218.67
812.75	219.05
813.07	218.81
813.39	219.05
813.71	218.88
814.03	218.62
814.35	218.60
814.67	217.69
814.98	217.48
815.30	217.69
815.62	217.26
815.94	215.69
816.26	215.71
816.58	215.52
816.89	215.62
817.21	215.10
817.53	215.10
817.85	215.31
818.17	215.69
818.48	215.02
818.80	215.48
819.12	215.40
819.44	214.60
819.76	214.21
820.07	214.17
820.39	214.33
820.71	214.45
821.03	214.45
821.34	214.36
821.66	214.67
821.98	214.60
822.30	214.69
822.61	215.90
822.93	215.60
823.25	215.36
823.57	215.21
823.88	215.57
824.20	215.60
824.52	216.07
824.83	215.81
825.15	215.24
825.47	215.40
825.79	215.48
826.10	215.62
826.42	215.64
826.74	216.02
827.05	215.74
827.37	215.83
827.69	215.71
828.00	215.79
828.32	215.40
828.64	215.14
828.95	216.33
829.27	215.64
829.58	215.90
829.90	216.31
830.22	216.40
830.53	215.95
830.85	215.62
831.17	215.07
831.48	214.98
831.80	215.40
832.11	214.86
832.43	214.74
832.75	214.90
833.06	216.12
833.38	215.12
833.69	214.98
834.01	215.14
834.32	215.05
834.64	214.60
834.96	214.62
835.27	214.88
835.59	214.21
835.90	214.10
836.22	213.93
836.53	213.48
836.85	213.36
837.16	215.52
837.48	215.76
837.79	216.38
838.11	216.74
838.42	216.62
838.74	217.14
839.05	216.83
839.37	216.50
839.68	215.24
840.00	215.17
840.31	215.62
840.63	215.38
840.94	215.38
841.26	215.45
841.57	215.71
841.88	215.64
842.20	215.45
842.51	215.33
842.83	215.45
843.14	217.45
843.46	217.36
843.77	216.29
844.08	215.98
844.40	215.40
844.71	215.21
845.03	215.07
845.34	214.74
845.65	214.79
845.97	215.02
846.28	215.26
846.60	215.52
846.91	215.24
847.22	215.17
847.54	215.52
847.85	215.62
848.16	215.29
848.48	214.90
848.79	215.45
849.10	215.69
849.42	215.86
849.73	214.12
850.04	213.90
850.36	213.26
850.67	213.69
850.98	213.86
851.30	213.86
851.61	213.67
851.92	213.48
852.23	213.79
852.55	213.90
852.86	213.95
853.17	213.83
853.49	213.95
853.80	214.21
854.11	214.17
854.42	214.14
854.74	213.90
855.05	214.07
855.36	213.02
855.67	213.10
855.99	212.81
856.30	215.17
856.61	215.14
856.92	215.00
857.23	214.93
857.55	214.50
857.86	214.33
858.17	214.86
858.48	214.57
858.79	214.38
859.11	214.48
859.42	214.33
859.73	214.33
860.04	214.48
860.35	214.02
860.66	213.60
860.98	213.38
861.29	213.81
861.60	213.57
861.91	214.14
862.22	213.74
862.53	213.57
862.84	211.00
863.16	211.60
863.47	211.14
863.78	210.86
864.09	210.90
864.40	211.33
864.71	211.45
865.02	211.98
865.33	211.79
865.64	211.29
865.95	211.17
866.27	212.52
866.58	212.31
866.89	212.55
867.20	212.55
867.51	212.38
867.82	212.19
868.13	212.88
868.44	212.55
868.75	212.83
869.06	212.90
869.37	213.21
869.68	212.57
869.99	213.07
870.30	213.26
870.61	213.64
870.92	213.24
871.23	212.86
871.54	212.79
871.85	212.98
872.16	213.40
872.47	213.26
872.78	211.93
873.09	211.98
873.40	211.71
873.71	211.76
874.02	212.07
874.33	211.81
874.64	211.33
874.95	211.67
875.26	211.48
875.56	211.52
875.87	211.36
876.18	211.36
876.49	213.17
876.80	212.98
877.11	212.57
877.42	212.57
877.73	212.62
878.04	212.60
878.35	212.62
878.66	212.57
878.96	212.81
879.27	212.79
879.58	212.83
879.89	212.83
880.20	213.40
880.51	213.38
880.82	213.31
881.12	213.81
881.43	213.26
881.74	212.86
882.05	212.93
882.36	213.31
882.67	213.60
882.97	211.45
883.28	211.69
883.59	211.62
883.90	211.79
884.21	212.10
884.51	211.95
884.82	211.79
885.13	211.69
885.44	211.55
885.74	211.52
886.05	211.57
886.36	211.43
886.67	210.90
886.98	211.76
887.28	212.10
887.59	211.67
887.90	211.83
888.20	211.74
888.51	211.93
888.82	211.40
889.13	211.52
889.43	213.21
889.74	212.95
890.05	212.88
890.35	212.67
890.66	212.33
890.97	211.98
891.28	211.86
891.58	212.02
891.89	211.95
892.20	211.83
892.50	211.52
892.81	211.71
893.12	211.71
893.42	210.71
893.73	210.81
894.04	210.86
894.34	210.88
894.65	210.95
894.95	210.57
895.26	210.74
895.57	211.57
895.87	209.74
896.18	210.02
896.48	210.45
896.79	210.67
897.10	211.12
897.40	211.38
897.71	211.71
898.01	211.52
898.32	211.93
898.63	211.90
898.93	211.93
899.24	211.90
899.54	211.86
899.85	212.02
900.15	212.02
900.46	211.79
900.76	212.02
901.07	211.88
901.38	212.07
901.68	212.19
901.99	211.33
902.29	211.60
902.60	211.43
902.90	211.07
903.21	210.90
903.51	210.64
903.82	211.12
904.12	211.10
904.43	211.33
904.73	211.26
905.03	211.52
905.34	213.62
905.64	213.71
905.95	213.76
906.25	213.64
906.56	213.71
906.86	214.05
907.17	213.98
907.47	214.62
907.77	214.36
908.08	213.86
908.38	213.95
908.69	214.12
908.99	214.81
909.30	214.93
909.60	214.93
909.90	214.88
910.21	214.21
910.51	213.79
910.81	213.86
911.12	213.90
911.42	213.69
911.73	211.50
912.03	211.45
912.33	211.67
912.64	211.62
912.94	211.26
913.24	210.79
913.55	210.52
913.85	210.19
914.15	210.71
914.46	211.10
914.76	210.93
915.06	210.57
915.37	209.83
915.67	209.67
915.97	209.57
916.27	209.07
916.58	209.17
916.88	209.36
917.18	209.02
917.49	210.29
917.79	210.40
918.09	210.83
918.39	211.52
918.70	211.43
919.00	211.57
919.30	212.52
919.60	212.50
919.91	212.24
920.21	212.21
920.51	211.71
920.81	211.67
921.12	211.98
921.42	212.26
921.72	212.45
922.02	212.62
922.32	212.93
922.63	213.26
922.93	214.38
923.23	214.52
923.53	214.45
923.83	213.07
924.13	213.19
924.44	213.26
924.74	213.43
925.04	214.00
925.34	213.86
925.64	213.14
925.94	213.33
926.24	214.69
926.55	214.48
926.85	214.90
927.15	214.86
927.45	214.60
927.75	214.40
928.05	214.55
928.35	214.40
928.65	215.02
928.95	215.14
929.26	214.43
929.56	214.64
929.86	214.93
930.16	215.00
930.46	214.90
930.76	214.64
931.06	213.64
931.36	212.79
931.66	213.07
931.96	213.31
932.26	213.33
932.56	212.38
932.86	212.55
933.16	212.33
933.46	212.26
933.76	212.00
934.06	212.29
934.36	212.98
934.66	212.86
934.96	212.36
935.26	212.26
935.56	212.40
935.86	211.93
936.16	211.62
936.46	211.36
936.76	211.24
937.06	211.10
937.36	211.33
937.66	211.31
937.96	211.26
938.26	210.69
938.56	210.57
938.86	210.76
939.16	211.33
939.46	211.60
939.76	211.67
940.06	211.64
940.35	211.31
940.65	210.21
940.95	210.60
941.25	210.02
941.55	209.83
941.85	209.62
942.15	210.24
942.45	210.71
942.75	210.43
943.04	210.55
943.34	211.05
943.64	210.60
943.94	210.55
944.24	210.48
944.54	210.74
944.84	210.60
945.13	210.52
945.43	210.24
945.73	210.19
946.03	210.00
946.33	209.98
946.62	209.79
946.92	209.86
947.22	210.05
947.52	210.38
947.82	210.76
948.11	210.64
948.41	209.86
948.71	209.40
949.01	209.88
949.31	209.57
949.60	209.38
949.90	209.86
950.20	209.86
950.50	209.93
950.79	209.71
951.09	210.31
951.39	210.02
951.69	210.00
951.98	210.31
952.28	210.29
952.58	210.26
952.87	210.67
953.17	210.79
953.47	210.48
953.76	210.45
954.06	210.00
954.36	209.74
954.66	209.83
954.95	210.36
955.25	210.38
955.55	210.71
955.84	210.50
956.14	210.81
956.44	210.90
956.73	210.64
957.03	210.90
957.32	210.62
957.62	210.60
957.92	210.90
958.21	210.64
958.51	213.33
958.81	213.52
959.10	213.67
959.40	214.17
959.69	214.24
959.99	214.33
960.29	214.31
960.58	214.43
960.88	215.31
961.17	215.07
961.47	215.40
961.76	215.29
962.06	215.57
962.36	215.19
962.65	215.29
962.95	215.21
963.24	214.81
963.54	215.05
963.83	215.26
964.13	215.19
964.42	214.69
964.72	212.83
965.01	212.95
965.31	212.52
965.60	211.69
965.90	213.14
966.19	212.81
966.49	213.12
966.78	213.02
967.08	212.64
967.37	212.69
967.67	212.10
967.96	212.40
968.26	212.38
968.55	212.62
968.85	212.57
969.14	212.86
969.43	213.12
969.73	212.81
970.02	212.55
970.32	212.38
970.61	212.29
970.91	211.71
971.20	211.43
971.49	211.50
971.79	212.10
972.08	210.40
972.38	210.71
972.67	210.52
972.96	210.86
973.26	210.69
973.55	211.31
973.85	211.24
974.14	211.02
974.43	211.07
974.73	210.83
975.02	210.50
975.31	210.21
975.61	210.26
975.90	210.33
976.19	210.36
976.49	210.40
976.78	210.62
977.07	210.74
977.37	210.76
977.66	210.79
977.95	210.45
978.24	210.62
978.54	210.79
978.83	210.79
979.12	210.50
979.42	210.26
979.71	209.74
980.00	209.79
980.29	209.79
980.59	209.29
980.88	209.95
981.17	210.24
981.46	210.38
981.76	210.14
982.05	210.50
982.34	210.60
982.63	210.52
982.93	210.69
983.22	210.95
983.51	210.90
983.80	211.33
984.09	211.60
984.39	211.64
984.68	211.24
984.97	211.21
985.26	211.10
985.55	211.52
985.85	211.21
986.14	211.69
986.43	212.05
986.72	212.12
987.01	211.14
987.30	211.10
987.59	210.90
987.89	211.19
988.18	210.67
988.47	210.36
988.76	210.29
989.05	210.00
989.34	209.88
989.63	210.45
989.92	210.05
990.22	209.83
990.51	209.69
990.80	209.90
991.09	210.14
991.38	210.24
991.67	209.62
991.96	209.29
992.25	209.12
992.54	208.69
992.83	208.64
993.12	208.64
993.41	208.64
993.70	209.43
993.99	209.64
994.28	209.95
994.58	210.40
994.87	210.12
995.16	210.10
995.45	209.86
995.74	209.26
996.03	209.64
996.32	209.64
996.61	209.88
996.90	209.79
997.19	209.64
997.48	209.86
997.77	210.10
998.06	210.45
998.34	210.26
998.63	210.26
998.92	210.55
999.21	210.88
999.50	211.14
999.79	210.60
1000.08	210.60
1000.37	210.64
1000.66	210.26
1000.95	210.83
1001.24	211.07
1001.53	211.31
1001.82	211.40
1002.11	210.86
1002.40	211.52
1002.68	212.10
1002.97	213.60
1003.26	213.14
1003.55	212.79
1003.84	212.62
1004.13	213.36
1004.42	213.45
1004.71	213.45
1004.99	213.29
1005.28	213.79
1005.57	213.69
1005.86	213.52
1006.15	213.33
1006.44	212.98
1006.72	213.45
1007.01	213.00
1007.30	212.95
1007.59	212.62
1007.88	212.40
1008.17	212.71
1008.45	212.05
1008.74	211.10
1009.03	210.10
1009.32	210.45
1009.60	210.29
1009.89	210.26
1010.18	209.29
1010.47	208.95
1010.76	209.00
1011.04	208.76
1011.33	208.64
1011.62	208.67
1011.91	208.93
1012.19	208.88
1012.48	208.98
1012.77	208.88
1013.05	209.98
1013.34	209.98
1013.63	210.02
1013.92	210.31
1014.20	209.98
1014.49	210.14
1014.78	210.33
1015.06	209.52
1015.35	209.60
1015.64	210.02
1015.92	210.50
1016.21	210.62
1016.50	210.83
1016.78	210.90
1017.07	211.10
1017.36	210.71
1017.64	210.60
1017.93	210.62
1018.22	210.64
1018.50	210.60
1018.79	210.40
1019.08	209.17
1019.36	209.17
1019.65	208.93
1019.93	209.50
1020.22	209.67
1020.51	210.67
1020.79	210.69
1021.08	210.00
1021.36	207.50
1021.65	209.00
1021.94	205.00
1022.22	210.00
1022.51	204.50
1022.79	221.50
1023.08	209.00
1023.36	235.00
1023.65	208.50
>>>>>End Processed Spectral Data<<<<<
