SpectraSuite Data File
++++++++++++++++++++++++++++++++++++
Date: Tue Apr 02 18:42:58 EDT 2013
User: group
Dark Spectrum Present: No
Reference Spectrum Present: No
Number of Sampled Component Spectra: 1
Spectrometers: USB2E7196
Integration Time (usec): 580000 (USB2E7196)
Spectra Averaged: 2 (USB2E7196)
Boxcar Smoothing: 10 (USB2E7196)
Correct for Electrical Dark: No (USB2E7196)
Strobe/Lamp Enabled: No (USB2E7196)
Correct for Detector Non-linearity: No (USB2E7196)
Correct for Stray Light: No (USB2E7196)
Number of Pixels in Processed Spectrum: 2048
>>>>>Begin Processed Spectral Data<<<<<
339.09	0.00
339.48	195.00
339.86	200.00
340.24	196.50
340.63	197.50
341.01	231.00
341.39	201.50
341.78	204.50
342.16	212.50
342.54	205.50
342.93	197.57
343.31	207.45
343.69	207.69
344.07	207.98
344.46	208.52
344.84	209.07
345.22	207.83
345.60	208.14
345.99	208.33
346.37	208.05
346.75	208.19
347.13	208.31
347.52	208.21
347.90	208.79
348.28	208.52
348.66	208.95
349.05	208.36
349.43	208.60
349.81	208.83
350.19	208.79
350.57	208.71
350.96	208.90
351.34	209.17
351.72	209.52
352.10	209.64
352.48	209.55
352.87	209.57
353.25	209.55
353.63	209.50
354.01	209.38
354.39	209.62
354.77	209.57
355.15	209.88
355.54	209.79
355.92	209.17
356.30	209.38
356.68	210.86
357.06	211.19
357.44	211.05
357.82	211.05
358.20	211.98
358.58	212.29
358.97	212.55
359.35	212.86
359.73	213.36
360.11	213.36
360.49	213.60
360.87	213.55
361.25	214.05
361.63	214.93
362.01	215.14
362.39	214.95
362.77	215.36
363.15	215.26
363.53	215.57
363.91	215.90
364.29	215.83
364.67	213.98
365.05	214.00
365.43	214.60
365.81	214.93
366.19	215.07
366.57	215.81
366.95	215.74
367.33	215.29
367.71	215.14
368.09	215.55
368.47	215.33
368.85	215.29
369.23	215.86
369.61	215.14
369.99	215.98
370.37	216.19
370.75	217.02
371.13	216.81
371.51	216.57
371.89	216.69
372.27	217.05
372.65	217.14
373.03	217.12
373.41	216.74
373.78	216.60
374.16	215.71
374.54	215.12
374.92	214.90
375.30	215.05
375.68	214.79
376.06	215.12
376.44	215.33
376.82	215.67
377.19	215.50
377.57	215.36
377.95	214.45
378.33	214.57
378.71	213.24
379.09	213.71
379.47	213.88
379.84	213.60
380.22	213.12
380.60	212.71
380.98	212.76
381.36	212.60
381.73	212.29
382.11	212.67
382.49	212.57
382.87	212.38
383.25	212.21
383.62	214.62
384.00	213.81
384.38	214.02
384.76	214.52
385.13	215.07
385.51	215.19
385.89	215.17
386.27	215.00
386.64	215.45
387.02	215.19
387.40	215.12
387.78	215.29
388.15	215.60
388.53	215.55
388.91	215.36
389.29	215.29
389.66	215.40
390.04	214.81
390.42	215.38
390.79	215.50
391.17	215.50
391.55	213.31
391.92	213.50
392.30	213.48
392.68	212.81
393.05	212.71
393.43	212.83
393.81	213.02
394.18	212.90
394.56	212.81
394.94	213.24
395.31	213.00
395.69	213.90
396.06	214.07
396.44	214.31
396.82	214.24
397.19	215.60
397.57	215.52
397.95	216.00
398.32	215.62
398.70	216.05
399.07	216.48
399.45	216.24
399.82	216.31
400.20	215.93
400.58	215.86
400.95	215.00
401.33	215.38
401.70	216.93
402.08	216.95
402.45	217.10
402.83	217.40
403.20	217.76
403.58	217.12
403.95	217.67
404.33	217.98
404.71	218.33
405.08	219.57
405.46	219.86
405.83	220.45
406.21	220.79
406.58	220.93
406.96	221.36
407.33	222.02
407.70	222.98
408.08	225.36
408.45	226.29
408.83	227.40
409.20	227.88
409.58	227.21
409.95	228.57
410.33	229.57
410.70	229.83
411.08	231.10
411.45	232.43
411.82	233.21
412.20	234.79
412.57	237.24
412.95	236.60
413.32	238.43
413.69	239.71
414.07	241.12
414.44	243.14
414.82	245.17
415.19	247.50
415.56	249.62
415.94	251.05
416.31	254.12
416.68	256.86
417.06	260.02
417.43	263.55
417.81	266.90
418.18	270.55
418.55	274.60
418.93	278.48
419.30	282.48
419.67	287.00
420.04	291.38
420.42	295.67
420.79	302.79
421.16	308.38
421.54	315.45
421.91	321.74
422.28	327.95
422.66	334.48
423.03	342.50
423.40	349.12
423.77	356.10
424.15	363.31
424.52	370.93
424.89	379.64
425.26	387.21
425.64	395.17
426.01	403.50
426.38	412.36
426.75	421.98
427.13	431.40
427.50	440.79
427.87	450.67
428.24	460.60
428.61	468.98
428.99	480.07
429.36	490.21
429.73	501.17
430.10	512.17
430.47	523.88
430.85	534.43
431.22	546.90
431.59	562.05
431.96	574.79
432.33	589.02
432.70	602.90
433.08	619.95
433.45	635.33
433.82	650.76
434.19	668.07
434.56	685.29
434.93	700.95
435.30	717.36
435.68	735.29
436.05	752.52
436.42	769.64
436.79	786.21
437.16	804.12
437.53	822.48
437.90	840.62
438.27	858.76
438.64	877.17
439.01	894.93
439.38	908.52
439.75	923.24
440.13	940.17
440.50	955.67
440.87	967.98
441.24	981.26
441.61	995.55
441.98	1006.19
442.35	1017.67
442.72	1031.19
443.09	1044.26
443.46	1052.00
443.83	1057.52
444.20	1062.62
444.57	1068.43
444.94	1071.36
445.31	1074.21
445.68	1080.45
446.05	1082.33
446.42	1081.02
446.79	1079.36
447.16	1077.52
447.53	1076.98
447.90	1070.36
448.27	1063.86
448.64	1054.95
449.01	1048.26
449.37	1037.62
449.74	1026.33
450.11	1015.36
450.48	999.90
450.85	984.38
451.22	971.81
451.59	959.90
451.96	947.64
452.33	931.81
452.70	917.14
453.07	900.21
453.43	880.24
453.80	863.07
454.17	846.74
454.54	831.26
454.91	814.69
455.28	798.12
455.65	782.90
456.02	771.24
456.38	758.71
456.75	743.40
457.12	730.05
457.49	717.38
457.86	702.67
458.23	692.88
458.59	681.29
458.96	668.88
459.33	658.10
459.70	647.48
460.07	638.71
460.43	629.12
460.80	620.98
461.17	613.52
461.54	605.12
461.91	597.50
462.27	589.24
462.64	582.24
463.01	574.90
463.38	569.02
463.74	558.45
464.11	551.55
464.48	545.86
464.85	539.26
465.21	534.60
465.58	529.60
465.95	523.21
466.32	518.02
466.68	512.95
467.05	507.76
467.42	503.33
467.78	498.36
468.15	493.83
468.52	490.12
468.88	484.10
469.25	479.38
469.62	476.10
469.98	472.69
470.35	469.12
470.72	465.24
471.08	460.29
471.45	457.40
471.82	454.93
472.18	451.21
472.55	448.90
472.92	445.19
473.28	442.19
473.65	438.83
474.02	436.02
474.38	433.90
474.75	432.24
475.11	429.69
475.48	427.95
475.85	425.79
476.21	423.57
476.58	422.74
476.94	421.57
477.31	419.90
477.67	418.14
478.04	417.12
478.41	416.19
478.77	417.74
479.14	416.95
479.50	415.98
479.87	415.76
480.23	415.38
480.60	415.02
480.96	414.83
481.33	416.02
481.69	415.95
482.06	416.36
482.42	416.36
482.79	416.31
483.15	416.62
483.52	417.55
483.88	418.55
484.25	419.33
484.61	420.05
484.98	421.17
485.34	423.26
485.71	424.98
486.07	426.38
486.44	425.76
486.80	426.98
487.17	428.64
487.53	430.71
487.90	432.69
488.26	436.10
488.62	439.14
488.99	440.45
489.35	443.24
489.72	445.55
490.08	448.26
490.44	451.55
490.81	454.83
491.17	457.71
491.54	460.76
491.90	464.38
492.26	468.21
492.63	471.60
492.99	474.38
493.36	478.40
493.72	482.69
494.08	487.12
494.45	491.93
494.81	496.98
495.17	501.74
495.54	507.02
495.90	511.40
496.26	516.19
496.63	522.29
496.99	527.67
497.35	533.33
497.72	539.24
498.08	545.36
498.44	551.50
498.80	558.21
499.17	564.88
499.53	570.71
499.89	577.79
500.26	584.62
500.62	591.93
500.98	599.14
501.34	606.31
501.71	613.69
502.07	620.62
502.43	627.74
502.79	634.74
503.16	641.93
503.52	649.24
503.88	655.98
504.24	663.55
504.60	671.21
504.97	679.05
505.33	686.55
505.69	695.14
506.05	702.83
506.41	710.24
506.78	717.95
507.14	725.79
507.50	733.33
507.86	740.88
508.22	748.93
508.59	756.48
508.95	765.05
509.31	773.60
509.67	781.67
510.03	789.40
510.39	797.86
510.75	805.29
511.12	812.64
511.48	820.81
511.84	828.00
512.20	835.45
512.56	843.10
512.92	850.55
513.28	857.48
513.64	864.76
514.00	872.76
514.37	879.86
514.73	887.67
515.09	895.36
515.45	902.71
515.81	909.60
516.17	915.81
516.53	921.50
516.89	927.76
517.25	933.90
517.61	940.64
517.97	946.88
518.33	953.31
518.69	960.19
519.05	966.90
519.41	973.60
519.77	980.67
520.13	986.50
520.49	992.36
520.85	997.98
521.21	1004.29
521.57	1009.33
521.93	1014.83
522.29	1020.83
522.65	1025.64
523.01	1031.29
523.37	1035.64
523.73	1041.29
524.09	1046.38
524.45	1050.81
524.81	1055.86
525.17	1060.74
525.53	1065.05
525.89	1070.12
526.25	1075.12
526.61	1078.79
526.97	1082.07
527.33	1086.21
527.68	1092.67
528.04	1097.38
528.40	1101.86
528.76	1106.21
529.12	1110.57
529.48	1115.79
529.84	1119.60
530.20	1123.90
530.56	1128.60
530.91	1133.90
531.27	1137.98
531.63	1142.71
531.99	1146.95
532.35	1151.19
532.71	1154.69
533.07	1159.36
533.42	1165.05
533.78	1169.24
534.14	1174.10
534.50	1179.48
534.86	1183.74
535.21	1185.81
535.57	1190.10
535.93	1193.43
536.29	1197.83
536.65	1202.24
537.00	1205.45
537.36	1208.83
537.72	1211.86
538.08	1215.33
538.44	1218.36
538.79	1222.31
539.15	1225.19
539.51	1228.90
539.87	1232.86
540.22	1236.05
540.58	1238.55
540.94	1240.50
541.29	1243.05
541.65	1245.36
542.01	1248.50
542.37	1251.55
542.72	1254.12
543.08	1256.33
543.44	1259.98
543.79	1260.69
544.15	1263.24
544.51	1267.05
544.87	1269.81
545.22	1273.43
545.58	1275.93
545.94	1278.10
546.29	1280.79
546.65	1283.36
547.01	1285.45
547.36	1288.36
547.72	1291.67
548.07	1295.24
548.43	1298.24
548.79	1300.98
549.14	1304.10
549.50	1306.24
549.86	1308.36
550.21	1311.57
550.57	1314.74
550.92	1316.02
551.28	1320.57
551.64	1323.45
551.99	1325.24
552.35	1328.40
552.70	1331.05
553.06	1334.38
553.41	1338.19
553.77	1342.40
554.13	1346.62
554.48	1351.60
554.84	1355.12
555.19	1359.36
555.55	1364.62
555.90	1367.48
556.26	1372.24
556.61	1375.24
556.97	1378.36
557.32	1382.74
557.68	1386.74
558.03	1390.38
558.39	1395.62
558.74	1398.76
559.10	1403.07
559.45	1407.62
559.81	1412.00
560.16	1416.29
560.52	1420.69
560.87	1425.57
561.23	1429.45
561.58	1434.55
561.94	1437.52
562.29	1441.38
562.64	1445.36
563.00	1448.57
563.35	1454.19
563.71	1458.55
564.06	1464.79
564.42	1471.05
564.77	1476.38
565.12	1482.83
565.48	1490.81
565.83	1497.50
566.19	1503.24
566.54	1508.88
566.89	1514.40
567.25	1520.40
567.60	1527.10
567.96	1534.31
568.31	1540.52
568.66	1546.52
569.02	1552.05
569.37	1558.21
569.72	1564.07
570.08	1569.98
570.43	1574.36
570.78	1579.33
571.14	1585.10
571.49	1590.31
571.84	1596.12
572.20	1600.40
572.55	1604.71
572.90	1607.38
573.26	1610.74
573.61	1615.31
573.96	1619.81
574.31	1624.29
574.67	1628.24
575.02	1631.79
575.37	1634.00
575.72	1637.31
576.08	1641.90
576.43	1644.88
576.78	1648.52
577.13	1652.12
577.49	1656.14
577.84	1661.14
578.19	1664.40
578.54	1668.05
578.90	1671.26
579.25	1674.57
579.60	1678.24
579.95	1680.81
580.30	1683.98
580.66	1688.00
581.01	1691.93
581.36	1695.24
581.71	1698.17
582.06	1701.74
582.42	1705.88
582.77	1708.62
583.12	1711.31
583.47	1713.52
583.82	1716.83
584.17	1720.31
584.53	1723.60
584.88	1725.98
585.23	1729.10
585.58	1731.88
585.93	1734.21
586.28	1737.19
586.63	1738.86
586.98	1741.29
587.34	1744.81
587.69	1747.86
588.04	1749.95
588.39	1752.69
588.74	1753.64
589.09	1755.90
589.44	1756.43
589.79	1758.10
590.14	1761.29
590.49	1762.98
590.84	1764.48
591.19	1765.29
591.54	1766.38
591.89	1767.71
592.25	1770.00
592.60	1770.12
592.95	1772.71
593.30	1774.26
593.65	1775.31
594.00	1775.83
594.35	1782.81
594.70	1782.40
595.05	1783.48
595.40	1784.19
595.75	1783.88
596.10	1785.81
596.45	1786.83
596.80	1788.50
597.15	1788.83
597.50	1789.26
597.85	1790.95
598.19	1790.81
598.54	1792.95
598.89	1793.57
599.24	1795.12
599.59	1794.50
599.94	1794.88
600.29	1794.69
600.64	1793.86
600.99	1793.43
601.34	1794.98
601.69	1788.79
602.04	1788.50
602.39	1787.45
602.74	1787.86
603.08	1787.64
603.43	1788.24
603.78	1787.50
604.13	1787.55
604.48	1786.64
604.83	1785.64
605.18	1784.48
605.53	1784.33
605.87	1782.26
606.22	1780.33
606.57	1778.05
606.92	1776.90
607.27	1776.67
607.62	1775.40
607.96	1775.98
608.31	1776.55
608.66	1775.45
609.01	1774.07
609.36	1774.12
609.70	1772.76
610.05	1769.33
610.40	1767.31
610.75	1764.31
611.10	1762.48
611.44	1759.76
611.79	1757.07
612.14	1753.95
612.49	1750.83
612.83	1747.79
613.18	1744.81
613.53	1742.48
613.88	1738.81
614.22	1735.48
614.57	1731.79
614.92	1726.88
615.27	1722.31
615.61	1717.93
615.96	1713.12
616.31	1709.90
616.65	1706.26
617.00	1703.00
617.35	1700.31
617.70	1698.05
618.04	1694.10
618.39	1689.71
618.74	1685.67
619.08	1681.67
619.43	1677.88
619.78	1674.55
620.12	1670.95
620.47	1667.62
620.82	1663.40
621.16	1659.10
621.51	1657.10
621.85	1652.45
622.20	1648.71
622.55	1644.50
622.89	1639.29
623.24	1635.67
623.59	1631.24
623.93	1625.90
624.28	1621.36
624.62	1618.55
624.97	1614.14
625.32	1610.57
625.66	1606.67
626.01	1602.88
626.35	1599.43
626.70	1595.95
627.04	1592.26
627.39	1587.93
627.73	1583.98
628.08	1580.36
628.43	1577.00
628.77	1570.74
629.12	1567.83
629.46	1564.05
629.81	1559.17
630.15	1554.64
630.50	1550.67
630.84	1545.55
631.19	1540.26
631.53	1535.83
631.88	1528.86
632.22	1522.98
632.57	1517.88
632.91	1512.21
633.26	1507.55
633.60	1501.19
633.95	1495.38
634.29	1488.50
634.64	1483.50
634.98	1477.55
635.32	1472.52
635.67	1468.24
636.01	1464.67
636.36	1458.19
636.70	1453.81
637.05	1449.26
637.39	1444.76
637.73	1438.62
638.08	1435.26
638.42	1431.64
638.77	1425.71
639.11	1421.05
639.45	1415.86
639.80	1410.10
640.14	1404.93
640.49	1398.93
640.83	1394.29
641.17	1389.88
641.52	1385.43
641.86	1380.14
642.20	1376.10
642.55	1370.29
642.89	1363.86
643.23	1357.40
643.58	1352.69
643.92	1346.00
644.26	1339.17
644.61	1334.21
644.95	1328.83
645.29	1320.71
645.64	1315.12
645.98	1310.05
646.32	1304.12
646.66	1298.00
647.01	1291.74
647.35	1285.83
647.69	1280.81
648.04	1275.24
648.38	1268.90
648.72	1263.43
649.06	1256.79
649.41	1249.76
649.75	1243.45
650.09	1237.26
650.43	1229.83
650.78	1223.76
651.12	1217.12
651.46	1211.33
651.80	1204.55
652.14	1197.48
652.49	1192.45
652.83	1185.55
653.17	1177.55
653.51	1171.40
653.85	1165.50
654.20	1159.48
654.54	1152.69
654.88	1144.57
655.22	1138.33
655.56	1130.67
655.90	1124.29
656.25	1117.55
656.59	1111.21
656.93	1104.83
657.27	1099.19
657.61	1093.05
657.95	1086.05
658.29	1079.62
658.64	1073.60
658.98	1066.43
659.32	1060.36
659.66	1053.43
660.00	1047.12
660.34	1041.36
660.68	1035.12
661.02	1027.57
661.36	1021.12
661.70	1015.24
662.05	1009.76
662.39	1003.29
662.73	998.19
663.07	992.07
663.41	986.19
663.75	979.83
664.09	973.88
664.43	967.17
664.77	961.48
665.11	955.07
665.45	949.60
665.79	943.57
666.13	937.24
666.47	931.48
666.81	925.62
667.15	919.55
667.49	914.71
667.83	909.45
668.17	904.57
668.51	899.17
668.85	893.98
669.19	889.02
669.53	882.81
669.87	876.90
670.21	870.64
670.55	864.93
670.89	860.48
671.23	854.55
671.57	849.10
671.91	843.40
672.25	838.24
672.58	833.83
672.92	828.29
673.26	823.43
673.60	818.17
673.94	813.10
674.28	807.83
674.62	802.69
674.96	796.81
675.30	791.48
675.64	785.83
675.97	779.88
676.31	773.45
676.65	768.67
676.99	764.29
677.33	759.21
677.67	754.88
678.01	748.98
678.34	744.26
678.68	739.62
679.02	734.76
679.36	729.29
679.70	723.38
680.04	718.79
680.37	713.40
680.71	708.31
681.05	703.88
681.39	698.88
681.73	694.02
682.06	689.31
682.40	684.95
682.74	681.07
683.08	677.64
683.42	673.26
683.75	668.60
684.09	663.43
684.43	658.88
684.77	653.60
685.10	649.26
685.44	644.64
685.78	640.02
686.12	635.57
686.45	631.40
686.79	626.81
687.13	622.57
687.46	618.86
687.80	615.24
688.14	610.90
688.48	607.05
688.81	602.55
689.15	599.10
689.49	594.95
689.82	590.71
690.16	586.05
690.50	582.07
690.83	577.67
691.17	573.26
691.51	569.02
691.84	565.21
692.18	560.95
692.52	557.38
692.85	553.55
693.19	550.62
693.52	546.48
693.86	543.12
694.20	539.17
694.53	535.43
694.87	530.98
695.21	526.81
695.54	523.05
695.88	518.83
696.21	514.38
696.55	510.62
696.88	506.83
697.22	503.36
697.56	500.29
697.89	497.02
698.23	494.07
698.56	490.83
698.90	487.88
699.23	484.36
699.57	481.02
699.90	477.40
700.24	473.55
700.58	470.74
700.91	467.88
701.25	466.17
701.58	463.33
701.92	461.17
702.25	458.29
702.59	454.93
702.92	452.57
703.26	449.55
703.59	446.52
703.93	445.19
704.26	442.71
704.60	440.07
704.93	437.14
705.26	434.02
705.60	431.69
705.93	428.43
706.27	426.12
706.60	424.00
706.94	422.74
707.27	419.81
707.61	417.55
707.94	414.69
708.27	410.90
708.61	408.00
708.94	404.95
709.28	402.60
709.61	400.33
709.94	397.90
710.28	395.90
710.61	394.10
710.95	390.12
711.28	388.83
711.61	386.57
711.95	384.98
712.28	382.74
712.61	380.36
712.95	379.83
713.28	378.81
713.61	376.02
713.95	372.88
714.28	371.10
714.61	368.79
714.95	366.98
715.28	364.76
715.61	363.12
715.95	361.43
716.28	359.31
716.61	357.76
716.95	355.69
717.28	354.05
717.61	351.86
717.94	350.12
718.28	346.50
718.61	344.48
718.94	342.55
719.27	341.19
719.61	339.62
719.94	337.02
720.27	334.26
720.60	332.90
720.94	331.48
721.27	330.10
721.60	328.93
721.93	327.38
722.27	327.00
722.60	325.81
722.93	324.26
723.26	323.31
723.59	321.69
723.93	321.07
724.26	319.67
724.59	318.36
724.92	317.45
725.25	317.31
725.59	316.14
725.92	315.38
726.25	313.88
726.58	312.83
726.91	311.76
727.24	310.95
727.57	309.52
727.91	308.21
728.24	307.10
728.57	305.98
728.90	305.12
729.23	302.95
729.56	302.60
729.89	301.67
730.22	300.71
730.55	299.45
730.89	298.26
731.22	297.12
731.55	295.88
731.88	294.81
732.21	293.38
732.54	292.36
732.87	291.31
733.20	290.71
733.53	289.81
733.86	289.19
734.19	288.07
734.52	287.69
734.85	288.26
735.18	287.43
735.51	286.90
735.84	286.14
736.17	285.95
736.50	284.21
736.83	285.90
737.16	285.17
737.49	284.90
737.82	283.98
738.15	283.50
738.48	282.98
738.81	282.02
739.14	281.45
739.47	280.79
739.80	279.90
740.13	279.17
740.46	277.88
740.79	276.36
741.12	275.69
741.45	274.95
741.78	273.10
742.11	272.88
742.44	272.05
742.77	271.81
743.10	270.79
743.43	270.12
743.75	266.88
744.08	268.69
744.41	267.79
744.74	267.02
745.07	266.00
745.40	265.83
745.73	266.14
746.06	265.36
746.39	264.88
746.71	263.76
747.04	262.86
747.37	262.62
747.70	262.86
748.03	262.24
748.36	261.79
748.68	261.29
749.01	260.36
749.34	259.76
749.67	258.76
750.00	258.55
750.33	259.55
750.65	259.24
750.98	256.31
751.31	256.07
751.64	255.62
751.97	256.57
752.29	255.69
752.62	254.48
752.95	253.90
753.28	253.33
753.60	253.02
753.93	252.98
754.26	252.43
754.59	251.29
754.91	250.74
755.24	249.95
755.57	249.21
755.90	248.52
756.22	247.62
756.55	246.90
756.88	245.98
757.20	244.26
757.53	243.52
757.86	242.74
758.19	242.31
758.51	241.93
758.84	240.12
759.17	239.79
759.49	239.60
759.82	240.38
760.15	240.17
760.47	240.00
760.80	239.29
761.13	239.31
761.45	238.95
761.78	238.60
762.11	238.57
762.43	238.40
762.76	238.05
763.08	238.24
763.41	238.05
763.74	237.98
764.06	237.52
764.39	237.10
764.71	236.90
765.04	236.26
765.37	235.79
765.69	235.83
766.02	235.67
766.34	235.12
766.67	233.93
767.00	234.02
767.32	234.98
767.65	236.00
767.97	235.55
768.30	235.45
768.62	235.33
768.95	234.74
769.27	234.60
769.60	234.71
769.92	234.21
770.25	233.67
770.57	232.90
770.90	232.88
771.22	232.83
771.55	232.74
771.87	232.60
772.20	232.26
772.52	233.60
772.85	235.64
773.17	235.36
773.50	235.10
773.82	234.62
774.15	233.21
774.47	231.69
774.80	231.57
775.12	231.17
775.45	231.07
775.77	230.93
776.09	230.71
776.42	230.38
776.74	230.74
777.07	230.40
777.39	230.60
777.72	230.14
778.04	230.07
778.36	229.67
778.69	229.69
779.01	230.00
779.33	228.07
779.66	225.64
779.98	225.38
780.31	225.36
780.63	226.05
780.95	226.29
781.28	226.24
781.60	225.81
781.92	225.81
782.25	225.62
782.57	225.52
782.89	225.31
783.22	225.12
783.54	224.48
783.86	224.74
784.19	224.48
784.51	225.05
784.83	224.74
785.16	224.43
785.48	224.38
785.80	223.98
786.12	224.10
786.45	223.79
786.77	223.90
787.09	223.57
787.42	222.60
787.74	222.57
788.06	222.50
788.38	222.19
788.71	221.86
789.03	221.67
789.35	221.95
789.67	221.55
789.99	221.57
790.32	221.24
790.64	221.26
790.96	223.10
791.28	222.10
791.61	222.07
791.93	222.17
792.25	222.05
792.57	223.50
792.89	223.05
793.21	223.36
793.54	223.12
793.86	222.95
794.18	223.02
794.50	222.36
794.82	222.14
795.14	222.55
795.47	222.90
795.79	222.88
796.11	222.31
796.43	222.21
796.75	222.07
797.07	222.29
797.39	222.14
797.71	220.40
798.04	220.48
798.36	220.55
798.68	220.64
799.00	220.79
799.32	219.31
799.64	219.69
799.96	219.76
800.28	220.02
800.60	220.02
800.92	220.05
801.24	220.12
801.56	220.38
801.89	220.07
802.21	220.12
802.53	219.86
802.85	220.48
803.17	221.43
803.49	220.83
803.81	220.69
804.13	220.67
804.45	220.21
804.77	220.55
805.09	220.29
805.41	220.07
805.73	219.48
806.05	219.19
806.37	219.05
806.69	218.43
807.01	218.19
807.33	218.12
807.65	217.36
807.97	218.29
808.28	218.24
808.60	218.31
808.92	218.07
809.24	219.31
809.56	218.76
809.88	218.07
810.20	218.50
810.52	219.02
810.84	218.55
811.16	218.55
811.48	218.31
811.80	218.95
812.12	218.79
812.43	219.21
812.75	219.36
813.07	219.00
813.39	219.40
813.71	219.17
814.03	219.00
814.35	219.10
814.67	218.10
814.98	217.69
815.30	217.55
815.62	217.24
815.94	215.79
816.26	215.71
816.58	215.31
816.89	215.29
817.21	214.57
817.53	214.69
817.85	214.81
818.17	214.74
818.48	213.95
818.80	214.33
819.12	214.17
819.44	213.74
819.76	213.67
820.07	213.52
820.39	213.45
820.71	213.57
821.03	213.83
821.34	213.64
821.66	214.05
821.98	214.17
822.30	213.93
822.61	215.19
822.93	215.10
823.25	215.29
823.57	215.02
823.88	215.38
824.20	215.50
824.52	215.81
824.83	215.76
825.15	215.52
825.47	215.57
825.79	215.71
826.10	215.83
826.42	215.67
826.74	215.76
827.05	215.83
827.37	215.90
827.69	215.60
828.00	215.93
828.32	215.79
828.64	215.45
828.95	216.76
829.27	216.17
829.58	216.19
829.90	216.48
830.22	216.74
830.53	216.26
830.85	216.00
831.17	215.26
831.48	215.31
831.80	215.48
832.11	215.17
832.43	214.83
832.75	214.86
833.06	216.19
833.38	215.38
833.69	215.29
834.01	215.36
834.32	215.17
834.64	214.81
834.96	214.81
835.27	214.95
835.59	214.21
835.90	213.71
836.22	213.50
836.53	212.83
836.85	212.67
837.16	214.86
837.48	214.93
837.79	215.76
838.11	215.57
838.42	215.55
838.74	215.81
839.05	215.38
839.37	215.38
839.68	214.02
840.00	214.19
840.31	214.48
840.63	214.33
840.94	214.29
841.26	214.07
841.57	213.95
841.88	214.07
842.20	213.81
842.51	213.81
842.83	213.98
843.14	215.83
843.46	215.88
843.77	214.64
844.08	214.71
844.40	214.00
844.71	213.93
845.03	213.81
845.34	213.52
845.65	213.67
845.97	213.57
846.28	213.62
846.60	213.93
846.91	213.55
847.22	213.50
847.54	213.95
847.85	214.07
848.16	213.86
848.48	213.38
848.79	214.26
849.10	214.45
849.42	214.64
849.73	212.88
850.04	212.60
850.36	211.81
850.67	212.07
850.98	212.26
851.30	212.64
851.61	212.62
851.92	212.69
852.23	213.40
852.55	213.57
852.86	213.67
853.17	213.48
853.49	214.12
853.80	214.45
854.11	214.64
854.42	214.95
854.74	214.98
855.05	215.36
855.36	214.10
855.67	214.14
855.99	214.00
856.30	216.52
856.61	216.69
856.92	216.83
857.23	216.76
857.55	216.55
857.86	216.38
858.17	216.76
858.48	216.76
858.79	216.55
859.11	216.57
859.42	216.40
859.73	216.33
860.04	216.10
860.35	215.52
860.66	214.69
860.98	214.55
861.29	214.64
861.60	214.43
861.91	215.07
862.22	214.93
862.53	214.60
862.84	212.05
863.16	212.38
863.47	212.12
863.78	211.81
864.09	211.95
864.40	211.95
864.71	212.05
865.02	211.95
865.33	211.67
865.64	211.60
865.95	211.64
866.27	213.21
866.58	212.76
866.89	213.21
867.20	213.40
867.51	213.24
867.82	213.10
868.13	213.83
868.44	213.36
868.75	213.57
869.06	213.81
869.37	213.88
869.68	213.17
869.99	213.33
870.30	213.55
870.61	213.90
870.92	213.57
871.23	213.17
871.54	213.52
871.85	213.95
872.16	214.14
872.47	214.02
872.78	212.43
873.09	212.95
873.40	212.64
873.71	212.81
874.02	212.95
874.33	212.67
874.64	212.02
874.95	212.40
875.26	212.10
875.56	212.02
875.87	211.88
876.18	212.17
876.49	214.12
876.80	213.90
877.11	213.43
877.42	213.62
877.73	213.81
878.04	213.38
878.35	213.33
878.66	213.19
878.96	213.14
879.27	213.38
879.58	213.05
879.89	212.74
880.20	213.36
880.51	213.21
880.82	213.45
881.12	213.55
881.43	213.07
881.74	212.74
882.05	212.43
882.36	212.71
882.67	212.90
882.97	210.76
883.28	210.74
883.59	210.67
883.90	210.69
884.21	211.17
884.51	210.95
884.82	210.57
885.13	210.43
885.44	210.43
885.74	210.36
886.05	210.26
886.36	210.48
886.67	209.69
886.98	210.55
887.28	210.79
887.59	210.71
887.90	211.10
888.20	211.14
888.51	211.64
888.82	211.48
889.13	211.62
889.43	213.33
889.74	213.17
890.05	213.17
890.35	213.02
890.66	212.48
890.97	212.50
891.28	212.29
891.58	212.43
891.89	212.50
892.20	212.29
892.50	212.26
892.81	212.17
893.12	212.02
893.42	211.14
893.73	211.02
894.04	211.21
894.34	211.12
894.65	210.93
894.95	210.93
895.26	210.83
895.57	211.48
895.87	209.64
896.18	210.21
896.48	210.29
896.79	210.31
897.10	210.69
897.40	210.95
897.71	211.21
898.01	211.02
898.32	211.17
898.63	211.17
898.93	211.19
899.24	211.26
899.54	211.48
899.85	211.45
900.15	211.57
900.46	211.50
900.76	211.52
901.07	211.67
901.38	211.50
901.68	211.79
901.99	211.00
902.29	211.26
902.60	210.83
902.90	210.74
903.21	210.74
903.51	210.48
903.82	210.88
904.12	210.86
904.43	211.05
904.73	211.10
905.03	211.24
905.34	213.17
905.64	213.00
905.95	212.69
906.25	212.69
906.56	212.43
906.86	212.52
907.17	212.36
907.47	212.43
907.77	212.26
908.08	211.90
908.38	212.00
908.69	212.07
908.99	212.36
909.30	212.64
909.60	212.90
909.90	212.90
910.21	212.05
910.51	211.86
910.81	211.95
911.12	211.93
911.42	212.07
911.73	209.93
912.03	210.10
912.33	210.55
912.64	210.62
912.94	210.67
913.24	210.24
913.55	210.02
913.85	210.05
914.15	210.36
914.46	210.95
914.76	210.71
915.06	210.57
915.37	210.21
915.67	209.79
915.97	209.55
916.27	209.00
916.58	209.36
916.88	209.14
917.18	209.02
917.49	210.38
917.79	210.17
918.09	210.57
918.39	210.95
918.70	210.95
919.00	210.90
919.30	211.71
919.60	211.74
919.91	211.93
920.21	212.02
920.51	211.83
920.81	211.60
921.12	211.88
921.42	211.83
921.72	212.21
922.02	212.40
922.32	212.69
922.63	213.05
922.93	214.02
923.23	214.33
923.53	213.98
923.83	212.55
924.13	212.71
924.44	212.67
924.74	213.12
925.04	213.60
925.34	213.64
925.64	212.71
925.94	212.69
926.24	213.62
926.55	213.43
926.85	213.62
927.15	213.55
927.45	213.36
927.75	213.29
928.05	213.29
928.35	213.38
928.65	213.71
928.95	213.81
929.26	213.00
929.56	213.26
929.86	213.86
930.16	213.90
930.46	213.88
930.76	214.10
931.06	213.07
931.36	212.38
931.66	212.48
931.96	212.90
932.26	212.95
932.56	212.05
932.86	212.24
933.16	212.14
933.46	211.76
933.76	211.83
934.06	212.50
934.36	213.14
934.66	213.17
934.96	213.00
935.26	213.10
935.56	213.57
935.86	213.21
936.16	212.95
936.46	212.86
936.76	212.71
937.06	212.21
937.36	212.64
937.66	212.86
937.96	212.90
938.26	212.43
938.56	212.52
938.86	212.90
939.16	213.26
939.46	213.52
939.76	213.83
940.06	213.76
940.35	213.05
940.65	211.93
940.95	212.02
941.25	211.45
941.55	211.19
941.85	210.74
942.15	211.38
942.45	211.86
942.75	211.71
943.04	211.88
943.34	212.45
943.64	212.17
943.94	211.81
944.24	212.02
944.54	212.31
944.84	212.36
945.13	211.93
945.43	211.55
945.73	211.21
946.03	210.98
946.33	210.69
946.62	210.71
946.92	210.71
947.22	210.67
947.52	210.81
947.82	211.26
948.11	211.05
948.41	210.31
948.71	209.55
949.01	209.83
949.31	209.69
949.60	209.38
949.90	209.43
950.20	209.43
950.50	209.12
950.79	209.12
951.09	209.19
951.39	209.24
951.69	209.26
951.98	209.83
952.28	209.90
952.58	209.86
952.87	209.83
953.17	210.26
953.47	209.98
953.76	210.00
954.06	209.67
954.36	209.55
954.66	209.57
954.95	210.24
955.25	210.31
955.55	210.55
955.84	210.26
956.14	210.55
956.44	210.93
956.73	210.76
957.03	210.74
957.32	210.69
957.62	210.57
957.92	210.93
958.21	210.69
958.51	213.19
958.81	213.69
959.10	214.05
959.40	214.64
959.69	214.95
959.99	215.31
960.29	215.40
960.58	215.24
960.88	216.02
961.17	215.71
961.47	215.74
961.76	215.50
962.06	215.95
962.36	215.74
962.65	215.69
962.95	215.81
963.24	215.69
963.54	215.81
963.83	215.93
964.13	215.71
964.42	215.19
964.72	213.45
965.01	213.43
965.31	213.31
965.60	212.64
965.90	213.95
966.19	213.50
966.49	213.60
966.78	213.67
967.08	213.40
967.37	213.60
967.67	213.50
967.96	213.76
968.26	213.62
968.55	214.00
968.85	213.95
969.14	214.00
969.43	214.07
969.73	213.86
970.02	213.71
970.32	213.64
970.61	213.79
970.91	213.12
971.20	212.67
971.49	212.36
971.79	212.64
972.08	211.12
972.38	211.19
972.67	210.93
972.96	211.26
973.26	210.83
973.55	211.48
973.85	211.26
974.14	211.12
974.43	211.40
974.73	211.07
975.02	210.81
975.31	210.86
975.61	210.79
975.90	210.57
976.19	210.60
976.49	210.71
976.78	210.74
977.07	210.93
977.37	211.12
977.66	211.43
977.95	211.10
978.24	211.14
978.54	211.52
978.83	211.21
979.12	211.21
979.42	211.40
979.71	210.60
980.00	210.55
980.29	210.67
980.59	210.00
980.88	210.43
981.17	210.57
981.46	210.36
981.76	210.29
982.05	211.10
982.34	210.93
982.63	211.00
982.93	211.00
983.22	211.48
983.51	211.31
983.80	211.60
984.09	211.64
984.39	211.67
984.68	211.38
984.97	211.88
985.26	211.71
985.55	211.81
985.85	211.62
986.14	212.02
986.43	212.07
986.72	212.21
987.01	211.64
987.30	211.60
987.59	211.45
987.89	211.57
988.18	210.90
988.47	211.14
988.76	210.71
989.05	210.62
989.34	210.19
989.63	210.95
989.92	210.36
990.22	210.24
990.51	210.17
990.80	210.05
991.09	210.19
991.38	210.26
991.67	209.81
991.96	209.81
992.25	209.50
992.54	209.21
992.83	209.50
993.12	209.33
993.41	209.55
993.70	210.55
993.99	210.79
994.28	211.05
994.58	211.36
994.87	211.26
995.16	211.29
995.45	211.00
995.74	210.29
996.03	210.67
996.32	210.95
996.61	211.45
996.90	211.40
997.19	211.14
997.48	211.26
997.77	211.31
998.06	211.40
998.34	211.43
998.63	211.48
998.92	211.17
999.21	211.69
999.50	211.83
999.79	211.10
1000.08	211.10
1000.37	211.19
1000.66	210.88
1000.95	211.38
1001.24	211.36
1001.53	211.76
1001.82	211.60
1002.11	211.26
1002.40	211.60
1002.68	211.95
1002.97	213.45
1003.26	213.31
1003.55	213.10
1003.84	213.31
1004.13	214.02
1004.42	213.98
1004.71	213.83
1004.99	213.95
1005.28	214.31
1005.57	214.10
1005.86	214.02
1006.15	213.86
1006.44	213.52
1006.72	213.74
1007.01	213.55
1007.30	213.64
1007.59	213.50
1007.88	213.69
1008.17	213.81
1008.45	213.05
1008.74	212.05
1009.03	211.10
1009.32	211.17
1009.60	211.10
1009.89	211.19
1010.18	210.33
1010.47	210.40
1010.76	210.50
1011.04	210.43
1011.33	210.45
1011.62	210.69
1011.91	210.67
1012.19	210.81
1012.48	210.71
1012.77	210.71
1013.05	211.45
1013.34	211.40
1013.63	211.12
1013.92	211.12
1014.20	210.93
1014.49	211.12
1014.78	211.45
1015.06	210.57
1015.35	210.38
1015.64	210.93
1015.92	211.07
1016.21	211.24
1016.50	211.12
1016.78	211.48
1017.07	211.71
1017.36	211.10
1017.64	210.69
1017.93	210.88
1018.22	210.60
1018.50	210.86
1018.79	210.57
1019.08	209.69
1019.36	209.74
1019.65	209.71
1019.93	210.31
1020.22	210.67
1020.51	211.71
1020.79	211.33
1021.08	207.50
1021.36	211.50
1021.65	208.00
1021.94	209.00
1022.22	210.00
1022.51	207.00
1022.79	220.00
1023.08	212.50
1023.36	233.00
1023.65	203.00
>>>>>End Processed Spectral Data<<<<<
