SpectraSuite Data File
++++++++++++++++++++++++++++++++++++
Date: Tue Apr 02 18:38:21 EDT 2013
User: group
Dark Spectrum Present: No
Reference Spectrum Present: No
Number of Sampled Component Spectra: 1
Spectrometers: USB2E7196
Integration Time (usec): 580000 (USB2E7196)
Spectra Averaged: 2 (USB2E7196)
Boxcar Smoothing: 10 (USB2E7196)
Correct for Electrical Dark: No (USB2E7196)
Strobe/Lamp Enabled: No (USB2E7196)
Correct for Detector Non-linearity: No (USB2E7196)
Correct for Stray Light: No (USB2E7196)
Number of Pixels in Processed Spectrum: 2048
>>>>>Begin Processed Spectral Data<<<<<
339.09	0.00
339.48	189.50
339.86	194.50
340.24	197.00
340.63	197.50
341.01	232.50
341.39	199.50
341.78	204.00
342.16	210.50
342.54	204.50
342.93	196.98
343.31	206.69
343.69	207.24
344.07	207.69
344.46	208.33
344.84	208.76
345.22	207.50
345.60	207.95
345.99	208.26
346.37	208.07
346.75	208.26
347.13	208.26
347.52	208.45
347.90	209.29
348.28	209.21
348.66	209.69
349.05	209.12
349.43	209.57
349.81	209.60
350.19	209.55
350.57	209.64
350.96	209.79
351.34	210.14
351.72	210.38
352.10	210.52
352.48	210.48
352.87	210.62
353.25	210.95
353.63	210.90
354.01	210.83
354.39	211.26
354.77	211.26
355.15	211.86
355.54	211.57
355.92	210.98
356.30	211.02
356.68	212.26
357.06	212.55
357.44	212.36
357.82	212.48
358.20	213.64
358.58	213.69
358.97	213.74
359.35	214.21
359.73	214.64
360.11	214.86
360.49	215.02
360.87	215.07
361.25	215.17
361.63	215.83
362.01	216.07
362.39	216.00
362.77	216.43
363.15	216.31
363.53	216.29
363.91	216.52
364.29	216.83
364.67	215.24
365.05	215.45
365.43	215.93
365.81	216.17
366.19	216.21
366.57	217.14
366.95	217.24
367.33	216.67
367.71	216.81
368.09	217.14
368.47	217.14
368.85	217.02
369.23	217.62
369.61	217.21
369.99	217.90
370.37	217.98
370.75	218.83
371.13	218.55
371.51	218.60
371.89	218.88
372.27	218.79
372.65	218.62
373.03	218.62
373.41	218.07
373.78	218.02
374.16	217.07
374.54	216.33
374.92	215.95
375.30	216.21
375.68	215.86
376.06	215.69
376.44	215.36
376.82	215.69
377.19	215.36
377.57	215.19
377.95	214.48
378.33	214.55
378.71	213.24
379.09	213.45
379.47	213.50
379.84	213.12
380.22	213.07
380.60	212.81
380.98	212.52
381.36	212.55
381.73	212.17
382.11	212.48
382.49	212.45
382.87	212.26
383.25	212.12
383.62	214.21
384.00	213.88
384.38	214.07
384.76	214.38
385.13	215.07
385.51	214.83
385.89	214.74
386.27	214.57
386.64	214.90
387.02	214.88
387.40	214.60
387.78	214.88
388.15	214.88
388.53	214.81
388.91	214.81
389.29	214.86
389.66	215.10
390.04	215.12
390.42	215.64
390.79	215.86
391.17	215.98
391.55	213.88
391.92	213.98
392.30	214.29
392.68	213.93
393.05	213.76
393.43	213.93
393.81	213.90
394.18	213.76
394.56	213.79
394.94	213.81
395.31	213.93
395.69	214.52
396.06	214.71
396.44	215.00
396.82	215.02
397.19	215.90
397.57	215.95
397.95	216.14
398.32	215.57
398.70	216.17
399.07	216.57
399.45	216.60
399.82	216.69
400.20	216.50
400.58	216.43
400.95	215.69
401.33	216.38
401.70	218.12
402.08	218.21
402.45	218.43
402.83	219.29
403.20	219.36
403.58	218.86
403.95	219.31
404.33	219.67
404.71	220.00
405.08	221.43
405.46	221.55
405.83	222.00
406.21	222.31
406.58	222.60
406.96	223.05
407.33	223.64
407.70	224.40
408.08	226.81
408.45	227.76
408.83	228.86
409.20	229.26
409.58	228.62
409.95	229.83
410.33	230.86
410.70	231.43
411.08	232.95
411.45	234.24
411.82	235.21
412.20	237.10
412.57	239.57
412.95	239.24
413.32	241.26
413.69	242.71
414.07	244.90
414.44	246.93
414.82	248.90
415.19	251.81
415.56	254.50
415.94	256.29
416.31	259.67
416.68	262.95
417.06	266.60
417.43	270.76
417.81	274.95
418.18	279.19
418.55	283.55
418.93	288.36
419.30	293.19
419.67	298.40
420.04	303.67
420.42	309.10
420.79	317.29
421.16	324.17
421.54	332.17
421.91	339.43
422.28	346.62
422.66	354.31
423.03	363.12
423.40	371.05
423.77	379.17
424.15	387.45
424.52	396.36
424.89	406.71
425.26	416.02
425.64	424.74
426.01	434.38
426.38	444.60
426.75	455.55
427.13	466.60
427.50	477.90
427.87	489.43
428.24	501.07
428.61	511.36
428.99	523.88
429.36	536.52
429.73	549.83
430.10	563.83
430.47	578.21
430.85	591.26
431.22	605.60
431.59	622.98
431.96	638.62
432.33	655.74
432.70	671.57
433.08	690.26
433.45	708.29
433.82	726.45
434.19	746.71
434.56	766.29
434.93	784.86
435.30	804.05
435.68	825.05
436.05	845.79
436.42	866.00
436.79	885.43
437.16	905.64
437.53	927.55
437.90	948.38
438.27	969.36
438.64	991.02
439.01	1012.00
439.38	1028.55
439.75	1045.83
440.13	1065.48
440.50	1085.19
440.87	1100.48
441.24	1116.71
441.61	1134.71
441.98	1147.40
442.35	1161.90
442.72	1177.67
443.09	1193.55
443.46	1202.81
443.83	1209.14
444.20	1214.69
444.57	1222.07
444.94	1225.83
445.31	1229.38
445.68	1236.12
446.05	1237.86
446.42	1236.48
446.79	1234.93
447.16	1232.64
447.53	1231.81
447.90	1224.60
448.27	1216.83
448.64	1207.17
449.01	1200.14
449.37	1186.50
449.74	1173.95
450.11	1160.52
450.48	1143.40
450.85	1124.55
451.22	1109.83
451.59	1095.33
451.96	1082.55
452.33	1064.31
452.70	1048.19
453.07	1028.33
453.43	1005.29
453.80	985.81
454.17	966.81
454.54	948.64
454.91	929.98
455.28	910.40
455.65	893.21
456.02	878.64
456.38	863.33
456.75	844.86
457.12	828.83
457.49	813.45
457.86	796.74
458.23	784.60
458.59	770.90
458.96	756.10
459.33	743.36
459.70	730.14
460.07	719.81
460.43	707.83
460.80	697.50
461.17	688.93
461.54	678.95
461.91	669.36
462.27	659.62
462.64	651.02
463.01	642.26
463.38	633.79
463.74	621.52
464.11	613.90
464.48	606.88
464.85	600.00
465.21	594.79
465.58	589.05
465.95	581.21
466.32	575.31
466.68	569.93
467.05	564.69
467.42	558.71
467.78	552.48
468.15	546.93
468.52	542.52
468.88	535.74
469.25	529.95
469.62	526.33
469.98	521.88
470.35	517.69
470.72	513.62
471.08	508.29
471.45	504.88
471.82	501.50
472.18	497.45
472.55	494.10
472.92	490.02
473.28	486.43
473.65	483.10
474.02	480.24
474.38	477.79
474.75	475.14
475.11	472.38
475.48	470.33
475.85	468.14
476.21	465.88
476.58	464.02
476.94	462.90
477.31	461.26
477.67	459.90
478.04	458.88
478.41	458.02
478.77	459.38
479.14	458.07
479.50	457.24
479.87	457.14
480.23	456.95
480.60	456.24
480.96	456.14
481.33	457.26
481.69	457.02
482.06	456.98
482.42	457.36
482.79	458.00
483.15	458.52
483.52	459.98
483.88	460.64
484.25	462.24
484.61	463.33
484.98	464.40
485.34	466.74
485.71	468.48
486.07	470.17
486.44	470.24
486.80	472.43
487.17	474.40
487.53	477.43
487.90	480.62
488.26	485.10
488.62	488.57
488.99	490.81
489.35	494.33
489.72	497.86
490.08	501.07
490.44	504.52
490.81	508.71
491.17	512.19
491.54	516.69
491.90	521.12
492.26	525.40
492.63	530.43
492.99	534.67
493.36	540.10
493.72	546.43
494.08	552.10
494.45	558.38
494.81	564.69
495.17	570.33
495.54	576.36
495.90	581.81
496.26	588.19
496.63	595.05
496.99	601.95
497.35	608.88
497.72	616.62
498.08	624.31
498.44	632.07
498.80	640.52
499.17	648.12
499.53	655.98
499.89	665.00
500.26	673.64
500.62	682.38
500.98	691.95
501.34	700.43
501.71	710.40
502.07	719.31
502.43	728.55
502.79	738.05
503.16	747.93
503.52	757.57
503.88	767.17
504.24	777.71
504.60	787.95
504.97	798.43
505.33	808.57
505.69	820.48
506.05	831.45
506.41	841.36
506.78	852.26
507.14	862.17
507.50	872.95
507.86	883.10
508.22	894.29
508.59	903.79
508.95	914.69
509.31	925.83
509.67	937.14
510.03	947.62
510.39	958.02
510.75	968.76
511.12	978.90
511.48	989.33
511.84	998.90
512.20	1009.10
512.56	1019.81
512.92	1031.05
513.28	1040.76
513.64	1051.52
514.00	1062.76
514.37	1074.05
514.73	1085.79
515.09	1096.81
515.45	1108.14
515.81	1118.10
516.17	1128.07
516.53	1137.74
516.89	1146.86
517.25	1156.17
517.61	1166.79
517.97	1176.24
518.33	1185.50
518.69	1195.64
519.05	1205.29
519.41	1215.05
519.77	1225.74
520.13	1235.43
520.49	1243.38
520.85	1252.00
521.21	1260.95
521.57	1269.52
521.93	1277.12
522.29	1285.52
522.65	1292.57
523.01	1301.07
523.37	1309.07
523.73	1317.74
524.09	1325.71
524.45	1333.24
524.81	1341.17
525.17	1349.12
525.53	1357.12
525.89	1364.19
526.25	1372.07
526.61	1379.02
526.97	1385.81
527.33	1392.14
527.68	1400.21
528.04	1407.86
528.40	1414.17
528.76	1420.69
529.12	1427.17
529.48	1434.17
529.84	1440.40
530.20	1447.71
530.56	1453.62
530.91	1459.50
531.27	1465.48
531.63	1471.29
531.99	1476.93
532.35	1482.31
532.71	1486.64
533.07	1493.57
533.42	1501.64
533.78	1507.29
534.14	1513.67
534.50	1519.71
534.86	1526.10
535.21	1529.19
535.57	1534.83
535.93	1540.19
536.29	1546.31
536.65	1552.02
537.00	1556.17
537.36	1559.86
537.72	1562.93
538.08	1567.07
538.44	1571.17
538.79	1575.19
539.15	1579.14
539.51	1584.38
539.87	1588.88
540.22	1594.05
540.58	1597.10
540.94	1597.79
541.29	1600.83
541.65	1603.26
542.01	1606.29
542.37	1607.71
542.72	1610.00
543.08	1611.79
543.44	1613.98
543.79	1613.83
544.15	1616.36
544.51	1619.69
544.87	1622.86
545.22	1625.98
545.58	1627.50
545.94	1629.83
546.29	1632.10
546.65	1634.17
547.01	1633.81
547.36	1635.10
547.72	1635.67
548.07	1636.74
548.43	1638.40
548.79	1638.90
549.14	1638.86
549.50	1640.02
549.86	1639.81
550.21	1641.02
550.57	1642.83
550.92	1642.95
551.28	1644.19
551.64	1644.14
551.99	1643.79
552.35	1643.05
552.70	1642.83
553.06	1642.83
553.41	1642.19
553.77	1642.50
554.13	1642.36
554.48	1643.62
554.84	1644.24
555.19	1644.36
555.55	1645.29
555.90	1645.31
556.26	1644.88
556.61	1645.81
556.97	1644.43
557.32	1644.88
557.68	1644.48
558.03	1642.79
558.39	1643.24
558.74	1642.19
559.10	1641.02
559.45	1640.43
559.81	1640.24
560.16	1639.83
560.52	1639.83
560.87	1639.38
561.23	1636.95
561.58	1637.76
561.94	1637.19
562.29	1635.60
562.64	1634.29
563.00	1631.62
563.35	1630.26
563.71	1629.40
564.06	1629.17
564.42	1628.57
564.77	1628.36
565.12	1628.07
565.48	1629.60
565.83	1629.86
566.19	1629.02
566.54	1628.48
566.89	1627.14
567.25	1626.71
567.60	1627.64
567.96	1628.60
568.31	1629.38
568.66	1630.74
569.02	1627.05
569.37	1624.62
569.72	1623.83
570.08	1622.57
570.43	1620.83
570.78	1619.79
571.14	1618.88
571.49	1616.24
571.84	1615.26
572.20	1612.67
572.55	1611.24
572.90	1606.55
573.26	1603.31
573.61	1601.00
573.96	1598.55
574.31	1595.21
574.67	1591.71
575.02	1587.52
575.37	1582.31
575.72	1577.26
576.08	1572.29
576.43	1569.50
576.78	1565.95
577.13	1561.90
577.49	1557.79
577.84	1554.83
578.19	1550.71
578.54	1547.26
578.90	1543.95
579.25	1539.33
579.60	1535.38
579.95	1529.83
580.30	1525.93
580.66	1521.26
581.01	1517.45
581.36	1512.14
581.71	1508.02
582.06	1505.07
582.42	1500.48
582.77	1495.60
583.12	1491.57
583.47	1486.95
583.82	1482.55
584.17	1478.50
584.53	1473.69
584.88	1468.90
585.23	1464.98
585.58	1460.31
585.93	1454.38
586.28	1449.71
586.63	1445.14
586.98	1440.74
587.34	1437.45
587.69	1432.48
588.04	1427.43
588.39	1422.38
588.74	1416.43
589.09	1412.26
589.44	1405.26
589.79	1400.24
590.14	1395.05
590.49	1389.33
590.84	1383.69
591.19	1377.74
591.54	1372.48
591.89	1366.86
592.25	1363.60
592.60	1356.79
592.95	1352.52
593.30	1348.05
593.65	1341.17
594.00	1334.62
594.35	1334.81
594.70	1327.52
595.05	1321.76
595.40	1316.10
595.75	1309.43
596.10	1305.07
596.45	1299.05
596.80	1294.33
597.15	1288.57
597.50	1282.74
597.85	1278.07
598.19	1272.62
598.54	1267.71
598.89	1261.55
599.24	1256.38
599.59	1249.10
599.94	1244.33
600.29	1238.14
600.64	1232.21
600.99	1227.67
601.34	1223.95
601.69	1212.02
602.04	1206.29
602.39	1200.55
602.74	1195.67
603.08	1190.79
603.43	1186.24
603.78	1180.50
604.13	1174.38
604.48	1168.21
604.83	1163.48
605.18	1158.14
605.53	1153.19
605.87	1147.45
606.22	1142.40
606.57	1136.88
606.92	1131.48
607.27	1125.12
607.62	1119.48
607.96	1114.26
608.31	1108.74
608.66	1103.40
609.01	1098.33
609.36	1093.79
609.70	1088.90
610.05	1082.24
610.40	1076.64
610.75	1070.64
611.10	1065.48
611.44	1060.38
611.79	1055.26
612.14	1049.43
612.49	1042.21
612.83	1036.83
613.18	1031.17
613.53	1025.14
613.88	1019.12
614.22	1013.52
614.57	1008.17
614.92	1002.05
615.27	996.12
615.61	990.02
615.96	983.21
616.31	977.48
616.65	972.05
617.00	966.21
617.35	961.57
617.70	955.90
618.04	950.12
618.39	944.43
618.74	939.12
619.08	933.31
619.43	927.48
619.78	923.55
620.12	918.10
620.47	913.40
620.82	908.50
621.16	903.69
621.51	900.33
621.85	894.79
622.20	890.26
622.55	884.90
622.89	880.90
623.24	876.10
623.59	871.26
623.93	866.43
624.28	862.21
624.62	859.71
624.97	856.52
625.32	851.81
625.66	847.07
626.01	842.31
626.35	838.48
626.70	833.76
627.04	829.10
627.39	824.12
627.73	820.31
628.08	815.69
628.43	810.95
628.77	804.45
629.12	800.69
629.46	796.81
629.81	792.64
630.15	787.48
630.50	783.26
630.84	778.14
631.19	773.60
631.53	768.52
631.88	761.76
632.22	755.31
632.57	751.17
632.91	746.81
633.26	742.52
633.60	736.81
633.95	732.60
634.29	727.38
634.64	723.19
634.98	717.69
635.32	713.60
635.67	709.67
636.01	705.71
636.36	700.79
636.70	696.31
637.05	691.48
637.39	686.76
637.73	682.26
638.08	678.93
638.42	674.40
638.77	671.12
639.11	667.05
639.45	663.50
639.80	658.95
640.14	655.43
640.49	651.45
640.83	647.76
641.17	644.05
641.52	640.40
641.86	636.90
642.20	634.05
642.55	630.10
642.89	626.38
643.23	622.83
643.58	620.10
643.92	615.64
644.26	612.07
644.61	608.98
644.95	605.52
645.29	601.24
645.64	597.81
645.98	593.00
646.32	589.57
646.66	585.81
647.01	582.74
647.35	578.95
647.69	575.50
648.04	572.69
648.38	569.33
648.72	566.10
649.06	562.07
649.41	557.69
649.75	554.50
650.09	551.24
650.43	547.52
650.78	543.52
651.12	540.12
651.46	536.88
651.80	533.69
652.14	530.29
652.49	528.26
652.83	524.93
653.17	522.31
653.51	518.57
653.85	516.07
654.20	512.45
654.54	509.00
654.88	505.52
655.22	502.98
655.56	500.19
655.90	497.14
656.25	494.29
656.59	491.81
656.93	489.14
657.27	487.07
657.61	484.26
657.95	481.98
658.29	479.07
658.64	476.90
658.98	474.45
659.32	472.05
659.66	468.76
660.00	466.45
660.34	463.62
660.68	461.17
661.02	458.43
661.36	456.02
661.70	453.79
662.05	451.60
662.39	448.86
662.73	446.69
663.07	445.50
663.41	443.62
663.75	440.64
664.09	438.07
664.43	434.81
664.77	432.62
665.11	429.98
665.45	428.33
665.79	426.26
666.13	423.71
666.47	421.05
666.81	419.07
667.15	416.57
667.49	414.90
667.83	413.50
668.17	411.60
668.51	409.93
668.85	408.57
669.19	407.62
669.53	405.12
669.87	402.76
670.21	400.05
670.55	398.48
670.89	398.12
671.23	396.36
671.57	394.64
671.91	393.12
672.25	391.48
672.58	390.55
672.92	388.31
673.26	386.60
673.60	385.17
673.94	383.74
674.28	382.55
674.62	381.10
674.96	379.07
675.30	377.50
675.64	375.69
675.97	373.71
676.31	371.33
676.65	369.98
676.99	369.29
677.33	367.55
677.67	365.81
678.01	363.17
678.34	361.93
678.68	360.90
679.02	359.24
679.36	357.64
679.70	355.38
680.04	354.00
680.37	352.64
680.71	351.05
681.05	349.60
681.39	348.60
681.73	347.31
682.06	345.79
682.40	344.55
682.74	343.60
683.08	343.36
683.42	341.98
683.75	341.19
684.09	339.10
684.43	337.90
684.77	336.33
685.10	335.52
685.44	334.21
685.78	332.81
686.12	331.57
686.45	330.19
686.79	329.10
687.13	328.45
687.46	327.52
687.80	326.93
688.14	325.55
688.48	324.17
688.81	322.86
689.15	322.36
689.49	321.05
689.82	319.76
690.16	317.45
690.50	316.33
690.83	314.76
691.17	313.55
691.51	312.76
691.84	312.19
692.18	310.95
692.52	309.76
692.85	308.90
693.19	308.67
693.52	308.00
693.86	306.50
694.20	305.14
694.53	304.24
694.87	303.19
695.21	302.05
695.54	300.90
695.88	299.67
696.21	298.19
696.55	297.55
696.88	296.31
697.22	295.62
697.56	295.17
697.89	294.00
698.23	293.64
698.56	292.26
698.90	291.40
699.23	290.19
699.57	289.29
699.90	287.95
700.24	286.48
700.58	285.52
700.91	285.31
701.25	286.48
701.58	285.93
701.92	285.38
702.25	285.02
702.59	284.05
702.92	283.45
703.26	282.95
703.59	282.14
703.93	283.43
704.26	283.17
704.60	282.71
704.93	282.21
705.26	281.31
705.60	281.24
705.93	280.02
706.27	280.52
706.60	280.43
706.94	280.62
707.27	279.86
707.61	279.10
707.94	278.14
708.27	275.57
708.61	274.50
708.94	273.86
709.28	272.95
709.61	272.21
709.94	271.52
710.28	271.00
710.61	270.52
710.95	267.83
711.28	268.24
711.61	267.48
711.95	267.38
712.28	266.57
712.61	265.69
712.95	266.55
713.28	266.55
713.61	265.60
713.95	264.86
714.28	264.64
714.61	264.26
714.95	263.83
715.28	263.12
715.61	262.43
715.95	262.19
716.28	261.57
716.61	261.79
716.95	260.83
717.28	260.29
717.61	259.52
717.94	259.33
718.28	257.21
718.61	256.48
718.94	255.67
719.27	255.07
719.61	254.90
719.94	253.52
720.27	252.10
720.60	251.48
720.94	250.55
721.27	250.14
721.60	250.07
721.93	249.55
722.27	249.95
722.60	250.00
722.93	249.17
723.26	249.12
723.59	248.17
723.93	248.55
724.26	248.29
724.59	247.71
724.92	247.48
725.25	247.83
725.59	247.55
725.92	247.40
726.25	247.05
726.58	246.67
726.91	246.43
727.24	246.14
727.57	245.76
727.91	245.33
728.24	244.95
728.57	244.14
728.90	244.33
729.23	243.29
729.56	243.69
729.89	243.52
730.22	243.07
730.55	243.07
730.89	242.69
731.22	242.33
731.55	242.26
731.88	242.07
732.21	241.17
732.54	240.67
732.87	240.50
733.20	240.62
733.53	240.29
733.86	240.00
734.19	239.45
734.52	239.71
734.85	240.74
735.18	240.26
735.51	241.02
735.84	240.90
736.17	241.33
736.50	240.19
736.83	241.86
737.16	241.71
737.49	241.43
737.82	240.83
738.15	240.79
738.48	240.76
738.81	240.36
739.14	240.14
739.47	240.07
739.80	239.69
740.13	239.67
740.46	239.02
740.79	238.60
741.12	238.67
741.45	238.02
741.78	236.86
742.11	237.21
742.44	236.38
742.77	236.12
743.10	235.83
743.43	235.48
743.75	233.43
744.08	235.71
744.41	235.29
744.74	235.17
745.07	234.50
745.40	234.45
745.73	235.19
746.06	234.95
746.39	234.86
746.71	234.40
747.04	233.76
747.37	233.64
747.70	233.93
748.03	233.57
748.36	233.60
748.68	233.38
749.01	232.74
749.34	232.57
749.67	232.48
750.00	232.40
750.33	233.79
750.65	234.05
750.98	231.40
751.31	231.36
751.64	231.43
751.97	232.69
752.29	232.43
752.62	231.40
752.95	231.50
753.28	231.26
753.60	231.17
753.93	231.57
754.26	231.76
754.59	231.00
754.91	230.71
755.24	230.55
755.57	230.29
755.90	230.05
756.22	229.79
756.55	229.33
756.88	228.69
757.20	227.07
757.53	226.12
757.86	225.98
758.19	225.76
758.51	225.40
758.84	224.21
759.17	223.88
759.49	223.83
759.82	224.74
760.15	224.71
760.47	224.50
760.80	223.98
761.13	224.14
761.45	223.98
761.78	223.88
762.11	223.69
762.43	223.76
762.76	223.71
763.08	223.86
763.41	223.86
763.74	224.02
764.06	223.83
764.39	223.81
764.71	223.64
765.04	223.45
765.37	223.38
765.69	223.14
766.02	222.83
766.34	222.83
766.67	221.98
767.00	222.19
767.32	223.17
767.65	224.26
767.97	223.81
768.30	224.14
768.62	224.00
768.95	223.81
769.27	223.40
769.60	223.50
769.92	222.95
770.25	222.38
770.57	221.67
770.90	221.71
771.22	221.57
771.55	221.43
771.87	221.55
772.20	221.36
772.52	223.07
772.85	225.67
773.17	225.55
773.50	225.21
773.82	224.67
774.15	223.71
774.47	222.24
774.80	222.14
775.12	221.81
775.45	221.79
775.77	221.71
776.09	221.90
776.42	221.90
776.74	222.57
777.07	222.60
777.39	222.83
777.72	222.64
778.04	222.74
778.36	222.71
778.69	222.88
779.01	223.07
779.33	221.12
779.66	218.74
779.98	218.26
780.31	218.31
780.63	219.02
780.95	219.29
781.28	219.29
781.60	218.95
781.92	218.76
782.25	218.48
782.57	218.52
782.89	218.43
783.22	217.86
783.54	217.31
783.86	217.48
784.19	217.29
784.51	218.02
784.83	217.86
785.16	217.40
785.48	217.12
785.80	217.10
786.12	217.38
786.45	217.36
786.77	217.60
787.09	217.29
787.42	216.64
787.74	216.62
788.06	216.67
788.38	216.67
788.71	216.38
789.03	216.62
789.35	217.00
789.67	216.64
789.99	217.02
790.32	216.86
790.64	217.26
790.96	218.98
791.28	217.93
791.61	217.69
791.93	218.05
792.25	217.93
792.57	219.19
792.89	218.67
793.21	218.62
793.54	218.60
793.86	218.38
794.18	218.55
794.50	218.21
794.82	218.38
795.14	218.67
795.47	219.33
795.79	219.19
796.11	218.64
796.43	218.45
796.75	218.52
797.07	218.64
797.39	218.33
797.71	216.83
798.04	217.19
798.36	217.52
798.68	217.52
799.00	217.76
799.32	216.60
799.64	217.00
799.96	216.81
800.28	217.07
800.60	217.21
800.92	217.36
801.24	217.38
801.56	217.29
801.89	217.21
802.21	217.26
802.53	217.05
802.85	217.45
803.17	218.57
803.49	218.12
803.81	218.05
804.13	217.76
804.45	217.29
804.77	217.40
805.09	217.31
805.41	216.98
805.73	216.40
806.05	216.17
806.37	215.90
806.69	215.90
807.01	215.76
807.33	215.74
807.65	214.90
807.97	215.69
808.28	215.50
808.60	215.31
808.92	214.83
809.24	216.21
809.56	215.86
809.88	215.07
810.20	215.05
810.52	215.50
810.84	215.29
811.16	215.43
811.48	215.26
811.80	215.95
812.12	216.02
812.43	216.48
812.75	216.71
813.07	216.69
813.39	216.88
813.71	216.36
814.03	216.24
814.35	216.52
814.67	215.55
814.98	215.64
815.30	215.52
815.62	215.33
815.94	213.83
816.26	214.19
816.58	213.69
816.89	213.86
817.21	213.19
817.53	213.31
817.85	213.26
818.17	213.19
818.48	212.24
818.80	212.71
819.12	212.45
819.44	211.98
819.76	211.86
820.07	211.55
820.39	211.81
820.71	212.00
821.03	211.98
821.34	212.14
821.66	212.17
821.98	212.36
822.30	212.36
822.61	213.74
822.93	213.24
823.25	213.67
823.57	213.45
823.88	213.93
824.20	213.74
824.52	214.26
824.83	214.19
825.15	214.19
825.47	214.21
825.79	214.29
826.10	214.31
826.42	214.14
826.74	214.55
827.05	214.38
827.37	214.71
827.69	214.48
828.00	214.36
828.32	214.45
828.64	214.31
828.95	215.52
829.27	214.90
829.58	214.86
829.90	214.83
830.22	215.17
830.53	214.86
830.85	215.05
831.17	214.31
831.48	214.38
831.80	214.36
832.11	213.98
832.43	213.93
832.75	213.81
833.06	215.10
833.38	214.55
833.69	214.45
834.01	214.48
834.32	214.71
834.64	214.67
834.96	214.55
835.27	214.55
835.59	213.69
835.90	213.21
836.22	213.17
836.53	213.00
836.85	212.88
837.16	214.76
837.48	214.74
837.79	215.50
838.11	215.60
838.42	215.64
838.74	215.76
839.05	215.62
839.37	215.57
839.68	214.40
840.00	214.36
840.31	214.74
840.63	214.45
840.94	214.17
841.26	213.83
841.57	213.98
841.88	214.10
842.20	213.93
842.51	213.76
842.83	214.00
843.14	215.93
843.46	215.83
843.77	214.62
844.08	214.55
844.40	213.98
844.71	213.93
845.03	213.76
845.34	213.86
845.65	213.79
845.97	214.05
846.28	213.81
846.60	213.86
846.91	213.62
847.22	213.29
847.54	213.76
847.85	214.19
848.16	213.81
848.48	213.48
848.79	214.24
849.10	214.67
849.42	214.69
849.73	212.60
850.04	212.52
850.36	211.71
850.67	212.19
850.98	212.45
851.30	212.67
851.61	212.50
851.92	212.45
852.23	213.21
852.55	213.26
852.86	213.74
853.17	214.12
853.49	214.36
853.80	215.00
854.11	215.12
854.42	215.12
854.74	215.21
855.05	215.52
855.36	214.62
855.67	214.88
855.99	214.79
856.30	217.45
856.61	217.40
856.92	217.60
857.23	217.38
857.55	216.93
857.86	216.43
858.17	217.00
858.48	216.64
858.79	216.14
859.11	216.10
859.42	215.90
859.73	215.55
860.04	215.57
860.35	214.76
860.66	214.17
860.98	214.24
861.29	214.48
861.60	214.24
861.91	214.60
862.22	213.86
862.53	213.69
862.84	211.24
863.16	211.81
863.47	211.48
863.78	211.12
864.09	211.26
864.40	211.57
864.71	211.36
865.02	211.60
865.33	211.38
865.64	211.50
865.95	211.60
866.27	213.02
866.58	212.93
866.89	213.31
867.20	213.45
867.51	213.29
867.82	213.00
868.13	213.71
868.44	213.12
868.75	213.74
869.06	214.14
869.37	214.31
869.68	213.79
869.99	214.29
870.30	214.57
870.61	214.88
870.92	214.50
871.23	214.62
871.54	215.21
871.85	215.62
872.16	215.62
872.47	215.21
872.78	213.90
873.09	214.05
873.40	213.93
873.71	213.90
874.02	213.83
874.33	213.57
874.64	212.86
874.95	213.43
875.26	212.83
875.56	212.62
875.87	212.48
876.18	212.31
876.49	214.00
876.80	213.90
877.11	213.31
877.42	213.55
877.73	213.31
878.04	212.76
878.35	212.86
878.66	212.74
878.96	212.83
879.27	213.07
879.58	212.88
879.89	212.93
880.20	213.31
880.51	213.17
880.82	213.26
881.12	213.40
881.43	212.74
881.74	212.76
882.05	212.67
882.36	212.81
882.67	213.00
882.97	210.98
883.28	210.88
883.59	210.93
883.90	210.86
884.21	211.31
884.51	211.05
884.82	210.74
885.13	210.74
885.44	210.88
885.74	210.50
886.05	210.57
886.36	210.55
886.67	210.10
886.98	211.31
887.28	211.57
887.59	211.79
887.90	212.10
888.20	211.88
888.51	212.19
888.82	211.71
889.13	211.83
889.43	213.21
889.74	213.02
890.05	213.14
890.35	213.24
890.66	212.90
890.97	212.88
891.28	212.69
891.58	212.69
891.89	212.43
892.20	212.50
892.50	212.21
892.81	212.05
893.12	211.93
893.42	211.12
893.73	211.14
894.04	211.07
894.34	211.19
894.65	211.33
894.95	211.12
895.26	211.29
895.57	212.19
895.87	210.45
896.18	210.79
896.48	210.83
896.79	210.74
897.10	211.00
897.40	210.95
897.71	211.00
898.01	211.07
898.32	211.50
898.63	211.40
898.93	211.71
899.24	211.88
899.54	211.81
899.85	211.36
900.15	211.50
900.46	211.43
900.76	211.67
901.07	211.60
901.38	211.50
901.68	211.86
901.99	210.76
902.29	211.38
902.60	211.36
902.90	211.52
903.21	211.50
903.51	211.31
903.82	211.98
904.12	212.07
904.43	212.05
904.73	211.93
905.03	212.07
905.34	213.60
905.64	213.48
905.95	213.52
906.25	213.90
906.56	213.79
906.86	213.81
907.17	213.62
907.47	213.83
907.77	213.88
908.08	213.48
908.38	213.69
908.69	213.69
908.99	214.05
909.30	213.98
909.60	214.12
909.90	214.12
910.21	213.36
910.51	213.31
910.81	213.40
911.12	213.64
911.42	213.52
911.73	211.74
912.03	211.88
912.33	212.62
912.64	212.55
912.94	212.45
913.24	212.12
913.55	211.88
913.85	211.69
914.15	211.93
914.46	211.98
914.76	211.76
915.06	211.52
915.37	211.10
915.67	210.98
915.97	210.69
916.27	210.38
916.58	210.60
916.88	210.52
917.18	210.36
917.49	211.45
917.79	211.76
918.09	212.07
918.39	212.62
918.70	212.10
919.00	212.05
919.30	212.93
919.60	212.98
919.91	212.98
920.21	213.12
920.51	212.50
920.81	212.52
921.12	213.14
921.42	213.31
921.72	213.60
922.02	213.62
922.32	214.17
922.63	214.33
922.93	215.31
923.23	215.55
923.53	215.36
923.83	214.10
924.13	214.02
924.44	213.86
924.74	213.98
925.04	214.62
925.34	214.62
925.64	213.79
925.94	213.79
926.24	214.95
926.55	214.64
926.85	214.88
927.15	214.88
927.45	214.57
927.75	214.36
928.05	214.02
928.35	214.00
928.65	214.26
928.95	214.48
929.26	213.69
929.56	213.81
929.86	214.02
930.16	213.95
930.46	213.71
930.76	213.90
931.06	213.17
931.36	212.81
931.66	213.17
931.96	213.26
932.26	213.45
932.56	212.57
932.86	212.88
933.16	213.26
933.46	213.19
933.76	213.07
934.06	213.62
934.36	214.60
934.66	214.74
934.96	214.36
935.26	214.43
935.56	214.69
935.86	214.14
936.16	213.88
936.46	213.50
936.76	213.48
937.06	213.17
937.36	213.12
937.66	212.88
937.96	212.79
938.26	212.48
938.56	212.29
938.86	212.43
939.16	212.83
939.46	212.90
939.76	213.02
940.06	213.07
940.35	212.50
940.65	211.38
940.95	211.40
941.25	210.98
941.55	210.69
941.85	210.76
942.15	211.26
942.45	211.83
942.75	211.74
943.04	212.00
943.34	212.36
943.64	212.31
943.94	212.21
944.24	211.83
944.54	211.76
944.84	211.62
945.13	211.21
945.43	210.76
945.73	210.48
946.03	210.29
946.33	210.19
946.62	210.05
946.92	210.02
947.22	210.19
947.52	210.48
947.82	210.93
948.11	210.62
948.41	210.31
948.71	209.88
949.01	210.31
949.31	209.95
949.60	209.90
949.90	210.19
950.20	210.26
950.50	210.52
950.79	210.71
951.09	211.05
951.39	211.05
951.69	210.74
951.98	211.31
952.28	211.55
952.58	211.33
952.87	211.52
953.17	211.81
953.47	211.43
953.76	211.38
954.06	210.86
954.36	210.31
954.66	210.36
954.95	210.79
955.25	211.02
955.55	211.26
955.84	210.98
956.14	210.83
956.44	210.60
956.73	210.21
957.03	210.40
957.32	210.36
957.62	210.38
957.92	211.00
958.21	210.69
958.51	212.83
958.81	213.26
959.10	213.45
959.40	213.88
959.69	213.93
959.99	214.33
960.29	214.38
960.58	214.67
960.88	215.26
961.17	215.10
961.47	215.00
961.76	214.76
962.06	215.10
962.36	215.05
962.65	215.26
962.95	215.43
963.24	215.14
963.54	215.21
963.83	215.45
964.13	215.29
964.42	214.93
964.72	213.17
965.01	213.10
965.31	212.90
965.60	212.31
965.90	213.60
966.19	212.81
966.49	212.90
966.78	212.81
967.08	212.52
967.37	212.48
967.67	212.21
967.96	212.76
968.26	212.71
968.55	213.07
968.85	213.14
969.14	213.05
969.43	212.95
969.73	212.86
970.02	212.60
970.32	212.45
970.61	212.19
970.91	211.64
971.20	211.26
971.49	211.00
971.79	211.38
972.08	210.00
972.38	210.48
972.67	210.38
972.96	210.67
973.26	210.45
973.55	211.00
973.85	210.98
974.14	210.71
974.43	210.60
974.73	210.05
975.02	209.64
975.31	209.57
975.61	209.60
975.90	209.40
976.19	209.36
976.49	209.52
976.78	209.98
977.07	210.07
977.37	210.19
977.66	210.74
977.95	210.38
978.24	210.55
978.54	210.79
978.83	210.57
979.12	210.43
979.42	210.43
979.71	210.07
980.00	210.02
980.29	210.12
980.59	209.93
980.88	210.71
981.17	210.98
981.46	211.05
981.76	211.00
982.05	211.62
982.34	211.69
982.63	211.69
982.93	211.52
983.22	212.00
983.51	212.10
983.80	212.02
984.09	212.26
984.39	212.07
984.68	211.86
984.97	211.98
985.26	211.79
985.55	212.00
985.85	211.48
986.14	211.76
986.43	211.74
986.72	211.55
987.01	210.83
987.30	210.88
987.59	210.74
987.89	210.90
988.18	210.29
988.47	210.07
988.76	210.02
989.05	209.83
989.34	209.48
989.63	209.76
989.92	209.57
990.22	209.29
990.51	209.36
990.80	209.19
991.09	209.43
991.38	209.71
991.67	209.17
991.96	209.17
992.25	209.10
992.54	209.07
992.83	209.14
993.12	209.21
993.41	209.36
993.70	210.38
993.99	210.60
994.28	210.90
994.58	211.24
994.87	210.93
995.16	210.90
995.45	210.71
995.74	210.33
996.03	210.71
996.32	211.10
996.61	211.55
996.90	211.81
997.19	211.67
997.48	211.67
997.77	211.69
998.06	211.86
998.34	211.79
998.63	211.69
998.92	211.74
999.21	211.98
999.50	211.88
999.79	211.10
1000.08	211.12
1000.37	211.14
1000.66	210.95
1000.95	211.40
1001.24	211.69
1001.53	212.12
1001.82	211.90
1002.11	211.36
1002.40	211.62
1002.68	212.12
1002.97	213.26
1003.26	212.98
1003.55	212.86
1003.84	213.14
1004.13	213.90
1004.42	213.83
1004.71	213.83
1004.99	213.62
1005.28	214.02
1005.57	214.02
1005.86	213.90
1006.15	213.88
1006.44	213.40
1006.72	213.45
1007.01	213.12
1007.30	213.12
1007.59	213.10
1007.88	213.24
1008.17	213.19
1008.45	212.55
1008.74	211.71
1009.03	210.62
1009.32	210.69
1009.60	210.64
1009.89	210.45
1010.18	209.57
1010.47	209.60
1010.76	209.67
1011.04	209.90
1011.33	209.79
1011.62	209.79
1011.91	210.05
1012.19	209.98
1012.48	210.19
1012.77	210.19
1013.05	211.12
1013.34	211.02
1013.63	210.76
1013.92	210.88
1014.20	211.00
1014.49	211.31
1014.78	211.62
1015.06	211.17
1015.35	211.29
1015.64	211.64
1015.92	211.86
1016.21	211.86
1016.50	211.74
1016.78	211.86
1017.07	211.93
1017.36	211.74
1017.64	211.52
1017.93	211.60
1018.22	211.69
1018.50	211.67
1018.79	211.79
1019.08	211.02
1019.36	211.17
1019.65	210.76
1019.93	211.02
1020.22	211.26
1020.51	212.19
1020.79	211.71
1021.08	214.00
1021.36	207.00
1021.65	212.00
1021.94	212.00
1022.22	213.00
1022.51	203.00
1022.79	216.00
1023.08	214.00
1023.36	234.00
1023.65	205.50
>>>>>End Processed Spectral Data<<<<<
