SpectraSuite Data File
++++++++++++++++++++++++++++++++++++
Date: Tue Apr 02 18:43:20 EDT 2013
User: group
Dark Spectrum Present: No
Reference Spectrum Present: No
Number of Sampled Component Spectra: 1
Spectrometers: USB2E7196
Integration Time (usec): 580000 (USB2E7196)
Spectra Averaged: 2 (USB2E7196)
Boxcar Smoothing: 10 (USB2E7196)
Correct for Electrical Dark: No (USB2E7196)
Strobe/Lamp Enabled: No (USB2E7196)
Correct for Detector Non-linearity: No (USB2E7196)
Correct for Stray Light: No (USB2E7196)
Number of Pixels in Processed Spectrum: 2048
>>>>>Begin Processed Spectral Data<<<<<
339.09	0.00
339.48	190.50
339.86	195.00
340.24	193.50
340.63	197.50
341.01	230.00
341.39	198.00
341.78	205.50
342.16	208.50
342.54	202.00
342.93	196.33
343.31	206.31
343.69	207.00
344.07	207.48
344.46	208.57
344.84	209.14
345.22	208.12
345.60	208.74
345.99	209.24
346.37	209.36
346.75	209.64
347.13	209.69
347.52	210.05
347.90	210.93
348.28	210.98
348.66	211.55
349.05	211.19
349.43	211.55
349.81	211.60
350.19	211.69
350.57	211.79
350.96	211.93
351.34	212.19
351.72	212.67
352.10	212.90
352.48	212.67
352.87	212.74
353.25	212.93
353.63	212.79
354.01	212.79
354.39	212.81
354.77	212.88
355.15	213.55
355.54	213.31
355.92	212.79
356.30	213.00
356.68	214.50
357.06	214.62
357.44	214.45
357.82	214.50
358.20	215.55
358.58	215.69
358.97	215.90
359.35	216.17
359.73	216.40
360.11	216.62
360.49	216.86
360.87	216.95
361.25	217.36
361.63	218.36
362.01	218.33
362.39	218.36
362.77	218.69
363.15	218.67
363.53	218.98
363.91	219.17
364.29	219.10
364.67	217.02
365.05	217.29
365.43	217.62
365.81	218.05
366.19	217.95
366.57	218.93
366.95	218.88
367.33	218.57
367.71	218.45
368.09	218.86
368.47	218.76
368.85	218.74
369.23	218.93
369.61	218.17
369.99	218.74
370.37	219.12
370.75	220.12
371.13	219.79
371.51	219.36
371.89	219.62
372.27	219.69
372.65	220.02
373.03	219.79
373.41	219.55
373.78	219.43
374.16	218.38
374.54	217.43
374.92	217.17
375.30	217.02
375.68	216.62
376.06	216.62
376.44	216.71
376.82	216.67
377.19	216.24
377.57	216.17
377.95	215.45
378.33	215.19
378.71	214.00
379.09	214.29
379.47	214.40
379.84	214.00
380.22	213.88
380.60	213.69
380.98	213.79
381.36	213.55
381.73	213.17
382.11	213.60
382.49	213.79
382.87	213.52
383.25	213.60
383.62	216.02
384.00	215.50
384.38	215.36
384.76	215.93
385.13	217.02
385.51	216.86
385.89	216.69
386.27	216.74
386.64	216.79
387.02	216.45
387.40	216.48
387.78	216.79
388.15	216.86
388.53	216.83
388.91	216.81
389.29	216.90
389.66	217.14
390.04	216.74
390.42	217.07
390.79	217.43
391.17	217.36
391.55	215.05
391.92	215.10
392.30	214.98
392.68	214.52
393.05	214.10
393.43	214.45
393.81	214.64
394.18	214.31
394.56	214.38
394.94	214.93
395.31	214.79
395.69	215.43
396.06	215.52
396.44	215.57
396.82	215.50
397.19	216.64
397.57	216.45
397.95	216.86
398.32	216.33
398.70	216.45
399.07	216.83
399.45	216.83
399.82	216.95
400.20	216.88
400.58	216.83
400.95	216.10
401.33	216.19
401.70	217.52
402.08	217.62
402.45	217.62
402.83	217.64
403.20	217.79
403.58	217.26
403.95	217.79
404.33	218.24
404.71	218.33
405.08	219.48
405.46	219.88
405.83	220.14
406.21	220.55
406.58	220.95
406.96	221.29
407.33	221.90
407.70	222.26
408.08	224.62
408.45	225.38
408.83	226.36
409.20	226.88
409.58	226.52
409.95	227.71
410.33	228.50
410.70	229.10
411.08	230.40
411.45	231.38
411.82	232.10
412.20	233.57
412.57	236.07
412.95	235.71
413.32	237.33
413.69	238.86
414.07	240.69
414.44	242.38
414.82	244.29
415.19	246.62
415.56	248.90
415.94	250.12
416.31	252.95
416.68	255.98
417.06	259.50
417.43	263.02
417.81	266.26
418.18	270.02
418.55	273.86
418.93	277.71
419.30	282.12
419.67	286.81
420.04	291.02
420.42	295.17
420.79	302.10
421.16	307.83
421.54	314.74
421.91	320.88
422.28	327.19
422.66	333.98
423.03	341.81
423.40	348.50
423.77	355.76
424.15	362.98
424.52	370.19
424.89	378.36
425.26	386.10
425.64	393.83
426.01	402.12
426.38	411.17
426.75	420.93
427.13	430.19
427.50	439.57
427.87	449.74
428.24	459.81
428.61	468.24
428.99	478.88
429.36	488.90
429.73	499.86
430.10	511.24
430.47	523.60
430.85	534.12
431.22	547.19
431.59	561.88
431.96	575.19
432.33	589.83
432.70	603.81
433.08	619.48
433.45	635.19
433.82	650.26
434.19	667.48
434.56	683.40
434.93	698.98
435.30	715.57
435.68	733.38
436.05	750.60
436.42	767.79
436.79	784.19
437.16	802.05
437.53	820.14
437.90	838.19
438.27	854.69
438.64	872.76
439.01	889.36
439.38	903.48
439.75	917.31
440.13	933.95
440.50	949.31
440.87	962.21
441.24	974.93
441.61	990.17
441.98	1000.81
442.35	1013.02
442.72	1026.79
443.09	1039.52
443.46	1047.64
443.83	1053.12
444.20	1057.52
444.57	1063.36
444.94	1066.31
445.31	1069.45
445.68	1075.07
446.05	1077.14
446.42	1075.83
446.79	1075.10
447.16	1072.29
447.53	1071.10
447.90	1064.43
448.27	1058.17
448.64	1049.88
449.01	1044.02
449.37	1032.36
449.74	1021.17
450.11	1010.40
450.48	994.88
450.85	979.50
451.22	966.10
451.59	953.81
451.96	942.64
452.33	927.26
452.70	913.19
453.07	896.33
453.43	876.45
453.80	859.83
454.17	844.21
454.54	828.36
454.91	813.05
455.28	797.60
455.65	782.86
456.02	771.24
456.38	758.57
456.75	743.19
457.12	729.93
457.49	717.12
457.86	702.64
458.23	692.83
458.59	680.88
458.96	668.98
459.33	658.57
459.70	647.60
460.07	639.40
460.43	629.62
460.80	620.79
461.17	613.55
461.54	605.43
461.91	597.52
462.27	589.43
462.64	581.79
463.01	574.07
463.38	567.83
463.74	557.07
464.11	550.10
464.48	543.95
464.85	538.31
465.21	533.64
465.58	528.90
465.95	521.98
466.32	516.90
466.68	511.52
467.05	506.69
467.42	501.76
467.78	495.79
468.15	490.64
468.52	487.24
468.88	481.50
469.25	476.31
469.62	473.14
469.98	469.38
470.35	466.24
470.72	462.88
471.08	458.14
471.45	455.57
471.82	453.31
472.18	450.00
472.55	447.29
472.92	443.71
473.28	440.45
473.65	438.19
474.02	435.60
474.38	433.76
474.75	431.36
475.11	429.36
475.48	428.05
475.85	426.52
476.21	424.43
476.58	423.69
476.94	422.86
477.31	420.98
477.67	419.50
478.04	418.19
478.41	417.36
478.77	418.67
479.14	417.21
479.50	416.36
479.87	416.31
480.23	416.07
480.60	415.55
480.96	415.55
481.33	416.12
481.69	416.12
482.06	416.31
482.42	416.60
482.79	417.12
483.15	416.93
483.52	417.69
483.88	418.26
484.25	418.95
484.61	419.83
484.98	420.93
485.34	422.81
485.71	424.57
486.07	425.76
486.44	425.17
486.80	427.21
487.17	428.67
487.53	430.76
487.90	432.79
488.26	436.31
488.62	439.02
488.99	440.60
489.35	443.48
489.72	445.81
490.08	448.55
490.44	451.07
490.81	454.83
491.17	458.24
491.54	461.71
491.90	465.07
492.26	468.55
492.63	472.00
492.99	475.26
493.36	479.33
493.72	484.14
494.08	488.71
494.45	493.33
494.81	498.10
495.17	502.69
495.54	507.90
495.90	512.02
496.26	517.00
496.63	522.79
496.99	527.88
497.35	533.50
497.72	539.24
498.08	544.93
498.44	551.00
498.80	557.19
499.17	563.69
499.53	569.86
499.89	576.90
500.26	583.81
500.62	590.81
500.98	597.98
501.34	604.81
501.71	612.21
502.07	619.19
502.43	626.21
502.79	633.00
503.16	640.29
503.52	647.71
503.88	654.48
504.24	662.26
504.60	669.95
504.97	678.14
505.33	686.19
505.69	694.83
506.05	701.98
506.41	709.64
506.78	717.17
507.14	724.98
507.50	732.83
507.86	740.43
508.22	748.12
508.59	754.88
508.95	762.81
509.31	771.50
509.67	779.45
510.03	787.10
510.39	794.74
510.75	801.31
511.12	809.29
511.48	817.43
511.84	824.40
512.20	831.62
512.56	838.93
512.92	846.36
513.28	853.95
513.64	861.71
514.00	868.93
514.37	875.98
514.73	882.86
515.09	890.00
515.45	896.76
515.81	903.52
516.17	911.02
516.53	917.36
516.89	922.69
517.25	929.19
517.61	936.14
517.97	942.57
518.33	949.55
518.69	955.86
519.05	962.29
519.41	968.57
519.77	976.26
520.13	982.10
520.49	987.62
520.85	992.69
521.21	1000.02
521.57	1005.52
521.93	1011.24
522.29	1017.38
522.65	1021.81
523.01	1027.95
523.37	1033.52
523.73	1038.90
524.09	1043.50
524.45	1048.24
524.81	1053.17
525.17	1058.17
525.53	1063.21
525.89	1067.48
526.25	1072.83
526.61	1077.79
526.97	1082.40
527.33	1085.81
527.68	1092.24
528.04	1096.62
528.40	1101.12
528.76	1103.64
529.12	1107.90
529.48	1112.14
529.84	1115.71
530.20	1120.52
530.56	1124.86
530.91	1128.95
531.27	1132.67
531.63	1137.17
531.99	1141.24
532.35	1144.83
532.71	1148.48
533.07	1153.55
533.42	1160.38
533.78	1164.40
534.14	1168.29
534.50	1171.76
534.86	1176.60
535.21	1178.36
535.57	1182.76
535.93	1186.17
536.29	1191.38
536.65	1195.64
537.00	1199.79
537.36	1203.76
537.72	1207.40
538.08	1211.00
538.44	1214.26
538.79	1218.40
539.15	1222.02
539.51	1227.00
539.87	1231.40
540.22	1235.57
540.58	1238.17
540.94	1239.26
541.29	1241.57
541.65	1243.29
542.01	1246.43
542.37	1248.88
542.72	1251.19
543.08	1252.90
543.44	1256.10
543.79	1257.69
544.15	1260.83
544.51	1264.24
544.87	1266.95
545.22	1269.88
545.58	1272.12
545.94	1274.55
546.29	1275.93
546.65	1278.62
547.01	1279.69
547.36	1282.21
547.72	1283.55
548.07	1286.83
548.43	1288.74
548.79	1291.48
549.14	1295.00
549.50	1299.02
549.86	1301.21
550.21	1304.69
550.57	1308.69
550.92	1310.88
551.28	1314.21
551.64	1316.45
551.99	1318.62
552.35	1322.07
552.70	1324.71
553.06	1327.86
553.41	1331.48
553.77	1336.52
554.13	1340.60
554.48	1345.60
554.84	1350.00
555.19	1354.38
555.55	1358.60
555.90	1363.02
556.26	1366.48
556.61	1369.79
556.97	1372.14
557.32	1376.19
557.68	1380.31
558.03	1383.79
558.39	1388.14
558.74	1392.19
559.10	1396.43
559.45	1400.76
559.81	1404.64
560.16	1408.57
560.52	1413.21
560.87	1418.05
561.23	1421.17
561.58	1426.71
561.94	1430.36
562.29	1433.98
562.64	1438.67
563.00	1442.19
563.35	1447.48
563.71	1453.45
564.06	1459.21
564.42	1464.67
564.77	1470.14
565.12	1475.79
565.48	1483.29
565.83	1490.02
566.19	1495.60
566.54	1501.21
566.89	1506.29
567.25	1513.79
567.60	1521.24
567.96	1528.14
568.31	1535.38
568.66	1542.36
569.02	1546.29
569.37	1551.21
569.72	1556.64
570.08	1561.48
570.43	1566.60
570.78	1571.38
571.14	1576.00
571.49	1580.93
571.84	1586.50
572.20	1591.02
572.55	1595.21
572.90	1597.90
573.26	1601.57
573.61	1605.95
573.96	1611.12
574.31	1616.24
574.67	1618.79
575.02	1621.93
575.37	1624.48
575.72	1626.48
576.08	1630.24
576.43	1633.64
576.78	1637.40
577.13	1641.02
577.49	1644.88
577.84	1648.79
578.19	1653.36
578.54	1657.76
578.90	1661.38
579.25	1664.36
579.60	1667.24
579.95	1670.67
580.30	1674.31
580.66	1678.48
581.01	1681.64
581.36	1684.00
581.71	1686.86
582.06	1691.67
582.42	1694.93
582.77	1698.05
583.12	1701.52
583.47	1703.86
583.82	1707.76
584.17	1711.05
584.53	1714.93
584.88	1718.21
585.23	1721.26
585.58	1723.57
585.93	1724.48
586.28	1727.17
586.63	1729.93
586.98	1733.71
587.34	1737.07
587.69	1739.52
588.04	1741.38
588.39	1744.74
588.74	1745.33
589.09	1748.19
589.44	1747.98
589.79	1750.19
590.14	1752.21
590.49	1753.52
590.84	1754.33
591.19	1756.21
591.54	1758.02
591.89	1758.17
592.25	1762.05
592.60	1763.55
592.95	1765.05
593.30	1767.62
593.65	1769.24
594.00	1770.21
594.35	1775.98
594.70	1775.57
595.05	1776.45
595.40	1777.38
595.75	1776.76
596.10	1779.21
596.45	1779.33
596.80	1780.93
597.15	1781.17
597.50	1781.50
597.85	1782.76
598.19	1784.26
598.54	1783.90
598.89	1784.67
599.24	1786.43
599.59	1784.83
599.94	1784.71
600.29	1784.10
600.64	1784.21
600.99	1783.93
601.34	1784.62
601.69	1779.48
602.04	1779.48
602.39	1779.67
602.74	1779.95
603.08	1780.62
603.43	1781.05
603.78	1780.81
604.13	1780.10
604.48	1779.88
604.83	1780.31
605.18	1779.60
605.53	1778.52
605.87	1778.14
606.22	1776.86
606.57	1774.95
606.92	1773.05
607.27	1772.26
607.62	1771.64
607.96	1770.71
608.31	1770.26
608.66	1768.64
609.01	1766.40
609.36	1766.24
609.70	1765.12
610.05	1762.19
610.40	1760.02
610.75	1757.05
611.10	1756.07
611.44	1753.36
611.79	1750.64
612.14	1747.98
612.49	1744.14
612.83	1741.31
613.18	1738.57
613.53	1734.90
613.88	1731.40
614.22	1728.29
614.57	1725.21
614.92	1721.67
615.27	1718.31
615.61	1713.31
615.96	1709.29
616.31	1706.02
616.65	1702.69
617.00	1698.24
617.35	1695.76
617.70	1692.26
618.04	1688.76
618.39	1683.55
618.74	1680.29
619.08	1676.93
619.43	1673.19
619.78	1670.26
620.12	1667.79
620.47	1663.74
620.82	1659.76
621.16	1655.79
621.51	1653.24
621.85	1648.64
622.20	1644.40
622.55	1639.10
622.89	1636.17
623.24	1632.90
623.59	1629.55
623.93	1625.00
624.28	1620.62
624.62	1618.43
624.97	1615.19
625.32	1611.21
625.66	1607.83
626.01	1603.43
626.35	1599.95
626.70	1595.33
627.04	1592.38
627.39	1587.10
627.73	1583.76
628.08	1580.69
628.43	1576.88
628.77	1571.55
629.12	1567.86
629.46	1564.62
629.81	1561.88
630.15	1556.76
630.50	1552.67
630.84	1547.67
631.19	1543.10
631.53	1538.90
631.88	1530.79
632.22	1524.76
632.57	1520.36
632.91	1514.33
633.26	1510.21
633.60	1504.02
633.95	1498.81
634.29	1492.45
634.64	1487.93
634.98	1481.31
635.32	1476.64
635.67	1473.00
636.01	1468.62
636.36	1462.93
636.70	1458.86
637.05	1453.33
637.39	1449.26
637.73	1443.31
638.08	1438.88
638.42	1434.02
638.77	1429.57
639.11	1425.43
639.45	1420.86
639.80	1415.14
640.14	1410.60
640.49	1404.74
640.83	1400.02
641.17	1395.55
641.52	1390.10
641.86	1384.86
642.20	1381.36
642.55	1375.83
642.89	1369.14
643.23	1363.00
643.58	1359.05
643.92	1351.76
644.26	1345.71
644.61	1340.14
644.95	1335.12
645.29	1329.00
645.64	1322.83
645.98	1316.40
646.32	1310.79
646.66	1304.07
647.01	1297.33
647.35	1291.60
647.69	1285.95
648.04	1280.74
648.38	1274.76
648.72	1269.05
649.06	1262.48
649.41	1255.52
649.75	1249.02
650.09	1242.10
650.43	1236.29
650.78	1228.43
651.12	1222.21
651.46	1214.90
651.80	1208.14
652.14	1201.38
652.49	1195.40
652.83	1188.48
653.17	1181.24
653.51	1174.48
653.85	1169.02
654.20	1163.74
654.54	1156.17
654.88	1149.71
655.22	1143.00
655.56	1135.71
655.90	1129.00
656.25	1123.50
656.59	1117.26
656.93	1110.69
657.27	1106.05
657.61	1098.86
657.95	1093.24
658.29	1087.10
658.64	1082.52
658.98	1075.40
659.32	1068.57
659.66	1061.86
660.00	1056.36
660.34	1050.88
660.68	1044.31
661.02	1037.17
661.36	1031.02
661.70	1025.64
662.05	1019.36
662.39	1013.60
662.73	1008.21
663.07	1003.50
663.41	997.21
663.75	990.57
664.09	985.07
664.43	978.02
664.77	972.67
665.11	966.40
665.45	960.31
665.79	953.74
666.13	948.14
666.47	942.76
666.81	936.74
667.15	930.45
667.49	924.98
667.83	920.17
668.17	914.36
668.51	908.36
668.85	902.74
669.19	897.98
669.53	890.95
669.87	884.86
670.21	878.57
670.55	872.55
670.89	868.05
671.23	862.26
671.57	856.90
671.91	851.24
672.25	846.26
672.58	841.52
672.92	835.76
673.26	830.45
673.60	824.95
673.94	820.00
674.28	815.10
674.62	810.52
674.96	805.12
675.30	800.38
675.64	795.07
675.97	790.21
676.31	784.55
676.65	779.43
676.99	775.52
677.33	770.33
677.67	765.31
678.01	759.43
678.34	754.26
678.68	749.95
679.02	744.90
679.36	738.83
679.70	733.10
680.04	728.31
680.37	723.60
680.71	718.88
681.05	714.19
681.39	709.21
681.73	703.57
682.06	698.98
682.40	694.40
682.74	690.76
683.08	686.71
683.42	681.38
683.75	677.64
684.09	672.07
684.43	668.02
684.77	663.64
685.10	659.38
685.44	654.81
685.78	649.83
686.12	645.67
686.45	641.55
686.79	637.10
687.13	633.14
687.46	628.76
687.80	624.81
688.14	620.55
688.48	616.83
688.81	612.50
689.15	608.36
689.49	603.76
689.82	599.17
690.16	593.95
690.50	590.48
690.83	585.76
691.17	580.86
691.51	576.38
691.84	572.24
692.18	568.10
692.52	564.45
692.85	561.17
693.19	558.02
693.52	554.62
693.86	550.74
694.20	546.83
694.53	542.98
694.87	538.76
695.21	534.79
695.54	530.60
695.88	527.14
696.21	523.14
696.55	519.43
696.88	515.64
697.22	512.00
697.56	508.79
697.89	505.45
698.23	503.14
698.56	499.71
698.90	496.26
699.23	492.88
699.57	489.40
699.90	485.29
700.24	481.31
700.58	478.14
700.91	475.31
701.25	474.05
701.58	471.55
701.92	469.10
702.25	466.36
702.59	463.05
702.92	459.52
703.26	456.17
703.59	453.07
703.93	452.02
704.26	449.60
704.60	446.43
704.93	443.17
705.26	439.69
705.60	437.19
705.93	434.38
706.27	432.33
706.60	430.31
706.94	428.88
707.27	426.21
707.61	423.26
707.94	420.26
708.27	415.71
708.61	412.40
708.94	409.90
709.28	407.50
709.61	405.12
709.94	403.19
710.28	401.26
710.61	399.48
710.95	395.33
711.28	394.60
711.61	392.43
711.95	390.95
712.28	388.71
712.61	386.43
712.95	385.40
713.28	384.10
713.61	381.50
713.95	378.67
714.28	376.83
714.61	375.19
714.95	373.21
715.28	371.07
715.61	369.29
715.95	367.24
716.28	365.02
716.61	363.76
716.95	361.57
717.28	359.71
717.61	357.69
717.94	355.81
718.28	352.55
718.61	350.67
718.94	348.69
719.27	347.19
719.61	345.81
719.94	343.50
720.27	340.50
720.60	338.74
720.94	336.90
721.27	335.40
721.60	333.90
721.93	332.62
722.27	331.88
722.60	330.60
722.93	328.81
723.26	327.40
723.59	325.76
723.93	324.57
724.26	323.14
724.59	321.81
724.92	320.79
725.25	320.14
725.59	318.81
725.92	317.95
726.25	316.79
726.58	315.38
726.91	313.95
727.24	313.29
727.57	312.10
727.91	310.57
728.24	309.52
728.57	308.33
728.90	307.69
729.23	306.10
729.56	305.86
729.89	305.00
730.22	304.07
730.55	302.79
730.89	301.76
731.22	300.55
731.55	299.60
731.88	298.69
732.21	297.17
732.54	295.83
732.87	294.69
733.20	293.93
733.53	293.05
733.86	292.50
734.19	290.98
734.52	290.38
734.85	291.31
735.18	290.12
735.51	289.90
735.84	289.07
736.17	288.88
736.50	287.24
736.83	288.76
737.16	287.74
737.49	287.17
737.82	286.55
738.15	286.10
738.48	285.10
738.81	283.76
739.14	282.86
739.47	282.19
739.80	281.38
740.13	280.57
740.46	279.31
740.79	278.21
741.12	277.55
741.45	276.43
741.78	274.19
742.11	274.24
742.44	273.00
742.77	272.57
743.10	271.19
743.43	270.24
743.75	267.50
744.08	269.50
744.41	268.67
744.74	267.60
745.07	266.55
745.40	266.74
745.73	266.98
746.06	266.24
746.39	266.00
746.71	265.36
747.04	264.57
747.37	264.02
747.70	263.45
748.03	262.90
748.36	262.62
748.68	262.31
749.01	260.57
749.34	260.00
749.67	259.24
750.00	259.33
750.33	260.45
750.65	259.93
750.98	256.79
751.31	256.43
751.64	256.10
751.97	256.93
752.29	255.93
752.62	254.81
752.95	254.40
753.28	253.69
753.60	252.67
753.93	252.74
754.26	252.45
754.59	251.50
754.91	251.05
755.24	250.36
755.57	249.86
755.90	249.62
756.22	249.07
756.55	248.19
756.88	247.29
757.20	245.52
757.53	244.57
757.86	244.26
758.19	243.90
758.51	243.50
758.84	241.90
759.17	241.31
759.49	241.10
759.82	241.50
760.15	241.17
760.47	240.88
760.80	239.76
761.13	239.86
761.45	239.67
761.78	239.10
762.11	238.98
762.43	238.40
762.76	237.86
763.08	237.69
763.41	237.79
763.74	237.55
764.06	237.10
764.39	236.93
764.71	236.57
765.04	236.00
765.37	235.74
765.69	235.26
766.02	235.07
766.34	234.31
766.67	233.50
767.00	233.71
767.32	234.79
767.65	235.98
767.97	235.29
768.30	235.26
768.62	235.10
768.95	234.60
769.27	234.57
769.60	234.98
769.92	234.19
770.25	233.50
770.57	232.74
770.90	232.36
771.22	231.67
771.55	231.48
771.87	231.38
772.20	230.98
772.52	232.79
772.85	234.83
773.17	234.64
773.50	234.29
773.82	233.69
774.15	232.57
774.47	231.26
774.80	230.95
775.12	230.74
775.45	230.69
775.77	230.64
776.09	230.40
776.42	230.29
776.74	230.86
777.07	230.71
777.39	230.71
777.72	230.60
778.04	230.98
778.36	230.69
778.69	230.45
779.01	230.45
779.33	228.45
779.66	226.00
779.98	226.02
780.31	225.76
780.63	226.38
780.95	226.60
781.28	226.21
781.60	226.02
781.92	225.98
782.25	225.88
782.57	225.93
782.89	225.76
783.22	225.24
783.54	224.83
783.86	224.74
784.19	224.52
784.51	224.93
784.83	224.36
785.16	224.40
785.48	224.26
785.80	224.43
786.12	224.55
786.45	224.60
786.77	224.71
787.09	224.45
787.42	223.64
787.74	223.52
788.06	223.67
788.38	223.14
788.71	222.55
789.03	222.36
789.35	222.36
789.67	221.79
789.99	221.93
790.32	221.52
790.64	221.60
790.96	223.26
791.28	222.69
791.61	222.74
791.93	222.48
792.25	222.26
792.57	223.62
792.89	223.17
793.21	223.31
793.54	222.86
793.86	222.83
794.18	222.86
794.50	222.24
794.82	222.29
795.14	222.67
795.47	223.19
795.79	223.05
796.11	222.55
796.43	222.67
796.75	222.55
797.07	222.62
797.39	222.55
797.71	220.98
798.04	221.00
798.36	221.10
798.68	221.00
799.00	221.17
799.32	219.50
799.64	219.88
799.96	219.52
800.28	219.83
800.60	219.55
800.92	219.62
801.24	219.57
801.56	219.57
801.89	219.57
802.21	219.79
802.53	219.64
802.85	220.36
803.17	221.45
803.49	220.95
803.81	220.60
804.13	220.33
804.45	220.24
804.77	220.31
805.09	220.12
805.41	219.90
805.73	219.74
806.05	219.76
806.37	219.45
806.69	219.45
807.01	219.38
807.33	219.57
807.65	218.83
807.97	219.67
808.28	219.45
808.60	219.07
808.92	218.52
809.24	219.81
809.56	219.00
809.88	218.07
810.20	218.38
810.52	218.88
810.84	218.81
811.16	218.48
811.48	218.43
811.80	219.21
812.12	219.36
812.43	219.60
812.75	219.45
813.07	219.43
813.39	219.38
813.71	219.05
814.03	218.67
814.35	218.64
814.67	217.81
814.98	217.67
815.30	218.05
815.62	217.83
815.94	216.48
816.26	216.62
816.58	216.31
816.89	216.33
817.21	215.88
817.53	215.76
817.85	215.93
818.17	215.79
818.48	215.02
818.80	215.24
819.12	214.90
819.44	214.69
819.76	214.38
820.07	214.45
820.39	214.38
820.71	214.76
821.03	214.76
821.34	214.50
821.66	214.74
821.98	214.86
822.30	214.71
822.61	215.95
822.93	215.55
823.25	215.48
823.57	215.29
823.88	215.67
824.20	215.81
824.52	216.21
824.83	215.88
825.15	215.45
825.47	215.33
825.79	215.33
826.10	215.29
826.42	215.10
826.74	215.43
827.05	215.57
827.37	215.64
827.69	215.60
828.00	215.86
828.32	215.90
828.64	215.36
828.95	216.48
829.27	215.76
829.58	215.90
829.90	216.36
830.22	216.71
830.53	216.26
830.85	216.05
831.17	215.40
831.48	215.50
831.80	215.71
832.11	215.50
832.43	215.26
832.75	215.21
833.06	216.52
833.38	215.69
833.69	215.48
834.01	215.57
834.32	215.48
834.64	215.36
834.96	215.17
835.27	215.36
835.59	214.43
835.90	213.93
836.22	213.90
836.53	213.55
836.85	213.00
837.16	215.12
837.48	215.00
837.79	215.76
838.11	215.93
838.42	215.93
838.74	216.12
839.05	216.02
839.37	215.88
839.68	214.55
840.00	214.69
840.31	214.98
840.63	214.71
840.94	214.86
841.26	214.55
841.57	214.55
841.88	214.74
842.20	214.60
842.51	214.64
842.83	214.64
843.14	216.45
843.46	216.74
843.77	215.62
844.08	215.71
844.40	215.10
844.71	214.95
845.03	214.69
845.34	214.62
845.65	214.79
845.97	215.00
846.28	215.12
846.60	215.05
846.91	214.62
847.22	214.69
847.54	214.76
847.85	215.05
848.16	214.74
848.48	214.24
848.79	215.24
849.10	215.19
849.42	215.05
849.73	213.00
850.04	212.86
850.36	212.05
850.67	212.38
850.98	212.45
851.30	212.55
851.61	212.57
851.92	212.67
852.23	213.02
852.55	213.17
852.86	213.29
853.17	213.67
853.49	214.17
853.80	214.76
854.11	215.24
854.42	215.36
854.74	215.33
855.05	215.60
855.36	214.36
855.67	214.74
855.99	215.05
856.30	217.29
856.61	217.31
856.92	217.26
857.23	217.12
857.55	216.95
857.86	216.90
858.17	217.36
858.48	216.90
858.79	216.62
859.11	216.60
859.42	216.48
859.73	216.19
860.04	216.14
860.35	215.17
860.66	214.36
860.98	214.29
861.29	214.52
861.60	214.38
861.91	214.93
862.22	214.36
862.53	213.90
862.84	211.52
863.16	211.83
863.47	211.50
863.78	211.67
864.09	211.79
864.40	212.10
864.71	212.02
865.02	212.38
865.33	212.17
865.64	211.81
865.95	211.69
866.27	213.05
866.58	212.95
866.89	213.50
867.20	213.60
867.51	213.43
867.82	213.31
868.13	213.95
868.44	213.55
868.75	214.10
869.06	214.45
869.37	214.81
869.68	214.31
869.99	214.81
870.30	214.48
870.61	214.60
870.92	214.10
871.23	213.95
871.54	214.24
871.85	214.62
872.16	215.05
872.47	215.12
872.78	213.79
873.09	213.88
873.40	213.52
873.71	213.57
874.02	213.62
874.33	213.19
874.64	212.67
874.95	213.07
875.26	212.48
875.56	212.43
875.87	212.19
876.18	212.00
876.49	214.07
876.80	213.95
877.11	213.55
877.42	213.50
877.73	213.52
878.04	213.17
878.35	213.17
878.66	212.81
878.96	212.62
879.27	212.52
879.58	212.38
879.89	211.98
880.20	212.60
880.51	212.36
880.82	212.67
881.12	212.69
881.43	212.19
881.74	212.19
882.05	212.12
882.36	212.38
882.67	212.45
882.97	210.02
883.28	210.14
883.59	210.00
883.90	210.33
884.21	210.57
884.51	210.43
884.82	210.31
885.13	210.40
885.44	210.33
885.74	210.31
886.05	210.33
886.36	210.81
886.67	210.33
886.98	211.50
887.28	211.67
887.59	211.52
887.90	211.48
888.20	211.52
888.51	211.76
888.82	211.55
889.13	211.95
889.43	213.67
889.74	213.48
890.05	213.64
890.35	213.26
890.66	212.86
890.97	212.81
891.28	212.69
891.58	212.86
891.89	212.93
892.20	212.88
892.50	212.67
892.81	212.31
893.12	212.17
893.42	211.02
893.73	211.00
894.04	211.14
894.34	211.40
894.65	211.21
894.95	211.00
895.26	211.02
895.57	211.79
895.87	209.95
896.18	210.45
896.48	210.48
896.79	210.69
897.10	211.00
897.40	211.02
897.71	211.19
898.01	210.83
898.32	211.36
898.63	211.48
898.93	211.74
899.24	212.00
899.54	211.81
899.85	212.00
900.15	211.95
900.46	211.98
900.76	212.21
901.07	212.21
901.38	212.24
901.68	212.57
901.99	211.55
902.29	211.76
902.60	211.26
902.90	211.14
903.21	210.98
903.51	210.98
903.82	211.40
904.12	211.45
904.43	211.69
904.73	211.67
905.03	211.76
905.34	213.48
905.64	213.45
905.95	213.64
906.25	213.57
906.56	213.50
906.86	213.48
907.17	213.33
907.47	213.52
907.77	213.31
908.08	212.88
908.38	213.12
908.69	213.24
908.99	213.81
909.30	214.12
909.60	214.36
909.90	214.52
910.21	213.81
910.51	213.45
910.81	213.69
911.12	213.55
911.42	213.33
911.73	211.29
912.03	211.36
912.33	211.52
912.64	211.50
912.94	211.52
913.24	211.36
913.55	211.12
913.85	211.12
914.15	211.62
914.46	211.83
914.76	211.69
915.06	211.40
915.37	211.21
915.67	210.90
915.97	210.93
916.27	210.33
916.58	210.83
916.88	211.07
917.18	210.62
917.49	212.07
917.79	212.12
918.09	212.45
918.39	213.12
918.70	212.93
919.00	213.00
919.30	213.71
919.60	213.57
919.91	213.36
920.21	213.38
920.51	213.05
920.81	212.98
921.12	213.33
921.42	213.55
921.72	213.62
922.02	213.74
922.32	214.10
922.63	214.12
922.93	215.00
923.23	214.86
923.53	214.83
923.83	213.40
924.13	213.74
924.44	213.81
924.74	213.81
925.04	214.45
925.34	214.45
925.64	213.76
925.94	214.05
926.24	215.45
926.55	215.12
926.85	215.43
927.15	215.33
927.45	215.36
927.75	215.33
928.05	215.24
928.35	215.02
928.65	215.02
928.95	215.00
929.26	214.21
929.56	214.69
929.86	215.17
930.16	215.17
930.46	214.83
930.76	214.79
931.06	213.98
931.36	213.52
931.66	213.76
931.96	213.86
932.26	213.86
932.56	212.86
932.86	213.38
933.16	213.31
933.46	213.40
933.76	213.02
934.06	213.60
934.36	214.26
934.66	214.55
934.96	214.40
935.26	214.79
935.56	215.10
935.86	214.45
936.16	214.07
936.46	213.88
936.76	213.79
937.06	213.52
937.36	213.62
937.66	213.40
937.96	213.29
938.26	213.00
938.56	212.76
938.86	212.93
939.16	212.95
939.46	212.95
939.76	212.98
940.06	213.21
940.35	212.69
940.65	211.50
940.95	211.33
941.25	210.79
941.55	210.67
941.85	210.12
942.15	210.69
942.45	211.26
942.75	211.19
943.04	211.45
943.34	211.98
943.64	211.95
943.94	211.98
944.24	212.10
944.54	212.17
944.84	212.05
945.13	211.95
945.43	211.83
945.73	211.71
946.03	211.64
946.33	211.12
946.62	210.95
946.92	211.19
947.22	211.43
947.52	211.60
947.82	211.57
948.11	211.45
948.41	210.74
948.71	210.10
949.01	210.07
949.31	209.95
949.60	209.55
949.90	209.69
950.20	209.50
950.50	209.50
950.79	209.29
951.09	209.79
951.39	209.60
951.69	209.40
951.98	210.02
952.28	210.07
952.58	210.29
952.87	210.12
953.17	210.33
953.47	209.86
953.76	209.88
954.06	209.62
954.36	209.38
954.66	209.43
954.95	210.10
955.25	210.21
955.55	210.29
955.84	210.07
956.14	210.29
956.44	210.69
956.73	210.26
957.03	210.48
957.32	210.17
957.62	210.02
957.92	210.52
958.21	210.14
958.51	212.60
958.81	212.69
959.10	213.02
959.40	213.69
959.69	214.17
959.99	214.40
960.29	214.69
960.58	214.76
960.88	215.64
961.17	215.38
961.47	215.71
961.76	215.40
962.06	215.81
962.36	215.60
962.65	215.21
962.95	215.33
963.24	215.10
963.54	215.36
963.83	215.36
964.13	214.95
964.42	214.36
964.72	212.48
965.01	212.57
965.31	212.52
965.60	211.64
965.90	212.74
966.19	212.26
966.49	212.33
966.78	212.29
967.08	212.07
967.37	211.88
967.67	211.40
967.96	211.83
968.26	211.81
968.55	212.17
968.85	212.45
969.14	212.43
969.43	212.60
969.73	212.48
970.02	212.76
970.32	212.79
970.61	212.57
970.91	211.95
971.20	211.74
971.49	211.38
971.79	211.79
972.08	210.45
972.38	210.64
972.67	210.29
972.96	210.60
973.26	210.26
973.55	210.90
973.85	210.90
974.14	210.79
974.43	210.74
974.73	210.40
975.02	209.98
975.31	209.81
975.61	209.67
975.90	209.43
976.19	208.83
976.49	209.07
976.78	209.52
977.07	209.62
977.37	209.81
977.66	210.24
977.95	209.88
978.24	210.17
978.54	210.48
978.83	210.55
979.12	210.62
979.42	210.52
979.71	210.07
980.00	210.21
980.29	210.17
980.59	209.88
980.88	210.21
981.17	210.33
981.46	210.57
981.76	210.69
982.05	211.33
982.34	211.60
982.63	211.38
982.93	211.38
983.22	212.07
983.51	211.98
983.80	212.26
984.09	212.69
984.39	212.43
984.68	212.17
984.97	212.29
985.26	211.83
985.55	212.05
985.85	211.83
986.14	212.07
986.43	212.26
986.72	212.19
987.01	211.62
987.30	211.69
987.59	211.57
987.89	211.67
988.18	211.14
988.47	210.98
988.76	210.64
989.05	210.62
989.34	210.00
989.63	210.62
989.92	210.24
990.22	209.69
990.51	209.69
990.80	209.74
991.09	209.86
991.38	210.40
991.67	210.21
991.96	210.10
992.25	210.17
992.54	209.98
992.83	209.98
993.12	210.07
993.41	210.31
993.70	211.05
993.99	211.48
994.28	211.90
994.58	212.40
994.87	212.52
995.16	212.38
995.45	212.33
995.74	211.60
996.03	212.00
996.32	212.40
996.61	213.02
996.90	212.90
997.19	212.79
997.48	212.55
997.77	212.26
998.06	212.21
998.34	211.90
998.63	211.83
998.92	211.79
999.21	211.83
999.50	212.02
999.79	211.31
1000.08	211.07
1000.37	210.67
1000.66	210.33
1000.95	210.93
1001.24	211.02
1001.53	211.26
1001.82	211.19
1002.11	210.62
1002.40	211.00
1002.68	211.24
1002.97	212.83
1003.26	212.86
1003.55	212.83
1003.84	212.95
1004.13	213.64
1004.42	213.31
1004.71	213.36
1004.99	213.45
1005.28	213.93
1005.57	213.62
1005.86	213.52
1006.15	213.36
1006.44	213.10
1006.72	213.60
1007.01	213.10
1007.30	213.02
1007.59	212.90
1007.88	213.05
1008.17	213.07
1008.45	212.57
1008.74	211.71
1009.03	210.62
1009.32	210.62
1009.60	210.67
1009.89	210.76
1010.18	209.76
1010.47	210.05
1010.76	209.93
1011.04	210.10
1011.33	210.29
1011.62	210.52
1011.91	210.64
1012.19	210.83
1012.48	210.98
1012.77	210.64
1013.05	211.60
1013.34	211.71
1013.63	211.57
1013.92	211.67
1014.20	211.71
1014.49	211.76
1014.78	211.93
1015.06	211.26
1015.35	211.21
1015.64	211.45
1015.92	211.83
1016.21	212.38
1016.50	212.57
1016.78	212.83
1017.07	212.88
1017.36	212.21
1017.64	211.71
1017.93	211.90
1018.22	211.52
1018.50	211.50
1018.79	211.50
1019.08	210.48
1019.36	210.55
1019.65	210.33
1019.93	210.67
1020.22	210.93
1020.51	211.83
1020.79	211.69
1021.08	205.50
1021.36	207.00
1021.65	210.50
1021.94	207.50
1022.22	211.50
1022.51	206.50
1022.79	219.00
1023.08	214.50
1023.36	232.50
1023.65	207.00
>>>>>End Processed Spectral Data<<<<<
