SpectraSuite Data File
++++++++++++++++++++++++++++++++++++
Date: Tue Apr 02 18:43:18 EDT 2013
User: group
Dark Spectrum Present: No
Reference Spectrum Present: No
Number of Sampled Component Spectra: 1
Spectrometers: USB2E7196
Integration Time (usec): 580000 (USB2E7196)
Spectra Averaged: 2 (USB2E7196)
Boxcar Smoothing: 10 (USB2E7196)
Correct for Electrical Dark: No (USB2E7196)
Strobe/Lamp Enabled: No (USB2E7196)
Correct for Detector Non-linearity: No (USB2E7196)
Correct for Stray Light: No (USB2E7196)
Number of Pixels in Processed Spectrum: 2048
>>>>>Begin Processed Spectral Data<<<<<
339.09	0.00
339.48	188.00
339.86	195.00
340.24	199.50
340.63	194.00
341.01	229.00
341.39	202.00
341.78	206.00
342.16	209.50
342.54	208.00
342.93	198.14
343.31	207.93
343.69	208.79
344.07	209.36
344.46	209.86
344.84	210.71
345.22	209.71
345.60	210.24
345.99	210.45
346.37	210.48
346.75	210.62
347.13	210.79
347.52	210.74
347.90	211.43
348.28	211.67
348.66	212.36
349.05	211.60
349.43	211.95
349.81	212.29
350.19	212.19
350.57	212.24
350.96	212.26
351.34	212.57
351.72	212.81
352.10	212.74
352.48	212.69
352.87	212.33
353.25	212.21
353.63	211.88
354.01	211.93
354.39	211.86
354.77	211.67
355.15	211.93
355.54	211.83
355.92	211.07
356.30	211.05
356.68	211.93
357.06	212.10
357.44	211.62
357.82	211.50
358.20	212.64
358.58	212.50
358.97	212.76
359.35	213.10
359.73	213.52
360.11	213.69
360.49	213.81
360.87	214.14
361.25	214.69
361.63	215.52
362.01	215.45
362.39	215.57
362.77	215.69
363.15	215.67
363.53	215.57
363.91	215.55
364.29	215.29
364.67	213.48
365.05	213.57
365.43	213.69
365.81	213.83
366.19	213.81
366.57	214.64
366.95	214.48
367.33	214.10
367.71	214.10
368.09	214.40
368.47	214.50
368.85	214.40
369.23	214.67
369.61	213.86
369.99	214.52
370.37	214.74
370.75	215.93
371.13	215.74
371.51	215.36
371.89	215.69
372.27	216.05
372.65	215.98
373.03	216.10
373.41	216.17
373.78	216.00
374.16	214.90
374.54	214.33
374.92	214.10
375.30	214.07
375.68	213.36
376.06	213.62
376.44	213.36
376.82	213.50
377.19	213.43
377.57	213.43
377.95	213.00
378.33	212.90
378.71	211.69
379.09	211.81
379.47	212.38
379.84	212.00
380.22	212.00
380.60	211.95
380.98	211.69
381.36	211.64
381.73	211.48
382.11	211.95
382.49	211.93
382.87	211.81
383.25	211.76
383.62	214.24
384.00	213.64
384.38	213.64
384.76	214.14
385.13	214.86
385.51	214.93
385.89	214.52
386.27	214.60
386.64	214.90
387.02	214.76
387.40	214.48
387.78	214.67
388.15	214.67
388.53	214.76
388.91	215.02
389.29	214.76
389.66	215.02
390.04	214.74
390.42	215.38
390.79	215.52
391.17	215.48
391.55	213.33
391.92	213.48
392.30	213.64
392.68	213.07
393.05	212.76
393.43	212.98
393.81	213.21
394.18	212.98
394.56	212.83
394.94	213.48
395.31	213.45
395.69	214.31
396.06	214.60
396.44	214.76
396.82	214.62
397.19	215.90
397.57	215.76
397.95	216.21
398.32	215.55
398.70	215.86
399.07	216.55
399.45	216.45
399.82	216.36
400.20	216.31
400.58	216.24
400.95	215.55
401.33	215.95
401.70	217.45
402.08	217.57
402.45	217.76
402.83	218.07
403.20	218.40
403.58	218.07
403.95	218.43
404.33	218.69
404.71	218.95
405.08	220.38
405.46	220.98
405.83	221.10
406.21	221.50
406.58	221.98
406.96	222.19
407.33	222.86
407.70	223.83
408.08	226.00
408.45	226.93
408.83	227.83
409.20	228.24
409.58	227.71
409.95	228.83
410.33	229.79
410.70	230.07
411.08	231.36
411.45	232.26
411.82	233.19
412.20	234.79
412.57	237.10
412.95	236.29
413.32	237.83
413.69	239.14
414.07	240.93
414.44	242.40
414.82	244.36
415.19	246.69
415.56	248.90
415.94	250.17
416.31	253.07
416.68	256.17
417.06	259.14
417.43	262.79
417.81	266.38
418.18	270.12
418.55	273.79
418.93	277.62
419.30	281.83
419.67	286.31
420.04	290.55
420.42	294.88
420.79	301.95
421.16	307.50
421.54	314.67
421.91	320.62
422.28	326.88
422.66	333.52
423.03	341.57
423.40	348.14
423.77	355.36
424.15	362.21
424.52	369.57
424.89	378.21
425.26	385.86
425.64	393.45
426.01	401.81
426.38	410.67
426.75	420.33
427.13	429.81
427.50	438.90
427.87	449.29
428.24	459.14
428.61	467.62
428.99	478.95
429.36	489.31
429.73	500.62
430.10	512.74
430.47	524.45
430.85	534.86
431.22	547.40
431.59	562.48
431.96	575.07
432.33	589.17
432.70	603.14
433.08	619.33
433.45	634.55
433.82	649.93
434.19	667.12
434.56	683.64
434.93	698.90
435.30	715.40
435.68	732.52
436.05	750.60
436.42	767.52
436.79	783.60
437.16	800.95
437.53	818.79
437.90	835.88
438.27	853.83
438.64	871.95
439.01	889.17
439.38	902.74
439.75	918.00
440.13	935.24
440.50	950.57
440.87	962.81
441.24	976.12
441.61	991.17
441.98	1002.05
442.35	1014.21
442.72	1027.93
443.09	1040.69
443.46	1048.71
443.83	1053.48
444.20	1058.24
444.57	1063.76
444.94	1067.64
445.31	1071.81
445.68	1077.93
446.05	1079.12
446.42	1078.19
446.79	1077.29
447.16	1075.48
447.53	1074.17
447.90	1067.79
448.27	1062.24
448.64	1054.10
449.01	1047.98
449.37	1036.19
449.74	1025.64
450.11	1013.52
450.48	997.74
450.85	982.10
451.22	969.33
451.59	957.21
451.96	945.43
452.33	930.55
452.70	915.52
453.07	897.81
453.43	878.02
453.80	861.48
454.17	845.50
454.54	829.79
454.91	813.24
455.28	797.24
455.65	782.31
456.02	770.02
456.38	757.50
456.75	742.10
457.12	729.07
457.49	715.60
457.86	701.74
458.23	692.64
458.59	681.24
458.96	669.52
459.33	658.36
459.70	648.33
460.07	639.52
460.43	630.17
460.80	621.83
461.17	614.24
461.54	605.90
461.91	597.64
462.27	589.57
462.64	583.07
463.01	575.76
463.38	568.64
463.74	558.07
464.11	551.45
464.48	546.05
464.85	539.50
465.21	535.21
465.58	530.33
465.95	523.48
466.32	518.48
466.68	513.26
467.05	508.64
467.42	503.38
467.78	497.74
468.15	492.76
468.52	488.69
468.88	483.43
469.25	478.88
469.62	475.57
469.98	471.62
470.35	467.76
470.72	464.10
471.08	459.55
471.45	456.67
471.82	454.14
472.18	449.98
472.55	447.43
472.92	443.71
473.28	441.17
473.65	438.24
474.02	435.74
474.38	433.55
474.75	431.55
475.11	429.26
475.48	428.19
475.85	426.40
476.21	424.93
476.58	423.57
476.94	422.48
477.31	420.98
477.67	419.88
478.04	418.76
478.41	418.29
478.77	419.57
479.14	418.71
479.50	417.43
479.87	416.83
480.23	416.74
480.60	416.55
480.96	416.38
481.33	417.07
481.69	416.71
482.06	416.71
482.42	417.14
482.79	417.60
483.15	417.10
483.52	417.95
483.88	418.21
484.25	418.71
484.61	419.29
484.98	420.17
485.34	421.88
485.71	423.40
486.07	424.64
486.44	424.21
486.80	425.71
487.17	427.19
487.53	429.93
487.90	432.10
488.26	435.21
488.62	437.95
488.99	439.90
489.35	442.69
489.72	445.33
490.08	447.90
490.44	450.86
490.81	454.36
491.17	457.36
491.54	460.69
491.90	464.71
492.26	468.05
492.63	471.83
492.99	474.64
493.36	478.62
493.72	482.93
494.08	487.48
494.45	492.00
494.81	497.40
495.17	501.76
495.54	506.55
495.90	510.79
496.26	515.57
496.63	520.93
496.99	526.60
497.35	532.38
497.72	538.14
498.08	543.67
498.44	549.50
498.80	555.83
499.17	561.67
499.53	567.79
499.89	574.98
500.26	582.12
500.62	589.36
500.98	596.93
501.34	603.86
501.71	611.81
502.07	619.29
502.43	625.88
502.79	633.02
503.16	639.69
503.52	646.79
503.88	653.52
504.24	661.19
504.60	668.69
504.97	676.24
505.33	683.52
505.69	692.05
506.05	699.93
506.41	707.07
506.78	715.33
507.14	722.69
507.50	730.40
507.86	738.02
508.22	745.60
508.59	752.00
508.95	760.00
509.31	768.64
509.67	776.26
510.03	784.50
510.39	792.38
510.75	800.74
511.12	808.67
511.48	816.83
511.84	824.40
512.20	831.50
512.56	839.10
512.92	847.12
513.28	854.71
513.64	862.52
514.00	870.19
514.37	877.29
514.73	884.69
515.09	892.21
515.45	898.98
515.81	905.88
516.17	913.67
516.53	919.95
516.89	925.67
517.25	931.74
517.61	937.98
517.97	944.88
518.33	950.79
518.69	957.43
519.05	963.79
519.41	969.86
519.77	977.45
520.13	983.52
520.49	988.95
520.85	994.07
521.21	1000.36
521.57	1005.83
521.93	1010.79
522.29	1017.62
522.65	1023.24
523.01	1029.21
523.37	1034.48
523.73	1039.07
524.09	1044.36
524.45	1048.36
524.81	1053.36
525.17	1058.55
525.53	1062.79
525.89	1068.26
526.25	1072.62
526.61	1076.74
526.97	1080.93
527.33	1084.83
527.68	1090.76
528.04	1095.74
528.40	1099.31
528.76	1103.52
529.12	1108.14
529.48	1113.86
529.84	1117.02
530.20	1120.71
530.56	1124.93
530.91	1129.62
531.27	1133.93
531.63	1138.48
531.99	1142.48
532.35	1146.86
532.71	1150.76
533.07	1154.88
533.42	1160.93
533.78	1165.29
534.14	1170.19
534.50	1174.67
534.86	1178.83
535.21	1181.62
535.57	1186.38
535.93	1191.05
536.29	1195.10
536.65	1199.02
537.00	1202.83
537.36	1206.31
537.72	1209.69
538.08	1213.02
538.44	1215.90
538.79	1219.60
539.15	1222.62
539.51	1227.10
539.87	1230.86
540.22	1234.21
540.58	1237.45
540.94	1238.67
541.29	1241.79
541.65	1243.74
542.01	1247.24
542.37	1249.76
542.72	1251.86
543.08	1253.64
543.44	1256.60
543.79	1258.43
544.15	1261.90
544.51	1264.48
544.87	1267.26
545.22	1270.62
545.58	1272.81
545.94	1275.52
546.29	1278.31
546.65	1281.31
547.01	1283.29
547.36	1285.81
547.72	1288.81
548.07	1292.29
548.43	1294.38
548.79	1296.10
549.14	1298.88
549.50	1301.52
549.86	1304.10
550.21	1307.38
550.57	1310.64
550.92	1313.40
551.28	1317.14
551.64	1319.57
551.99	1321.93
552.35	1325.02
552.70	1327.55
553.06	1331.12
553.41	1334.71
553.77	1339.43
554.13	1342.38
554.48	1347.17
554.84	1350.76
555.19	1354.19
555.55	1358.31
555.90	1361.67
556.26	1365.88
556.61	1369.95
556.97	1373.95
557.32	1377.69
557.68	1381.62
558.03	1384.67
558.39	1388.55
558.74	1392.02
559.10	1395.26
559.45	1400.17
559.81	1404.62
560.16	1408.62
560.52	1412.64
560.87	1416.57
561.23	1419.50
561.58	1426.02
561.94	1429.21
562.29	1433.07
562.64	1437.69
563.00	1441.07
563.35	1446.36
563.71	1451.62
564.06	1456.86
564.42	1460.40
564.77	1467.05
565.12	1472.93
565.48	1481.19
565.83	1487.88
566.19	1493.55
566.54	1499.40
566.89	1504.50
567.25	1511.26
567.60	1518.67
567.96	1526.48
568.31	1534.17
568.66	1541.40
569.02	1544.62
569.37	1550.36
569.72	1556.17
570.08	1562.07
570.43	1567.69
570.78	1573.48
571.14	1578.52
571.49	1583.64
571.84	1590.33
572.20	1594.45
572.55	1599.74
572.90	1602.00
573.26	1605.88
573.61	1610.10
573.96	1615.55
574.31	1619.83
574.67	1622.52
575.02	1625.55
575.37	1628.00
575.72	1629.69
576.08	1632.71
576.43	1637.12
576.78	1641.74
577.13	1645.67
577.49	1648.76
577.84	1653.55
578.19	1657.45
578.54	1661.64
578.90	1666.50
579.25	1670.05
579.60	1672.71
579.95	1675.10
580.30	1679.19
580.66	1683.67
581.01	1687.50
581.36	1690.60
581.71	1694.69
582.06	1699.43
582.42	1703.45
582.77	1705.36
583.12	1709.69
583.47	1712.76
583.82	1716.31
584.17	1717.98
584.53	1722.19
584.88	1725.40
585.23	1727.83
585.58	1730.36
585.93	1732.69
586.28	1733.95
586.63	1736.71
586.98	1740.10
587.34	1744.38
587.69	1746.57
588.04	1748.02
588.39	1749.95
588.74	1750.88
589.09	1752.90
589.44	1753.07
589.79	1754.12
590.14	1757.33
590.49	1758.62
590.84	1759.62
591.19	1761.55
591.54	1763.83
591.89	1763.64
592.25	1766.64
592.60	1767.74
592.95	1769.62
593.30	1771.31
593.65	1772.19
594.00	1771.52
594.35	1777.79
594.70	1776.64
595.05	1777.52
595.40	1777.88
595.75	1778.40
596.10	1779.88
596.45	1780.43
596.80	1782.19
597.15	1783.57
597.50	1783.90
597.85	1786.10
598.19	1785.98
598.54	1785.67
598.89	1786.50
599.24	1787.79
599.59	1786.48
599.94	1786.38
600.29	1786.52
600.64	1786.19
600.99	1786.33
601.34	1788.07
601.69	1782.45
602.04	1782.12
602.39	1781.45
602.74	1781.67
603.08	1781.55
603.43	1783.05
603.78	1781.83
604.13	1780.45
604.48	1778.79
604.83	1778.36
605.18	1777.02
605.53	1777.79
605.87	1776.57
606.22	1774.86
606.57	1773.10
606.92	1771.55
607.27	1770.81
607.62	1769.90
607.96	1769.60
608.31	1769.71
608.66	1768.17
609.01	1766.24
609.36	1765.29
609.70	1764.21
610.05	1761.45
610.40	1759.57
610.75	1756.57
611.10	1754.48
611.44	1751.88
611.79	1749.76
612.14	1746.69
612.49	1743.02
612.83	1740.00
613.18	1737.62
613.53	1735.21
613.88	1732.12
614.22	1728.57
614.57	1724.52
614.92	1720.07
615.27	1715.98
615.61	1710.81
615.96	1705.98
616.31	1702.81
616.65	1699.98
617.00	1696.83
617.35	1695.12
617.70	1691.55
618.04	1687.43
618.39	1683.83
618.74	1681.19
619.08	1677.62
619.43	1674.69
619.78	1671.12
620.12	1667.64
620.47	1664.10
620.82	1659.33
621.16	1655.48
621.51	1653.50
621.85	1649.67
622.20	1645.64
622.55	1640.79
622.89	1637.43
623.24	1635.86
623.59	1631.86
623.93	1626.48
624.28	1621.52
624.62	1618.48
624.97	1615.67
625.32	1611.36
625.66	1607.62
626.01	1603.50
626.35	1600.64
626.70	1595.71
627.04	1592.57
627.39	1588.36
627.73	1584.40
628.08	1581.50
628.43	1577.95
628.77	1573.50
629.12	1570.45
629.46	1567.29
629.81	1563.17
630.15	1558.45
630.50	1552.83
630.84	1548.36
631.19	1544.55
631.53	1540.14
631.88	1532.26
632.22	1525.50
632.57	1520.79
632.91	1515.76
633.26	1511.14
633.60	1505.36
633.95	1500.36
634.29	1494.31
634.64	1489.00
634.98	1483.50
635.32	1479.36
635.67	1474.07
636.01	1469.14
636.36	1463.43
636.70	1458.55
637.05	1455.07
637.39	1450.17
637.73	1445.48
638.08	1441.38
638.42	1436.43
638.77	1431.45
639.11	1427.76
639.45	1423.52
639.80	1418.52
640.14	1412.43
640.49	1406.93
640.83	1401.14
641.17	1396.83
641.52	1391.93
641.86	1386.45
642.20	1381.79
642.55	1374.98
642.89	1370.52
643.23	1364.14
643.58	1358.95
643.92	1351.98
644.26	1345.00
644.61	1340.02
644.95	1333.60
645.29	1326.62
645.64	1320.88
645.98	1314.71
646.32	1308.31
646.66	1301.38
647.01	1295.02
647.35	1290.29
647.69	1283.62
648.04	1277.48
648.38	1271.43
648.72	1265.21
649.06	1259.79
649.41	1253.12
649.75	1245.90
650.09	1238.90
650.43	1232.71
650.78	1226.36
651.12	1220.05
651.46	1214.29
651.80	1207.24
652.14	1200.93
652.49	1195.26
652.83	1189.05
653.17	1182.62
653.51	1176.14
653.85	1170.48
654.20	1163.71
654.54	1156.62
654.88	1150.10
655.22	1144.79
655.56	1137.95
655.90	1131.07
656.25	1124.12
656.59	1118.00
656.93	1112.64
657.27	1106.81
657.61	1099.64
657.95	1093.19
658.29	1086.86
658.64	1080.62
658.98	1074.62
659.32	1067.79
659.66	1061.05
660.00	1054.19
660.34	1048.07
660.68	1041.76
661.02	1034.98
661.36	1029.26
661.70	1023.67
662.05	1018.02
662.39	1011.36
662.73	1005.88
663.07	1001.48
663.41	995.81
663.75	989.43
664.09	983.60
664.43	976.79
664.77	970.88
665.11	964.38
665.45	958.71
665.79	953.29
666.13	946.90
666.47	941.45
666.81	935.48
667.15	929.81
667.49	924.62
667.83	919.83
668.17	914.83
668.51	909.05
668.85	903.26
669.19	898.10
669.53	891.67
669.87	885.31
670.21	878.31
670.55	871.57
670.89	867.07
671.23	861.26
671.57	855.81
671.91	850.69
672.25	845.31
672.58	840.79
672.92	834.79
673.26	829.31
673.60	824.02
673.94	819.48
674.28	814.43
674.62	808.86
674.96	803.29
675.30	798.57
675.64	793.43
675.97	788.12
676.31	782.81
676.65	778.10
676.99	774.00
677.33	769.50
677.67	764.86
678.01	758.50
678.34	753.83
678.68	749.98
679.02	744.55
679.36	739.48
679.70	733.50
680.04	728.14
680.37	723.36
680.71	718.29
681.05	713.50
681.39	708.24
681.73	703.40
682.06	698.33
682.40	692.98
682.74	688.79
683.08	684.98
683.42	679.93
683.75	675.55
684.09	670.40
684.43	665.29
684.77	660.76
685.10	657.10
685.44	652.81
685.78	647.38
686.12	643.33
686.45	639.21
686.79	634.62
687.13	630.86
687.46	626.69
687.80	622.90
688.14	618.29
688.48	614.55
688.81	610.21
689.15	606.31
689.49	602.19
689.82	597.52
690.16	592.38
690.50	588.55
690.83	583.81
691.17	578.90
691.51	574.98
691.84	571.07
692.18	566.55
692.52	562.14
692.85	558.67
693.19	555.60
693.52	552.00
693.86	548.57
694.20	544.38
694.53	540.93
694.87	536.98
695.21	532.74
695.54	528.86
695.88	524.71
696.21	520.19
696.55	516.69
696.88	513.36
697.22	510.12
697.56	506.69
697.89	503.43
698.23	500.55
698.56	497.19
698.90	493.76
699.23	490.17
699.57	487.05
699.90	483.48
700.24	479.45
700.58	476.10
700.91	473.14
701.25	472.00
701.58	469.57
701.92	466.86
702.25	464.26
702.59	461.12
702.92	459.00
703.26	456.83
703.59	454.00
703.93	452.74
704.26	449.90
704.60	447.12
704.93	444.55
705.26	441.50
705.60	439.02
705.93	436.07
706.27	434.07
706.60	431.33
706.94	429.62
707.27	426.95
707.61	424.48
707.94	421.62
708.27	417.00
708.61	413.90
708.94	411.33
709.28	409.10
709.61	406.62
709.94	404.10
710.28	401.74
710.61	399.48
710.95	394.98
711.28	394.14
711.61	391.98
711.95	390.10
712.28	388.05
712.61	385.60
712.95	384.55
713.28	383.02
713.61	380.81
713.95	377.90
714.28	376.19
714.61	373.81
714.95	371.83
715.28	370.00
715.61	368.00
715.95	365.88
716.28	363.55
716.61	361.95
716.95	359.98
717.28	357.88
717.61	355.74
717.94	354.10
718.28	350.48
718.61	348.52
718.94	346.57
719.27	344.93
719.61	343.21
719.94	341.14
720.27	338.62
720.60	337.00
720.94	335.19
721.27	333.69
721.60	332.86
721.93	331.52
722.27	330.64
722.60	329.38
722.93	327.93
723.26	326.69
723.59	324.67
723.93	323.55
724.26	322.45
724.59	321.14
724.92	320.57
725.25	320.36
725.59	319.21
725.92	318.24
726.25	316.76
726.58	315.86
726.91	314.55
727.24	313.67
727.57	312.40
727.91	311.24
728.24	310.14
728.57	308.69
728.90	307.95
729.23	306.36
729.56	306.26
729.89	305.17
730.22	304.02
730.55	303.17
730.89	301.83
731.22	300.48
731.55	299.50
731.88	298.21
732.21	296.64
732.54	295.43
732.87	294.07
733.20	293.43
733.53	292.29
733.86	291.50
734.19	290.14
734.52	289.64
734.85	290.21
735.18	289.19
735.51	288.74
735.84	287.69
736.17	287.45
736.50	285.33
736.83	286.95
737.16	286.10
737.49	285.45
737.82	284.60
738.15	284.40
738.48	283.74
738.81	282.64
739.14	281.64
739.47	280.83
739.80	280.24
740.13	279.64
740.46	278.95
740.79	277.83
741.12	277.10
741.45	276.05
741.78	274.19
742.11	273.81
742.44	272.62
742.77	272.10
743.10	270.81
743.43	270.12
743.75	267.05
744.08	269.07
744.41	268.26
744.74	267.52
745.07	266.29
745.40	265.71
745.73	265.86
746.06	265.36
746.39	264.98
746.71	264.07
747.04	263.17
747.37	262.31
747.70	262.12
748.03	261.81
748.36	261.57
748.68	261.12
749.01	260.02
749.34	259.48
749.67	259.14
750.00	259.19
750.33	260.07
750.65	260.12
750.98	257.19
751.31	257.19
751.64	256.76
751.97	257.69
752.29	257.14
752.62	255.81
752.95	255.29
753.28	254.43
753.60	254.02
753.93	254.07
754.26	253.79
754.59	252.71
754.91	252.02
755.24	251.48
755.57	250.90
755.90	250.55
756.22	250.05
756.55	248.93
756.88	247.98
757.20	246.17
757.53	244.93
757.86	244.45
758.19	243.86
758.51	243.64
758.84	241.86
759.17	241.10
759.49	240.95
759.82	241.48
760.15	241.50
760.47	241.12
760.80	240.43
761.13	240.57
761.45	240.24
761.78	240.02
762.11	239.64
762.43	238.98
762.76	238.69
763.08	238.69
763.41	238.98
763.74	238.83
764.06	238.76
764.39	238.45
764.71	238.12
765.04	237.50
765.37	237.00
765.69	236.95
766.02	236.83
766.34	236.45
766.67	235.43
767.00	235.50
767.32	236.45
767.65	237.31
767.97	236.57
768.30	236.43
768.62	236.07
768.95	235.67
769.27	235.69
769.60	235.67
769.92	234.90
770.25	234.12
770.57	233.48
770.90	232.95
771.22	232.81
771.55	232.45
771.87	232.52
772.20	232.29
772.52	233.74
772.85	236.02
773.17	235.88
773.50	235.74
773.82	235.02
774.15	233.71
774.47	232.17
774.80	231.98
775.12	231.79
775.45	231.64
775.77	231.36
776.09	231.19
776.42	230.98
776.74	231.64
777.07	231.33
777.39	231.19
777.72	230.86
778.04	230.86
778.36	230.45
778.69	230.40
779.01	230.36
779.33	228.12
779.66	225.69
779.98	225.48
780.31	225.38
780.63	225.95
780.95	226.21
781.28	226.12
781.60	225.60
781.92	225.43
782.25	225.21
782.57	225.14
782.89	224.95
783.22	224.69
783.54	223.93
783.86	224.17
784.19	224.02
784.51	224.74
784.83	224.29
785.16	224.48
785.48	224.31
785.80	224.26
786.12	224.79
786.45	224.57
786.77	224.52
787.09	224.21
787.42	223.62
787.74	223.81
788.06	223.67
788.38	223.64
788.71	223.43
789.03	223.29
789.35	223.55
789.67	223.29
789.99	223.45
790.32	223.14
790.64	223.19
790.96	224.88
791.28	223.79
791.61	223.76
791.93	223.71
792.25	223.57
792.57	224.74
792.89	224.24
793.21	224.33
793.54	224.10
793.86	223.83
794.18	223.74
794.50	223.00
794.82	222.86
795.14	223.24
795.47	223.50
795.79	223.55
796.11	223.07
796.43	222.93
796.75	222.60
797.07	222.71
797.39	222.50
797.71	220.90
798.04	221.00
798.36	220.95
798.68	220.67
799.00	220.74
799.32	219.60
799.64	219.76
799.96	219.79
800.28	220.05
800.60	220.02
800.92	220.29
801.24	220.17
801.56	220.38
801.89	220.24
802.21	220.29
802.53	219.83
802.85	220.45
803.17	221.17
803.49	220.88
803.81	220.69
804.13	220.57
804.45	220.24
804.77	220.60
805.09	220.76
805.41	220.57
805.73	219.74
806.05	219.40
806.37	219.17
806.69	218.79
807.01	218.31
807.33	218.48
807.65	217.67
807.97	218.69
808.28	218.55
808.60	218.19
808.92	217.98
809.24	219.33
809.56	218.62
809.88	218.14
810.20	218.12
810.52	218.55
810.84	218.24
811.16	218.31
811.48	218.02
811.80	218.45
812.12	218.14
812.43	218.69
812.75	218.95
813.07	218.83
813.39	218.90
813.71	219.19
814.03	218.86
814.35	219.00
814.67	217.93
814.98	217.52
815.30	217.50
815.62	216.98
815.94	215.64
816.26	215.90
816.58	215.36
816.89	215.40
817.21	214.83
817.53	214.95
817.85	215.02
818.17	215.05
818.48	214.33
818.80	215.02
819.12	214.86
819.44	214.33
819.76	213.86
820.07	213.83
820.39	213.62
820.71	213.71
821.03	213.64
821.34	213.60
821.66	213.93
821.98	214.17
822.30	214.36
822.61	215.45
822.93	215.19
823.25	215.19
823.57	215.38
823.88	215.76
824.20	215.64
824.52	215.67
824.83	215.64
825.15	215.21
825.47	215.07
825.79	215.19
826.10	214.88
826.42	214.83
826.74	215.19
827.05	215.07
827.37	215.10
827.69	214.90
828.00	214.90
828.32	214.79
828.64	214.50
828.95	215.33
829.27	214.90
829.58	214.81
829.90	215.10
830.22	214.86
830.53	214.21
830.85	214.10
831.17	213.67
831.48	213.45
831.80	213.83
832.11	213.67
832.43	213.60
832.75	213.69
833.06	215.05
833.38	214.17
833.69	214.17
834.01	214.19
834.32	214.38
834.64	214.17
834.96	214.10
835.27	214.05
835.59	213.40
835.90	212.81
836.22	212.86
836.53	212.38
836.85	212.33
837.16	214.55
837.48	214.67
837.79	215.52
838.11	215.55
838.42	215.52
838.74	215.71
839.05	215.31
839.37	215.50
839.68	214.40
840.00	214.48
840.31	214.83
840.63	214.81
840.94	214.52
841.26	214.43
841.57	214.60
841.88	214.71
842.20	214.60
842.51	214.60
842.83	214.55
843.14	216.74
843.46	216.60
843.77	215.55
844.08	215.62
844.40	214.86
844.71	214.76
845.03	214.62
845.34	214.57
845.65	214.71
845.97	214.55
846.28	214.60
846.60	214.88
846.91	214.45
847.22	214.38
847.54	214.93
847.85	215.07
848.16	214.86
848.48	214.50
848.79	215.45
849.10	215.79
849.42	216.00
849.73	213.93
850.04	213.90
850.36	212.98
850.67	213.21
850.98	213.21
851.30	213.60
851.61	213.38
851.92	213.31
852.23	213.88
852.55	213.93
852.86	214.00
853.17	214.14
853.49	214.55
853.80	214.86
854.11	214.88
854.42	215.12
854.74	214.86
855.05	214.98
855.36	213.74
855.67	213.60
855.99	213.67
856.30	216.19
856.61	216.10
856.92	216.19
857.23	216.02
857.55	215.93
857.86	215.64
858.17	216.21
858.48	215.71
858.79	215.31
859.11	215.62
859.42	215.57
859.73	215.24
860.04	215.19
860.35	214.64
860.66	213.98
860.98	214.05
861.29	214.45
861.60	214.31
861.91	214.79
862.22	214.36
862.53	213.93
862.84	211.36
863.16	212.33
863.47	212.07
863.78	212.05
864.09	212.02
864.40	212.26
864.71	211.98
865.02	212.38
865.33	212.26
865.64	211.98
865.95	211.79
866.27	213.19
866.58	212.83
866.89	213.12
867.20	213.19
867.51	212.71
867.82	212.45
868.13	213.07
868.44	212.48
868.75	213.02
869.06	213.05
869.37	213.62
869.68	212.60
869.99	212.88
870.30	212.93
870.61	213.43
870.92	213.07
871.23	212.93
871.54	213.29
871.85	213.52
872.16	213.62
872.47	213.71
872.78	212.21
873.09	212.52
873.40	212.50
873.71	212.43
874.02	212.52
874.33	212.50
874.64	212.05
874.95	212.86
875.26	212.38
875.56	212.14
875.87	211.57
876.18	211.43
876.49	213.29
876.80	212.86
877.11	212.17
877.42	212.14
877.73	212.40
878.04	211.98
878.35	211.98
878.66	212.10
878.96	211.95
879.27	212.07
879.58	211.98
879.89	211.74
880.20	212.38
880.51	212.50
880.82	212.45
881.12	212.60
881.43	211.79
881.74	211.52
882.05	211.67
882.36	211.83
882.67	212.26
882.97	210.19
883.28	210.26
883.59	210.29
883.90	210.55
884.21	210.88
884.51	210.74
884.82	210.45
885.13	210.40
885.44	210.50
885.74	210.69
886.05	210.60
886.36	210.71
886.67	210.24
886.98	211.14
887.28	211.52
887.59	211.52
887.90	211.67
888.20	211.79
888.51	212.26
888.82	212.00
889.13	212.31
889.43	214.12
889.74	214.02
890.05	214.02
890.35	213.86
890.66	213.36
890.97	213.33
891.28	213.38
891.58	213.36
891.89	213.43
892.20	213.19
892.50	213.02
892.81	212.79
893.12	212.83
893.42	211.71
893.73	211.67
894.04	211.64
894.34	211.79
894.65	211.93
894.95	211.69
895.26	212.00
895.57	212.64
895.87	210.71
896.18	211.24
896.48	211.40
896.79	211.43
897.10	211.88
897.40	211.93
897.71	212.21
898.01	212.12
898.32	212.38
898.63	212.40
898.93	212.52
899.24	212.67
899.54	212.43
899.85	212.43
900.15	212.43
900.46	212.40
900.76	212.79
901.07	212.60
901.38	212.36
901.68	212.55
901.99	211.43
902.29	211.71
902.60	211.40
902.90	211.26
903.21	211.17
903.51	210.90
903.82	211.38
904.12	211.17
904.43	211.24
904.73	211.14
905.03	211.29
905.34	213.38
905.64	213.48
905.95	213.52
906.25	213.57
906.56	213.60
906.86	213.52
907.17	213.45
907.47	213.62
907.77	213.60
908.08	213.05
908.38	213.52
908.69	213.74
908.99	213.95
909.30	214.12
909.60	214.29
909.90	214.21
910.21	213.69
910.51	213.55
910.81	213.55
911.12	213.60
911.42	213.55
911.73	211.33
912.03	211.14
912.33	211.57
912.64	211.74
912.94	211.48
913.24	211.29
913.55	210.98
913.85	210.81
914.15	211.29
914.46	211.76
914.76	211.48
915.06	211.07
915.37	211.14
915.67	211.07
915.97	210.98
916.27	210.79
916.58	210.76
916.88	210.74
917.18	210.67
917.49	212.00
917.79	211.83
918.09	212.26
918.39	213.00
918.70	212.76
919.00	212.69
919.30	213.64
919.60	213.60
919.91	213.38
920.21	213.57
920.51	212.93
920.81	212.57
921.12	213.17
921.42	213.21
921.72	212.95
922.02	213.05
922.32	213.33
922.63	213.43
922.93	214.29
923.23	214.14
923.53	213.98
923.83	212.62
924.13	212.83
924.44	212.69
924.74	212.90
925.04	213.43
925.34	213.24
925.64	212.31
925.94	212.55
926.24	213.81
926.55	213.50
926.85	214.05
927.15	214.31
927.45	214.07
927.75	214.17
928.05	214.31
928.35	214.21
928.65	214.55
928.95	214.64
929.26	213.93
929.56	214.60
929.86	214.90
930.16	214.88
930.46	214.90
930.76	215.00
931.06	214.14
931.36	213.67
931.66	214.05
931.96	214.33
932.26	214.24
932.56	213.33
932.86	213.86
933.16	213.95
933.46	213.48
933.76	213.02
934.06	213.67
934.36	214.43
934.66	214.43
934.96	214.19
935.26	214.43
935.56	214.98
935.86	214.21
936.16	213.95
936.46	213.79
936.76	213.67
937.06	213.43
937.36	213.52
937.66	213.64
937.96	213.62
938.26	213.29
938.56	213.36
938.86	213.45
939.16	213.67
939.46	213.60
939.76	213.93
940.06	213.90
940.35	213.17
940.65	211.95
940.95	212.07
941.25	211.57
941.55	211.21
941.85	210.95
942.15	211.43
942.45	212.00
942.75	211.93
943.04	212.02
943.34	212.21
943.64	212.00
943.94	211.74
944.24	211.76
944.54	211.71
944.84	211.55
945.13	211.21
945.43	210.74
945.73	210.55
946.03	210.29
946.33	210.26
946.62	210.10
946.92	210.12
947.22	209.98
947.52	210.31
947.82	210.60
948.11	210.31
948.41	210.07
948.71	209.55
949.01	209.76
949.31	209.45
949.60	209.26
949.90	209.74
950.20	209.67
950.50	209.71
950.79	209.62
951.09	210.10
951.39	210.17
951.69	210.00
951.98	210.55
952.28	210.64
952.58	210.50
952.87	210.48
953.17	210.69
953.47	210.64
953.76	210.38
954.06	210.07
954.36	209.88
954.66	209.79
954.95	210.57
955.25	210.45
955.55	210.57
955.84	210.36
956.14	210.14
956.44	210.33
956.73	209.79
957.03	209.93
957.32	209.60
957.62	209.52
957.92	210.05
958.21	209.55
958.51	212.10
958.81	212.40
959.10	212.71
959.40	213.40
959.69	213.52
959.99	214.00
960.29	214.05
960.58	214.21
960.88	215.10
961.17	214.69
961.47	214.86
961.76	214.79
962.06	215.36
962.36	215.43
962.65	215.40
962.95	215.67
963.24	215.38
963.54	215.76
963.83	215.81
964.13	215.67
964.42	215.33
964.72	213.45
965.01	213.55
965.31	213.26
965.60	212.67
965.90	214.17
966.19	213.38
966.49	213.67
966.78	213.50
967.08	213.19
967.37	213.02
967.67	212.50
967.96	212.79
968.26	212.50
968.55	212.62
968.85	212.52
969.14	212.38
969.43	212.43
969.73	212.07
970.02	212.10
970.32	211.76
970.61	211.83
970.91	211.31
971.20	210.76
971.49	210.79
971.79	210.83
972.08	209.38
972.38	209.79
972.67	209.31
972.96	209.43
973.26	209.10
973.55	209.48
973.85	209.74
974.14	209.38
974.43	209.60
974.73	209.52
975.02	209.26
975.31	209.43
975.61	209.50
975.90	209.40
976.19	209.33
976.49	209.76
976.78	209.93
977.07	209.88
977.37	210.36
977.66	210.55
977.95	210.52
978.24	210.57
978.54	210.83
978.83	210.67
979.12	210.62
979.42	210.45
979.71	210.24
980.00	210.05
980.29	210.43
980.59	210.07
980.88	210.50
981.17	210.62
981.46	210.60
981.76	210.69
982.05	211.17
982.34	211.43
982.63	211.36
982.93	211.26
983.22	211.67
983.51	211.55
983.80	212.00
984.09	212.14
984.39	212.05
984.68	211.90
984.97	212.07
985.26	211.95
985.55	212.60
985.85	212.43
986.14	213.07
986.43	213.26
986.72	213.17
987.01	212.24
987.30	212.24
987.59	211.98
987.89	211.93
988.18	211.24
988.47	210.69
988.76	210.43
989.05	210.29
989.34	210.07
989.63	210.69
989.92	210.14
990.22	209.79
990.51	209.74
990.80	209.67
991.09	209.83
991.38	210.19
991.67	209.55
991.96	209.29
992.25	209.10
992.54	208.67
992.83	208.67
993.12	208.90
993.41	209.24
993.70	210.14
993.99	210.57
994.28	210.95
994.58	211.38
994.87	211.26
995.16	211.26
995.45	211.10
995.74	210.40
996.03	210.86
996.32	211.29
996.61	211.81
996.90	211.62
997.19	211.79
997.48	211.69
997.77	211.64
998.06	211.81
998.34	211.69
998.63	211.76
998.92	211.93
999.21	212.31
999.50	212.45
999.79	211.67
1000.08	211.45
1000.37	211.50
1000.66	211.19
1000.95	211.79
1001.24	212.05
1001.53	212.45
1001.82	212.38
1002.11	211.71
1002.40	211.88
1002.68	212.07
1002.97	213.74
1003.26	213.38
1003.55	213.10
1003.84	213.19
1004.13	213.86
1004.42	213.93
1004.71	213.93
1004.99	213.74
1005.28	214.14
1005.57	213.71
1005.86	213.67
1006.15	213.83
1006.44	213.43
1006.72	213.86
1007.01	213.43
1007.30	213.48
1007.59	212.93
1007.88	212.95
1008.17	213.36
1008.45	212.98
1008.74	212.31
1009.03	211.21
1009.32	211.29
1009.60	211.26
1009.89	211.21
1010.18	210.26
1010.47	210.05
1010.76	209.90
1011.04	209.95
1011.33	209.74
1011.62	210.12
1011.91	210.21
1012.19	210.24
1012.48	210.50
1012.77	210.29
1013.05	211.26
1013.34	211.24
1013.63	211.52
1013.92	211.55
1014.20	211.31
1014.49	211.48
1014.78	211.50
1015.06	210.93
1015.35	210.95
1015.64	211.33
1015.92	211.50
1016.21	211.81
1016.50	211.76
1016.78	212.26
1017.07	212.45
1017.36	212.19
1017.64	211.76
1017.93	211.86
1018.22	211.29
1018.50	211.24
1018.79	211.05
1019.08	210.02
1019.36	210.14
1019.65	209.93
1019.93	210.45
1020.22	210.76
1020.51	211.71
1020.79	211.40
1021.08	203.50
1021.36	208.50
1021.65	206.50
1021.94	208.50
1022.22	214.00
1022.51	207.50
1022.79	219.50
1023.08	214.00
1023.36	235.50
1023.65	202.50
>>>>>End Processed Spectral Data<<<<<
