SpectraSuite Data File
++++++++++++++++++++++++++++++++++++
Date: Tue Apr 02 18:46:16 EDT 2013
User: group
Dark Spectrum Present: No
Reference Spectrum Present: No
Number of Sampled Component Spectra: 1
Spectrometers: USB2E7196
Integration Time (usec): 580000 (USB2E7196)
Spectra Averaged: 2 (USB2E7196)
Boxcar Smoothing: 10 (USB2E7196)
Correct for Electrical Dark: No (USB2E7196)
Strobe/Lamp Enabled: No (USB2E7196)
Correct for Detector Non-linearity: No (USB2E7196)
Correct for Stray Light: No (USB2E7196)
Number of Pixels in Processed Spectrum: 2048
>>>>>Begin Processed Spectral Data<<<<<
339.09	0.00
339.48	194.00
339.86	197.50
340.24	196.00
340.63	199.00
341.01	229.50
341.39	198.00
341.78	208.00
342.16	210.50
342.54	200.00
342.93	196.76
343.31	206.52
343.69	207.10
344.07	207.50
344.46	208.29
344.84	208.64
345.22	207.52
345.60	208.07
345.99	208.05
346.37	207.93
346.75	208.17
347.13	208.29
347.52	208.36
347.90	208.98
348.28	208.83
348.66	209.24
349.05	208.69
349.43	208.74
349.81	208.95
350.19	209.10
350.57	209.14
350.96	209.07
351.34	209.52
351.72	209.69
352.10	209.79
352.48	209.52
352.87	209.62
353.25	209.83
353.63	209.74
354.01	209.86
354.39	210.10
354.77	210.10
355.15	210.64
355.54	210.45
355.92	209.88
356.30	209.83
356.68	211.00
357.06	211.48
357.44	211.29
357.82	211.07
358.20	212.02
358.58	212.21
358.97	212.67
359.35	212.81
359.73	213.02
360.11	213.02
360.49	213.29
360.87	213.33
361.25	213.40
361.63	214.24
362.01	214.38
362.39	214.17
362.77	214.60
363.15	214.69
363.53	214.74
363.91	214.95
364.29	215.29
364.67	213.33
365.05	213.19
365.43	213.55
365.81	213.81
366.19	213.90
366.57	214.64
366.95	214.62
367.33	214.17
367.71	214.29
368.09	214.74
368.47	214.74
368.85	214.74
369.23	215.38
369.61	214.45
369.99	215.21
370.37	215.45
370.75	216.40
371.13	215.79
371.51	215.62
371.89	215.93
372.27	215.95
372.65	216.33
373.03	216.60
373.41	216.52
373.78	216.76
374.16	215.79
374.54	215.14
374.92	214.81
375.30	215.02
375.68	214.55
376.06	214.57
376.44	214.48
376.82	214.62
377.19	214.43
377.57	214.76
377.95	213.81
378.33	213.76
378.71	212.43
379.09	212.93
379.47	213.29
379.84	213.02
380.22	212.83
380.60	212.55
380.98	212.19
381.36	212.14
381.73	211.67
382.11	211.95
382.49	212.21
382.87	212.02
383.25	211.90
383.62	214.40
384.00	214.05
384.38	214.14
384.76	214.52
385.13	215.00
385.51	214.83
385.89	214.81
386.27	215.05
386.64	215.48
387.02	215.14
387.40	214.74
387.78	214.83
388.15	215.00
388.53	214.76
388.91	214.81
389.29	214.57
389.66	215.00
390.04	214.62
390.42	214.71
390.79	214.86
391.17	214.88
391.55	212.52
391.92	212.48
392.30	212.60
392.68	212.17
393.05	212.10
393.43	212.21
393.81	212.45
394.18	212.10
394.56	212.24
394.94	212.64
395.31	212.74
395.69	213.43
396.06	213.67
396.44	214.07
396.82	213.98
397.19	215.21
397.57	214.98
397.95	215.40
398.32	214.98
398.70	215.21
399.07	215.62
399.45	215.74
399.82	215.76
400.20	215.67
400.58	215.74
400.95	215.02
401.33	215.52
401.70	217.17
402.08	217.24
402.45	217.21
402.83	217.81
403.20	218.00
403.58	217.79
403.95	218.17
404.33	218.67
404.71	218.98
405.08	220.17
405.46	220.64
405.83	221.05
406.21	221.45
406.58	221.95
406.96	222.31
407.33	222.95
407.70	223.79
408.08	225.76
408.45	226.52
408.83	227.71
409.20	228.02
409.58	227.33
409.95	228.67
410.33	229.57
410.70	229.71
411.08	230.88
411.45	231.81
411.82	232.64
412.20	234.07
412.57	236.38
412.95	235.79
413.32	237.26
413.69	238.67
414.07	240.36
414.44	242.19
414.82	244.14
415.19	246.29
415.56	248.31
415.94	249.31
416.31	252.26
416.68	254.79
417.06	258.07
417.43	261.69
417.81	264.86
418.18	268.36
418.55	272.38
418.93	276.45
419.30	280.40
419.67	284.88
420.04	289.10
420.42	293.33
420.79	300.74
421.16	306.43
421.54	313.52
421.91	319.62
422.28	325.86
422.66	332.33
423.03	340.43
423.40	347.05
423.77	354.21
424.15	361.10
424.52	368.93
424.89	377.52
425.26	384.86
425.64	392.57
426.01	400.62
426.38	409.43
426.75	418.67
427.13	427.95
427.50	437.48
427.87	447.55
428.24	457.60
428.61	465.60
428.99	476.45
429.36	486.43
429.73	497.60
430.10	508.88
430.47	521.19
430.85	531.40
431.22	543.90
431.59	558.71
431.96	571.95
432.33	585.95
432.70	599.88
433.08	616.02
433.45	631.38
433.82	646.52
434.19	663.40
434.56	679.62
434.93	695.74
435.30	711.10
435.68	728.62
436.05	745.64
436.42	762.05
436.79	778.21
437.16	795.69
437.53	813.64
437.90	831.19
438.27	847.76
438.64	865.98
439.01	883.24
439.38	897.31
439.75	911.64
440.13	928.36
440.50	943.12
440.87	955.95
441.24	968.43
441.61	983.40
441.98	994.31
442.35	1006.86
442.72	1019.12
443.09	1032.71
443.46	1039.52
443.83	1044.67
444.20	1049.90
444.57	1055.67
444.94	1058.29
445.31	1061.62
445.68	1067.24
446.05	1069.14
446.42	1067.52
446.79	1066.10
447.16	1063.76
447.53	1063.02
447.90	1056.62
448.27	1050.79
448.64	1042.02
449.01	1036.95
449.37	1025.79
449.74	1014.69
450.11	1003.50
450.48	989.14
450.85	973.45
451.22	961.38
451.59	949.67
451.96	938.21
452.33	922.64
452.70	908.83
453.07	891.83
453.43	872.40
453.80	856.02
454.17	840.74
454.54	825.36
454.91	809.38
455.28	793.10
455.65	778.14
456.02	766.57
456.38	753.88
456.75	738.12
457.12	724.79
457.49	712.02
457.86	697.67
458.23	687.55
458.59	675.86
458.96	663.81
459.33	653.60
459.70	643.19
460.07	635.36
460.43	626.10
460.80	617.67
461.17	610.60
461.54	602.29
461.91	594.26
462.27	586.74
462.64	579.62
463.01	572.02
463.38	565.67
463.74	555.14
464.11	548.69
464.48	542.98
464.85	536.71
465.21	532.55
465.58	528.12
465.95	521.71
466.32	517.17
466.68	512.60
467.05	507.05
467.42	502.10
467.78	496.52
468.15	491.69
468.52	488.14
468.88	482.40
469.25	477.86
469.62	474.48
469.98	470.50
470.35	467.10
470.72	463.79
471.08	459.07
471.45	456.38
471.82	454.05
472.18	450.38
472.55	448.19
472.92	444.29
473.28	440.71
473.65	438.14
474.02	435.31
474.38	433.21
474.75	431.74
475.11	429.45
475.48	427.79
475.85	425.98
476.21	423.48
476.58	422.40
476.94	421.17
477.31	419.74
477.67	418.10
478.04	417.40
478.41	416.81
478.77	418.19
479.14	416.67
479.50	416.00
479.87	415.69
480.23	415.40
480.60	414.86
480.96	414.50
481.33	415.21
481.69	415.00
482.06	415.29
482.42	415.67
482.79	416.10
483.15	416.43
483.52	417.12
483.88	417.79
484.25	418.29
484.61	419.14
484.98	420.00
485.34	422.19
485.71	423.40
486.07	424.62
486.44	424.12
486.80	425.76
487.17	426.88
487.53	429.00
487.90	431.14
488.26	434.36
488.62	437.55
488.99	439.43
489.35	442.52
489.72	444.62
490.08	446.88
490.44	449.67
490.81	453.07
491.17	456.31
491.54	460.00
491.90	463.57
492.26	467.36
492.63	471.31
492.99	474.60
493.36	478.95
493.72	483.45
494.08	487.83
494.45	492.93
494.81	498.21
495.17	503.00
495.54	507.90
495.90	512.52
496.26	517.38
496.63	522.86
496.99	528.52
497.35	534.81
497.72	541.07
498.08	547.07
498.44	553.21
498.80	559.31
499.17	565.14
499.53	571.79
499.89	578.64
500.26	585.38
500.62	592.10
500.98	599.19
501.34	605.83
501.71	613.83
502.07	621.10
502.43	627.31
502.79	634.10
503.16	640.95
503.52	647.74
503.88	654.57
504.24	661.69
504.60	668.69
504.97	676.43
505.33	684.02
505.69	692.60
506.05	699.88
506.41	707.48
506.78	715.69
507.14	723.19
507.50	730.45
507.86	737.95
508.22	746.07
508.59	753.31
508.95	761.40
509.31	769.79
509.67	776.71
510.03	784.81
510.39	793.40
510.75	801.48
511.12	809.12
511.48	817.07
511.84	825.45
512.20	833.67
512.56	841.02
512.92	848.26
513.28	855.00
513.64	862.48
514.00	870.17
514.37	877.81
514.73	885.76
515.09	893.76
515.45	900.64
515.81	906.88
516.17	913.48
516.53	919.48
516.89	924.81
517.25	931.98
517.61	939.43
517.97	945.24
518.33	951.62
518.69	958.86
519.05	965.62
519.41	971.52
519.77	978.40
520.13	984.00
520.49	989.00
520.85	994.50
521.21	1001.05
521.57	1006.40
521.93	1011.10
522.29	1015.86
522.65	1020.10
523.01	1025.74
523.37	1031.40
523.73	1037.12
524.09	1042.69
524.45	1047.98
524.81	1052.81
525.17	1057.38
525.53	1062.50
525.89	1067.48
526.25	1071.98
526.61	1074.69
526.97	1078.57
527.33	1082.57
527.68	1089.29
528.04	1094.64
528.40	1098.79
528.76	1102.52
529.12	1107.07
529.48	1111.67
529.84	1115.88
530.20	1120.88
530.56	1125.12
530.91	1129.86
531.27	1133.98
531.63	1138.50
531.99	1142.10
532.35	1146.02
532.71	1149.48
533.07	1153.38
533.42	1159.05
533.78	1163.12
534.14	1168.81
534.50	1173.48
534.86	1177.19
535.21	1178.57
535.57	1183.02
535.93	1186.88
536.29	1191.83
536.65	1195.67
537.00	1198.55
537.36	1202.24
537.72	1205.00
538.08	1208.67
538.44	1210.86
538.79	1213.95
539.15	1216.26
539.51	1220.24
539.87	1223.55
540.22	1226.71
540.58	1230.05
540.94	1231.43
541.29	1234.38
541.65	1236.67
542.01	1239.38
542.37	1241.57
542.72	1244.17
543.08	1245.93
543.44	1249.62
543.79	1250.60
544.15	1253.12
544.51	1257.26
544.87	1260.10
545.22	1263.71
545.58	1265.86
545.94	1269.60
546.29	1272.71
546.65	1275.60
547.01	1277.36
547.36	1280.02
547.72	1283.64
548.07	1285.88
548.43	1288.24
548.79	1289.81
549.14	1291.98
549.50	1294.52
549.86	1296.81
550.21	1299.05
550.57	1302.19
550.92	1303.48
551.28	1306.57
551.64	1309.21
551.99	1311.62
552.35	1313.81
552.70	1315.98
553.06	1319.36
553.41	1321.76
553.77	1325.64
554.13	1329.71
554.48	1333.90
554.84	1338.12
555.19	1340.76
555.55	1345.81
555.90	1349.40
556.26	1353.95
556.61	1358.02
556.97	1361.07
557.32	1364.67
557.68	1369.31
558.03	1372.64
558.39	1376.31
558.74	1379.79
559.10	1383.55
559.45	1386.90
559.81	1391.31
560.16	1394.88
560.52	1399.40
560.87	1403.83
561.23	1406.62
561.58	1411.40
561.94	1414.69
562.29	1417.86
562.64	1422.88
563.00	1425.88
563.35	1430.31
563.71	1434.50
564.06	1439.19
564.42	1444.57
564.77	1450.43
565.12	1456.45
565.48	1463.45
565.83	1470.24
566.19	1476.19
566.54	1481.88
566.89	1487.62
567.25	1494.07
567.60	1501.86
567.96	1508.93
568.31	1515.40
568.66	1522.40
569.02	1526.69
569.37	1532.81
569.72	1538.31
570.08	1542.14
570.43	1547.24
570.78	1553.38
571.14	1558.83
571.49	1564.29
571.84	1569.62
572.20	1574.26
572.55	1579.21
572.90	1582.02
573.26	1586.90
573.61	1590.83
573.96	1595.48
574.31	1600.19
574.67	1603.31
575.02	1606.14
575.37	1608.45
575.72	1611.38
576.08	1614.05
576.43	1617.74
576.78	1621.50
577.13	1625.74
577.49	1629.67
577.84	1633.79
578.19	1637.02
578.54	1641.21
578.90	1645.69
579.25	1648.95
579.60	1652.38
579.95	1654.10
580.30	1658.69
580.66	1662.29
581.01	1666.76
581.36	1670.29
581.71	1673.69
582.06	1678.71
582.42	1682.83
582.77	1686.12
583.12	1689.40
583.47	1693.38
583.82	1697.52
584.17	1700.12
584.53	1704.55
584.88	1708.79
585.23	1712.21
585.58	1715.02
585.93	1717.74
586.28	1720.19
586.63	1723.62
586.98	1727.07
587.34	1731.69
587.69	1734.21
588.04	1735.69
588.39	1738.48
588.74	1739.81
589.09	1742.93
589.44	1743.40
589.79	1745.38
590.14	1747.38
590.49	1748.74
590.84	1749.74
591.19	1751.38
591.54	1753.81
591.89	1754.21
592.25	1757.74
592.60	1759.24
592.95	1760.98
593.30	1763.07
593.65	1764.48
594.00	1765.21
594.35	1771.83
594.70	1771.45
595.05	1772.57
595.40	1773.90
595.75	1774.21
596.10	1776.74
596.45	1777.57
596.80	1778.93
597.15	1779.60
597.50	1780.79
597.85	1783.05
598.19	1783.98
598.54	1785.74
598.89	1786.55
599.24	1787.67
599.59	1786.76
599.94	1787.21
600.29	1787.52
600.64	1786.81
600.99	1787.02
601.34	1788.50
601.69	1783.95
602.04	1784.55
602.39	1784.45
602.74	1784.90
603.08	1784.67
603.43	1784.88
603.78	1783.86
604.13	1783.31
604.48	1782.64
604.83	1782.71
605.18	1782.33
605.53	1782.19
605.87	1780.29
606.22	1779.26
606.57	1777.71
606.92	1776.40
607.27	1775.95
607.62	1776.19
607.96	1776.79
608.31	1776.38
608.66	1774.29
609.01	1772.52
609.36	1772.02
609.70	1771.02
610.05	1768.81
610.40	1767.17
610.75	1764.50
611.10	1763.67
611.44	1761.55
611.79	1759.60
612.14	1756.74
612.49	1753.05
612.83	1750.14
613.18	1747.88
613.53	1744.90
613.88	1742.19
614.22	1739.24
614.57	1735.50
614.92	1731.07
615.27	1727.17
615.61	1722.83
615.96	1719.88
616.31	1715.90
616.65	1712.79
617.00	1708.57
617.35	1705.76
617.70	1702.07
618.04	1698.36
618.39	1694.45
618.74	1692.24
619.08	1687.86
619.43	1684.33
619.78	1681.67
620.12	1679.74
620.47	1675.93
620.82	1672.45
621.16	1668.38
621.51	1665.57
621.85	1661.45
622.20	1657.76
622.55	1653.55
622.89	1651.29
623.24	1647.95
623.59	1644.26
623.93	1639.95
624.28	1636.71
624.62	1635.19
624.97	1632.93
625.32	1629.40
625.66	1625.81
626.01	1620.69
626.35	1618.31
626.70	1615.14
627.04	1612.40
627.39	1606.57
627.73	1603.45
628.08	1600.07
628.43	1596.12
628.77	1591.50
629.12	1588.67
629.46	1585.55
629.81	1581.50
630.15	1576.07
630.50	1570.48
630.84	1566.74
631.19	1561.62
631.53	1557.24
631.88	1550.26
632.22	1544.38
632.57	1540.10
632.91	1534.48
633.26	1530.86
633.60	1525.31
633.95	1519.40
634.29	1513.64
634.64	1509.19
634.98	1503.45
635.32	1500.19
635.67	1496.64
636.01	1492.48
636.36	1487.40
636.70	1482.88
637.05	1478.64
637.39	1474.90
637.73	1471.79
638.08	1467.57
638.42	1463.64
638.77	1459.10
639.11	1454.83
639.45	1450.17
639.80	1444.76
640.14	1440.71
640.49	1434.83
640.83	1429.93
641.17	1426.19
641.52	1420.67
641.86	1416.45
642.20	1412.48
642.55	1406.45
642.89	1401.38
643.23	1395.71
643.58	1391.45
643.92	1385.31
644.26	1379.50
644.61	1374.10
644.95	1367.93
645.29	1361.48
645.64	1356.64
645.98	1350.81
646.32	1345.43
646.66	1339.76
647.01	1333.64
647.35	1328.29
647.69	1323.10
648.04	1317.93
648.38	1311.40
648.72	1306.45
649.06	1300.52
649.41	1293.79
649.75	1286.95
650.09	1280.88
650.43	1274.50
650.78	1266.88
651.12	1260.93
651.46	1254.38
651.80	1248.02
652.14	1241.76
652.49	1235.98
652.83	1229.21
653.17	1222.71
653.51	1216.24
653.85	1210.45
654.20	1204.62
654.54	1196.60
654.88	1190.00
655.22	1183.93
655.56	1177.69
655.90	1170.33
656.25	1164.31
656.59	1158.48
656.93	1152.69
657.27	1146.50
657.61	1141.02
657.95	1135.88
658.29	1129.74
658.64	1124.83
658.98	1118.12
659.32	1111.81
659.66	1105.55
660.00	1099.36
660.34	1092.93
660.68	1086.50
661.02	1080.10
661.36	1073.95
661.70	1068.83
662.05	1063.31
662.39	1057.29
662.73	1052.29
663.07	1048.50
663.41	1042.79
663.75	1036.64
664.09	1030.86
664.43	1025.00
664.77	1018.90
665.11	1012.71
665.45	1006.98
665.79	1001.31
666.13	995.57
666.47	990.10
666.81	984.64
667.15	979.17
667.49	974.60
667.83	969.24
668.17	964.00
668.51	959.21
668.85	954.19
669.19	950.10
669.53	944.05
669.87	937.19
670.21	930.60
670.55	924.38
670.89	920.10
671.23	914.79
671.57	909.43
671.91	903.79
672.25	898.60
672.58	894.45
672.92	888.29
673.26	883.40
673.60	878.29
673.94	872.88
674.28	867.76
674.62	863.29
674.96	858.76
675.30	854.00
675.64	848.93
675.97	843.90
676.31	837.62
676.65	832.83
676.99	829.93
677.33	824.57
677.67	820.57
678.01	814.83
678.34	810.12
678.68	805.93
679.02	801.12
679.36	795.74
679.70	789.98
680.04	784.93
680.37	779.55
680.71	774.29
681.05	769.74
681.39	764.71
681.73	759.43
682.06	754.21
682.40	749.31
682.74	744.90
683.08	740.81
683.42	735.62
683.75	730.88
684.09	724.57
684.43	720.05
684.77	714.40
685.10	709.19
685.44	704.38
685.78	698.52
686.12	693.55
686.45	689.14
686.79	684.17
687.13	680.55
687.46	676.50
687.80	672.64
688.14	668.26
688.48	664.48
688.81	659.71
689.15	656.02
689.49	651.48
689.82	646.40
690.16	640.64
690.50	636.57
690.83	632.33
691.17	627.45
691.51	622.52
691.84	618.79
692.18	615.00
692.52	610.60
692.85	607.26
693.19	604.14
693.52	600.05
693.86	595.88
694.20	591.24
694.53	586.81
694.87	582.36
695.21	578.14
695.54	573.71
695.88	569.36
696.21	564.29
696.55	559.79
696.88	555.93
697.22	552.21
697.56	548.60
697.89	544.43
698.23	541.36
698.56	538.40
698.90	534.50
699.23	530.57
699.57	526.98
699.90	523.10
700.24	518.79
700.58	514.93
700.91	511.79
701.25	510.36
701.58	508.00
701.92	505.24
702.25	501.40
702.59	497.76
702.92	494.40
703.26	491.74
703.59	488.98
703.93	487.86
704.26	484.98
704.60	482.12
704.93	478.98
705.26	475.90
705.60	472.88
705.93	469.71
706.27	467.29
706.60	465.02
706.94	462.83
707.27	459.57
707.61	456.98
707.94	453.81
708.27	448.64
708.61	444.95
708.94	441.90
709.28	439.52
709.61	436.86
709.94	434.50
710.28	431.71
710.61	429.02
710.95	424.52
711.28	423.98
711.61	421.02
711.95	419.19
712.28	416.71
712.61	414.19
712.95	412.93
713.28	411.31
713.61	408.21
713.95	405.26
714.28	403.57
714.61	401.05
714.95	398.93
715.28	396.79
715.61	394.67
715.95	392.45
716.28	390.00
716.61	388.21
716.95	385.93
717.28	383.43
717.61	381.52
717.94	379.29
718.28	375.40
718.61	373.36
718.94	370.95
719.27	368.90
719.61	366.69
719.94	364.45
720.27	361.36
720.60	359.29
720.94	357.29
721.27	355.50
721.60	354.26
721.93	352.48
722.27	351.90
722.60	350.38
722.93	348.83
723.26	347.81
723.59	345.64
723.93	344.21
724.26	342.95
724.59	341.21
724.92	339.67
725.25	338.60
725.59	337.29
725.92	336.29
726.25	335.00
726.58	333.98
726.91	332.00
727.24	331.02
727.57	329.93
727.91	328.36
728.24	327.10
728.57	325.55
728.90	324.43
729.23	322.45
729.56	321.76
729.89	320.48
730.22	318.79
730.55	317.76
730.89	316.40
731.22	314.98
731.55	313.76
731.88	313.05
732.21	311.60
732.54	310.62
732.87	309.48
733.20	308.21
733.53	307.12
733.86	306.26
734.19	305.00
734.52	304.12
734.85	304.71
735.18	303.50
735.51	303.00
735.84	302.07
736.17	301.45
736.50	299.79
736.83	300.98
737.16	300.07
737.49	299.21
737.82	298.52
738.15	297.86
738.48	296.93
738.81	295.81
739.14	294.81
739.47	293.62
739.80	292.40
740.13	291.95
740.46	290.81
740.79	289.69
741.12	288.50
741.45	287.36
741.78	285.24
742.11	284.86
742.44	283.57
742.77	282.88
743.10	281.50
743.43	280.45
743.75	277.48
744.08	279.29
744.41	278.21
744.74	276.98
745.07	276.02
745.40	275.71
745.73	275.62
746.06	274.86
746.39	274.31
746.71	273.38
747.04	271.95
747.37	271.05
747.70	270.64
748.03	270.24
748.36	269.64
748.68	268.67
749.01	267.40
749.34	267.07
749.67	266.67
750.00	266.52
750.33	267.52
750.65	267.12
750.98	263.93
751.31	263.71
751.64	263.31
751.97	264.00
752.29	263.21
752.62	261.88
752.95	261.43
753.28	260.62
753.60	260.14
753.93	260.31
754.26	260.12
754.59	259.12
754.91	258.64
755.24	258.21
755.57	257.98
755.90	257.48
756.22	256.67
756.55	255.57
756.88	254.71
757.20	252.81
757.53	251.57
757.86	251.07
758.19	250.62
758.51	250.40
758.84	248.67
759.17	248.07
759.49	247.76
759.82	248.19
760.15	247.74
760.47	246.98
760.80	246.00
761.13	246.00
761.45	245.36
761.78	244.74
762.11	244.38
762.43	243.74
762.76	243.02
763.08	242.74
763.41	242.64
763.74	242.29
764.06	241.88
764.39	241.76
764.71	241.50
765.04	240.81
765.37	239.95
765.69	239.71
766.02	239.26
766.34	238.79
766.67	237.43
767.00	237.83
767.32	238.90
767.65	239.93
767.97	239.17
768.30	239.07
768.62	239.10
768.95	238.45
769.27	238.07
769.60	238.21
769.92	237.62
770.25	236.95
770.57	236.31
770.90	236.00
771.22	235.67
771.55	235.45
771.87	235.40
772.20	235.17
772.52	236.86
772.85	239.17
773.17	238.88
773.50	238.64
773.82	237.83
774.15	236.55
774.47	235.05
774.80	234.57
775.12	234.29
775.45	233.79
775.77	233.71
776.09	233.67
776.42	233.50
776.74	234.00
777.07	233.79
777.39	233.74
777.72	233.52
778.04	233.57
778.36	233.17
778.69	232.90
779.01	233.31
779.33	231.02
779.66	228.60
779.98	228.26
780.31	228.29
780.63	228.98
780.95	229.17
781.28	229.10
781.60	228.83
781.92	228.86
782.25	228.88
782.57	228.74
782.89	228.50
783.22	228.31
783.54	227.64
783.86	227.64
784.19	227.55
784.51	227.90
784.83	227.40
785.16	227.00
785.48	226.83
785.80	226.31
786.12	226.57
786.45	226.40
786.77	226.48
787.09	225.93
787.42	225.12
787.74	225.14
788.06	224.93
788.38	224.93
788.71	224.45
789.03	224.29
789.35	224.38
789.67	223.93
789.99	223.64
790.32	223.33
790.64	223.71
790.96	225.17
791.28	224.52
791.61	224.19
791.93	224.57
792.25	224.55
792.57	225.88
792.89	225.43
793.21	225.45
793.54	225.10
793.86	225.17
794.18	225.29
794.50	224.69
794.82	224.71
795.14	225.02
795.47	225.29
795.79	225.07
796.11	224.55
796.43	224.38
796.75	224.48
797.07	224.55
797.39	224.05
797.71	222.43
798.04	222.52
798.36	222.67
798.68	222.36
799.00	222.29
799.32	220.83
799.64	221.02
799.96	220.76
800.28	221.26
800.60	220.98
800.92	220.86
801.24	220.71
801.56	220.67
801.89	220.38
802.21	220.60
802.53	220.19
802.85	220.64
803.17	221.74
803.49	221.31
803.81	221.05
804.13	220.86
804.45	220.52
804.77	220.43
805.09	220.40
805.41	220.17
805.73	219.74
806.05	219.21
806.37	218.88
806.69	218.71
807.01	218.31
807.33	218.50
807.65	217.88
807.97	218.55
808.28	218.38
808.60	218.05
808.92	217.60
809.24	219.00
809.56	218.50
809.88	217.76
810.20	217.81
810.52	218.07
810.84	217.74
811.16	217.67
811.48	217.69
811.80	218.40
812.12	218.36
812.43	218.79
812.75	219.17
813.07	219.00
813.39	219.10
813.71	218.64
814.03	218.48
814.35	218.43
814.67	217.81
814.98	217.50
815.30	217.36
815.62	217.26
815.94	215.88
816.26	215.93
816.58	215.50
816.89	215.62
817.21	215.21
817.53	215.26
817.85	215.26
818.17	215.07
818.48	214.14
818.80	214.79
819.12	214.45
819.44	214.17
819.76	213.90
820.07	213.88
820.39	214.17
820.71	214.26
821.03	214.36
821.34	214.33
821.66	214.69
821.98	215.24
822.30	215.00
822.61	216.14
822.93	216.19
823.25	216.02
823.57	215.95
823.88	216.33
824.20	216.38
824.52	216.81
824.83	216.74
825.15	216.74
825.47	216.21
825.79	216.21
826.10	216.38
826.42	216.38
826.74	216.43
827.05	216.38
827.37	216.48
827.69	216.24
828.00	216.33
828.32	216.12
828.64	215.67
828.95	216.93
829.27	216.31
829.58	216.19
829.90	216.45
830.22	216.71
830.53	216.33
830.85	216.17
831.17	215.79
831.48	215.64
831.80	215.64
832.11	215.52
832.43	215.26
832.75	215.02
833.06	216.21
833.38	215.60
833.69	215.50
834.01	215.57
834.32	215.45
834.64	214.88
834.96	214.98
835.27	215.10
835.59	214.36
835.90	213.81
836.22	213.81
836.53	213.55
836.85	213.05
837.16	215.05
837.48	215.29
837.79	215.74
838.11	215.74
838.42	216.00
838.74	216.33
839.05	216.38
839.37	216.17
839.68	214.86
840.00	214.81
840.31	215.07
840.63	214.67
840.94	214.64
841.26	214.52
841.57	214.69
841.88	214.76
842.20	214.52
842.51	214.55
842.83	214.43
843.14	216.17
843.46	216.31
843.77	215.17
844.08	214.88
844.40	214.26
844.71	214.17
845.03	213.69
845.34	213.67
845.65	213.43
845.97	213.76
846.28	214.02
846.60	214.33
846.91	214.19
847.22	214.10
847.54	214.55
847.85	214.81
848.16	214.48
848.48	214.00
848.79	214.57
849.10	214.69
849.42	214.79
849.73	212.98
850.04	213.02
850.36	212.12
850.67	212.48
850.98	212.55
851.30	212.90
851.61	212.86
851.92	212.52
852.23	213.21
852.55	213.05
852.86	213.00
853.17	212.95
853.49	213.24
853.80	213.86
854.11	213.98
854.42	213.98
854.74	213.55
855.05	213.83
855.36	212.86
855.67	213.02
855.99	213.10
856.30	215.48
856.61	215.21
856.92	215.45
857.23	215.40
857.55	215.24
857.86	215.10
858.17	215.45
858.48	215.38
858.79	215.02
859.11	215.29
859.42	215.12
859.73	215.02
860.04	214.95
860.35	214.07
860.66	213.36
860.98	213.57
861.29	214.21
861.60	214.00
861.91	214.62
862.22	214.24
862.53	213.88
862.84	211.52
863.16	212.02
863.47	211.55
863.78	211.48
864.09	211.40
864.40	211.40
864.71	211.60
865.02	211.81
865.33	211.55
865.64	211.43
865.95	211.55
866.27	212.81
866.58	212.43
866.89	212.81
867.20	212.93
867.51	212.71
867.82	212.40
868.13	213.26
868.44	212.69
868.75	213.12
869.06	213.33
869.37	213.52
869.68	212.90
869.99	213.45
870.30	213.48
870.61	213.79
870.92	213.29
871.23	212.93
871.54	213.14
871.85	213.81
872.16	213.90
872.47	213.43
872.78	212.12
873.09	212.40
873.40	212.24
873.71	212.17
874.02	212.24
874.33	212.00
874.64	211.50
874.95	211.79
875.26	211.29
875.56	211.14
875.87	211.00
876.18	211.00
876.49	212.71
876.80	212.52
877.11	212.07
877.42	212.33
877.73	212.40
878.04	212.05
878.35	211.62
878.66	211.60
878.96	211.93
879.27	211.93
879.58	211.81
879.89	211.98
880.20	212.69
880.51	212.79
880.82	212.95
881.12	212.98
881.43	212.81
881.74	212.74
882.05	212.74
882.36	213.02
882.67	213.17
882.97	211.00
883.28	210.74
883.59	211.00
883.90	211.21
884.21	211.45
884.51	211.24
884.82	211.07
885.13	210.90
885.44	210.83
885.74	211.02
886.05	210.83
886.36	210.98
886.67	210.17
886.98	210.95
887.28	211.21
887.59	210.90
887.90	210.74
888.20	210.57
888.51	210.88
888.82	210.21
889.13	210.55
889.43	212.40
889.74	212.40
890.05	212.19
890.35	211.98
890.66	211.60
890.97	211.48
891.28	211.52
891.58	211.64
891.89	211.50
892.20	211.10
892.50	210.76
892.81	210.43
893.12	210.50
893.42	209.40
893.73	209.48
894.04	209.52
894.34	209.69
894.65	209.74
894.95	209.36
895.26	209.95
895.57	210.74
895.87	208.76
896.18	209.10
896.48	209.40
896.79	209.40
897.10	209.81
897.40	210.21
897.71	210.17
898.01	210.00
898.32	210.38
898.63	210.74
898.93	211.00
899.24	211.12
899.54	211.24
899.85	211.31
900.15	211.12
900.46	211.14
900.76	211.31
901.07	211.26
901.38	211.21
901.68	211.26
901.99	210.24
902.29	210.52
902.60	210.29
902.90	209.98
903.21	210.02
903.51	209.76
903.82	210.24
904.12	210.21
904.43	210.55
904.73	210.74
905.03	210.55
905.34	212.81
905.64	212.62
905.95	212.57
906.25	212.64
906.56	212.57
906.86	212.88
907.17	212.71
907.47	212.93
907.77	212.90
908.08	212.55
908.38	212.69
908.69	212.95
908.99	213.52
909.30	214.02
909.60	214.02
909.90	214.36
910.21	213.40
910.51	213.60
910.81	213.38
911.12	213.33
911.42	213.31
911.73	210.88
912.03	211.07
912.33	211.62
912.64	211.62
912.94	211.79
913.24	211.19
913.55	211.31
913.85	211.19
914.15	211.52
914.46	211.67
914.76	211.48
915.06	211.24
915.37	210.86
915.67	210.33
915.97	210.33
916.27	209.62
916.58	209.95
916.88	209.48
917.18	209.64
917.49	210.83
917.79	210.98
918.09	211.36
918.39	211.95
918.70	211.57
919.00	211.38
919.30	211.93
919.60	211.88
919.91	211.50
920.21	211.88
920.51	211.60
920.81	211.62
921.12	211.90
921.42	211.95
921.72	212.17
922.02	212.26
922.32	212.74
922.63	213.07
922.93	214.26
923.23	214.64
923.53	214.21
923.83	213.14
924.13	213.26
924.44	213.43
924.74	213.60
925.04	214.05
925.34	214.33
925.64	213.71
925.94	213.98
926.24	215.05
926.55	214.57
926.85	214.95
927.15	214.86
927.45	214.76
927.75	214.93
928.05	214.90
928.35	214.86
928.65	215.17
928.95	215.29
929.26	214.36
929.56	214.50
929.86	214.81
930.16	214.40
930.46	214.29
930.76	214.24
931.06	213.36
931.36	212.83
931.66	212.93
931.96	213.07
932.26	213.24
932.56	212.71
932.86	213.05
933.16	213.00
933.46	212.76
933.76	212.60
934.06	213.00
934.36	213.79
934.66	213.76
934.96	213.29
935.26	213.31
935.56	213.38
935.86	213.17
936.16	212.90
936.46	212.93
936.76	212.83
937.06	212.48
937.36	212.45
937.66	212.67
937.96	212.55
938.26	212.17
938.56	212.02
938.86	212.12
939.16	212.60
939.46	212.67
939.76	212.98
940.06	212.93
940.35	212.12
940.65	211.12
940.95	211.21
941.25	210.74
941.55	210.52
941.85	210.40
942.15	210.62
942.45	211.07
942.75	210.90
943.04	211.10
943.34	211.74
943.64	211.88
943.94	211.24
944.24	211.55
944.54	211.74
944.84	211.74
945.13	211.29
945.43	210.71
945.73	210.57
946.03	210.17
946.33	209.98
946.62	209.81
946.92	209.55
947.22	209.69
947.52	209.79
947.82	210.05
948.11	210.14
948.41	209.64
948.71	209.38
949.01	209.43
949.31	209.24
949.60	208.98
949.90	208.93
950.20	209.26
950.50	209.10
950.79	208.88
951.09	208.95
951.39	208.95
951.69	208.98
951.98	209.36
952.28	209.95
952.58	210.02
952.87	210.24
953.17	210.67
953.47	210.62
953.76	210.76
954.06	210.50
954.36	210.14
954.66	210.12
954.95	210.71
955.25	211.05
955.55	211.14
955.84	210.74
956.14	211.17
956.44	211.67
956.73	211.43
957.03	211.67
957.32	211.69
957.62	211.57
957.92	212.00
958.21	211.88
958.51	213.95
958.81	214.14
959.10	214.45
959.40	214.88
959.69	215.14
959.99	215.38
960.29	215.45
960.58	215.48
960.88	216.40
961.17	215.93
961.47	215.90
961.76	215.83
962.06	216.31
962.36	216.10
962.65	215.81
962.95	215.76
963.24	215.52
963.54	215.40
963.83	215.57
964.13	215.45
964.42	215.12
964.72	213.36
965.01	213.33
965.31	213.19
965.60	212.76
965.90	213.86
966.19	213.36
966.49	213.26
966.78	213.14
967.08	213.05
967.37	213.31
967.67	213.10
967.96	213.40
968.26	213.36
968.55	213.50
968.85	213.52
969.14	213.74
969.43	213.71
969.73	213.83
970.02	213.79
970.32	213.52
970.61	213.36
970.91	212.81
971.20	212.45
971.49	212.17
971.79	212.31
972.08	210.83
972.38	211.00
972.67	210.90
972.96	211.17
973.26	210.62
973.55	211.14
973.85	210.93
974.14	210.74
974.43	210.79
974.73	210.48
975.02	210.14
975.31	210.17
975.61	210.05
975.90	209.74
976.19	209.71
976.49	209.86
976.78	209.98
977.07	210.05
977.37	210.19
977.66	210.64
977.95	210.36
978.24	210.50
978.54	210.88
978.83	210.95
979.12	211.00
979.42	211.07
979.71	210.45
980.00	210.55
980.29	210.55
980.59	210.05
980.88	210.62
981.17	210.52
981.46	210.43
981.76	210.40
982.05	211.14
982.34	211.10
982.63	210.93
982.93	210.90
983.22	211.38
983.51	211.57
983.80	211.71
984.09	211.93
984.39	211.86
984.68	211.74
984.97	211.69
985.26	211.45
985.55	211.60
985.85	211.12
986.14	211.52
986.43	211.83
986.72	211.71
987.01	210.95
987.30	211.00
987.59	210.74
987.89	210.95
988.18	210.17
988.47	210.17
988.76	210.12
989.05	210.00
989.34	209.90
989.63	210.45
989.92	210.02
990.22	209.69
990.51	209.69
990.80	209.38
991.09	209.55
991.38	209.57
991.67	209.19
991.96	209.10
992.25	208.93
992.54	208.45
992.83	208.67
993.12	208.79
993.41	209.31
993.70	210.31
993.99	210.62
994.28	211.02
994.58	211.33
994.87	211.14
995.16	211.00
995.45	210.86
995.74	209.81
996.03	210.14
996.32	210.38
996.61	210.86
996.90	211.14
997.19	210.95
997.48	211.33
997.77	211.31
998.06	211.52
998.34	211.33
998.63	211.57
998.92	211.60
999.21	211.79
999.50	211.55
999.79	210.76
1000.08	210.67
1000.37	210.60
1000.66	210.31
1000.95	210.79
1001.24	211.17
1001.53	211.19
1001.82	211.52
1002.11	210.90
1002.40	211.24
1002.68	211.60
1002.97	212.93
1003.26	212.98
1003.55	212.29
1003.84	212.67
1004.13	213.43
1004.42	213.38
1004.71	213.14
1004.99	213.02
1005.28	213.43
1005.57	213.31
1005.86	212.90
1006.15	212.81
1006.44	212.55
1006.72	212.88
1007.01	212.64
1007.30	212.45
1007.59	212.21
1007.88	212.00
1008.17	212.38
1008.45	211.81
1008.74	210.83
1009.03	209.83
1009.32	209.86
1009.60	210.14
1009.89	209.88
1010.18	209.05
1010.47	208.95
1010.76	208.98
1011.04	209.14
1011.33	209.12
1011.62	209.48
1011.91	209.76
1012.19	209.83
1012.48	209.86
1012.77	209.57
1013.05	210.19
1013.34	210.26
1013.63	210.40
1013.92	210.69
1014.20	210.55
1014.49	210.64
1014.78	210.93
1015.06	210.24
1015.35	210.19
1015.64	210.50
1015.92	210.67
1016.21	210.86
1016.50	210.86
1016.78	211.12
1017.07	210.83
1017.36	210.43
1017.64	210.10
1017.93	210.40
1018.22	210.19
1018.50	210.31
1018.79	210.38
1019.08	209.86
1019.36	209.90
1019.65	209.60
1019.93	210.14
1020.22	210.45
1020.51	211.64
1020.79	211.36
1021.08	207.50
1021.36	209.00
1021.65	210.50
1021.94	212.50
1022.22	210.50
1022.51	207.50
1022.79	220.00
1023.08	214.50
1023.36	235.50
1023.65	204.50
>>>>>End Processed Spectral Data<<<<<
