SpectraSuite Data File
++++++++++++++++++++++++++++++++++++
Date: Tue Apr 02 18:40:05 EDT 2013
User: group
Dark Spectrum Present: No
Reference Spectrum Present: No
Number of Sampled Component Spectra: 1
Spectrometers: USB2E7196
Integration Time (usec): 580000 (USB2E7196)
Spectra Averaged: 2 (USB2E7196)
Boxcar Smoothing: 10 (USB2E7196)
Correct for Electrical Dark: No (USB2E7196)
Strobe/Lamp Enabled: No (USB2E7196)
Correct for Detector Non-linearity: No (USB2E7196)
Correct for Stray Light: No (USB2E7196)
Number of Pixels in Processed Spectrum: 2048
>>>>>Begin Processed Spectral Data<<<<<
339.09	0.00
339.48	195.50
339.86	198.00
340.24	199.00
340.63	198.50
341.01	235.50
341.39	203.50
341.78	207.00
342.16	217.00
342.54	208.00
342.93	200.19
343.31	210.10
343.69	210.64
344.07	211.31
344.46	212.19
344.84	213.10
345.22	211.93
345.60	212.36
345.99	212.71
346.37	212.31
346.75	212.45
347.13	212.38
347.52	212.50
347.90	213.21
348.28	213.26
348.66	213.83
349.05	213.40
349.43	213.81
349.81	214.00
350.19	214.24
350.57	214.12
350.96	214.21
351.34	214.52
351.72	214.71
352.10	214.71
352.48	214.38
352.87	214.17
353.25	214.21
353.63	214.21
354.01	214.00
354.39	214.33
354.77	214.38
355.15	215.12
355.54	215.02
355.92	214.38
356.30	214.33
356.68	215.43
357.06	215.14
357.44	214.60
357.82	214.48
358.20	215.38
358.58	215.50
358.97	215.21
359.35	215.36
359.73	215.67
360.11	215.33
360.49	215.36
360.87	215.19
361.25	215.19
361.63	215.86
362.01	215.95
362.39	215.76
362.77	215.74
363.15	215.45
363.53	215.55
363.91	215.81
364.29	215.88
364.67	214.00
365.05	214.07
365.43	214.57
365.81	214.71
366.19	214.76
366.57	215.29
366.95	215.21
367.33	214.79
367.71	214.69
368.09	215.36
368.47	215.48
368.85	215.43
369.23	216.00
369.61	215.02
369.99	215.76
370.37	216.00
370.75	217.05
371.13	216.60
371.51	216.12
371.89	216.05
372.27	216.14
372.65	216.36
373.03	216.40
373.41	215.98
373.78	215.88
374.16	214.90
374.54	214.33
374.92	214.36
375.30	214.57
375.68	214.05
376.06	213.98
376.44	213.71
376.82	213.93
377.19	213.60
377.57	213.62
377.95	212.81
378.33	212.67
378.71	211.36
379.09	211.64
379.47	211.76
379.84	211.55
380.22	211.33
380.60	211.10
380.98	211.21
381.36	211.17
381.73	210.93
382.11	211.29
382.49	211.38
382.87	211.14
383.25	211.19
383.62	213.71
384.00	213.31
384.38	213.40
384.76	213.79
385.13	214.76
385.51	215.02
385.89	214.98
386.27	215.02
386.64	215.60
387.02	215.55
387.40	215.57
387.78	215.81
388.15	215.90
388.53	215.74
388.91	215.86
389.29	215.81
389.66	216.50
390.04	216.05
390.42	216.31
390.79	216.60
391.17	216.40
391.55	214.17
391.92	214.24
392.30	214.36
392.68	213.88
393.05	213.64
393.43	213.50
393.81	213.50
394.18	213.12
394.56	213.02
394.94	213.55
395.31	213.38
395.69	214.10
396.06	214.31
396.44	214.62
396.82	214.24
397.19	215.36
397.57	214.95
397.95	215.52
398.32	215.00
398.70	215.05
399.07	215.64
399.45	215.64
399.82	215.71
400.20	215.71
400.58	215.79
400.95	214.83
401.33	215.31
401.70	216.86
402.08	217.26
402.45	217.24
402.83	217.48
403.20	217.95
403.58	217.43
403.95	218.10
404.33	218.57
404.71	218.98
405.08	219.88
405.46	220.29
405.83	220.69
406.21	221.26
406.58	221.71
406.96	221.81
407.33	222.48
407.70	223.12
408.08	225.33
408.45	226.26
408.83	227.38
409.20	227.93
409.58	227.71
409.95	229.00
410.33	230.24
410.70	230.90
411.08	232.12
411.45	233.52
411.82	234.21
412.20	235.88
412.57	238.62
412.95	238.69
413.32	240.26
413.69	241.62
414.07	243.38
414.44	245.57
414.82	247.76
415.19	250.52
415.56	253.26
415.94	254.55
416.31	257.60
416.68	260.74
417.06	264.33
417.43	267.95
417.81	271.57
418.18	275.45
418.55	279.17
418.93	283.14
419.30	287.67
419.67	292.48
420.04	296.98
420.42	301.33
420.79	308.83
421.16	315.00
421.54	322.45
421.91	329.17
422.28	335.57
422.66	343.17
423.03	351.43
423.40	358.69
423.77	366.81
424.15	374.79
424.52	383.07
424.89	391.95
425.26	400.40
425.64	408.52
426.01	417.55
426.38	427.50
426.75	438.05
427.13	447.79
427.50	458.17
427.87	469.07
428.24	479.50
428.61	489.00
428.99	501.05
429.36	512.38
429.73	524.36
430.10	536.81
430.47	549.05
430.85	560.57
431.22	573.98
431.59	589.14
431.96	602.67
432.33	617.88
432.70	632.52
433.08	649.71
433.45	666.21
433.82	682.17
434.19	700.45
434.56	718.38
434.93	735.69
435.30	752.71
435.68	772.07
436.05	790.52
436.42	808.29
436.79	825.33
437.16	843.93
437.53	863.26
437.90	882.14
438.27	901.40
438.64	921.33
439.01	939.40
439.38	955.31
439.75	970.67
440.13	988.62
440.50	1006.00
440.87	1020.29
441.24	1034.14
441.61	1049.74
441.98	1060.67
442.35	1073.74
442.72	1088.02
443.09	1102.98
443.46	1110.10
443.83	1116.45
444.20	1121.93
444.57	1129.10
444.94	1132.19
445.31	1135.81
445.68	1141.29
446.05	1142.60
446.42	1140.31
446.79	1139.86
447.16	1137.12
447.53	1136.60
447.90	1129.83
448.27	1122.17
448.64	1112.48
449.01	1105.83
449.37	1094.29
449.74	1083.14
450.11	1070.55
450.48	1054.26
450.85	1036.79
451.22	1023.81
451.59	1010.60
451.96	997.67
452.33	980.21
452.70	965.10
453.07	946.69
453.43	926.00
453.80	908.26
454.17	891.71
454.54	874.12
454.91	856.74
455.28	839.12
455.65	822.79
456.02	810.55
456.38	797.02
456.75	780.52
457.12	766.24
457.49	752.10
457.86	737.24
458.23	726.00
458.59	713.90
458.96	700.86
459.33	689.43
459.70	678.69
460.07	670.14
460.43	659.88
460.80	650.79
461.17	643.29
461.54	633.69
461.91	624.93
462.27	616.43
462.64	608.57
463.01	600.83
463.38	594.10
463.74	582.81
464.11	575.29
464.48	569.07
464.85	562.29
465.21	557.69
465.58	551.55
465.95	544.69
466.32	539.05
466.68	533.74
467.05	528.31
467.42	522.26
467.78	516.10
468.15	511.17
468.52	507.21
468.88	501.21
469.25	496.67
469.62	492.90
469.98	488.64
470.35	485.00
470.72	480.86
471.08	475.79
471.45	472.90
471.82	469.98
472.18	466.36
472.55	463.81
472.92	459.67
473.28	457.24
473.65	454.29
474.02	450.88
474.38	448.40
474.75	446.07
475.11	443.69
475.48	441.64
475.85	439.38
476.21	436.81
476.58	435.14
476.94	434.07
477.31	432.79
477.67	431.57
478.04	430.69
478.41	430.33
478.77	431.52
479.14	430.55
479.50	429.60
479.87	429.55
480.23	429.24
480.60	429.07
480.96	428.71
481.33	429.69
481.69	430.19
482.06	430.55
482.42	431.07
482.79	431.52
483.15	431.93
483.52	432.60
483.88	433.57
484.25	434.38
484.61	435.29
484.98	435.83
485.34	437.52
485.71	438.90
486.07	440.10
486.44	439.83
486.80	441.81
487.17	443.64
487.53	445.83
487.90	447.90
488.26	451.10
488.62	453.69
488.99	455.79
489.35	458.45
489.72	460.83
490.08	463.52
490.44	466.76
490.81	470.57
491.17	474.05
491.54	478.12
491.90	482.31
492.26	486.02
492.63	490.12
492.99	494.19
493.36	498.55
493.72	503.17
494.08	507.86
494.45	512.62
494.81	518.17
495.17	522.95
495.54	528.71
495.90	533.33
496.26	538.67
496.63	544.88
496.99	550.71
497.35	557.38
497.72	564.05
498.08	570.62
498.44	576.90
498.80	583.98
499.17	590.45
499.53	597.40
499.89	604.98
500.26	613.02
500.62	619.81
500.98	627.74
501.34	634.90
501.71	643.21
502.07	650.93
502.43	658.33
502.79	666.02
503.16	673.29
503.52	681.36
503.88	688.86
504.24	696.38
504.60	704.55
504.97	713.31
505.33	721.38
505.69	730.60
506.05	739.05
506.41	747.31
506.78	755.62
507.14	763.45
507.50	772.48
507.86	781.17
508.22	790.67
508.59	798.74
508.95	807.48
509.31	817.05
509.67	825.74
510.03	834.10
510.39	843.36
510.75	852.31
511.12	860.88
511.48	870.26
511.84	878.24
512.20	886.40
512.56	894.88
512.92	903.74
513.28	911.93
513.64	920.38
514.00	928.81
514.37	937.60
514.73	946.40
515.09	954.17
515.45	961.81
515.81	968.57
516.17	976.24
516.53	984.14
516.89	990.71
517.25	998.21
517.61	1007.40
517.97	1013.60
518.33	1020.71
518.69	1028.38
519.05	1035.71
519.41	1043.71
519.77	1052.62
520.13	1058.67
520.49	1064.88
520.85	1071.62
521.21	1079.50
521.57	1086.43
521.93	1092.31
522.29	1099.19
522.65	1105.36
523.01	1111.83
523.37	1118.64
523.73	1125.57
524.09	1131.79
524.45	1137.64
524.81	1143.24
525.17	1148.31
525.53	1154.86
525.89	1161.33
526.25	1167.14
526.61	1172.40
526.97	1178.12
527.33	1183.05
527.68	1191.26
528.04	1197.21
528.40	1202.60
528.76	1207.24
529.12	1212.48
529.48	1218.02
529.84	1222.76
530.20	1228.38
530.56	1234.05
530.91	1240.02
531.27	1244.86
531.63	1250.79
531.99	1256.10
532.35	1261.38
532.71	1265.90
533.07	1271.07
533.42	1278.36
533.78	1284.55
534.14	1290.02
534.50	1294.38
534.86	1300.38
535.21	1303.71
535.57	1310.00
535.93	1314.48
536.29	1319.90
536.65	1325.64
537.00	1329.98
537.36	1335.05
537.72	1339.33
538.08	1343.50
538.44	1346.90
538.79	1351.76
539.15	1355.21
539.51	1359.00
539.87	1363.45
540.22	1368.26
540.58	1373.05
540.94	1375.76
541.29	1378.71
541.65	1382.71
542.01	1387.50
542.37	1391.29
542.72	1394.69
543.08	1396.86
543.44	1401.71
543.79	1405.05
544.15	1408.33
544.51	1413.57
544.87	1417.55
545.22	1421.81
545.58	1425.98
545.94	1430.69
546.29	1434.00
546.65	1438.50
547.01	1442.62
547.36	1446.76
547.72	1450.48
548.07	1454.60
548.43	1457.98
548.79	1461.60
549.14	1465.19
549.50	1469.24
549.86	1471.31
550.21	1475.40
550.57	1480.21
550.92	1483.26
551.28	1486.71
551.64	1490.36
551.99	1493.52
552.35	1496.33
552.70	1499.71
553.06	1503.45
553.41	1507.12
553.77	1512.40
554.13	1516.90
554.48	1521.38
554.84	1526.00
555.19	1531.48
555.55	1536.62
555.90	1540.29
556.26	1545.07
556.61	1548.48
556.97	1551.81
557.32	1556.21
557.68	1559.86
558.03	1563.24
558.39	1567.93
558.74	1572.29
559.10	1576.93
559.45	1582.33
559.81	1587.69
560.16	1592.62
560.52	1596.67
560.87	1601.05
561.23	1604.48
561.58	1610.05
561.94	1615.02
562.29	1619.24
562.64	1622.38
563.00	1626.02
563.35	1630.55
563.71	1634.98
564.06	1640.74
564.42	1645.79
564.77	1651.36
565.12	1657.69
565.48	1665.33
565.83	1670.26
566.19	1675.93
566.54	1680.55
566.89	1684.83
567.25	1689.81
567.60	1695.81
567.96	1702.93
568.31	1708.69
568.66	1714.95
569.02	1717.98
569.37	1721.95
569.72	1725.76
570.08	1730.52
570.43	1734.93
570.78	1739.81
571.14	1743.79
571.49	1748.19
571.84	1752.38
572.20	1756.88
572.55	1759.67
572.90	1761.33
573.26	1763.40
573.61	1766.05
573.96	1769.52
574.31	1772.14
574.67	1775.29
575.02	1777.17
575.37	1778.00
575.72	1780.19
576.08	1782.48
576.43	1784.21
576.78	1785.55
577.13	1787.79
577.49	1789.14
577.84	1791.55
578.19	1793.43
578.54	1796.24
578.90	1798.12
579.25	1800.52
579.60	1800.95
579.95	1801.79
580.30	1803.67
580.66	1806.31
581.01	1808.21
581.36	1808.81
581.71	1810.24
582.06	1812.60
582.42	1814.05
582.77	1815.26
583.12	1815.64
583.47	1816.69
583.82	1818.21
584.17	1820.29
584.53	1822.93
584.88	1824.19
585.23	1824.12
585.58	1824.33
585.93	1823.86
586.28	1824.00
586.63	1824.36
586.98	1825.90
587.34	1827.40
587.69	1827.36
588.04	1827.31
588.39	1827.38
588.74	1826.67
589.09	1826.00
589.44	1823.64
589.79	1823.50
590.14	1823.26
590.49	1822.74
590.84	1820.38
591.19	1819.48
591.54	1818.14
591.89	1815.40
592.25	1815.64
592.60	1814.48
592.95	1813.64
593.30	1813.21
593.65	1811.43
594.00	1808.31
594.35	1811.76
594.70	1808.52
595.05	1806.67
595.40	1804.31
595.75	1802.55
596.10	1802.40
596.45	1801.81
596.80	1801.12
597.15	1799.57
597.50	1797.26
597.85	1797.24
598.19	1796.05
598.54	1794.83
598.89	1793.74
599.24	1792.90
599.59	1789.74
599.94	1787.88
600.29	1786.76
600.64	1784.67
600.99	1783.86
601.34	1783.10
601.69	1775.26
602.04	1774.14
602.39	1772.14
602.74	1770.71
603.08	1768.57
603.43	1766.74
603.78	1764.05
604.13	1761.05
604.48	1757.21
604.83	1755.31
605.18	1751.38
605.53	1748.38
605.87	1744.88
606.22	1741.55
606.57	1737.93
606.92	1734.67
607.27	1730.98
607.62	1727.05
607.96	1724.14
608.31	1720.36
608.66	1716.71
609.01	1712.98
609.36	1710.02
609.70	1705.38
610.05	1701.43
610.40	1696.88
610.75	1691.40
611.10	1687.74
611.44	1683.81
611.79	1679.50
612.14	1675.00
612.49	1670.19
612.83	1664.69
613.18	1659.74
613.53	1653.88
613.88	1648.45
614.22	1642.71
614.57	1637.86
614.92	1632.74
615.27	1627.26
615.61	1621.83
615.96	1615.69
616.31	1609.93
616.65	1604.67
617.00	1600.57
617.35	1595.31
617.70	1590.07
618.04	1584.64
618.39	1578.05
618.74	1572.60
619.08	1566.93
619.43	1560.98
619.78	1555.40
620.12	1551.02
620.47	1546.07
620.82	1540.74
621.16	1534.45
621.51	1531.36
621.85	1525.74
622.20	1519.40
622.55	1513.02
622.89	1506.93
623.24	1502.14
623.59	1496.71
623.93	1490.83
624.28	1484.48
624.62	1481.24
624.97	1476.86
625.32	1471.67
625.66	1466.79
626.01	1460.24
626.35	1455.79
626.70	1450.50
627.04	1445.83
627.39	1440.52
627.73	1435.55
628.08	1431.98
628.43	1427.52
628.77	1420.52
629.12	1415.52
629.46	1410.90
629.81	1405.48
630.15	1399.38
630.50	1393.55
630.84	1387.43
631.19	1380.83
631.53	1375.19
631.88	1365.69
632.22	1357.24
632.57	1351.86
632.91	1345.10
633.26	1340.31
633.60	1333.21
633.95	1326.88
634.29	1320.07
634.64	1313.55
634.98	1305.95
635.32	1298.93
635.67	1294.00
636.01	1288.05
636.36	1280.98
636.70	1275.05
637.05	1269.26
637.39	1263.79
637.73	1258.14
638.08	1253.38
638.42	1248.00
638.77	1242.24
639.11	1236.90
639.45	1232.90
639.80	1226.07
640.14	1220.19
640.49	1213.50
640.83	1207.43
641.17	1201.24
641.52	1194.48
641.86	1187.81
642.20	1183.52
642.55	1177.05
642.89	1169.64
643.23	1163.24
643.58	1158.57
643.92	1150.71
644.26	1143.62
644.61	1137.57
644.95	1131.12
645.29	1123.19
645.64	1116.90
645.98	1110.14
646.32	1104.33
646.66	1096.76
647.01	1090.64
647.35	1084.98
647.69	1078.62
648.04	1072.86
648.38	1066.55
648.72	1060.74
649.06	1054.50
649.41	1047.05
649.75	1040.07
650.09	1033.31
650.43	1026.21
650.78	1018.52
651.12	1012.40
651.46	1006.19
651.80	999.55
652.14	992.95
652.49	987.21
652.83	980.62
653.17	973.24
653.51	966.40
653.85	960.21
654.20	953.43
654.54	945.86
654.88	938.79
655.22	933.07
655.56	926.19
655.90	919.43
656.25	912.83
656.59	906.21
656.93	900.64
657.27	895.71
657.61	889.36
657.95	883.90
658.29	877.88
658.64	872.69
658.98	866.05
659.32	859.69
659.66	853.88
660.00	848.38
660.34	843.31
660.68	837.43
661.02	831.14
661.36	825.17
661.70	820.02
662.05	815.05
662.39	809.10
662.73	804.52
663.07	800.33
663.41	795.10
663.75	789.45
664.09	783.81
664.43	777.43
664.77	773.00
665.11	767.10
665.45	761.86
665.79	756.55
666.13	751.64
666.47	746.43
666.81	741.17
667.15	735.31
667.49	730.19
667.83	725.93
668.17	721.52
668.51	716.45
668.85	711.62
669.19	707.62
669.53	702.48
669.87	696.76
670.21	690.86
670.55	686.29
670.89	682.74
671.23	677.71
671.57	673.38
671.91	668.69
672.25	664.24
672.58	660.76
672.92	655.33
673.26	651.12
673.60	646.67
673.94	642.38
674.28	638.17
674.62	634.14
674.96	629.50
675.30	625.05
675.64	621.21
675.97	616.48
676.31	611.71
676.65	606.69
676.99	603.67
677.33	599.55
677.67	595.88
678.01	590.86
678.34	587.95
678.68	584.38
679.02	579.93
679.36	576.24
679.70	571.45
680.04	567.86
680.37	564.24
680.71	560.31
681.05	556.57
681.39	552.71
681.73	548.79
682.06	545.05
682.40	540.76
682.74	537.24
683.08	534.76
683.42	530.57
683.75	527.33
684.09	522.69
684.43	519.05
684.77	514.57
685.10	511.17
685.44	506.93
685.78	502.86
686.12	499.76
686.45	495.90
686.79	492.19
687.13	489.26
687.46	485.33
687.80	482.88
688.14	479.45
688.48	476.55
688.81	473.55
689.15	470.69
689.49	468.19
689.82	465.05
690.16	461.38
690.50	458.48
690.83	455.24
691.17	451.69
691.51	449.19
691.84	446.88
692.18	443.95
692.52	441.10
692.85	438.90
693.19	436.43
693.52	433.60
693.86	430.74
694.20	427.38
694.53	424.88
694.87	421.93
695.21	419.45
695.54	416.43
695.88	413.07
696.21	409.76
696.55	407.05
696.88	404.45
697.22	401.74
697.56	399.40
697.89	396.93
698.23	395.48
698.56	392.71
698.90	390.31
699.23	388.00
699.57	385.95
699.90	383.02
700.24	380.43
700.58	378.17
700.91	376.64
701.25	376.52
701.58	375.21
701.92	373.64
702.25	371.67
702.59	369.52
702.92	367.98
703.26	366.50
703.59	364.57
703.93	364.52
704.26	363.12
704.60	361.57
704.93	359.67
705.26	357.50
705.60	356.40
705.93	354.36
706.27	353.14
706.60	351.90
706.94	351.24
707.27	349.69
707.61	348.38
707.94	346.48
708.27	343.14
708.61	340.76
708.94	338.83
709.28	337.21
709.61	335.57
709.94	334.19
710.28	332.45
710.61	331.14
710.95	327.38
711.28	326.88
711.61	325.14
711.95	324.40
712.28	322.98
712.61	321.17
712.95	320.81
713.28	320.05
713.61	318.07
713.95	315.67
714.28	314.69
714.61	313.43
714.95	312.24
715.28	310.69
715.61	309.14
715.95	308.17
716.28	306.81
716.61	306.17
716.95	304.83
717.28	303.69
717.61	302.48
717.94	301.60
718.28	298.95
718.61	297.67
718.94	296.05
719.27	294.64
719.61	293.50
719.94	291.93
720.27	289.93
720.60	288.76
720.94	288.19
721.27	286.76
721.60	286.10
721.93	285.17
722.27	284.93
722.60	284.48
722.93	282.95
723.26	282.36
723.59	281.24
723.93	280.57
724.26	279.98
724.59	279.14
724.92	278.71
725.25	278.74
725.59	278.19
725.92	278.02
726.25	277.48
726.58	276.90
726.91	276.26
727.24	275.90
727.57	275.00
727.91	273.86
728.24	273.55
728.57	272.21
728.90	271.60
729.23	270.40
729.56	270.57
729.89	270.36
730.22	269.57
730.55	268.98
730.89	268.31
731.22	267.24
731.55	266.55
731.88	265.74
732.21	264.50
732.54	263.60
732.87	262.88
733.20	262.57
733.53	261.88
733.86	261.36
734.19	260.31
734.52	260.24
734.85	261.60
735.18	260.69
735.51	260.95
735.84	260.67
736.17	260.90
736.50	259.52
736.83	260.98
737.16	260.48
737.49	259.79
737.82	259.24
738.15	259.21
738.48	258.67
738.81	258.07
739.14	257.57
739.47	257.21
739.80	256.29
740.13	255.76
740.46	255.05
740.79	254.26
741.12	254.10
741.45	253.31
741.78	251.40
742.11	251.64
742.44	250.88
742.77	250.43
743.10	249.21
743.43	248.64
743.75	246.05
744.08	248.14
744.41	247.71
744.74	247.12
745.07	246.00
745.40	245.81
745.73	246.45
746.06	246.07
746.39	245.69
746.71	245.57
747.04	244.90
747.37	244.71
747.70	244.79
748.03	244.57
748.36	244.57
748.68	244.29
749.01	243.24
749.34	243.02
749.67	242.76
750.00	242.98
750.33	243.95
750.65	243.83
750.98	241.02
751.31	240.76
751.64	240.76
751.97	241.93
752.29	241.60
752.62	240.29
752.95	239.98
753.28	239.76
753.60	239.24
753.93	239.67
754.26	239.40
754.59	238.64
754.91	238.12
755.24	237.71
755.57	237.21
755.90	237.07
756.22	236.71
756.55	236.48
756.88	235.64
757.20	234.12
757.53	233.40
757.86	233.05
758.19	233.07
758.51	232.83
758.84	231.67
759.17	231.33
759.49	231.19
759.82	232.02
760.15	231.79
760.47	231.62
760.80	231.07
761.13	231.33
761.45	231.00
761.78	230.76
762.11	230.52
762.43	230.36
762.76	230.07
763.08	229.74
763.41	229.45
763.74	229.76
764.06	229.64
764.39	229.43
764.71	229.24
765.04	228.95
765.37	228.40
765.69	227.98
766.02	227.55
766.34	227.36
766.67	226.38
767.00	226.67
767.32	227.48
767.65	228.31
767.97	227.93
768.30	228.14
768.62	228.05
768.95	227.98
769.27	227.62
769.60	227.69
769.92	227.57
770.25	227.10
770.57	226.43
770.90	226.33
771.22	226.10
771.55	226.14
771.87	226.19
772.20	226.12
772.52	228.00
772.85	230.60
773.17	230.48
773.50	230.17
773.82	229.57
774.15	228.71
774.47	227.40
774.80	226.93
775.12	226.69
775.45	226.45
775.77	226.17
776.09	226.48
776.42	226.52
776.74	226.81
777.07	226.55
777.39	226.74
777.72	226.31
778.04	226.62
778.36	226.14
778.69	225.93
779.01	226.12
779.33	224.02
779.66	221.45
779.98	221.05
780.31	221.05
780.63	221.90
780.95	222.00
781.28	221.90
781.60	221.74
781.92	221.74
782.25	221.98
782.57	221.71
782.89	221.24
783.22	220.83
783.54	220.33
783.86	220.38
784.19	219.95
784.51	220.74
784.83	220.24
785.16	220.48
785.48	220.17
785.80	220.05
786.12	220.24
786.45	220.14
786.77	220.38
787.09	220.40
787.42	219.71
787.74	219.76
788.06	219.50
788.38	219.43
788.71	219.00
789.03	218.52
789.35	218.88
789.67	218.76
789.99	218.74
790.32	218.50
790.64	218.69
790.96	220.62
791.28	219.79
791.61	219.86
791.93	219.64
792.25	219.67
792.57	221.00
792.89	220.43
793.21	220.62
793.54	220.40
793.86	219.98
794.18	220.05
794.50	219.60
794.82	219.74
795.14	220.14
795.47	220.57
795.79	220.74
796.11	220.33
796.43	220.12
796.75	220.29
797.07	220.31
797.39	220.19
797.71	218.52
798.04	218.67
798.36	218.69
798.68	218.57
799.00	218.79
799.32	217.60
799.64	218.12
799.96	217.88
800.28	218.26
800.60	218.12
800.92	218.29
801.24	218.00
801.56	218.00
801.89	217.69
802.21	217.79
802.53	217.50
802.85	217.74
803.17	218.81
803.49	218.19
803.81	218.24
804.13	218.52
804.45	218.43
804.77	218.48
805.09	218.55
805.41	218.52
805.73	217.90
806.05	217.52
806.37	217.38
806.69	217.48
807.01	217.26
807.33	217.50
807.65	216.71
807.97	217.76
808.28	217.79
808.60	217.76
808.92	217.48
809.24	218.93
809.56	218.79
809.88	217.88
810.20	218.19
810.52	218.52
810.84	217.64
811.16	217.36
811.48	217.19
811.80	217.83
812.12	217.74
812.43	218.31
812.75	218.40
813.07	218.14
813.39	218.21
813.71	217.76
814.03	217.69
814.35	218.00
814.67	217.14
814.98	217.00
815.30	216.93
815.62	216.64
815.94	215.07
816.26	214.93
816.58	214.69
816.89	214.71
817.21	214.24
817.53	214.76
817.85	215.00
818.17	215.02
818.48	214.00
818.80	214.57
819.12	214.38
819.44	214.05
819.76	213.93
820.07	213.60
820.39	213.95
820.71	213.88
821.03	213.83
821.34	213.79
821.66	213.93
821.98	214.21
822.30	214.21
822.61	215.55
822.93	215.67
823.25	215.62
823.57	215.48
823.88	215.50
824.20	215.33
824.52	215.60
824.83	215.69
825.15	215.81
825.47	215.57
825.79	215.57
826.10	215.52
826.42	215.57
826.74	216.07
827.05	215.81
827.37	216.05
827.69	215.67
828.00	215.93
828.32	215.67
828.64	215.19
828.95	216.33
829.27	215.81
829.58	215.67
829.90	216.19
830.22	216.29
830.53	216.12
830.85	215.88
831.17	215.45
831.48	215.31
831.80	215.24
832.11	215.10
832.43	214.76
832.75	214.69
833.06	216.12
833.38	215.40
833.69	215.36
834.01	215.33
834.32	215.45
834.64	214.83
834.96	215.00
835.27	215.12
835.59	214.36
835.90	213.88
836.22	213.86
836.53	213.50
836.85	213.24
837.16	215.24
837.48	215.43
837.79	216.00
838.11	216.12
838.42	216.14
838.74	216.38
839.05	216.45
839.37	216.62
839.68	215.12
840.00	215.12
840.31	215.62
840.63	215.38
840.94	215.02
841.26	215.00
841.57	215.14
841.88	215.21
842.20	214.67
842.51	214.52
842.83	214.55
843.14	216.26
843.46	216.29
843.77	215.36
844.08	215.10
844.40	214.50
844.71	214.19
845.03	214.00
845.34	213.76
845.65	213.76
845.97	213.79
846.28	213.81
846.60	213.93
846.91	213.26
847.22	213.17
847.54	213.74
847.85	213.86
848.16	213.50
848.48	213.19
848.79	214.26
849.10	214.29
849.42	214.40
849.73	212.40
850.04	212.48
850.36	211.36
850.67	211.79
850.98	211.81
851.30	212.17
851.61	212.21
851.92	212.07
852.23	212.45
852.55	212.57
852.86	212.38
853.17	212.50
853.49	213.17
853.80	213.74
854.11	213.93
854.42	214.31
854.74	214.29
855.05	214.48
855.36	213.50
855.67	213.62
855.99	213.62
856.30	216.12
856.61	216.29
856.92	216.50
857.23	216.38
857.55	216.12
857.86	216.02
858.17	216.36
858.48	216.17
858.79	215.83
859.11	215.88
859.42	215.93
859.73	215.76
860.04	215.57
860.35	214.86
860.66	214.19
860.98	214.17
861.29	214.45
861.60	214.36
861.91	214.81
862.22	214.45
862.53	214.07
862.84	211.52
863.16	211.93
863.47	211.57
863.78	211.55
864.09	211.50
864.40	211.57
864.71	211.48
865.02	211.62
865.33	211.38
865.64	211.14
865.95	211.40
866.27	212.83
866.58	212.81
866.89	213.12
867.20	212.98
867.51	212.60
867.82	212.26
868.13	212.95
868.44	212.55
868.75	212.88
869.06	213.07
869.37	213.62
869.68	212.95
869.99	213.40
870.30	213.33
870.61	213.71
870.92	213.26
871.23	213.19
871.54	213.55
871.85	214.14
872.16	214.24
872.47	214.14
872.78	212.90
873.09	212.98
873.40	212.90
873.71	213.12
874.02	213.33
874.33	213.29
874.64	212.64
874.95	212.98
875.26	212.50
875.56	212.36
875.87	212.02
876.18	211.90
876.49	213.74
876.80	213.74
877.11	213.17
877.42	213.31
877.73	213.60
878.04	213.31
878.35	213.31
878.66	213.40
878.96	213.31
879.27	213.19
879.58	212.95
879.89	212.60
880.20	213.19
880.51	213.10
880.82	213.10
881.12	213.24
881.43	212.83
881.74	212.83
882.05	212.74
882.36	212.88
882.67	213.10
882.97	210.86
883.28	210.71
883.59	210.81
883.90	210.79
884.21	210.83
884.51	210.62
884.82	210.21
885.13	210.31
885.44	210.31
885.74	210.45
886.05	210.45
886.36	210.81
886.67	210.07
886.98	211.05
887.28	211.31
887.59	211.31
887.90	211.48
888.20	211.52
888.51	212.00
888.82	211.69
889.13	211.86
889.43	213.60
889.74	213.33
890.05	213.43
890.35	213.40
890.66	213.17
890.97	213.02
891.28	212.81
891.58	212.69
891.89	212.83
892.20	212.60
892.50	212.52
892.81	212.43
893.12	212.57
893.42	211.57
893.73	211.57
894.04	211.26
894.34	211.31
894.65	211.12
894.95	210.88
895.26	211.10
895.57	211.95
895.87	210.05
896.18	210.52
896.48	210.40
896.79	210.40
897.10	210.67
897.40	210.90
897.71	211.14
898.01	211.00
898.32	211.29
898.63	211.26
898.93	211.52
899.24	211.52
899.54	211.45
899.85	211.55
900.15	211.76
900.46	211.86
900.76	212.19
901.07	212.55
901.38	212.48
901.68	212.62
901.99	211.60
902.29	211.83
902.60	211.69
902.90	211.76
903.21	211.93
903.51	211.62
903.82	212.05
904.12	212.31
904.43	212.40
904.73	212.05
905.03	212.21
905.34	214.00
905.64	213.76
905.95	213.71
906.25	213.57
906.56	213.29
906.86	213.60
907.17	213.31
907.47	213.24
907.77	213.07
908.08	212.67
908.38	212.71
908.69	212.90
908.99	213.40
909.30	213.74
909.60	213.60
909.90	213.83
910.21	213.31
910.51	212.90
910.81	212.81
911.12	213.07
911.42	212.76
911.73	210.62
912.03	210.69
912.33	211.31
912.64	211.55
912.94	211.48
913.24	210.98
913.55	210.74
913.85	210.62
914.15	211.26
914.46	211.69
914.76	211.57
915.06	211.33
915.37	210.98
915.67	210.69
915.97	210.90
916.27	210.62
916.58	210.83
916.88	210.74
917.18	210.79
917.49	212.12
917.79	212.26
918.09	212.64
918.39	213.48
918.70	213.10
919.00	212.95
919.30	213.67
919.60	213.93
919.91	213.71
920.21	213.83
920.51	213.29
920.81	213.17
921.12	213.62
921.42	213.74
921.72	213.62
922.02	213.67
922.32	213.93
922.63	213.86
922.93	214.62
923.23	214.62
923.53	214.43
923.83	212.83
924.13	213.07
924.44	212.90
924.74	213.17
925.04	213.57
925.34	213.55
925.64	212.95
925.94	212.79
926.24	214.02
926.55	213.88
926.85	214.17
927.15	214.00
927.45	213.76
927.75	213.86
928.05	214.14
928.35	214.19
928.65	214.38
928.95	214.52
929.26	213.83
929.56	214.45
929.86	214.83
930.16	214.67
930.46	214.62
930.76	214.67
931.06	213.74
931.36	213.38
931.66	213.57
931.96	213.81
932.26	213.93
932.56	213.14
932.86	213.29
933.16	213.07
933.46	213.05
933.76	212.81
934.06	213.05
934.36	213.67
934.66	213.67
934.96	213.33
935.26	213.31
935.56	213.64
935.86	213.10
936.16	212.76
936.46	212.74
936.76	212.62
937.06	212.57
937.36	212.57
937.66	212.40
937.96	212.31
938.26	211.86
938.56	211.64
938.86	211.86
939.16	212.14
939.46	212.24
939.76	212.57
940.06	212.55
940.35	212.19
940.65	211.31
940.95	211.43
941.25	210.81
941.55	210.76
941.85	210.50
942.15	211.02
942.45	211.55
942.75	211.52
943.04	211.74
943.34	212.02
943.64	211.76
943.94	211.67
944.24	211.81
944.54	211.79
944.84	211.79
945.13	211.26
945.43	210.88
945.73	210.74
946.03	210.38
946.33	210.31
946.62	210.05
946.92	210.10
947.22	210.19
947.52	210.50
947.82	210.79
948.11	210.57
948.41	210.05
948.71	209.36
949.01	209.57
949.31	209.10
949.60	208.93
949.90	209.40
950.20	209.36
950.50	209.36
950.79	209.38
951.09	209.67
951.39	209.76
951.69	209.83
951.98	210.52
952.28	210.74
952.58	210.60
952.87	210.74
953.17	210.79
953.47	210.40
953.76	210.67
954.06	210.29
954.36	210.02
954.66	209.88
954.95	210.57
955.25	210.79
955.55	211.19
955.84	210.81
956.14	211.02
956.44	211.07
956.73	210.64
957.03	210.90
957.32	210.86
957.62	210.71
957.92	211.05
958.21	210.64
958.51	212.93
958.81	213.29
959.10	213.45
959.40	213.90
959.69	214.26
959.99	214.26
960.29	214.24
960.58	214.48
960.88	215.45
961.17	215.14
961.47	215.17
961.76	214.93
962.06	215.38
962.36	214.81
962.65	215.17
962.95	215.19
963.24	214.95
963.54	215.19
963.83	215.45
964.13	215.24
964.42	215.00
964.72	213.12
965.01	213.31
965.31	213.14
965.60	212.57
965.90	213.71
966.19	213.33
966.49	213.57
966.78	213.24
967.08	213.02
967.37	212.98
967.67	212.60
967.96	213.05
968.26	212.79
968.55	213.19
968.85	213.05
969.14	213.14
969.43	213.17
969.73	212.98
970.02	212.71
970.32	212.67
970.61	212.57
970.91	212.24
971.20	211.81
971.49	211.69
971.79	212.05
972.08	210.71
972.38	210.88
972.67	210.71
972.96	211.24
973.26	210.52
973.55	211.24
973.85	211.12
974.14	210.88
974.43	211.21
974.73	211.12
975.02	210.71
975.31	210.71
975.61	210.62
975.90	210.33
976.19	210.21
976.49	210.45
976.78	210.69
977.07	210.48
977.37	210.67
977.66	210.98
977.95	210.62
978.24	210.64
978.54	210.83
978.83	210.55
979.12	210.24
979.42	210.38
979.71	209.95
980.00	209.98
980.29	209.83
980.59	209.31
980.88	209.76
981.17	209.88
981.46	209.86
981.76	210.00
982.05	210.50
982.34	210.62
982.63	210.33
982.93	210.38
983.22	211.12
983.51	211.17
983.80	211.40
984.09	211.60
984.39	211.38
984.68	211.29
984.97	211.40
985.26	211.12
985.55	211.24
985.85	210.67
986.14	210.81
986.43	211.31
986.72	211.43
987.01	210.62
987.30	210.67
987.59	210.62
987.89	210.64
988.18	210.24
988.47	210.31
988.76	210.36
989.05	210.19
989.34	209.81
989.63	210.31
989.92	209.90
990.22	209.79
990.51	209.79
990.80	209.74
991.09	210.12
991.38	210.79
991.67	210.64
991.96	210.79
992.25	211.02
992.54	210.52
992.83	210.50
993.12	210.52
993.41	210.76
993.70	211.55
993.99	212.05
994.28	212.36
994.58	212.81
994.87	212.57
995.16	212.40
995.45	212.19
995.74	211.36
996.03	211.69
996.32	212.02
996.61	212.69
996.90	212.76
997.19	212.60
997.48	212.52
997.77	212.57
998.06	212.79
998.34	212.57
998.63	212.74
998.92	212.74
999.21	213.21
999.50	213.17
999.79	212.38
1000.08	212.17
1000.37	212.12
1000.66	211.74
1000.95	212.00
1001.24	212.36
1001.53	212.64
1001.82	212.76
1002.11	212.24
1002.40	212.60
1002.68	212.95
1002.97	214.24
1003.26	214.02
1003.55	213.71
1003.84	213.79
1004.13	214.31
1004.42	214.43
1004.71	214.21
1004.99	214.26
1005.28	214.67
1005.57	214.74
1005.86	214.67
1006.15	214.48
1006.44	214.36
1006.72	214.60
1007.01	214.64
1007.30	214.33
1007.59	213.98
1007.88	213.81
1008.17	213.98
1008.45	213.14
1008.74	212.29
1009.03	211.21
1009.32	211.17
1009.60	211.17
1009.89	210.93
1010.18	210.12
1010.47	209.81
1010.76	209.86
1011.04	209.79
1011.33	209.81
1011.62	209.76
1011.91	209.83
1012.19	209.83
1012.48	210.05
1012.77	209.95
1013.05	210.52
1013.34	210.69
1013.63	210.81
1013.92	211.00
1014.20	211.10
1014.49	211.26
1014.78	211.19
1015.06	210.67
1015.35	210.71
1015.64	211.02
1015.92	211.62
1016.21	211.69
1016.50	211.71
1016.78	212.10
1017.07	212.19
1017.36	211.57
1017.64	211.33
1017.93	211.74
1018.22	211.45
1018.50	211.19
1018.79	211.19
1019.08	210.55
1019.36	210.81
1019.65	210.48
1019.93	211.12
1020.22	211.45
1020.51	212.50
1020.79	212.55
1021.08	206.00
1021.36	209.00
1021.65	213.50
1021.94	210.50
1022.22	216.00
1022.51	206.00
1022.79	221.50
1023.08	216.50
1023.36	234.50
1023.65	208.00
>>>>>End Processed Spectral Data<<<<<
