SpectraSuite Data File
++++++++++++++++++++++++++++++++++++
Date: Tue Apr 02 18:37:41 EDT 2013
User: group
Dark Spectrum Present: No
Reference Spectrum Present: No
Number of Sampled Component Spectra: 1
Spectrometers: USB2E7196
Integration Time (usec): 580000 (USB2E7196)
Spectra Averaged: 2 (USB2E7196)
Boxcar Smoothing: 10 (USB2E7196)
Correct for Electrical Dark: No (USB2E7196)
Strobe/Lamp Enabled: No (USB2E7196)
Correct for Detector Non-linearity: No (USB2E7196)
Correct for Stray Light: No (USB2E7196)
Number of Pixels in Processed Spectrum: 2048
>>>>>Begin Processed Spectral Data<<<<<
339.09	0.00
339.48	195.00
339.86	199.00
340.24	197.50
340.63	199.50
341.01	236.00
341.39	200.50
341.78	207.00
342.16	220.00
342.54	207.50
342.93	199.40
343.31	209.19
343.69	209.76
344.07	210.21
344.46	211.14
344.84	211.69
345.22	210.17
345.60	210.69
345.99	210.74
346.37	210.26
346.75	210.31
347.13	210.40
347.52	210.48
347.90	210.83
348.28	210.71
348.66	211.17
349.05	210.79
349.43	210.98
349.81	211.17
350.19	211.17
350.57	211.10
350.96	211.48
351.34	211.60
351.72	211.67
352.10	211.45
352.48	211.12
352.87	210.98
353.25	211.31
353.63	211.14
354.01	211.07
354.39	211.10
354.77	211.02
355.15	211.36
355.54	210.98
355.92	210.36
356.30	210.52
356.68	211.71
357.06	211.76
357.44	211.33
357.82	211.36
358.20	212.31
358.58	212.17
358.97	212.14
359.35	212.74
359.73	213.19
360.11	213.36
360.49	213.36
360.87	213.50
361.25	213.55
361.63	214.26
362.01	214.81
362.39	214.69
362.77	214.93
363.15	214.74
363.53	214.95
363.91	215.19
364.29	215.14
364.67	213.21
365.05	213.00
365.43	213.29
365.81	213.40
366.19	213.57
366.57	214.55
366.95	214.50
367.33	213.95
367.71	213.71
368.09	213.98
368.47	214.00
368.85	213.71
369.23	214.21
369.61	213.45
369.99	213.88
370.37	214.10
370.75	215.24
371.13	215.12
371.51	214.79
371.89	214.90
372.27	215.10
372.65	215.36
373.03	215.64
373.41	215.45
373.78	215.48
374.16	214.43
374.54	213.64
374.92	213.48
375.30	213.57
375.68	213.24
376.06	213.31
376.44	213.12
376.82	213.57
377.19	213.52
377.57	213.57
377.95	212.95
378.33	212.90
378.71	211.79
379.09	212.31
379.47	212.74
379.84	212.74
380.22	212.55
380.60	212.17
380.98	212.10
381.36	212.45
381.73	212.05
382.11	212.40
382.49	212.57
382.87	212.17
383.25	212.31
383.62	214.83
384.00	214.69
384.38	214.98
384.76	215.24
385.13	216.02
385.51	216.26
385.89	216.05
386.27	216.07
386.64	216.26
387.02	215.88
387.40	215.71
387.78	215.79
388.15	215.95
388.53	215.86
388.91	215.98
389.29	215.60
389.66	216.10
390.04	216.00
390.42	216.31
390.79	216.74
391.17	216.67
391.55	214.43
391.92	214.48
392.30	214.79
392.68	214.24
393.05	213.86
393.43	213.86
393.81	214.05
394.18	213.86
394.56	213.93
394.94	214.26
395.31	214.14
395.69	214.57
396.06	214.79
396.44	215.17
396.82	214.88
397.19	216.21
397.57	216.02
397.95	216.40
398.32	216.02
398.70	216.36
399.07	216.88
399.45	216.74
399.82	216.60
400.20	216.17
400.58	216.50
400.95	215.67
401.33	215.98
401.70	217.31
402.08	217.62
402.45	217.55
402.83	218.12
403.20	218.26
403.58	218.38
403.95	218.69
404.33	219.26
404.71	219.60
405.08	220.62
405.46	221.12
405.83	221.48
406.21	221.88
406.58	222.33
406.96	222.57
407.33	223.50
407.70	224.26
408.08	226.69
408.45	227.55
408.83	229.05
409.20	229.74
409.58	229.45
409.95	230.48
410.33	231.62
410.70	232.07
411.08	233.40
411.45	234.40
411.82	235.33
412.20	237.12
412.57	239.83
412.95	239.88
413.32	241.74
413.69	243.29
414.07	245.19
414.44	247.31
414.82	249.90
415.19	252.57
415.56	255.24
415.94	256.93
416.31	260.31
416.68	263.52
417.06	267.45
417.43	271.57
417.81	275.71
418.18	280.05
418.55	284.52
418.93	289.40
419.30	294.21
419.67	299.74
420.04	304.79
420.42	309.69
420.79	317.81
421.16	324.40
421.54	332.19
421.91	339.29
422.28	346.40
422.66	354.02
423.03	362.88
423.40	371.02
423.77	379.43
424.15	387.64
424.52	396.52
424.89	406.21
425.26	414.98
425.64	424.19
426.01	433.79
426.38	444.31
426.75	455.38
427.13	466.62
427.50	477.95
427.87	489.90
428.24	502.07
428.61	511.81
428.99	524.98
429.36	537.88
429.73	551.48
430.10	565.19
430.47	579.10
430.85	592.43
431.22	608.00
431.59	624.95
431.96	640.05
432.33	657.40
432.70	673.71
433.08	693.02
433.45	711.40
433.82	729.55
434.19	748.90
434.56	769.05
434.93	787.74
435.30	806.76
435.68	827.93
436.05	848.43
436.42	869.21
436.79	888.21
437.16	909.29
437.53	931.40
437.90	953.48
438.27	974.67
438.64	996.02
439.01	1016.74
439.38	1034.71
439.75	1053.29
440.13	1073.17
440.50	1092.12
440.87	1107.62
441.24	1123.62
441.61	1141.33
441.98	1155.07
442.35	1169.90
442.72	1185.52
443.09	1202.12
443.46	1211.43
443.83	1218.26
444.20	1224.05
444.57	1231.21
444.94	1235.14
445.31	1239.07
445.68	1245.19
446.05	1247.48
446.42	1246.86
446.79	1245.52
447.16	1242.67
447.53	1241.79
447.90	1234.33
448.27	1226.95
448.64	1216.21
449.01	1208.67
449.37	1196.50
449.74	1183.69
450.11	1169.38
450.48	1152.38
450.85	1133.36
451.22	1118.12
451.59	1103.67
451.96	1090.86
452.33	1072.88
452.70	1056.00
453.07	1035.24
453.43	1011.93
453.80	992.29
454.17	972.79
454.54	953.45
454.91	934.29
455.28	914.52
455.65	897.07
456.02	883.19
456.38	869.02
456.75	850.36
457.12	833.62
457.49	818.52
457.86	802.26
458.23	789.88
458.59	775.93
458.96	761.74
459.33	749.69
459.70	736.10
460.07	725.90
460.43	714.10
460.80	704.36
461.17	695.64
461.54	685.55
461.91	676.62
462.27	666.90
462.64	658.52
463.01	649.95
463.38	641.60
463.74	628.86
464.11	620.79
464.48	614.48
464.85	607.62
465.21	601.76
465.58	596.00
465.95	588.10
466.32	582.02
466.68	575.95
467.05	569.24
467.42	563.64
467.78	557.48
468.15	551.79
468.52	546.90
468.88	540.36
469.25	534.55
469.62	530.40
469.98	525.90
470.35	521.86
470.72	517.33
471.08	512.14
471.45	509.26
471.82	506.33
472.18	502.45
472.55	498.83
472.92	495.40
473.28	491.83
473.65	488.76
474.02	485.67
474.38	483.29
474.75	480.98
475.11	478.36
475.48	476.74
475.85	474.50
476.21	472.79
476.58	471.57
476.94	470.19
477.31	467.88
477.67	466.24
478.04	465.10
478.41	464.43
478.77	465.76
479.14	464.24
479.50	463.43
479.87	462.86
480.23	462.90
480.60	462.43
480.96	461.88
481.33	463.07
481.69	463.40
482.06	463.67
482.42	464.64
482.79	465.05
483.15	465.21
483.52	466.95
483.88	467.62
484.25	468.74
484.61	470.45
484.98	472.21
485.34	474.76
485.71	476.93
486.07	478.55
486.44	478.79
486.80	481.10
487.17	483.19
487.53	486.24
487.90	489.17
488.26	493.07
488.62	497.36
488.99	499.88
489.35	503.57
489.72	506.86
490.08	510.38
490.44	514.05
490.81	518.57
491.17	522.19
491.54	526.76
491.90	531.36
492.26	536.29
492.63	541.62
492.99	546.26
493.36	551.17
493.72	556.79
494.08	562.69
494.45	568.95
494.81	575.67
495.17	581.55
495.54	588.40
495.90	593.98
496.26	600.33
496.63	607.95
496.99	614.64
497.35	622.64
497.72	630.26
498.08	638.10
498.44	645.69
498.80	654.33
499.17	662.36
499.53	670.64
499.89	679.33
500.26	687.79
500.62	696.88
500.98	706.43
501.34	715.55
501.71	725.07
502.07	734.83
502.43	744.12
502.79	753.52
503.16	762.50
503.52	772.38
503.88	781.17
504.24	790.93
504.60	800.93
504.97	811.26
505.33	821.26
505.69	832.36
506.05	842.90
506.41	852.24
506.78	862.40
507.14	871.98
507.50	881.95
507.86	892.00
508.22	902.83
508.59	912.26
508.95	922.76
509.31	933.52
509.67	943.24
510.03	952.86
510.39	963.31
510.75	973.55
511.12	983.79
511.48	994.60
511.84	1004.14
512.20	1014.67
512.56	1023.86
512.92	1033.81
513.28	1042.98
513.64	1052.21
514.00	1062.29
514.37	1071.93
514.73	1082.29
515.09	1091.93
515.45	1100.90
515.81	1110.45
516.17	1119.21
516.53	1128.02
516.89	1135.10
517.25	1143.21
517.61	1152.07
517.97	1160.62
518.33	1168.98
518.69	1177.12
519.05	1185.98
519.41	1194.38
519.77	1203.26
520.13	1211.07
520.49	1218.64
520.85	1226.24
521.21	1234.36
521.57	1241.86
521.93	1248.36
522.29	1255.50
522.65	1261.26
523.01	1268.24
523.37	1272.86
523.73	1279.62
524.09	1285.29
524.45	1291.71
524.81	1297.90
525.17	1302.98
525.53	1307.83
525.89	1313.05
526.25	1318.76
526.61	1322.50
526.97	1326.60
527.33	1330.60
527.68	1336.93
528.04	1340.83
528.40	1344.76
528.76	1348.98
529.12	1353.07
529.48	1358.40
529.84	1361.24
530.20	1365.38
530.56	1369.17
530.91	1373.62
531.27	1377.60
531.63	1381.17
531.99	1384.40
532.35	1387.74
532.71	1391.00
533.07	1395.14
533.42	1401.05
533.78	1403.86
534.14	1408.05
534.50	1411.05
534.86	1414.57
535.21	1416.19
535.57	1420.55
535.93	1423.21
536.29	1426.29
536.65	1428.52
537.00	1429.71
537.36	1432.48
537.72	1434.86
538.08	1437.26
538.44	1439.24
538.79	1440.76
539.15	1442.57
539.51	1445.02
539.87	1446.86
540.22	1448.93
540.58	1449.74
540.94	1449.48
541.29	1450.57
541.65	1450.50
542.01	1452.38
542.37	1452.38
542.72	1452.21
543.08	1450.88
543.44	1451.55
543.79	1450.29
544.15	1451.19
544.51	1452.19
544.87	1452.55
545.22	1453.45
545.58	1453.52
545.94	1453.14
546.29	1453.24
546.65	1452.76
547.01	1451.57
547.36	1451.19
547.72	1450.02
548.07	1449.79
548.43	1447.45
548.79	1445.64
549.14	1444.24
549.50	1443.17
549.86	1441.38
550.21	1440.50
550.57	1440.57
550.92	1439.10
551.28	1438.33
551.64	1436.24
551.99	1434.43
552.35	1431.93
552.70	1429.24
553.06	1428.02
553.41	1426.57
553.77	1425.95
554.13	1424.57
554.48	1424.50
554.84	1423.26
555.19	1422.33
555.55	1421.57
555.90	1420.79
556.26	1419.76
556.61	1419.19
556.97	1417.10
557.32	1415.26
557.68	1413.55
558.03	1412.14
558.39	1410.33
558.74	1409.83
559.10	1408.88
559.45	1407.62
559.81	1405.93
560.16	1405.12
560.52	1402.62
560.87	1400.57
561.23	1397.52
561.58	1398.17
561.94	1395.24
562.29	1393.21
562.64	1391.31
563.00	1388.64
563.35	1386.60
563.71	1386.07
564.06	1383.93
564.42	1382.43
564.77	1381.74
565.12	1380.60
565.48	1380.60
565.83	1379.69
566.19	1377.62
566.54	1375.36
566.89	1373.48
567.25	1374.60
567.60	1374.88
567.96	1375.67
568.31	1376.40
568.66	1376.26
569.02	1372.50
569.37	1371.17
569.72	1369.02
570.08	1366.86
570.43	1364.81
570.78	1363.60
571.14	1361.40
571.49	1359.67
571.84	1357.69
572.20	1355.21
572.55	1352.95
572.90	1348.55
573.26	1345.69
573.61	1342.52
573.96	1340.45
574.31	1338.10
574.67	1333.60
575.02	1328.86
575.37	1323.48
575.72	1319.05
576.08	1314.86
576.43	1312.40
576.78	1308.69
577.13	1306.17
577.49	1302.67
577.84	1299.79
578.19	1295.88
578.54	1292.14
578.90	1288.38
579.25	1283.88
579.60	1279.57
579.95	1275.14
580.30	1270.93
580.66	1267.43
581.01	1264.14
581.36	1259.81
581.71	1255.81
582.06	1253.36
582.42	1249.71
582.77	1246.12
583.12	1241.95
583.47	1238.07
583.82	1234.05
584.17	1230.36
584.53	1227.05
584.88	1223.55
585.23	1219.60
585.58	1215.86
585.93	1210.90
586.28	1207.12
586.63	1204.26
586.98	1200.79
587.34	1197.88
587.69	1193.93
588.04	1189.45
588.39	1184.90
588.74	1180.26
589.09	1175.62
589.44	1169.29
589.79	1164.29
590.14	1159.55
590.49	1154.57
590.84	1150.12
591.19	1145.12
591.54	1140.90
591.89	1135.33
592.25	1132.98
592.60	1127.79
592.95	1123.57
593.30	1120.05
593.65	1114.88
594.00	1109.48
594.35	1110.36
594.70	1105.17
595.05	1100.83
595.40	1096.12
595.75	1091.36
596.10	1088.12
596.45	1084.50
596.80	1081.02
597.15	1076.31
597.50	1071.81
597.85	1068.93
598.19	1064.14
598.54	1059.43
598.89	1054.14
599.24	1050.07
599.59	1044.24
599.94	1039.21
600.29	1034.29
600.64	1029.57
600.99	1025.95
601.34	1022.14
601.69	1012.43
602.04	1007.81
602.39	1002.98
602.74	999.36
603.08	995.71
603.43	991.74
603.78	987.07
604.13	982.14
604.48	977.83
604.83	974.33
605.18	969.45
605.53	965.00
605.87	960.95
606.22	956.95
606.57	952.67
606.92	948.10
607.27	944.43
607.62	940.17
607.96	936.52
608.31	932.62
608.66	928.48
609.01	924.24
609.36	920.76
609.70	916.62
610.05	912.38
610.40	907.38
610.75	902.24
611.10	898.10
611.44	893.86
611.79	890.21
612.14	885.57
612.49	880.45
612.83	876.50
613.18	871.71
613.53	867.24
613.88	862.45
614.22	857.33
614.57	852.67
614.92	847.88
615.27	842.81
615.61	837.45
615.96	832.64
616.31	827.79
616.65	823.21
617.00	819.02
617.35	813.90
617.70	809.69
618.04	805.17
618.39	800.43
618.74	796.60
619.08	792.14
619.43	787.79
619.78	783.31
620.12	779.40
620.47	775.71
620.82	772.00
621.16	767.60
621.51	765.05
621.85	761.38
622.20	758.07
622.55	753.62
622.89	749.64
623.24	746.17
623.59	742.74
623.93	739.12
624.28	735.48
624.62	734.21
624.97	732.29
625.32	728.38
625.66	725.00
626.01	720.50
626.35	716.81
626.70	712.83
627.04	710.31
627.39	706.90
627.73	703.79
628.08	700.52
628.43	697.48
628.77	693.14
629.12	689.93
629.46	686.45
629.81	683.40
630.15	680.48
630.50	676.10
630.84	672.60
631.19	668.52
631.53	664.86
631.88	658.76
632.22	653.36
632.57	650.81
632.91	647.12
633.26	644.29
633.60	640.62
633.95	637.62
634.29	633.69
634.64	629.86
634.98	626.14
635.32	623.43
635.67	620.29
636.01	616.52
636.36	612.93
636.70	609.98
637.05	606.62
637.39	603.38
637.73	600.67
638.08	597.86
638.42	594.83
638.77	592.43
639.11	590.24
639.45	587.31
639.80	583.57
640.14	580.71
640.49	577.60
640.83	574.14
641.17	571.10
641.52	568.10
641.86	565.45
642.20	563.62
642.55	559.86
642.89	556.79
643.23	554.40
643.58	552.14
643.92	548.10
644.26	545.17
644.61	542.45
644.95	539.74
645.29	536.71
645.64	534.57
645.98	530.98
646.32	528.40
646.66	525.86
647.01	523.19
647.35	520.05
647.69	517.76
648.04	516.05
648.38	513.76
648.72	511.71
649.06	508.14
649.41	503.90
649.75	500.98
650.09	498.52
650.43	495.52
650.78	492.57
651.12	490.38
651.46	487.79
651.80	485.26
652.14	482.69
652.49	480.45
652.83	477.19
653.17	474.90
653.51	471.86
653.85	469.83
654.20	467.17
654.54	464.67
654.88	461.86
655.22	460.43
655.56	457.60
655.90	455.07
656.25	453.38
656.59	451.95
656.93	450.29
657.27	448.62
657.61	446.21
657.95	444.05
658.29	441.60
658.64	440.14
658.98	437.76
659.32	435.52
659.66	433.12
660.00	431.45
660.34	429.52
660.68	428.14
661.02	425.45
661.36	423.71
661.70	421.79
662.05	419.90
662.39	417.24
662.73	416.31
663.07	415.38
663.41	413.55
663.75	411.36
664.09	409.26
664.43	406.57
664.77	405.33
665.11	403.21
665.45	401.71
665.79	400.31
666.13	398.64
666.47	396.93
666.81	395.00
667.15	392.95
667.49	391.38
667.83	390.29
668.17	388.93
668.51	387.36
668.85	386.33
669.19	385.55
669.53	383.43
669.87	381.36
670.21	378.86
670.55	377.60
670.89	376.98
671.23	375.62
671.57	374.24
671.91	372.71
672.25	371.52
672.58	371.02
672.92	368.76
673.26	367.21
673.60	365.81
673.94	365.07
674.28	363.98
674.62	363.05
674.96	360.79
675.30	359.64
675.64	358.40
675.97	356.90
676.31	355.05
676.65	353.76
676.99	352.98
677.33	351.38
677.67	350.24
678.01	348.02
678.34	346.86
678.68	346.17
679.02	344.60
679.36	343.14
679.70	341.26
680.04	340.14
680.37	339.05
680.71	337.86
681.05	336.40
681.39	335.19
681.73	333.55
682.06	332.10
682.40	330.74
682.74	329.62
683.08	329.31
683.42	327.95
683.75	327.38
684.09	325.90
684.43	324.90
684.77	323.36
685.10	322.60
685.44	321.69
685.78	320.29
686.12	319.69
686.45	318.71
686.79	317.26
687.13	316.60
687.46	315.81
687.80	315.52
688.14	314.33
688.48	313.48
688.81	312.76
689.15	312.33
689.49	310.98
689.82	310.07
690.16	308.17
690.50	307.36
690.83	306.24
691.17	304.64
691.51	303.79
691.84	303.36
692.18	302.29
692.52	300.98
692.85	300.17
693.19	299.76
693.52	298.83
693.86	298.38
694.20	297.50
694.53	296.74
694.87	295.33
695.21	294.45
695.54	293.26
695.88	292.17
696.21	290.74
696.55	290.31
696.88	289.52
697.22	288.81
697.56	288.05
697.89	287.10
698.23	286.86
698.56	285.81
698.90	285.02
699.23	284.14
699.57	283.64
699.90	282.88
700.24	281.50
700.58	281.10
700.91	280.62
701.25	281.10
701.58	280.67
701.92	280.50
702.25	280.05
702.59	279.52
702.92	278.69
703.26	278.33
703.59	277.69
703.93	278.74
704.26	278.52
704.60	277.90
704.93	277.07
705.26	276.12
705.60	275.88
705.93	275.05
706.27	275.31
706.60	274.98
706.94	275.05
707.27	274.29
707.61	273.69
707.94	272.98
708.27	271.14
708.61	269.93
708.94	269.29
709.28	268.67
709.61	267.88
709.94	267.57
710.28	267.24
710.61	266.60
710.95	263.86
711.28	264.67
711.61	264.36
711.95	264.36
712.28	263.62
712.61	262.90
712.95	263.43
713.28	263.33
713.61	262.62
713.95	261.50
714.28	261.02
714.61	260.36
714.95	259.81
715.28	258.95
715.61	258.50
715.95	257.76
716.28	257.29
716.61	257.43
716.95	256.74
717.28	256.19
717.61	255.86
717.94	255.76
718.28	253.79
718.61	253.17
718.94	252.31
719.27	252.31
719.61	252.40
719.94	251.29
720.27	249.93
720.60	249.19
720.94	249.07
721.27	249.17
721.60	249.38
721.93	248.86
722.27	249.48
722.60	249.38
722.93	249.10
723.26	249.00
723.59	248.17
723.93	248.33
724.26	248.21
724.59	247.62
724.92	247.55
725.25	247.67
725.59	247.21
725.92	247.26
726.25	246.76
726.58	246.31
726.91	246.07
727.24	246.05
727.57	246.19
727.91	245.50
728.24	245.45
728.57	244.55
728.90	244.62
729.23	243.71
729.56	244.31
729.89	243.90
730.22	243.24
730.55	243.00
730.89	242.40
731.22	241.52
731.55	241.31
731.88	241.00
732.21	240.33
732.54	240.02
732.87	239.60
733.20	239.36
733.53	239.19
733.86	239.07
734.19	238.50
734.52	238.45
734.85	239.45
735.18	238.67
735.51	239.19
735.84	238.90
736.17	239.12
736.50	238.02
736.83	240.12
737.16	239.88
737.49	239.93
737.82	239.76
738.15	240.24
738.48	240.02
738.81	239.64
739.14	239.07
739.47	238.79
739.80	238.69
740.13	239.00
740.46	238.36
740.79	237.83
741.12	237.55
741.45	237.07
741.78	235.83
742.11	236.33
742.44	235.60
742.77	235.93
743.10	235.31
743.43	234.83
743.75	232.60
744.08	235.21
744.41	234.71
744.74	234.38
745.07	233.57
745.40	233.43
745.73	234.36
746.06	234.43
746.39	234.38
746.71	233.81
747.04	233.07
747.37	232.79
747.70	232.62
748.03	232.81
748.36	232.90
748.68	232.43
749.01	231.69
749.34	231.52
749.67	231.19
750.00	231.29
750.33	232.90
750.65	232.90
750.98	230.12
751.31	230.19
751.64	230.10
751.97	231.31
752.29	231.40
752.62	230.17
752.95	229.88
753.28	229.83
753.60	229.81
753.93	230.19
754.26	230.19
754.59	229.55
754.91	229.31
755.24	228.79
755.57	228.90
755.90	228.67
756.22	228.36
756.55	227.74
756.88	227.29
757.20	225.57
757.53	224.86
757.86	224.88
758.19	224.79
758.51	224.81
758.84	223.69
759.17	223.52
759.49	223.19
759.82	224.24
760.15	224.38
760.47	224.38
760.80	223.86
761.13	224.17
761.45	224.21
761.78	224.19
762.11	224.10
762.43	223.90
762.76	223.98
763.08	224.17
763.41	224.07
763.74	224.10
764.06	224.21
764.39	224.26
764.71	224.05
765.04	223.71
765.37	223.40
765.69	223.31
766.02	223.07
766.34	223.10
766.67	222.17
767.00	222.19
767.32	223.21
767.65	224.14
767.97	223.93
768.30	224.14
768.62	223.79
768.95	223.52
769.27	223.57
769.60	223.60
769.92	223.33
770.25	223.24
770.57	222.98
770.90	222.64
771.22	222.48
771.55	222.52
771.87	222.57
772.20	222.31
772.52	223.86
772.85	226.21
773.17	226.29
773.50	226.07
773.82	225.48
774.15	224.29
774.47	223.24
774.80	223.12
775.12	222.88
775.45	222.62
775.77	222.69
776.09	222.76
776.42	222.74
776.74	223.24
777.07	223.12
777.39	223.00
777.72	222.79
778.04	222.98
778.36	222.52
778.69	222.57
779.01	222.67
779.33	220.74
779.66	218.19
779.98	218.05
780.31	218.21
780.63	219.17
780.95	219.40
781.28	219.14
781.60	218.76
781.92	218.55
782.25	218.86
782.57	218.90
782.89	218.52
783.22	218.24
783.54	217.60
783.86	217.69
784.19	217.64
784.51	218.31
784.83	217.86
785.16	217.83
785.48	217.86
785.80	218.00
786.12	218.40
786.45	218.57
786.77	218.67
787.09	218.21
787.42	217.33
787.74	217.40
788.06	217.50
788.38	217.29
788.71	217.14
789.03	217.00
789.35	217.36
789.67	216.95
789.99	217.17
790.32	216.90
790.64	217.24
790.96	218.83
791.28	217.95
791.61	217.95
791.93	218.24
792.25	218.00
792.57	219.31
792.89	218.60
793.21	218.67
793.54	218.31
793.86	218.36
794.18	218.26
794.50	217.71
794.82	217.69
795.14	218.14
795.47	218.71
795.79	218.88
796.11	218.10
796.43	218.10
796.75	217.88
797.07	217.95
797.39	217.64
797.71	216.02
798.04	216.33
798.36	216.50
798.68	216.19
799.00	216.26
799.32	215.14
799.64	215.79
799.96	215.62
800.28	215.88
800.60	215.71
800.92	216.00
801.24	216.14
801.56	216.48
801.89	216.29
802.21	216.38
802.53	215.86
802.85	216.55
803.17	217.71
803.49	217.40
803.81	217.36
804.13	217.48
804.45	217.38
804.77	217.64
805.09	217.26
805.41	217.24
805.73	217.12
806.05	216.64
806.37	216.57
806.69	216.50
807.01	216.69
807.33	216.88
807.65	216.29
807.97	217.00
808.28	216.55
808.60	216.50
808.92	216.21
809.24	217.62
809.56	217.14
809.88	216.10
810.20	216.38
810.52	216.74
810.84	216.19
811.16	216.17
811.48	215.90
811.80	217.05
812.12	216.83
812.43	217.05
812.75	217.31
813.07	217.07
813.39	217.10
813.71	216.69
814.03	216.64
814.35	216.79
814.67	216.12
814.98	215.93
815.30	216.02
815.62	215.43
815.94	214.00
816.26	214.26
816.58	213.98
816.89	214.17
817.21	213.76
817.53	214.12
817.85	214.17
818.17	214.21
818.48	213.33
818.80	213.95
819.12	213.64
819.44	213.26
819.76	213.05
820.07	213.17
820.39	213.05
820.71	213.05
821.03	213.12
821.34	212.90
821.66	213.64
821.98	213.93
822.30	214.29
822.61	215.57
822.93	215.36
823.25	215.52
823.57	215.14
823.88	215.50
824.20	215.33
824.52	215.81
824.83	215.36
825.15	215.21
825.47	215.19
825.79	215.36
826.10	215.24
826.42	215.17
826.74	215.17
827.05	215.29
827.37	215.31
827.69	215.26
828.00	215.40
828.32	215.17
828.64	214.52
828.95	215.38
829.27	214.79
829.58	214.79
829.90	215.14
830.22	215.55
830.53	215.14
830.85	214.95
831.17	214.31
831.48	214.62
831.80	214.64
832.11	214.57
832.43	214.31
832.75	214.38
833.06	215.76
833.38	215.36
833.69	215.31
834.01	215.50
834.32	215.24
834.64	215.19
834.96	214.98
835.27	215.21
835.59	214.48
835.90	214.19
836.22	214.24
836.53	213.79
836.85	213.45
837.16	215.71
837.48	215.74
837.79	216.40
838.11	216.48
838.42	216.36
838.74	216.21
839.05	215.98
839.37	215.86
839.68	214.33
840.00	214.17
840.31	214.36
840.63	214.17
840.94	214.21
841.26	213.79
841.57	213.76
841.88	213.79
842.20	213.81
842.51	213.62
842.83	213.33
843.14	215.31
843.46	215.33
843.77	214.26
844.08	214.33
844.40	213.88
844.71	213.79
845.03	213.64
845.34	213.52
845.65	213.76
845.97	213.76
846.28	213.88
846.60	214.02
846.91	213.81
847.22	213.67
847.54	214.02
847.85	214.31
848.16	214.29
848.48	213.90
848.79	214.74
849.10	215.07
849.42	215.38
849.73	213.62
850.04	213.57
850.36	212.71
850.67	212.98
850.98	213.00
851.30	212.90
851.61	213.05
851.92	213.24
852.23	213.76
852.55	213.98
852.86	214.02
853.17	214.38
853.49	214.83
853.80	215.26
854.11	215.55
854.42	215.81
854.74	215.45
855.05	215.67
855.36	214.64
855.67	214.62
855.99	214.81
856.30	217.21
856.61	217.05
856.92	217.02
857.23	217.02
857.55	216.69
857.86	216.86
858.17	217.24
858.48	216.81
858.79	216.52
859.11	216.74
859.42	216.86
859.73	216.71
860.04	216.21
860.35	215.57
860.66	214.88
860.98	214.76
861.29	215.12
861.60	215.07
861.91	215.26
862.22	214.71
862.53	214.21
862.84	211.57
863.16	212.07
863.47	211.79
863.78	211.67
864.09	211.86
864.40	212.07
864.71	212.00
865.02	212.40
865.33	211.98
865.64	211.52
865.95	211.55
866.27	212.67
866.58	212.79
866.89	213.17
867.20	213.07
867.51	212.88
867.82	212.86
868.13	213.52
868.44	213.33
868.75	213.98
869.06	214.26
869.37	214.52
869.68	214.05
869.99	214.36
870.30	214.38
870.61	214.81
870.92	214.36
871.23	214.10
871.54	214.17
871.85	214.74
872.16	215.17
872.47	214.93
872.78	213.93
873.09	214.14
873.40	213.81
873.71	214.17
874.02	214.29
874.33	214.12
874.64	213.57
874.95	213.93
875.26	213.52
875.56	213.40
875.87	213.52
876.18	213.48
876.49	215.60
876.80	215.55
877.11	214.93
877.42	215.10
877.73	215.31
878.04	215.24
878.35	215.26
878.66	215.19
878.96	215.24
879.27	214.86
879.58	214.60
879.89	214.79
880.20	215.19
880.51	215.05
880.82	215.00
881.12	215.31
881.43	214.52
881.74	214.29
882.05	214.17
882.36	214.17
882.67	214.10
882.97	211.90
883.28	211.57
883.59	211.45
883.90	211.71
884.21	211.69
884.51	211.38
884.82	211.10
885.13	210.93
885.44	210.90
885.74	210.76
886.05	210.81
886.36	210.67
886.67	210.02
886.98	211.02
887.28	211.33
887.59	211.05
887.90	211.38
888.20	211.36
888.51	211.50
888.82	210.98
889.13	211.12
889.43	212.62
889.74	212.50
890.05	212.48
890.35	211.98
890.66	211.86
890.97	211.83
891.28	211.57
891.58	211.81
891.89	211.62
892.20	211.50
892.50	211.45
892.81	211.40
893.12	211.52
893.42	210.48
893.73	210.55
894.04	210.57
894.34	210.71
894.65	210.62
894.95	210.33
895.26	210.69
895.57	211.76
895.87	209.83
896.18	210.38
896.48	210.62
896.79	211.02
897.10	211.48
897.40	211.57
897.71	211.95
898.01	211.74
898.32	212.10
898.63	212.29
898.93	212.43
899.24	212.67
899.54	212.57
899.85	212.60
900.15	212.43
900.46	212.48
900.76	212.76
901.07	212.90
901.38	213.36
901.68	213.74
901.99	212.90
902.29	213.17
902.60	212.88
902.90	212.74
903.21	212.52
903.51	212.24
903.82	212.57
904.12	212.45
904.43	212.62
904.73	212.55
905.03	212.76
905.34	214.62
905.64	214.45
905.95	214.57
906.25	214.71
906.56	214.76
906.86	214.67
907.17	214.38
907.47	214.38
907.77	214.02
908.08	213.57
908.38	213.81
908.69	213.90
908.99	214.29
909.30	214.50
909.60	214.60
909.90	214.64
910.21	214.14
910.51	213.93
910.81	214.00
911.12	213.93
911.42	213.83
911.73	211.76
912.03	211.83
912.33	212.05
912.64	212.07
912.94	211.90
913.24	211.69
913.55	211.62
913.85	211.40
914.15	211.98
914.46	212.12
914.76	211.57
915.06	211.36
915.37	210.90
915.67	210.67
915.97	210.69
916.27	210.31
916.58	210.50
916.88	210.52
917.18	210.21
917.49	211.69
917.79	211.71
918.09	212.12
918.39	212.62
918.70	212.71
919.00	212.48
919.30	213.14
919.60	212.93
919.91	212.71
920.21	213.10
920.51	212.43
920.81	212.29
921.12	212.69
921.42	212.55
921.72	212.98
922.02	213.07
922.32	213.00
922.63	213.12
922.93	213.95
923.23	213.90
923.53	213.74
923.83	212.38
924.13	212.57
924.44	212.43
924.74	212.64
925.04	212.83
925.34	212.90
925.64	212.14
925.94	212.52
926.24	213.79
926.55	213.45
926.85	213.57
927.15	213.62
927.45	213.38
927.75	213.71
928.05	213.40
928.35	213.33
928.65	213.69
928.95	213.81
929.26	213.14
929.56	213.64
929.86	214.14
930.16	214.07
930.46	213.71
930.76	213.62
931.06	212.74
931.36	212.31
931.66	212.76
931.96	213.19
932.26	213.26
932.56	212.26
932.86	212.57
933.16	212.86
933.46	212.64
933.76	212.57
934.06	212.90
934.36	213.64
934.66	213.79
934.96	213.43
935.26	213.64
935.56	214.02
935.86	213.50
936.16	213.10
936.46	213.00
936.76	213.10
937.06	213.02
937.36	213.29
937.66	213.45
937.96	213.48
938.26	213.14
938.56	212.83
938.86	213.10
939.16	213.48
939.46	213.50
939.76	213.60
940.06	213.76
940.35	213.38
940.65	212.60
940.95	212.67
941.25	212.31
941.55	211.93
941.85	211.83
942.15	212.19
942.45	212.83
942.75	212.76
943.04	213.02
943.34	213.38
943.64	213.17
943.94	212.50
944.24	212.26
944.54	212.24
944.84	212.40
945.13	212.21
945.43	211.76
945.73	211.76
946.03	211.50
946.33	211.24
946.62	211.10
946.92	211.02
947.22	211.17
947.52	211.45
947.82	211.83
948.11	211.50
948.41	211.17
948.71	210.50
949.01	210.52
949.31	210.02
949.60	209.79
949.90	210.21
950.20	210.43
950.50	210.24
950.79	210.07
951.09	210.19
951.39	210.02
951.69	209.83
951.98	210.24
952.28	210.69
952.58	210.52
952.87	210.40
953.17	210.62
953.47	210.31
953.76	210.31
954.06	210.05
954.36	209.60
954.66	209.60
954.95	210.29
955.25	210.64
955.55	211.17
955.84	210.90
956.14	210.79
956.44	210.81
956.73	210.64
957.03	210.69
957.32	210.88
957.62	210.93
957.92	211.05
958.21	210.86
958.51	213.12
958.81	213.60
959.10	213.95
959.40	214.45
959.69	214.57
959.99	214.74
960.29	214.64
960.58	214.76
960.88	215.69
961.17	215.36
961.47	215.57
961.76	215.21
962.06	215.71
962.36	215.62
962.65	216.02
962.95	216.10
963.24	215.98
963.54	215.90
963.83	215.90
964.13	216.17
964.42	215.55
964.72	213.81
965.01	213.81
965.31	213.52
965.60	212.95
965.90	214.21
966.19	213.74
966.49	213.93
966.78	213.98
967.08	213.55
967.37	213.60
967.67	212.98
967.96	213.38
968.26	213.07
968.55	213.24
968.85	212.98
969.14	212.88
969.43	212.83
969.73	212.67
970.02	212.81
970.32	212.69
970.61	212.55
970.91	211.81
971.20	211.45
971.49	211.40
971.79	211.48
972.08	210.10
972.38	210.33
972.67	210.05
972.96	210.40
973.26	209.95
973.55	210.43
973.85	210.21
974.14	209.95
974.43	210.17
974.73	209.74
975.02	209.48
975.31	209.57
975.61	209.74
975.90	209.52
976.19	209.00
976.49	209.26
976.78	209.90
977.07	210.07
977.37	210.17
977.66	210.48
977.95	210.29
978.24	210.48
978.54	210.88
978.83	210.81
979.12	210.57
979.42	210.71
979.71	210.14
980.00	210.45
980.29	210.60
980.59	210.19
980.88	210.93
981.17	211.07
981.46	211.19
981.76	211.05
982.05	211.55
982.34	211.86
982.63	211.71
982.93	211.38
983.22	211.74
983.51	211.90
983.80	212.12
984.09	212.38
984.39	212.19
984.68	212.07
984.97	212.02
985.26	211.76
985.55	211.93
985.85	211.81
986.14	212.12
986.43	212.31
986.72	212.26
987.01	211.62
987.30	211.57
987.59	211.38
987.89	211.71
988.18	211.33
988.47	210.95
988.76	210.81
989.05	210.52
989.34	210.19
989.63	210.55
989.92	210.05
990.22	209.83
990.51	209.79
990.80	209.48
991.09	209.95
991.38	210.38
991.67	210.14
991.96	209.83
992.25	209.83
992.54	209.57
992.83	209.62
993.12	209.71
993.41	209.98
993.70	210.98
993.99	211.21
994.28	211.31
994.58	211.69
994.87	211.50
995.16	211.83
995.45	211.93
995.74	211.12
996.03	211.57
996.32	211.88
996.61	212.52
996.90	212.50
997.19	212.33
997.48	212.33
997.77	212.31
998.06	212.48
998.34	212.50
998.63	212.31
998.92	212.48
999.21	212.57
999.50	212.71
999.79	211.90
1000.08	211.67
1000.37	211.79
1000.66	211.67
1000.95	212.10
1001.24	211.90
1001.53	211.90
1001.82	212.10
1002.11	211.74
1002.40	211.81
1002.68	212.00
1002.97	213.55
1003.26	213.21
1003.55	212.86
1003.84	213.12
1004.13	213.88
1004.42	213.45
1004.71	213.45
1004.99	213.33
1005.28	213.86
1005.57	213.57
1005.86	213.43
1006.15	213.55
1006.44	213.43
1006.72	213.71
1007.01	213.29
1007.30	213.38
1007.59	213.48
1007.88	213.38
1008.17	213.40
1008.45	213.05
1008.74	212.12
1009.03	211.05
1009.32	211.00
1009.60	211.00
1009.89	210.57
1010.18	209.74
1010.47	209.79
1010.76	209.76
1011.04	209.57
1011.33	209.40
1011.62	209.69
1011.91	209.69
1012.19	209.57
1012.48	209.45
1012.77	209.31
1013.05	210.29
1013.34	210.50
1013.63	210.38
1013.92	210.62
1014.20	210.48
1014.49	210.52
1014.78	210.76
1015.06	210.24
1015.35	210.43
1015.64	210.71
1015.92	211.14
1016.21	211.48
1016.50	211.48
1016.78	211.93
1017.07	212.17
1017.36	211.95
1017.64	211.67
1017.93	211.98
1018.22	211.76
1018.50	211.67
1018.79	211.81
1019.08	210.88
1019.36	210.83
1019.65	210.50
1019.93	211.00
1020.22	211.45
1020.51	212.55
1020.79	212.24
1021.08	206.50
1021.36	206.50
1021.65	213.50
1021.94	208.50
1022.22	213.00
1022.51	206.50
1022.79	221.50
1023.08	215.50
1023.36	234.50
1023.65	203.00
>>>>>End Processed Spectral Data<<<<<
