SpectraSuite Data File
++++++++++++++++++++++++++++++++++++
Date: Tue Apr 02 18:46:10 EDT 2013
User: group
Dark Spectrum Present: No
Reference Spectrum Present: No
Number of Sampled Component Spectra: 1
Spectrometers: USB2E7196
Integration Time (usec): 580000 (USB2E7196)
Spectra Averaged: 2 (USB2E7196)
Boxcar Smoothing: 10 (USB2E7196)
Correct for Electrical Dark: No (USB2E7196)
Strobe/Lamp Enabled: No (USB2E7196)
Correct for Detector Non-linearity: No (USB2E7196)
Correct for Stray Light: No (USB2E7196)
Number of Pixels in Processed Spectrum: 2048
>>>>>Begin Processed Spectral Data<<<<<
339.09	0.00
339.48	195.00
339.86	193.50
340.24	196.00
340.63	197.00
341.01	230.50
341.39	200.00
341.78	203.00
342.16	215.50
342.54	211.00
342.93	197.64
343.31	207.50
343.69	208.07
344.07	208.62
344.46	209.40
344.84	210.02
345.22	209.05
345.60	209.48
345.99	209.79
346.37	209.62
346.75	209.64
347.13	209.74
347.52	209.74
347.90	210.64
348.28	210.69
348.66	211.10
349.05	210.74
349.43	210.88
349.81	211.14
350.19	211.19
350.57	211.45
350.96	211.71
351.34	212.05
351.72	212.02
352.10	212.07
352.48	212.07
352.87	212.12
353.25	212.26
353.63	212.24
354.01	212.26
354.39	212.36
354.77	212.24
355.15	212.71
355.54	212.74
355.92	212.17
356.30	212.38
356.68	213.52
357.06	213.60
357.44	213.40
357.82	213.26
358.20	214.33
358.58	214.17
358.97	214.29
359.35	214.71
359.73	215.19
360.11	215.40
360.49	215.29
360.87	215.29
361.25	215.26
361.63	216.00
362.01	216.05
362.39	215.93
362.77	216.19
363.15	216.07
363.53	216.19
363.91	216.19
364.29	216.10
364.67	214.19
365.05	214.33
365.43	214.76
365.81	215.02
366.19	215.00
366.57	215.79
366.95	215.67
367.33	215.07
367.71	215.07
368.09	215.43
368.47	215.60
368.85	215.57
369.23	215.88
369.61	215.12
369.99	215.69
370.37	215.76
370.75	216.79
371.13	216.31
371.51	215.79
371.89	216.05
372.27	216.33
372.65	216.36
373.03	216.40
373.41	215.88
373.78	215.62
374.16	214.74
374.54	213.98
374.92	213.83
375.30	213.76
375.68	213.31
376.06	213.12
376.44	213.10
376.82	213.10
377.19	213.12
377.57	213.00
377.95	212.38
378.33	212.43
378.71	211.02
379.09	211.19
379.47	211.69
379.84	211.50
380.22	211.29
380.60	211.12
380.98	210.81
381.36	211.05
381.73	210.83
382.11	211.36
382.49	211.43
382.87	211.12
383.25	211.14
383.62	213.60
384.00	213.29
384.38	213.12
384.76	213.52
385.13	214.14
385.51	214.26
385.89	214.02
386.27	214.19
386.64	214.52
387.02	214.71
387.40	214.52
387.78	214.62
388.15	214.60
388.53	214.45
388.91	214.79
389.29	214.64
389.66	214.98
390.04	214.52
390.42	215.14
390.79	215.45
391.17	215.55
391.55	213.31
391.92	213.43
392.30	213.52
392.68	213.05
393.05	212.81
393.43	212.93
393.81	213.31
394.18	213.00
394.56	213.00
394.94	213.36
395.31	213.21
395.69	213.74
396.06	214.07
396.44	214.36
396.82	213.93
397.19	214.95
397.57	214.88
397.95	215.31
398.32	214.48
398.70	214.62
399.07	214.95
399.45	214.95
399.82	215.12
400.20	215.02
400.58	215.02
400.95	214.31
401.33	214.83
401.70	216.12
402.08	216.07
402.45	216.38
402.83	216.86
403.20	217.10
403.58	217.12
403.95	217.60
404.33	218.21
404.71	218.74
405.08	220.07
405.46	220.29
405.83	220.55
406.21	221.12
406.58	221.48
406.96	221.95
407.33	222.62
407.70	223.38
408.08	225.60
408.45	226.60
408.83	227.83
409.20	228.07
409.58	227.83
409.95	229.00
410.33	229.71
410.70	230.02
411.08	231.36
411.45	232.43
411.82	233.21
412.20	234.62
412.57	236.86
412.95	236.19
413.32	238.00
413.69	239.38
414.07	241.07
414.44	243.17
414.82	244.88
415.19	247.19
415.56	249.29
415.94	250.52
416.31	253.33
416.68	255.98
417.06	259.64
417.43	263.02
417.81	266.64
418.18	270.64
418.55	274.52
418.93	278.62
419.30	282.48
419.67	287.00
420.04	291.45
420.42	295.83
420.79	303.24
421.16	308.90
421.54	315.83
421.91	321.88
422.28	327.45
422.66	333.93
423.03	341.90
423.40	348.64
423.77	355.64
424.15	362.64
424.52	370.50
424.89	378.57
425.26	386.26
425.64	393.71
426.01	401.43
426.38	410.17
426.75	419.60
427.13	428.55
427.50	437.93
427.87	447.62
428.24	457.12
428.61	465.29
428.99	476.69
429.36	486.98
429.73	498.17
430.10	509.98
430.47	522.21
430.85	532.52
431.22	545.19
431.59	559.93
431.96	572.71
432.33	586.45
432.70	600.36
433.08	616.00
433.45	631.33
433.82	646.43
434.19	663.05
434.56	679.50
434.93	695.33
435.30	711.43
435.68	729.21
436.05	746.50
436.42	762.64
436.79	777.93
437.16	794.71
437.53	812.36
437.90	829.74
438.27	846.88
438.64	865.33
439.01	882.50
439.38	896.55
439.75	911.21
440.13	928.48
440.50	943.60
440.87	956.55
441.24	969.19
441.61	984.21
441.98	995.10
442.35	1006.93
442.72	1020.29
443.09	1034.12
443.46	1041.69
443.83	1047.10
444.20	1052.55
444.57	1058.55
444.94	1061.90
445.31	1065.52
445.68	1071.57
446.05	1073.02
446.42	1071.33
446.79	1069.79
447.16	1068.12
447.53	1067.21
447.90	1060.10
448.27	1053.79
448.64	1045.64
449.01	1039.83
449.37	1028.33
449.74	1017.31
450.11	1006.00
450.48	991.17
450.85	974.29
451.22	961.57
451.59	949.24
451.96	937.88
452.33	922.52
452.70	908.36
453.07	891.64
453.43	871.64
453.80	854.81
454.17	839.29
454.54	823.90
454.91	807.36
455.28	791.29
455.65	776.88
456.02	765.71
456.38	752.38
456.75	737.10
457.12	724.81
457.49	712.24
457.86	698.40
458.23	688.31
458.59	676.98
458.96	664.83
459.33	654.79
459.70	644.19
460.07	635.74
460.43	626.36
460.80	617.74
461.17	610.86
461.54	603.50
461.91	595.38
462.27	587.14
462.64	580.10
463.01	572.83
463.38	565.88
463.74	555.10
464.11	548.74
464.48	543.00
464.85	536.19
465.21	531.83
465.58	526.69
465.95	520.17
466.32	515.50
466.68	510.50
467.05	505.48
467.42	500.43
467.78	495.07
468.15	490.14
468.52	486.12
468.88	480.52
469.25	475.29
469.62	472.40
469.98	468.52
470.35	465.38
470.72	461.55
471.08	457.02
471.45	454.67
471.82	452.33
472.18	448.74
472.55	446.05
472.92	442.36
473.28	439.48
473.65	436.90
474.02	434.07
474.38	431.93
474.75	429.95
475.11	427.43
475.48	425.93
475.85	424.33
476.21	422.48
476.58	421.43
476.94	420.52
477.31	418.74
477.67	417.60
478.04	415.98
478.41	415.48
478.77	417.55
479.14	415.69
479.50	414.74
479.87	414.64
480.23	415.02
480.60	414.76
480.96	414.79
481.33	415.38
481.69	415.40
482.06	416.17
482.42	416.43
482.79	417.24
483.15	417.33
483.52	418.07
483.88	418.90
484.25	419.38
484.61	420.48
484.98	421.31
485.34	423.38
485.71	425.29
486.07	426.48
486.44	425.93
486.80	427.95
487.17	429.38
487.53	431.79
487.90	433.74
488.26	436.90
488.62	439.29
488.99	441.21
489.35	444.33
489.72	446.48
490.08	449.00
490.44	451.48
490.81	455.17
491.17	458.10
491.54	461.26
491.90	464.83
492.26	468.33
492.63	472.17
492.99	475.19
493.36	478.98
493.72	483.36
494.08	487.45
494.45	492.43
494.81	497.64
495.17	502.29
495.54	507.26
495.90	511.50
496.26	516.79
496.63	522.26
496.99	526.83
497.35	532.57
497.72	538.98
498.08	545.14
498.44	551.43
498.80	558.19
499.17	564.64
499.53	570.79
499.89	577.40
500.26	583.88
500.62	591.00
500.98	598.12
501.34	605.19
501.71	612.62
502.07	619.24
502.43	625.81
502.79	632.33
503.16	639.02
503.52	646.45
503.88	653.31
504.24	660.57
504.60	668.79
504.97	677.02
505.33	683.57
505.69	692.14
506.05	699.26
506.41	706.40
506.78	714.29
507.14	721.83
507.50	729.05
507.86	737.05
508.22	745.17
508.59	752.26
508.95	759.88
509.31	768.79
509.67	776.76
510.03	784.71
510.39	792.33
510.75	800.86
511.12	808.02
511.48	815.88
511.84	823.29
512.20	830.95
512.56	838.07
512.92	847.21
513.28	854.12
513.64	861.50
514.00	868.76
514.37	875.57
514.73	883.36
515.09	891.40
515.45	897.86
515.81	904.40
516.17	911.21
516.53	917.55
516.89	922.52
517.25	929.00
517.61	935.86
517.97	942.43
518.33	948.71
518.69	956.00
519.05	962.57
519.41	968.79
519.77	976.21
520.13	981.64
520.49	986.33
520.85	992.07
521.21	998.83
521.57	1005.07
521.93	1010.05
522.29	1015.76
522.65	1020.48
523.01	1026.45
523.37	1031.55
523.73	1036.64
524.09	1042.26
524.45	1047.62
524.81	1052.02
525.17	1057.00
525.53	1061.74
525.89	1066.43
526.25	1071.07
526.61	1074.60
526.97	1078.98
527.33	1082.69
527.68	1089.21
528.04	1093.86
528.40	1098.29
528.76	1101.40
529.12	1105.14
529.48	1110.50
529.84	1114.43
530.20	1118.83
530.56	1123.07
530.91	1127.57
531.27	1132.76
531.63	1136.67
531.99	1140.12
532.35	1145.31
532.71	1148.90
533.07	1152.95
533.42	1158.45
533.78	1161.76
534.14	1166.62
534.50	1170.62
534.86	1174.76
535.21	1177.67
535.57	1182.29
535.93	1185.57
536.29	1190.64
536.65	1195.12
537.00	1197.29
537.36	1200.98
537.72	1203.83
538.08	1207.21
538.44	1209.98
538.79	1213.10
539.15	1216.14
539.51	1220.02
539.87	1222.02
540.22	1225.62
540.58	1229.67
540.94	1231.60
541.29	1234.93
541.65	1236.57
542.01	1239.90
542.37	1241.24
542.72	1242.07
543.08	1244.14
543.44	1247.31
543.79	1248.36
544.15	1251.24
544.51	1255.98
544.87	1258.71
545.22	1262.14
545.58	1264.38
545.94	1266.90
546.29	1269.17
546.65	1272.02
547.01	1273.95
547.36	1276.12
547.72	1278.12
548.07	1280.50
548.43	1282.14
548.79	1284.86
549.14	1288.29
549.50	1290.83
549.86	1293.07
550.21	1296.71
550.57	1299.67
550.92	1301.40
551.28	1304.79
551.64	1307.14
551.99	1308.69
552.35	1311.29
552.70	1314.21
553.06	1317.76
553.41	1321.26
553.77	1325.38
554.13	1329.10
554.48	1333.81
554.84	1339.24
555.19	1343.33
555.55	1347.55
555.90	1351.40
556.26	1354.76
556.61	1357.81
556.97	1360.69
557.32	1365.05
557.68	1368.48
558.03	1371.02
558.39	1375.60
558.74	1379.93
559.10	1383.48
559.45	1387.67
559.81	1392.00
560.16	1396.05
560.52	1400.19
560.87	1404.69
561.23	1408.00
561.58	1413.33
561.94	1416.31
562.29	1419.36
562.64	1424.02
563.00	1427.38
563.35	1432.55
563.71	1437.50
564.06	1443.29
564.42	1448.62
564.77	1454.38
565.12	1460.79
565.48	1468.81
565.83	1474.74
566.19	1479.40
566.54	1484.95
566.89	1490.83
567.25	1496.24
567.60	1503.33
567.96	1510.98
568.31	1517.40
568.66	1524.19
569.02	1527.98
569.37	1534.14
569.72	1539.71
570.08	1544.19
570.43	1550.02
570.78	1554.90
571.14	1560.24
571.49	1564.12
571.84	1569.64
572.20	1574.74
572.55	1579.14
572.90	1581.71
573.26	1585.98
573.61	1590.93
573.96	1596.19
574.31	1600.45
574.67	1604.60
575.02	1607.33
575.37	1609.00
575.72	1611.60
576.08	1615.57
576.43	1619.76
576.78	1622.62
577.13	1627.10
577.49	1631.19
577.84	1635.21
578.19	1639.02
578.54	1642.88
578.90	1648.50
579.25	1652.62
579.60	1655.24
579.95	1658.21
580.30	1661.98
580.66	1666.07
581.01	1669.10
581.36	1671.76
581.71	1675.24
582.06	1679.79
582.42	1684.07
582.77	1687.64
583.12	1690.90
583.47	1693.43
583.82	1697.50
584.17	1701.95
584.53	1706.19
584.88	1709.31
585.23	1712.24
585.58	1715.07
585.93	1717.55
586.28	1720.26
586.63	1722.76
586.98	1726.52
587.34	1731.33
587.69	1733.81
588.04	1736.48
588.39	1740.26
588.74	1743.19
589.09	1746.12
589.44	1747.69
589.79	1749.74
590.14	1751.83
590.49	1754.31
590.84	1756.02
591.19	1757.88
591.54	1759.52
591.89	1759.19
592.25	1763.02
592.60	1764.50
592.95	1765.76
593.30	1768.38
593.65	1768.86
594.00	1769.90
594.35	1776.38
594.70	1775.67
595.05	1778.19
595.40	1778.57
595.75	1778.71
596.10	1779.64
596.45	1780.12
596.80	1781.29
597.15	1780.69
597.50	1781.52
597.85	1783.57
598.19	1784.71
598.54	1785.40
598.89	1785.90
599.24	1788.67
599.59	1787.71
599.94	1788.71
600.29	1789.21
600.64	1787.86
600.99	1788.69
601.34	1789.14
601.69	1783.79
602.04	1783.12
602.39	1781.64
602.74	1781.95
603.08	1782.48
603.43	1782.88
603.78	1782.57
604.13	1782.29
604.48	1782.40
604.83	1782.48
605.18	1780.90
605.53	1780.52
605.87	1779.24
606.22	1778.81
606.57	1777.19
606.92	1775.50
607.27	1774.17
607.62	1774.26
607.96	1775.26
608.31	1775.24
608.66	1775.17
609.01	1773.52
609.36	1773.43
609.70	1772.86
610.05	1770.60
610.40	1769.17
610.75	1766.40
611.10	1764.24
611.44	1760.90
611.79	1758.74
612.14	1756.64
612.49	1753.57
612.83	1751.36
613.18	1748.33
613.53	1744.57
613.88	1740.45
614.22	1737.31
614.57	1733.57
614.92	1729.19
615.27	1724.90
615.61	1720.26
615.96	1715.67
616.31	1712.19
616.65	1709.93
617.00	1707.24
617.35	1703.83
617.70	1700.52
618.04	1696.95
618.39	1693.74
618.74	1690.62
619.08	1687.48
619.43	1683.93
619.78	1681.60
620.12	1677.67
620.47	1675.00
620.82	1671.21
621.16	1668.40
621.51	1665.98
621.85	1662.40
622.20	1659.26
622.55	1654.64
622.89	1651.43
623.24	1649.02
623.59	1645.36
623.93	1641.57
624.28	1636.86
624.62	1635.52
624.97	1631.98
625.32	1627.90
625.66	1624.05
626.01	1620.71
626.35	1616.95
626.70	1613.00
627.04	1608.88
627.39	1603.98
627.73	1600.52
628.08	1598.64
628.43	1594.43
628.77	1590.05
629.12	1587.00
629.46	1583.36
629.81	1580.05
630.15	1575.21
630.50	1569.40
630.84	1565.07
631.19	1559.33
631.53	1554.55
631.88	1546.81
632.22	1540.93
632.57	1537.50
632.91	1532.21
633.26	1527.81
633.60	1523.26
633.95	1518.05
634.29	1513.40
634.64	1509.52
634.98	1504.05
635.32	1498.93
635.67	1494.33
636.01	1489.76
636.36	1484.67
636.70	1480.60
637.05	1476.55
637.39	1472.02
637.73	1468.93
638.08	1465.12
638.42	1460.90
638.77	1457.79
639.11	1453.90
639.45	1449.14
639.80	1443.76
640.14	1439.40
640.49	1433.90
640.83	1428.31
641.17	1423.79
641.52	1418.19
641.86	1413.31
642.20	1409.45
642.55	1403.45
642.89	1398.45
643.23	1393.50
643.58	1389.52
643.92	1382.76
644.26	1377.00
644.61	1372.33
644.95	1365.83
645.29	1359.57
645.64	1354.79
645.98	1348.10
646.32	1344.00
646.66	1338.10
647.01	1332.33
647.35	1327.21
647.69	1322.00
648.04	1317.38
648.38	1312.17
648.72	1306.81
649.06	1301.43
649.41	1294.57
649.75	1289.29
650.09	1283.36
650.43	1277.21
650.78	1270.81
651.12	1265.19
651.46	1258.64
651.80	1252.33
652.14	1246.55
652.49	1241.14
652.83	1234.12
653.17	1228.19
653.51	1221.64
653.85	1216.05
654.20	1209.86
654.54	1202.60
654.88	1195.95
655.22	1189.83
655.56	1183.19
655.90	1176.86
656.25	1169.88
656.59	1163.26
656.93	1156.88
657.27	1151.45
657.61	1144.57
657.95	1138.52
658.29	1132.38
658.64	1127.12
658.98	1121.00
659.32	1114.31
659.66	1107.36
660.00	1101.95
660.34	1095.71
660.68	1089.40
661.02	1083.57
661.36	1076.98
661.70	1071.31
662.05	1065.14
662.39	1058.86
662.73	1052.83
663.07	1047.93
663.41	1042.12
663.75	1036.74
664.09	1031.45
664.43	1025.83
664.77	1020.00
665.11	1012.76
665.45	1006.71
665.79	1000.31
666.13	994.21
666.47	988.83
666.81	983.50
667.15	977.48
667.49	971.95
667.83	966.90
668.17	960.88
668.51	956.31
668.85	952.02
669.19	947.83
669.53	942.38
669.87	936.45
670.21	930.36
670.55	924.26
670.89	919.55
671.23	913.62
671.57	907.76
671.91	902.74
672.25	898.17
672.58	894.14
672.92	888.45
673.26	883.26
673.60	878.21
673.94	873.60
674.28	868.12
674.62	863.26
674.96	858.19
675.30	853.62
675.64	848.14
675.97	842.64
676.31	837.00
676.65	831.88
676.99	828.43
677.33	822.90
677.67	818.45
678.01	812.60
678.34	807.93
678.68	802.95
679.02	797.67
679.36	792.40
679.70	786.36
680.04	781.95
680.37	776.88
680.71	771.52
681.05	766.88
681.39	762.31
681.73	757.31
682.06	751.74
682.40	747.38
682.74	743.07
683.08	738.88
683.42	733.83
683.75	728.90
684.09	722.62
684.43	718.57
684.77	714.00
685.10	709.57
685.44	704.38
685.78	699.69
686.12	696.17
686.45	691.07
686.79	686.33
687.13	682.02
687.46	678.17
687.80	674.79
688.14	669.81
688.48	665.69
688.81	660.98
689.15	657.24
689.49	652.17
689.82	647.55
690.16	642.00
690.50	637.55
690.83	632.90
691.17	628.81
691.51	623.81
691.84	619.76
692.18	615.43
692.52	611.60
692.85	608.40
693.19	604.71
693.52	600.64
693.86	596.55
694.20	592.12
694.53	587.74
694.87	583.19
695.21	578.95
695.54	574.12
695.88	569.57
696.21	564.83
696.55	560.71
696.88	556.57
697.22	553.00
697.56	549.93
697.89	546.48
698.23	543.07
698.56	539.50
698.90	535.95
699.23	532.14
699.57	528.26
699.90	524.02
700.24	519.45
700.58	516.29
700.91	513.55
701.25	511.88
701.58	508.86
701.92	506.17
702.25	502.76
702.59	499.76
702.92	496.90
703.26	493.71
703.59	490.52
703.93	489.64
704.26	486.52
704.60	483.00
704.93	479.50
705.26	475.79
705.60	473.48
705.93	469.83
706.27	467.17
706.60	465.02
706.94	462.17
707.27	459.24
707.61	456.38
707.94	452.83
708.27	448.24
708.61	444.93
708.94	441.38
709.28	439.17
709.61	436.17
709.94	433.52
710.28	430.83
710.61	428.07
710.95	423.21
711.28	422.83
711.61	420.40
711.95	418.64
712.28	416.12
712.61	413.07
712.95	412.29
713.28	411.00
713.61	408.14
713.95	405.43
714.28	403.17
714.61	400.62
714.95	398.10
715.28	396.14
715.61	393.55
715.95	391.55
716.28	388.79
716.61	386.81
716.95	384.52
717.28	382.45
717.61	380.83
717.94	379.00
718.28	374.88
718.61	372.83
718.94	370.26
719.27	368.55
719.61	366.71
719.94	363.76
720.27	360.52
720.60	358.52
720.94	356.33
721.27	354.55
721.60	353.29
721.93	352.02
722.27	350.69
722.60	349.48
722.93	347.36
723.26	345.98
723.59	344.19
723.93	342.88
724.26	341.60
724.59	339.62
724.92	338.24
725.25	337.31
725.59	335.81
725.92	334.57
726.25	333.19
726.58	332.00
726.91	330.36
727.24	329.55
727.57	328.14
727.91	326.90
728.24	325.74
728.57	324.21
728.90	323.29
729.23	321.57
729.56	321.26
729.89	320.07
730.22	318.64
730.55	317.50
730.89	316.48
731.22	314.95
731.55	313.62
731.88	312.21
732.21	310.95
732.54	309.69
732.87	308.69
733.20	307.52
733.53	306.31
733.86	305.67
734.19	304.00
734.52	303.19
734.85	303.67
735.18	302.48
735.51	302.19
735.84	301.21
736.17	300.38
736.50	298.45
736.83	299.98
737.16	299.31
737.49	298.57
737.82	297.55
738.15	297.00
738.48	296.26
738.81	295.71
739.14	294.31
739.47	293.40
739.80	292.26
740.13	291.55
740.46	290.17
740.79	288.95
741.12	288.21
741.45	287.00
741.78	284.95
742.11	284.71
742.44	283.07
742.77	282.31
743.10	281.45
743.43	280.62
743.75	277.38
744.08	279.40
744.41	278.50
744.74	277.48
745.07	276.14
745.40	275.64
745.73	275.55
746.06	275.02
746.39	274.50
746.71	273.76
747.04	273.05
747.37	272.55
747.70	272.29
748.03	271.86
748.36	271.33
748.68	270.69
749.01	269.29
749.34	268.76
749.67	268.10
750.00	267.83
750.33	268.60
750.65	268.43
750.98	264.79
751.31	264.17
751.64	263.69
751.97	264.40
752.29	263.71
752.62	262.21
752.95	261.45
753.28	260.52
753.60	260.12
753.93	260.05
754.26	259.74
754.59	258.69
754.91	257.88
755.24	257.36
755.57	256.79
755.90	256.33
756.22	255.76
756.55	254.79
756.88	253.76
757.20	251.79
757.53	250.74
757.86	250.40
758.19	250.21
758.51	249.76
758.84	248.26
759.17	247.81
759.49	247.71
759.82	248.48
760.15	248.19
760.47	247.48
760.80	246.52
761.13	246.38
761.45	245.62
761.78	245.12
762.11	244.48
762.43	243.95
762.76	243.43
763.08	243.38
763.41	243.29
763.74	243.00
764.06	242.71
764.39	242.45
764.71	241.98
765.04	241.62
765.37	241.10
765.69	240.79
766.02	240.19
766.34	239.40
766.67	238.05
767.00	238.12
767.32	238.86
767.65	239.62
767.97	239.07
768.30	239.00
768.62	238.76
768.95	238.60
769.27	238.36
769.60	238.40
769.92	237.76
770.25	237.02
770.57	236.60
770.90	236.31
771.22	235.62
771.55	235.55
771.87	235.02
772.20	234.76
772.52	236.38
772.85	239.00
773.17	238.79
773.50	238.69
773.82	238.26
774.15	237.17
774.47	235.74
774.80	235.31
775.12	235.21
775.45	235.02
775.77	234.55
776.09	234.45
776.42	234.36
776.74	234.62
777.07	234.48
777.39	234.43
777.72	233.86
778.04	234.24
778.36	233.83
778.69	233.74
779.01	233.71
779.33	231.48
779.66	228.88
779.98	228.79
780.31	228.64
780.63	229.19
780.95	229.43
781.28	229.48
781.60	229.17
781.92	229.05
782.25	228.81
782.57	229.05
782.89	228.43
783.22	228.05
783.54	227.48
783.86	227.64
784.19	227.14
784.51	227.76
784.83	227.36
785.16	227.14
785.48	226.90
785.80	226.93
786.12	226.95
786.45	226.62
786.77	226.52
787.09	226.24
787.42	225.29
787.74	225.17
788.06	224.86
788.38	224.79
788.71	224.26
789.03	224.26
789.35	224.19
789.67	223.86
789.99	223.83
790.32	223.57
790.64	223.76
790.96	225.45
791.28	224.52
791.61	224.12
791.93	223.93
792.25	223.76
792.57	224.76
792.89	224.40
793.21	224.43
793.54	224.21
793.86	223.95
794.18	224.05
794.50	223.52
794.82	223.62
795.14	223.79
795.47	224.12
795.79	224.02
796.11	223.67
796.43	223.69
796.75	223.43
797.07	223.60
797.39	223.26
797.71	221.52
798.04	221.83
798.36	221.88
798.68	221.93
799.00	222.00
799.32	220.86
799.64	221.26
799.96	221.19
800.28	221.45
800.60	221.33
800.92	221.36
801.24	221.21
801.56	221.10
801.89	220.71
802.21	220.81
802.53	220.21
802.85	220.60
803.17	221.60
803.49	221.31
803.81	221.07
804.13	220.95
804.45	221.05
804.77	220.93
805.09	220.90
805.41	220.64
805.73	220.36
806.05	219.93
806.37	219.60
806.69	219.40
807.01	219.29
807.33	219.21
807.65	218.52
807.97	219.48
808.28	219.24
808.60	219.17
808.92	218.83
809.24	220.33
809.56	219.79
809.88	219.02
810.20	219.17
810.52	219.29
810.84	218.67
811.16	218.29
811.48	218.31
811.80	218.95
812.12	218.88
812.43	219.31
812.75	219.50
813.07	219.24
813.39	219.29
813.71	218.90
814.03	218.62
814.35	218.60
814.67	217.79
814.98	217.50
815.30	217.45
815.62	217.17
815.94	215.52
816.26	215.71
816.58	215.29
816.89	215.40
817.21	214.98
817.53	215.33
817.85	215.26
818.17	215.10
818.48	214.50
818.80	215.05
819.12	214.57
819.44	214.26
819.76	214.24
820.07	214.12
820.39	214.21
820.71	214.50
821.03	214.50
821.34	214.24
821.66	214.71
821.98	214.90
822.30	214.69
822.61	216.24
822.93	215.81
823.25	215.74
823.57	215.55
823.88	215.81
824.20	215.79
824.52	216.26
824.83	216.19
825.15	215.95
825.47	215.60
825.79	215.81
826.10	215.52
826.42	215.29
826.74	215.55
827.05	215.19
827.37	215.36
827.69	215.14
828.00	215.36
828.32	215.26
828.64	215.05
828.95	216.38
829.27	215.81
829.58	216.12
829.90	216.55
830.22	216.64
830.53	216.36
830.85	215.88
831.17	215.52
831.48	215.48
831.80	215.57
832.11	215.36
832.43	215.00
832.75	214.95
833.06	216.10
833.38	215.36
833.69	215.38
834.01	215.24
834.32	215.50
834.64	215.29
834.96	215.26
835.27	215.00
835.59	214.00
835.90	213.40
836.22	213.29
836.53	212.79
836.85	212.62
837.16	214.52
837.48	214.69
837.79	215.12
838.11	215.21
838.42	214.98
838.74	215.19
839.05	215.19
839.37	215.21
839.68	213.83
840.00	213.71
840.31	214.00
840.63	213.69
840.94	213.40
841.26	213.07
841.57	213.02
841.88	213.50
842.20	213.40
842.51	213.19
842.83	213.21
843.14	214.93
843.46	215.00
843.77	213.98
844.08	213.90
844.40	213.29
844.71	213.31
845.03	213.31
845.34	213.24
845.65	212.86
845.97	213.12
846.28	213.48
846.60	213.88
846.91	213.48
847.22	213.64
847.54	214.00
847.85	214.24
848.16	213.93
848.48	213.40
848.79	214.14
849.10	214.62
849.42	214.62
849.73	212.95
850.04	212.74
850.36	211.86
850.67	212.10
850.98	212.29
851.30	212.45
851.61	212.45
851.92	212.40
852.23	213.33
852.55	213.19
852.86	213.48
853.17	213.43
853.49	213.95
853.80	214.24
854.11	214.33
854.42	214.57
854.74	214.55
855.05	214.62
855.36	213.64
855.67	213.33
855.99	213.12
856.30	215.55
856.61	215.48
856.92	215.60
857.23	215.67
857.55	215.29
857.86	215.05
858.17	215.48
858.48	215.19
858.79	214.74
859.11	214.93
859.42	214.48
859.73	214.33
860.04	214.21
860.35	213.67
860.66	213.17
860.98	213.10
861.29	213.40
861.60	213.40
861.91	213.95
862.22	213.69
862.53	213.74
862.84	211.38
863.16	211.86
863.47	211.55
863.78	211.45
864.09	211.67
864.40	211.93
864.71	211.81
865.02	212.17
865.33	211.81
865.64	211.69
865.95	211.83
866.27	213.07
866.58	212.98
866.89	213.17
867.20	213.19
867.51	212.81
867.82	212.57
868.13	213.24
868.44	212.67
868.75	213.33
869.06	213.26
869.37	213.36
869.68	212.83
869.99	213.17
870.30	213.07
870.61	213.26
870.92	212.79
871.23	212.60
871.54	212.81
871.85	213.10
872.16	213.17
872.47	213.05
872.78	211.93
873.09	212.17
873.40	211.90
873.71	211.86
874.02	212.02
874.33	211.93
874.64	211.55
874.95	211.93
875.26	211.31
875.56	211.38
875.87	211.38
876.18	211.43
876.49	213.60
876.80	213.64
877.11	213.19
877.42	213.19
877.73	213.10
878.04	212.67
878.35	213.07
878.66	213.10
878.96	213.14
879.27	213.17
879.58	212.95
879.89	212.98
880.20	213.86
880.51	213.69
880.82	213.57
881.12	213.33
881.43	212.81
881.74	212.79
882.05	212.76
882.36	212.83
882.67	213.07
882.97	210.55
883.28	210.50
883.59	210.62
883.90	211.05
884.21	211.40
884.51	211.24
884.82	210.83
885.13	210.71
885.44	210.62
885.74	210.60
886.05	210.64
886.36	210.93
886.67	209.98
886.98	210.90
887.28	211.29
887.59	211.45
887.90	211.86
888.20	211.52
888.51	211.88
888.82	211.57
889.13	211.50
889.43	213.48
889.74	213.29
890.05	213.12
890.35	212.69
890.66	212.52
890.97	212.69
891.28	212.29
891.58	212.64
891.89	212.64
892.20	212.43
892.50	212.10
892.81	211.93
893.12	212.12
893.42	211.45
893.73	211.48
894.04	211.71
894.34	211.57
894.65	211.86
894.95	211.64
895.26	211.81
895.57	212.50
895.87	210.60
896.18	210.90
896.48	211.05
896.79	211.14
897.10	211.43
897.40	211.40
897.71	211.64
898.01	211.33
898.32	211.45
898.63	211.60
898.93	211.83
899.24	211.95
899.54	211.86
899.85	211.52
900.15	211.43
900.46	211.05
900.76	211.43
901.07	211.36
901.38	211.26
901.68	211.31
901.99	210.43
902.29	210.55
902.60	210.50
902.90	210.43
903.21	210.43
903.51	210.19
903.82	210.98
904.12	211.02
904.43	211.10
904.73	211.05
905.03	211.00
905.34	212.83
905.64	212.52
905.95	212.43
906.25	212.64
906.56	212.55
906.86	212.67
907.17	212.40
907.47	212.52
907.77	212.33
908.08	212.17
908.38	212.52
908.69	212.74
908.99	213.02
909.30	213.05
909.60	213.14
909.90	213.00
910.21	212.05
910.51	212.12
910.81	212.02
911.12	212.33
911.42	212.52
911.73	210.31
912.03	210.62
912.33	211.07
912.64	211.29
912.94	211.07
913.24	210.76
913.55	210.79
913.85	210.55
914.15	211.12
914.46	211.21
914.76	210.88
915.06	210.86
915.37	210.48
915.67	210.45
915.97	210.31
916.27	210.07
916.58	210.38
916.88	210.02
917.18	210.00
917.49	211.26
917.79	211.00
918.09	211.50
918.39	211.95
918.70	211.62
919.00	211.31
919.30	212.29
919.60	212.26
919.91	212.14
920.21	212.38
920.51	211.79
920.81	211.76
921.12	212.02
921.42	212.00
921.72	212.21
922.02	212.31
922.32	212.83
922.63	213.02
922.93	213.93
923.23	214.12
923.53	213.90
923.83	212.57
924.13	212.98
924.44	212.93
924.74	213.21
925.04	213.86
925.34	214.07
925.64	213.26
925.94	213.33
926.24	214.02
926.55	213.83
926.85	214.31
927.15	214.40
927.45	214.50
927.75	214.43
928.05	214.45
928.35	214.38
928.65	214.69
928.95	214.86
929.26	214.07
929.56	214.45
929.86	214.76
930.16	214.64
930.46	214.33
930.76	214.43
931.06	213.40
931.36	213.10
931.66	213.36
931.96	213.69
932.26	213.79
932.56	213.38
932.86	213.67
933.16	213.50
933.46	213.40
933.76	213.21
934.06	213.79
934.36	214.38
934.66	214.38
934.96	214.02
935.26	213.95
935.56	214.29
935.86	213.83
936.16	213.45
936.46	213.14
936.76	213.26
937.06	213.05
937.36	213.36
937.66	213.21
937.96	213.10
938.26	212.69
938.56	212.83
938.86	212.76
939.16	213.17
939.46	213.55
939.76	213.50
940.06	213.45
940.35	212.93
940.65	212.00
940.95	212.12
941.25	211.67
941.55	211.62
941.85	211.36
942.15	211.90
942.45	212.62
942.75	212.55
943.04	212.36
943.34	212.76
943.64	212.52
943.94	212.24
944.24	212.10
944.54	212.21
944.84	211.86
945.13	211.62
945.43	211.17
945.73	210.83
946.03	210.79
946.33	210.45
946.62	210.21
946.92	210.14
947.22	210.33
947.52	210.33
947.82	210.50
948.11	210.40
948.41	209.71
948.71	209.05
949.01	209.19
949.31	209.05
949.60	208.81
949.90	208.88
950.20	209.00
950.50	208.95
950.79	208.71
951.09	209.21
951.39	209.26
951.69	209.05
951.98	209.57
952.28	209.67
952.58	209.60
952.87	209.69
953.17	210.02
953.47	209.69
953.76	209.64
954.06	209.14
954.36	208.57
954.66	208.76
954.95	209.31
955.25	209.69
955.55	209.98
955.84	209.67
956.14	210.05
956.44	209.98
956.73	209.81
957.03	209.88
957.32	209.62
957.62	209.43
957.92	210.00
958.21	209.69
958.51	211.90
958.81	212.40
959.10	212.62
959.40	213.21
959.69	213.38
959.99	213.79
960.29	213.81
960.58	214.10
960.88	214.88
961.17	214.69
961.47	214.71
961.76	214.57
962.06	214.81
962.36	214.38
962.65	214.67
962.95	214.64
963.24	214.60
963.54	214.62
963.83	214.79
964.13	214.33
964.42	213.67
964.72	211.88
965.01	212.00
965.31	211.62
965.60	210.74
965.90	212.07
966.19	211.67
966.49	212.21
966.78	212.10
967.08	211.90
967.37	212.00
967.67	211.40
967.96	211.67
968.26	211.55
968.55	212.19
968.85	212.02
969.14	212.24
969.43	212.17
969.73	211.95
970.02	212.00
970.32	211.93
970.61	212.00
970.91	211.71
971.20	211.26
971.49	211.36
971.79	211.69
972.08	210.14
972.38	210.43
972.67	209.95
972.96	210.43
973.26	209.88
973.55	210.48
973.85	210.57
974.14	210.31
974.43	210.60
974.73	210.05
975.02	209.93
975.31	209.83
975.61	209.86
975.90	209.69
976.19	209.48
976.49	209.74
976.78	210.05
977.07	209.93
977.37	210.10
977.66	210.31
977.95	210.02
978.24	210.26
978.54	210.55
978.83	210.55
979.12	210.31
979.42	210.50
979.71	210.21
980.00	210.21
980.29	210.29
980.59	209.81
980.88	210.24
981.17	210.21
981.46	210.10
981.76	210.14
982.05	211.12
982.34	211.14
982.63	211.05
982.93	210.88
983.22	211.33
983.51	211.31
983.80	211.55
984.09	211.88
984.39	211.83
984.68	211.40
984.97	211.62
985.26	211.48
985.55	211.64
985.85	211.19
986.14	211.43
986.43	211.79
986.72	211.74
987.01	211.00
987.30	211.00
987.59	210.95
987.89	211.02
988.18	210.29
988.47	210.14
988.76	209.95
989.05	209.86
989.34	209.71
989.63	210.33
989.92	209.95
990.22	209.67
990.51	209.57
990.80	209.60
991.09	209.57
991.38	209.88
991.67	209.67
991.96	209.12
992.25	209.31
992.54	209.02
992.83	209.19
993.12	209.24
993.41	209.71
993.70	210.69
993.99	211.19
994.28	211.57
994.58	211.98
994.87	212.14
995.16	212.21
995.45	211.83
995.74	211.00
996.03	211.33
996.32	211.69
996.61	212.26
996.90	212.12
997.19	212.05
997.48	211.86
997.77	211.64
998.06	212.31
998.34	212.17
998.63	212.02
998.92	211.95
999.21	212.36
999.50	212.10
999.79	211.10
1000.08	210.86
1000.37	210.95
1000.66	210.55
1000.95	211.00
1001.24	211.00
1001.53	211.19
1001.82	211.24
1002.11	210.64
1002.40	210.79
1002.68	211.10
1002.97	212.50
1003.26	212.40
1003.55	212.26
1003.84	212.38
1004.13	212.79
1004.42	212.69
1004.71	213.00
1004.99	212.83
1005.28	213.21
1005.57	213.00
1005.86	213.02
1006.15	212.90
1006.44	212.31
1006.72	212.74
1007.01	212.38
1007.30	212.50
1007.59	212.43
1007.88	212.31
1008.17	212.81
1008.45	212.45
1008.74	211.71
1009.03	210.79
1009.32	210.55
1009.60	210.50
1009.89	210.45
1010.18	209.69
1010.47	209.64
1010.76	209.45
1011.04	209.76
1011.33	212.17
1011.62	212.19
1011.91	212.12
1012.19	212.12
1012.48	212.14
1012.77	211.86
1013.05	212.43
1013.34	212.36
1013.63	212.36
1013.92	212.50
1014.20	212.05
1014.49	212.17
1014.78	212.21
1015.06	211.71
1015.35	211.90
1015.64	212.21
1015.92	212.48
1016.21	212.71
1016.50	212.57
1016.78	212.67
1017.07	212.67
1017.36	209.79
1017.64	209.67
1017.93	210.02
1018.22	209.88
1018.50	209.79
1018.79	209.93
1019.08	209.19
1019.36	209.29
1019.65	209.05
1019.93	209.62
1020.22	210.21
1020.51	211.05
1020.79	210.83
1021.08	207.50
1021.36	203.00
1021.65	210.50
1021.94	209.00
1022.22	210.50
1022.51	206.50
1022.79	219.00
1023.08	217.50
1023.36	232.00
1023.65	206.00
>>>>>End Processed Spectral Data<<<<<
