SpectraSuite Data File
++++++++++++++++++++++++++++++++++++
Date: Tue Apr 02 18:46:03 EDT 2013
User: group
Dark Spectrum Present: No
Reference Spectrum Present: No
Number of Sampled Component Spectra: 1
Spectrometers: USB2E7196
Integration Time (usec): 580000 (USB2E7196)
Spectra Averaged: 2 (USB2E7196)
Boxcar Smoothing: 10 (USB2E7196)
Correct for Electrical Dark: No (USB2E7196)
Strobe/Lamp Enabled: No (USB2E7196)
Correct for Detector Non-linearity: No (USB2E7196)
Correct for Stray Light: No (USB2E7196)
Number of Pixels in Processed Spectrum: 2048
>>>>>Begin Processed Spectral Data<<<<<
339.09	0.00
339.48	195.50
339.86	195.50
340.24	197.50
340.63	197.00
341.01	229.50
341.39	203.50
341.78	209.50
342.16	209.50
342.54	203.50
342.93	198.69
343.31	208.50
343.69	209.05
344.07	209.36
344.46	210.21
344.84	210.81
345.22	209.69
345.60	209.81
345.99	209.76
346.37	209.74
346.75	209.88
347.13	209.90
347.52	209.95
347.90	210.55
348.28	210.50
348.66	211.05
349.05	210.52
349.43	210.60
349.81	210.60
350.19	210.38
350.57	210.14
350.96	210.40
351.34	210.64
351.72	210.60
352.10	210.74
352.48	210.24
352.87	210.19
353.25	210.38
353.63	210.21
354.01	210.26
354.39	210.33
354.77	210.36
355.15	210.60
355.54	210.33
355.92	209.86
356.30	209.69
356.68	210.86
357.06	211.07
357.44	210.79
357.82	210.64
358.20	211.74
358.58	211.83
358.97	211.64
359.35	211.79
359.73	212.26
360.11	212.48
360.49	212.67
360.87	212.57
361.25	212.71
361.63	213.71
362.01	213.74
362.39	213.43
362.77	213.48
363.15	213.36
363.53	213.17
363.91	213.26
364.29	213.43
364.67	211.69
365.05	211.64
365.43	211.86
365.81	212.00
366.19	212.02
366.57	212.79
366.95	213.05
367.33	212.83
367.71	212.93
368.09	213.19
368.47	213.24
368.85	213.19
369.23	213.45
369.61	212.48
369.99	213.31
370.37	213.67
370.75	215.02
371.13	214.74
371.51	214.93
371.89	214.93
372.27	215.24
372.65	215.19
373.03	215.36
373.41	215.38
373.78	215.52
374.16	214.62
374.54	214.17
374.92	213.86
375.30	214.00
375.68	213.55
376.06	213.76
376.44	213.76
376.82	213.90
377.19	213.86
377.57	214.14
377.95	213.31
378.33	213.40
378.71	211.93
379.09	212.26
379.47	212.36
379.84	212.10
380.22	211.69
380.60	211.71
380.98	211.50
381.36	211.33
381.73	210.83
382.11	211.17
382.49	211.33
382.87	211.26
383.25	211.10
383.62	213.43
384.00	212.98
384.38	212.98
384.76	213.67
385.13	214.67
385.51	214.81
385.89	214.60
386.27	214.60
386.64	215.00
387.02	214.88
387.40	214.50
387.78	214.79
388.15	214.98
388.53	214.67
388.91	215.07
389.29	214.95
389.66	215.55
390.04	215.12
390.42	215.57
390.79	215.88
391.17	215.76
391.55	213.71
391.92	213.81
392.30	213.98
392.68	213.43
393.05	213.26
393.43	213.19
393.81	213.45
394.18	213.24
394.56	213.36
394.94	213.81
395.31	214.12
395.69	214.79
396.06	214.88
396.44	215.07
396.82	214.83
397.19	216.17
397.57	215.83
397.95	216.38
398.32	215.62
398.70	215.60
399.07	216.43
399.45	216.24
399.82	216.21
400.20	216.00
400.58	215.98
400.95	214.86
401.33	215.40
401.70	217.05
402.08	217.36
402.45	217.38
402.83	217.98
403.20	218.07
403.58	217.98
403.95	218.48
404.33	218.90
404.71	219.14
405.08	220.21
405.46	220.64
405.83	221.02
406.21	221.64
406.58	222.36
406.96	222.29
407.33	222.79
407.70	223.60
408.08	225.93
408.45	226.79
408.83	227.88
409.20	228.05
409.58	227.26
409.95	228.19
410.33	229.05
410.70	229.21
411.08	230.40
411.45	231.26
411.82	232.21
412.20	233.76
412.57	236.00
412.95	235.71
413.32	237.40
413.69	238.83
414.07	240.31
414.44	241.74
414.82	243.93
415.19	246.43
415.56	248.71
415.94	249.81
416.31	252.50
416.68	255.43
417.06	259.17
417.43	262.86
417.81	266.21
418.18	269.95
418.55	273.62
418.93	277.88
419.30	282.05
419.67	286.33
420.04	290.76
420.42	295.02
420.79	301.76
421.16	307.50
421.54	314.43
421.91	320.40
422.28	326.90
422.66	333.33
423.03	341.31
423.40	347.64
423.77	354.86
424.15	362.40
424.52	369.64
424.89	377.93
425.26	385.43
425.64	392.98
426.01	401.17
426.38	410.24
426.75	419.29
427.13	428.60
427.50	438.38
427.87	448.12
428.24	458.12
428.61	466.76
428.99	478.26
429.36	488.62
429.73	499.76
430.10	511.10
430.47	522.88
430.85	533.00
431.22	545.81
431.59	560.36
431.96	572.81
432.33	586.69
432.70	599.95
433.08	616.36
433.45	631.98
433.82	647.05
434.19	663.67
434.56	680.50
434.93	695.62
435.30	711.38
435.68	729.45
436.05	746.43
436.42	762.64
436.79	778.02
437.16	795.10
437.53	813.02
437.90	830.33
438.27	848.10
438.64	866.79
439.01	883.57
439.38	897.36
439.75	912.02
440.13	929.71
440.50	945.76
440.87	957.93
441.24	971.14
441.61	985.57
441.98	995.93
442.35	1007.90
442.72	1021.36
443.09	1034.45
443.46	1041.45
443.83	1046.31
444.20	1051.43
444.57	1057.19
444.94	1060.52
445.31	1063.88
445.68	1069.74
446.05	1071.02
446.42	1069.43
446.79	1068.29
447.16	1066.21
447.53	1065.10
447.90	1057.86
448.27	1051.14
448.64	1043.02
449.01	1036.69
449.37	1025.79
449.74	1015.64
450.11	1004.31
450.48	989.98
450.85	974.14
451.22	961.57
451.59	950.60
451.96	939.19
452.33	923.71
452.70	909.60
453.07	892.88
453.43	873.12
453.80	856.83
454.17	840.90
454.54	825.55
454.91	809.36
455.28	793.14
455.65	778.71
456.02	767.14
456.38	754.55
456.75	739.45
457.12	726.79
457.49	713.79
457.86	699.76
458.23	689.31
458.59	678.05
458.96	666.31
459.33	655.14
459.70	644.74
460.07	636.55
460.43	626.88
460.80	618.12
461.17	611.86
461.54	603.64
461.91	595.81
462.27	587.74
462.64	581.05
463.01	573.90
463.38	567.57
463.74	557.40
464.11	550.48
464.48	544.40
464.85	537.71
465.21	533.52
465.58	528.57
465.95	521.95
466.32	516.69
466.68	511.74
467.05	506.88
467.42	501.79
467.78	496.55
468.15	491.21
468.52	488.07
468.88	481.79
469.25	476.74
469.62	473.48
469.98	469.40
470.35	465.90
470.72	462.52
471.08	457.69
471.45	454.79
471.82	452.24
472.18	448.67
472.55	446.36
472.92	442.62
473.28	439.21
473.65	436.57
474.02	434.17
474.38	432.17
474.75	430.10
475.11	428.02
475.48	426.40
475.85	424.93
476.21	422.43
476.58	421.12
476.94	420.26
477.31	418.76
477.67	418.10
478.04	417.19
478.41	416.43
478.77	417.95
479.14	416.69
479.50	416.00
479.87	415.76
480.23	414.95
480.60	414.62
480.96	414.45
481.33	415.10
481.69	415.07
482.06	414.95
482.42	415.43
482.79	415.83
483.15	416.02
483.52	417.17
483.88	417.74
484.25	418.50
484.61	419.14
484.98	420.00
485.34	421.62
485.71	422.98
486.07	424.14
486.44	423.62
486.80	425.26
487.17	426.98
487.53	429.33
487.90	432.17
488.26	435.05
488.62	438.19
488.99	440.26
489.35	442.88
489.72	445.50
490.08	448.31
490.44	450.95
490.81	454.43
491.17	457.98
491.54	461.52
491.90	465.64
492.26	469.40
492.63	473.12
492.99	476.21
493.36	480.17
493.72	484.64
494.08	488.98
494.45	493.71
494.81	498.67
495.17	503.17
495.54	508.29
495.90	512.79
496.26	517.50
496.63	523.02
496.99	528.07
497.35	534.00
497.72	539.81
498.08	545.60
498.44	551.52
498.80	557.17
499.17	563.02
499.53	568.83
499.89	575.86
500.26	582.55
500.62	589.40
500.98	596.62
501.34	603.45
501.71	611.36
502.07	618.81
502.43	625.76
502.79	632.83
503.16	639.83
503.52	646.86
503.88	654.10
504.24	661.36
504.60	669.43
504.97	676.52
505.33	684.26
505.69	693.24
506.05	700.76
506.41	708.05
506.78	715.88
507.14	723.60
507.50	731.26
507.86	739.17
508.22	747.17
508.59	754.64
508.95	762.52
509.31	770.62
509.67	778.33
510.03	785.95
510.39	793.64
510.75	800.88
511.12	808.86
511.48	815.98
511.84	823.67
512.20	830.79
512.56	838.40
512.92	845.79
513.28	852.67
513.64	859.83
514.00	867.45
514.37	875.00
514.73	882.43
515.09	890.02
515.45	897.19
515.81	903.79
516.17	910.38
516.53	916.50
516.89	921.81
517.25	927.98
517.61	934.88
517.97	941.02
518.33	946.90
518.69	953.36
519.05	961.07
519.41	967.74
519.77	974.95
520.13	980.86
520.49	986.43
520.85	992.14
521.21	998.48
521.57	1004.69
521.93	1009.88
522.29	1015.52
522.65	1020.00
523.01	1025.31
523.37	1030.33
523.73	1035.81
524.09	1041.38
524.45	1046.48
524.81	1050.86
525.17	1055.36
525.53	1060.40
525.89	1066.12
526.25	1071.14
526.61	1074.10
526.97	1077.55
527.33	1081.95
527.68	1088.48
528.04	1092.50
528.40	1096.76
528.76	1101.29
529.12	1105.00
529.48	1109.83
529.84	1113.79
530.20	1118.17
530.56	1122.64
530.91	1128.05
531.27	1132.43
531.63	1136.50
531.99	1140.79
532.35	1144.52
532.71	1148.64
533.07	1153.45
533.42	1159.74
533.78	1163.74
534.14	1168.69
534.50	1173.07
534.86	1176.90
535.21	1178.52
535.57	1183.52
535.93	1187.00
536.29	1191.62
536.65	1195.71
537.00	1198.86
537.36	1202.24
537.72	1205.79
538.08	1209.57
538.44	1211.62
538.79	1215.07
539.15	1218.57
539.51	1221.83
539.87	1226.43
540.22	1229.98
540.58	1232.29
540.94	1233.69
541.29	1236.48
541.65	1238.83
542.01	1241.57
542.37	1243.83
542.72	1246.69
543.08	1248.50
543.44	1251.81
543.79	1252.36
544.15	1255.31
544.51	1258.69
544.87	1261.40
545.22	1264.19
545.58	1266.12
545.94	1268.10
546.29	1270.60
546.65	1273.05
547.01	1274.95
547.36	1277.10
547.72	1278.90
548.07	1281.33
548.43	1282.86
548.79	1284.50
549.14	1286.81
549.50	1290.52
549.86	1292.76
550.21	1295.67
550.57	1298.71
550.92	1300.29
551.28	1304.07
551.64	1306.31
551.99	1309.21
552.35	1312.40
552.70	1314.83
553.06	1318.40
553.41	1321.95
553.77	1325.83
554.13	1329.05
554.48	1333.74
554.84	1337.83
555.19	1341.81
555.55	1346.57
555.90	1350.14
556.26	1353.93
556.61	1357.95
556.97	1360.17
557.32	1363.86
557.68	1368.26
558.03	1371.45
558.39	1375.88
558.74	1378.90
559.10	1382.07
559.45	1385.60
559.81	1389.52
560.16	1394.21
560.52	1398.14
560.87	1403.31
561.23	1406.14
561.58	1411.71
561.94	1414.64
562.29	1418.21
562.64	1423.38
563.00	1426.98
563.35	1431.50
563.71	1436.55
564.06	1441.52
564.42	1447.00
564.77	1452.67
565.12	1457.98
565.48	1465.62
565.83	1471.33
566.19	1477.38
566.54	1483.05
566.89	1488.24
567.25	1494.50
567.60	1500.98
567.96	1508.50
568.31	1515.43
568.66	1521.55
569.02	1526.14
569.37	1532.05
569.72	1537.60
570.08	1541.74
570.43	1547.14
570.78	1553.57
571.14	1559.26
571.49	1564.55
571.84	1569.71
572.20	1574.36
572.55	1579.10
572.90	1581.81
573.26	1586.19
573.61	1591.26
573.96	1596.45
574.31	1601.10
574.67	1604.17
575.02	1606.88
575.37	1609.24
575.72	1611.57
576.08	1615.79
576.43	1619.33
576.78	1623.17
577.13	1627.02
577.49	1630.74
577.84	1634.31
578.19	1637.55
578.54	1640.79
578.90	1645.52
579.25	1649.36
579.60	1652.74
579.95	1655.02
580.30	1659.36
580.66	1663.60
581.01	1666.95
581.36	1670.60
581.71	1674.60
582.06	1679.57
582.42	1684.17
582.77	1686.38
583.12	1689.31
583.47	1692.43
583.82	1696.02
584.17	1700.19
584.53	1703.43
584.88	1707.50
585.23	1711.81
585.58	1714.74
585.93	1717.79
586.28	1719.71
586.63	1722.95
586.98	1727.19
587.34	1731.88
587.69	1734.12
588.04	1736.98
588.39	1739.57
588.74	1741.17
589.09	1743.57
589.44	1744.38
589.79	1746.36
590.14	1749.67
590.49	1753.10
590.84	1754.79
591.19	1755.98
591.54	1757.00
591.89	1758.79
592.25	1762.19
592.60	1763.02
592.95	1763.93
593.30	1766.10
593.65	1767.64
594.00	1767.93
594.35	1774.71
594.70	1773.14
595.05	1774.48
595.40	1774.76
595.75	1775.10
596.10	1777.24
596.45	1778.67
596.80	1779.98
597.15	1780.74
597.50	1780.40
597.85	1780.93
598.19	1781.29
598.54	1782.00
598.89	1782.88
599.24	1784.71
599.59	1783.48
599.94	1783.79
600.29	1784.43
600.64	1784.55
600.99	1783.93
601.34	1784.12
601.69	1777.71
602.04	1778.74
602.39	1778.05
602.74	1778.71
603.08	1778.31
603.43	1777.95
603.78	1777.14
604.13	1777.02
604.48	1776.24
604.83	1776.57
605.18	1776.31
605.53	1777.12
605.87	1777.26
606.22	1776.38
606.57	1774.21
606.92	1772.79
607.27	1772.33
607.62	1772.00
607.96	1771.64
608.31	1772.10
608.66	1771.93
609.01	1770.33
609.36	1769.55
609.70	1768.71
610.05	1766.17
610.40	1765.14
610.75	1763.17
611.10	1761.57
611.44	1759.55
611.79	1757.38
612.14	1755.26
612.49	1751.31
612.83	1747.29
613.18	1744.00
613.53	1741.07
613.88	1738.17
614.22	1735.31
614.57	1731.14
614.92	1727.48
615.27	1723.60
615.61	1719.19
615.96	1715.67
616.31	1712.36
616.65	1710.83
617.00	1707.71
617.35	1704.79
617.70	1701.17
618.04	1697.43
618.39	1694.21
618.74	1690.74
619.08	1687.71
619.43	1684.00
619.78	1681.83
620.12	1679.36
620.47	1676.48
620.82	1672.64
621.16	1668.50
621.51	1665.69
621.85	1661.81
622.20	1658.31
622.55	1654.17
622.89	1651.43
623.24	1648.29
623.59	1645.26
623.93	1640.21
624.28	1636.86
624.62	1635.24
624.97	1632.83
625.32	1629.26
625.66	1624.52
626.01	1620.14
626.35	1616.76
626.70	1612.86
627.04	1608.50
627.39	1603.93
627.73	1600.71
628.08	1598.05
628.43	1593.88
628.77	1589.79
629.12	1587.21
629.46	1583.64
629.81	1580.14
630.15	1575.05
630.50	1569.74
630.84	1564.95
631.19	1559.95
631.53	1554.69
631.88	1547.67
632.22	1541.48
632.57	1537.07
632.91	1532.29
633.26	1528.00
633.60	1522.52
633.95	1517.00
634.29	1511.79
634.64	1507.50
634.98	1501.98
635.32	1497.67
635.67	1494.69
636.01	1489.55
636.36	1484.10
636.70	1479.81
637.05	1474.88
637.39	1470.64
637.73	1467.40
638.08	1463.38
638.42	1459.36
638.77	1455.00
639.11	1450.64
639.45	1446.64
639.80	1441.50
640.14	1437.21
640.49	1432.33
640.83	1426.86
641.17	1423.05
641.52	1418.86
641.86	1413.36
642.20	1409.83
642.55	1403.57
642.89	1397.90
643.23	1393.43
643.58	1389.52
643.92	1382.36
644.26	1376.93
644.61	1372.52
644.95	1365.64
645.29	1359.69
645.64	1354.19
645.98	1348.45
646.32	1342.81
646.66	1335.98
647.01	1330.19
647.35	1324.33
647.69	1319.05
648.04	1314.00
648.38	1308.52
648.72	1302.71
649.06	1297.36
649.41	1289.93
649.75	1284.14
650.09	1277.24
650.43	1270.29
650.78	1263.14
651.12	1257.90
651.46	1251.21
651.80	1243.86
652.14	1238.52
652.49	1232.43
652.83	1225.98
653.17	1219.45
653.51	1212.83
653.85	1207.36
654.20	1201.05
654.54	1194.33
654.88	1187.67
655.22	1181.69
655.56	1174.79
655.90	1168.88
656.25	1162.83
656.59	1156.90
656.93	1150.95
657.27	1146.60
657.61	1140.45
657.95	1135.07
658.29	1129.29
658.64	1124.38
658.98	1118.00
659.32	1110.81
659.66	1104.31
660.00	1098.24
660.34	1092.64
660.68	1087.55
661.02	1081.33
661.36	1075.50
661.70	1069.74
662.05	1063.31
662.39	1056.79
662.73	1051.69
663.07	1046.26
663.41	1040.12
663.75	1034.07
664.09	1028.17
664.43	1021.19
664.77	1016.29
665.11	1009.95
665.45	1004.10
665.79	997.71
666.13	991.95
666.47	986.64
666.81	981.33
667.15	975.76
667.49	970.26
667.83	964.43
668.17	959.48
668.51	954.05
668.85	948.76
669.19	944.36
669.53	939.19
669.87	933.21
670.21	927.05
670.55	921.79
670.89	917.69
671.23	912.74
671.57	907.48
671.91	901.81
672.25	897.21
672.58	892.62
672.92	887.00
673.26	882.19
673.60	877.40
673.94	872.60
674.28	867.52
674.62	863.02
674.96	857.67
675.30	852.43
675.64	847.55
675.97	842.64
676.31	837.45
676.65	832.19
676.99	827.90
677.33	822.69
677.67	818.12
678.01	812.12
678.34	806.95
678.68	802.69
679.02	796.90
679.36	791.00
679.70	785.36
680.04	780.83
680.37	775.86
680.71	770.67
681.05	766.24
681.39	761.40
681.73	756.05
682.06	751.52
682.40	746.81
682.74	741.86
683.08	737.86
683.42	733.00
683.75	728.64
684.09	722.81
684.43	718.31
684.77	712.76
685.10	707.98
685.44	703.10
685.78	697.76
686.12	693.95
686.45	689.02
686.79	684.38
687.13	680.45
687.46	675.81
687.80	671.81
688.14	666.93
688.48	662.62
688.81	657.76
689.15	653.50
689.49	648.88
689.82	644.17
690.16	638.71
690.50	633.86
690.83	628.90
691.17	624.62
691.51	619.62
691.84	616.02
692.18	611.40
692.52	607.00
692.85	603.50
693.19	599.81
693.52	596.67
693.86	592.36
694.20	587.90
694.53	584.12
694.87	579.45
695.21	574.79
695.54	570.38
695.88	566.26
696.21	561.62
696.55	557.40
696.88	553.95
697.22	550.10
697.56	546.93
697.89	543.26
698.23	540.00
698.56	536.81
698.90	533.24
699.23	529.79
699.57	526.43
699.90	522.24
700.24	517.98
700.58	513.90
700.91	510.90
701.25	508.83
701.58	506.07
701.92	503.50
702.25	500.33
702.59	497.31
702.92	494.12
703.26	491.19
703.59	488.05
703.93	486.76
704.26	483.90
704.60	480.55
704.93	477.69
705.26	474.36
705.60	471.88
705.93	468.45
706.27	466.26
706.60	463.60
706.94	461.62
707.27	458.55
707.61	455.79
707.94	452.33
708.27	447.88
708.61	444.55
708.94	441.57
709.28	439.14
709.61	436.36
709.94	434.12
710.28	431.69
710.61	429.14
710.95	424.50
711.28	423.57
711.61	420.93
711.95	418.93
712.28	416.52
712.61	413.36
712.95	411.79
713.28	409.71
713.61	407.00
713.95	403.95
714.28	401.62
714.61	399.05
714.95	397.24
715.28	394.98
715.61	392.55
715.95	390.48
716.28	387.95
716.61	386.17
716.95	383.90
717.28	381.40
717.61	379.36
717.94	377.48
718.28	373.57
718.61	371.40
718.94	368.76
719.27	366.69
719.61	365.05
719.94	362.81
720.27	359.90
720.60	358.17
720.94	356.38
721.27	354.81
721.60	353.43
721.93	351.55
722.27	350.74
722.60	349.24
722.93	347.40
723.26	346.12
723.59	343.98
723.93	342.79
724.26	341.64
724.59	339.98
724.92	338.71
725.25	337.79
725.59	336.67
725.92	335.45
726.25	334.17
726.58	332.86
726.91	331.12
727.24	330.24
727.57	328.81
727.91	327.31
728.24	326.21
728.57	324.67
728.90	323.76
729.23	321.60
729.56	321.26
729.89	319.83
730.22	318.24
730.55	317.10
730.89	315.43
731.22	313.90
731.55	312.86
731.88	311.52
732.21	310.12
732.54	308.76
732.87	307.57
733.20	306.48
733.53	305.36
733.86	304.48
734.19	302.71
734.52	301.74
734.85	302.00
735.18	300.90
735.51	300.81
735.84	300.40
736.17	299.93
736.50	297.86
736.83	299.31
737.16	298.62
737.49	297.48
737.82	296.67
738.15	295.83
738.48	294.81
738.81	293.81
739.14	292.86
739.47	291.83
739.80	291.00
740.13	290.00
740.46	288.64
740.79	287.60
741.12	286.69
741.45	285.55
741.78	283.79
742.11	283.31
742.44	281.50
742.77	280.29
743.10	279.26
743.43	278.52
743.75	275.69
744.08	277.31
744.41	276.62
744.74	275.50
745.07	274.64
745.40	274.40
745.73	274.60
746.06	273.76
746.39	273.26
746.71	272.24
747.04	271.33
747.37	270.88
747.70	270.43
748.03	270.19
748.36	269.79
748.68	269.12
749.01	267.79
749.34	267.24
749.67	266.60
750.00	266.48
750.33	267.33
750.65	266.95
750.98	264.14
751.31	263.71
751.64	263.40
751.97	263.81
752.29	263.19
752.62	261.67
752.95	261.21
753.28	260.62
753.60	260.05
753.93	260.21
754.26	259.76
754.59	258.67
754.91	257.93
755.24	257.43
755.57	256.71
755.90	256.17
756.22	255.64
756.55	254.81
756.88	253.67
757.20	251.67
757.53	250.48
757.86	249.81
758.19	249.57
758.51	249.05
758.84	247.43
759.17	246.60
759.49	246.36
759.82	246.81
760.15	246.29
760.47	246.17
760.80	245.29
761.13	245.29
761.45	245.10
761.78	244.55
762.11	244.12
762.43	243.79
762.76	243.36
763.08	243.31
763.41	243.00
763.74	242.83
764.06	242.69
764.39	242.45
764.71	242.12
765.04	241.40
765.37	240.81
765.69	240.48
766.02	240.19
766.34	239.69
766.67	238.40
767.00	238.71
767.32	239.40
767.65	240.31
767.97	239.81
768.30	239.60
768.62	239.43
768.95	238.95
769.27	238.45
769.60	238.57
769.92	237.90
770.25	237.26
770.57	236.60
770.90	236.21
771.22	235.93
771.55	235.52
771.87	235.24
772.20	235.10
772.52	236.52
772.85	238.79
773.17	238.29
773.50	238.00
773.82	237.31
774.15	235.88
774.47	234.40
774.80	233.98
775.12	233.81
775.45	233.33
775.77	233.19
776.09	233.14
776.42	232.95
776.74	233.43
777.07	233.14
777.39	233.14
777.72	232.76
778.04	232.69
778.36	232.24
778.69	232.26
779.01	232.36
779.33	230.52
779.66	228.00
779.98	227.79
780.31	227.69
780.63	228.48
780.95	228.83
781.28	228.71
781.60	228.12
781.92	227.83
782.25	227.81
782.57	227.67
782.89	227.52
783.22	227.21
783.54	226.57
783.86	226.74
784.19	226.55
784.51	226.93
784.83	226.45
785.16	226.64
785.48	226.26
785.80	225.88
786.12	225.98
786.45	225.79
786.77	225.79
787.09	225.52
787.42	224.38
787.74	224.29
788.06	224.12
788.38	224.05
788.71	223.62
789.03	223.64
789.35	223.62
789.67	223.12
789.99	222.90
790.32	222.60
790.64	222.55
790.96	223.98
791.28	223.52
791.61	223.33
791.93	223.12
792.25	223.00
792.57	224.43
792.89	224.05
793.21	223.90
793.54	223.64
793.86	223.57
794.18	223.74
794.50	223.29
794.82	223.12
795.14	223.60
795.47	224.05
795.79	224.02
796.11	223.76
796.43	223.60
796.75	223.52
797.07	223.43
797.39	223.31
797.71	221.81
798.04	221.71
798.36	221.90
798.68	222.07
799.00	222.33
799.32	221.05
799.64	221.36
799.96	221.29
800.28	221.71
800.60	221.62
800.92	221.60
801.24	221.45
801.56	221.43
801.89	221.21
802.21	221.24
802.53	220.83
802.85	221.14
803.17	222.14
803.49	222.02
803.81	222.00
804.13	222.00
804.45	221.79
804.77	221.79
805.09	221.62
805.41	221.24
805.73	220.81
806.05	220.17
806.37	219.95
806.69	219.86
807.01	219.71
807.33	219.57
807.65	218.83
807.97	219.64
808.28	219.60
808.60	219.38
808.92	219.05
809.24	220.43
809.56	220.02
809.88	219.10
810.20	218.95
810.52	219.36
810.84	219.14
811.16	219.12
811.48	218.88
811.80	219.52
812.12	219.62
812.43	220.00
812.75	220.21
813.07	219.98
813.39	220.00
813.71	219.50
814.03	219.45
814.35	219.62
814.67	218.81
814.98	218.55
815.30	218.43
815.62	218.00
815.94	216.33
816.26	216.45
816.58	216.10
816.89	216.24
817.21	215.76
817.53	215.83
817.85	215.79
818.17	215.60
818.48	214.98
818.80	215.17
819.12	214.55
819.44	214.33
819.76	214.00
820.07	213.88
820.39	213.83
820.71	213.86
821.03	213.76
821.34	213.52
821.66	214.05
821.98	214.24
822.30	214.26
822.61	215.86
822.93	215.60
823.25	215.76
823.57	215.57
823.88	215.81
824.20	215.71
824.52	215.93
824.83	216.00
825.15	215.74
825.47	215.67
825.79	215.95
826.10	215.86
826.42	215.95
826.74	216.26
827.05	216.24
827.37	216.33
827.69	216.29
828.00	216.48
828.32	216.10
828.64	215.64
828.95	216.76
829.27	216.10
829.58	216.10
829.90	216.38
830.22	216.62
830.53	216.26
830.85	216.02
831.17	215.67
831.48	215.88
831.80	215.88
832.11	215.50
832.43	215.26
832.75	215.24
833.06	216.19
833.38	215.48
833.69	215.45
834.01	215.60
834.32	215.33
834.64	215.12
834.96	215.17
835.27	215.31
835.59	214.76
835.90	214.50
836.22	214.45
836.53	214.12
836.85	213.62
837.16	215.48
837.48	215.67
837.79	215.93
838.11	215.81
838.42	215.88
838.74	216.19
839.05	216.14
839.37	216.12
839.68	214.95
840.00	215.02
840.31	215.31
840.63	215.17
840.94	215.31
841.26	215.00
841.57	214.88
841.88	215.00
842.20	214.60
842.51	214.05
842.83	214.12
843.14	215.74
843.46	215.83
843.77	214.93
844.08	214.64
844.40	214.31
844.71	214.02
845.03	213.79
845.34	213.60
845.65	213.38
845.97	213.19
846.28	213.62
846.60	213.48
846.91	213.19
847.22	213.12
847.54	213.36
847.85	213.71
848.16	213.55
848.48	213.14
848.79	213.83
849.10	214.26
849.42	214.45
849.73	212.64
850.04	212.67
850.36	211.76
850.67	212.29
850.98	212.31
851.30	212.50
851.61	212.48
851.92	212.43
852.23	213.12
852.55	213.60
852.86	213.21
853.17	213.62
853.49	214.10
853.80	214.48
854.11	214.93
854.42	215.21
854.74	215.02
855.05	215.26
855.36	214.21
855.67	214.31
855.99	214.07
856.30	216.62
856.61	216.62
856.92	216.62
857.23	216.60
857.55	216.31
857.86	216.21
858.17	216.69
858.48	216.48
858.79	216.17
859.11	216.19
859.42	216.17
859.73	216.05
860.04	215.95
860.35	215.31
860.66	214.57
860.98	214.26
861.29	214.79
861.60	214.48
861.91	215.02
862.22	214.45
862.53	214.07
862.84	211.76
863.16	212.10
863.47	211.95
863.78	211.52
864.09	211.86
864.40	212.10
864.71	211.74
865.02	212.05
865.33	211.71
865.64	211.31
865.95	211.48
866.27	212.74
866.58	212.38
866.89	212.86
867.20	212.62
867.51	212.33
867.82	212.02
868.13	212.81
868.44	212.29
868.75	212.74
869.06	212.98
869.37	212.98
869.68	212.57
869.99	212.79
870.30	212.90
870.61	212.98
870.92	212.50
871.23	212.52
871.54	212.83
871.85	213.45
872.16	213.74
872.47	213.64
872.78	212.36
873.09	212.79
873.40	212.48
873.71	212.81
874.02	213.00
874.33	212.83
874.64	212.31
874.95	212.74
875.26	212.26
875.56	212.31
875.87	212.17
876.18	211.93
876.49	214.02
876.80	213.83
877.11	213.29
877.42	213.36
877.73	213.45
878.04	212.81
878.35	212.69
878.66	212.71
878.96	212.57
879.27	212.62
879.58	212.21
879.89	212.00
880.20	212.67
880.51	212.69
880.82	212.93
881.12	213.12
881.43	212.81
881.74	212.69
882.05	212.74
882.36	212.98
882.67	213.02
882.97	210.71
883.28	210.69
883.59	211.02
883.90	211.33
884.21	211.67
884.51	211.81
884.82	211.43
885.13	211.38
885.44	211.60
885.74	211.57
886.05	211.69
886.36	211.83
886.67	211.00
886.98	212.00
887.28	212.12
887.59	212.07
887.90	211.98
888.20	211.83
888.51	212.07
888.82	211.83
889.13	212.38
889.43	214.02
889.74	213.98
890.05	213.71
890.35	213.36
890.66	212.95
890.97	212.90
891.28	212.74
891.58	212.60
891.89	212.26
892.20	212.00
892.50	211.90
892.81	211.60
893.12	211.74
893.42	210.74
893.73	210.79
894.04	210.69
894.34	210.98
894.65	211.19
894.95	211.00
895.26	211.26
895.57	211.98
895.87	210.14
896.18	210.48
896.48	210.74
896.79	210.98
897.10	211.50
897.40	211.67
897.71	211.81
898.01	211.79
898.32	212.36
898.63	212.24
898.93	212.36
899.24	212.62
899.54	212.48
899.85	212.52
900.15	212.31
900.46	212.45
900.76	212.55
901.07	212.38
901.38	212.14
901.68	212.05
901.99	211.10
902.29	211.29
902.60	211.05
902.90	210.86
903.21	210.81
903.51	210.69
903.82	210.90
904.12	210.93
904.43	211.12
904.73	211.14
905.03	211.50
905.34	213.17
905.64	213.02
905.95	212.88
906.25	212.64
906.56	212.52
906.86	212.36
907.17	212.14
907.47	212.19
907.77	212.19
908.08	211.86
908.38	212.05
908.69	212.00
908.99	212.50
909.30	212.76
909.60	213.05
909.90	213.02
910.21	212.69
910.51	212.76
910.81	212.74
911.12	212.57
911.42	212.50
911.73	210.60
912.03	210.98
912.33	211.57
912.64	211.55
912.94	211.48
913.24	211.36
913.55	211.29
913.85	211.48
914.15	212.10
914.46	212.38
914.76	212.02
915.06	212.05
915.37	211.62
915.67	211.29
915.97	210.90
916.27	210.24
916.58	210.24
916.88	209.98
917.18	209.81
917.49	211.12
917.79	211.17
918.09	211.50
918.39	211.67
918.70	211.62
919.00	211.69
919.30	212.71
919.60	212.50
919.91	212.48
920.21	212.43
920.51	211.74
920.81	211.48
921.12	211.86
921.42	212.07
921.72	212.29
922.02	212.55
922.32	213.02
922.63	213.33
922.93	214.55
923.23	215.05
923.53	214.79
923.83	213.50
924.13	213.64
924.44	213.64
924.74	214.19
925.04	214.64
925.34	214.64
925.64	213.71
925.94	213.88
926.24	214.95
926.55	215.00
926.85	215.36
927.15	215.60
927.45	215.76
927.75	215.71
928.05	215.50
928.35	215.31
928.65	215.60
928.95	215.69
929.26	214.76
929.56	214.88
929.86	215.31
930.16	215.19
930.46	214.90
930.76	214.86
931.06	213.74
931.36	213.10
931.66	213.36
931.96	213.57
932.26	213.79
932.56	213.00
932.86	212.86
933.16	212.67
933.46	212.26
933.76	211.76
934.06	212.24
934.36	213.33
934.66	213.48
934.96	212.98
935.26	213.00
935.56	213.00
935.86	212.43
936.16	212.10
936.46	212.00
936.76	211.93
937.06	211.76
937.36	211.90
937.66	212.05
937.96	211.88
938.26	211.69
938.56	211.40
938.86	211.64
939.16	212.31
939.46	212.57
939.76	212.93
940.06	212.95
940.35	212.21
940.65	210.95
940.95	210.67
941.25	210.26
941.55	209.93
941.85	209.86
942.15	210.45
942.45	211.07
942.75	210.95
943.04	210.98
943.34	211.31
943.64	211.26
943.94	210.93
944.24	211.07
944.54	210.98
944.84	210.83
945.13	210.38
945.43	210.10
945.73	210.07
946.03	209.88
946.33	209.55
946.62	209.67
946.92	209.74
947.22	210.17
947.52	210.31
947.82	210.55
948.11	210.43
948.41	209.76
948.71	209.17
949.01	209.26
949.31	209.21
949.60	209.17
949.90	209.43
950.20	209.21
950.50	209.36
950.79	209.38
951.09	209.88
951.39	210.00
951.69	209.52
951.98	209.98
952.28	210.10
952.58	210.31
952.87	210.07
953.17	210.38
953.47	210.05
953.76	210.17
954.06	210.02
954.36	209.86
954.66	210.00
954.95	210.69
955.25	210.74
955.55	210.86
955.84	210.29
956.14	210.43
956.44	210.81
956.73	210.29
957.03	210.29
957.32	210.07
957.62	209.90
957.92	210.43
958.21	210.00
958.51	212.29
958.81	212.40
959.10	212.88
959.40	213.33
959.69	213.36
959.99	213.57
960.29	213.67
960.58	213.57
960.88	214.14
961.17	213.74
961.47	214.31
961.76	214.14
962.06	214.88
962.36	214.74
962.65	214.62
962.95	214.90
963.24	214.88
963.54	215.02
963.83	215.26
964.13	215.21
964.42	214.71
964.72	213.21
965.01	213.50
965.31	213.38
965.60	212.64
965.90	214.24
966.19	213.64
966.49	213.62
966.78	213.50
967.08	213.48
967.37	213.36
967.67	212.86
967.96	213.40
968.26	213.00
968.55	213.21
968.85	213.31
969.14	213.24
969.43	213.26
969.73	213.19
970.02	212.71
970.32	212.36
970.61	212.38
970.91	211.81
971.20	211.40
971.49	211.21
971.79	211.64
972.08	209.93
972.38	210.26
972.67	210.26
972.96	210.74
973.26	210.26
973.55	211.21
973.85	211.07
974.14	210.71
974.43	210.95
974.73	210.48
975.02	210.33
975.31	210.43
975.61	210.26
975.90	210.00
976.19	210.12
976.49	210.38
976.78	210.71
977.07	210.57
977.37	210.79
977.66	211.02
977.95	210.69
978.24	210.98
978.54	211.26
978.83	211.07
979.12	210.79
979.42	210.95
979.71	210.17
980.00	210.10
980.29	210.17
980.59	209.67
980.88	210.19
981.17	210.17
981.46	210.00
981.76	210.10
982.05	210.93
982.34	211.05
982.63	211.26
982.93	211.38
983.22	211.81
983.51	211.64
983.80	211.81
984.09	212.21
984.39	212.05
984.68	211.83
984.97	212.10
985.26	211.86
985.55	211.93
985.85	211.74
986.14	212.21
986.43	212.38
986.72	212.40
987.01	211.81
987.30	211.64
987.59	211.43
987.89	211.55
988.18	210.69
988.47	210.55
988.76	210.24
989.05	209.81
989.34	209.69
989.63	210.17
989.92	209.74
990.22	209.24
990.51	209.21
990.80	209.07
991.09	209.24
991.38	209.67
991.67	209.48
991.96	209.31
992.25	209.14
992.54	208.83
992.83	209.07
993.12	209.00
993.41	209.40
993.70	210.40
993.99	210.79
994.28	211.12
994.58	211.45
994.87	211.33
995.16	211.43
995.45	210.98
995.74	210.55
996.03	210.83
996.32	211.33
996.61	211.93
996.90	212.10
997.19	211.76
997.48	211.88
997.77	211.81
998.06	212.14
998.34	211.95
998.63	212.12
998.92	211.90
999.21	212.36
999.50	212.29
999.79	211.50
1000.08	211.40
1000.37	211.31
1000.66	210.83
1000.95	211.29
1001.24	211.40
1001.53	211.86
1001.82	211.50
1002.11	211.17
1002.40	211.43
1002.68	211.88
1002.97	213.10
1003.26	212.90
1003.55	212.33
1003.84	212.29
1004.13	213.00
1004.42	213.02
1004.71	213.29
1004.99	213.17
1005.28	213.55
1005.57	213.45
1005.86	213.26
1006.15	212.88
1006.44	212.60
1006.72	213.14
1007.01	212.74
1007.30	212.67
1007.59	212.57
1007.88	212.98
1008.17	212.93
1008.45	212.33
1008.74	211.21
1009.03	210.48
1009.32	210.40
1009.60	210.48
1009.89	210.55
1010.18	209.60
1010.47	209.52
1010.76	209.12
1011.04	209.33
1011.33	211.33
1011.62	211.45
1011.91	211.69
1012.19	211.98
1012.48	212.33
1012.77	212.21
1013.05	213.31
1013.34	213.31
1013.63	212.90
1013.92	212.76
1014.20	212.76
1014.49	212.76
1014.78	213.10
1015.06	212.50
1015.35	212.69
1015.64	213.02
1015.92	213.29
1016.21	213.38
1016.50	213.24
1016.78	213.50
1017.07	213.57
1017.36	211.19
1017.64	211.00
1017.93	211.26
1018.22	211.05
1018.50	210.88
1018.79	210.81
1019.08	209.71
1019.36	209.76
1019.65	209.95
1019.93	210.71
1020.22	210.86
1020.51	211.86
1020.79	211.79
1021.08	208.00
1021.36	208.00
1021.65	211.50
1021.94	209.00
1022.22	209.00
1022.51	211.00
1022.79	223.50
1023.08	209.00
1023.36	233.50
1023.65	209.50
>>>>>End Processed Spectral Data<<<<<
