SpectraSuite Data File
++++++++++++++++++++++++++++++++++++
Date: Tue Apr 02 18:41:17 EDT 2013
User: group
Dark Spectrum Present: No
Reference Spectrum Present: No
Number of Sampled Component Spectra: 1
Spectrometers: USB2E7196
Integration Time (usec): 580000 (USB2E7196)
Spectra Averaged: 2 (USB2E7196)
Boxcar Smoothing: 10 (USB2E7196)
Correct for Electrical Dark: No (USB2E7196)
Strobe/Lamp Enabled: No (USB2E7196)
Correct for Detector Non-linearity: No (USB2E7196)
Correct for Stray Light: No (USB2E7196)
Number of Pixels in Processed Spectrum: 2048
>>>>>Begin Processed Spectral Data<<<<<
339.09	0.00
339.48	191.00
339.86	187.00
340.24	196.00
340.63	194.50
341.01	230.50
341.39	199.00
341.78	205.50
342.16	210.50
342.54	200.50
342.93	195.50
343.31	205.26
343.69	205.69
344.07	206.55
344.46	207.19
344.84	208.07
345.22	206.83
345.60	207.43
345.99	207.55
346.37	207.38
346.75	207.79
347.13	207.88
347.52	208.29
347.90	208.93
348.28	209.26
348.66	209.71
349.05	209.02
349.43	209.45
349.81	209.64
350.19	209.95
350.57	210.05
350.96	210.36
351.34	210.76
351.72	211.31
352.10	211.52
352.48	211.57
352.87	211.21
353.25	211.45
353.63	211.31
354.01	211.48
354.39	211.76
354.77	211.81
355.15	212.57
355.54	212.52
355.92	212.05
356.30	212.07
356.68	213.62
357.06	214.07
357.44	213.74
357.82	213.69
358.20	214.67
358.58	214.76
358.97	214.98
359.35	215.52
359.73	216.00
360.11	216.12
360.49	216.19
360.87	216.52
361.25	216.55
361.63	217.62
362.01	217.76
362.39	217.88
362.77	218.17
363.15	218.17
363.53	218.14
363.91	218.48
364.29	218.62
364.67	216.55
365.05	216.55
365.43	216.83
365.81	217.14
366.19	217.14
366.57	217.98
366.95	217.81
367.33	217.33
367.71	217.31
368.09	217.55
368.47	217.60
368.85	217.36
369.23	218.21
369.61	217.31
369.99	218.12
370.37	218.17
370.75	219.29
371.13	218.74
371.51	218.50
371.89	218.76
372.27	218.76
372.65	219.00
373.03	219.17
373.41	219.14
373.78	219.02
374.16	218.07
374.54	217.17
374.92	216.98
375.30	216.81
375.68	216.19
376.06	216.50
376.44	216.38
376.82	216.62
377.19	216.29
377.57	216.14
377.95	215.31
378.33	215.26
378.71	214.02
379.09	214.14
379.47	214.62
379.84	214.10
380.22	214.02
380.60	213.71
380.98	213.21
381.36	213.05
381.73	212.67
382.11	212.86
382.49	213.07
382.87	212.79
383.25	212.79
383.62	215.31
384.00	214.76
384.38	215.05
384.76	215.36
385.13	216.12
385.51	216.38
385.89	216.00
386.27	215.98
386.64	215.90
387.02	215.93
387.40	215.43
387.78	215.81
388.15	215.86
388.53	215.69
388.91	216.10
389.29	216.07
389.66	216.50
390.04	216.43
390.42	216.83
390.79	216.95
391.17	217.02
391.55	214.52
391.92	214.45
392.30	214.45
392.68	214.12
393.05	213.86
393.43	213.57
393.81	213.71
394.18	213.36
394.56	213.57
394.94	213.81
395.31	213.79
395.69	214.29
396.06	214.69
396.44	214.83
396.82	214.52
397.19	215.62
397.57	215.36
397.95	215.74
398.32	215.05
398.70	215.50
399.07	216.02
399.45	216.14
399.82	216.21
400.20	216.10
400.58	216.21
400.95	215.45
401.33	215.79
401.70	217.21
402.08	217.48
402.45	217.62
402.83	218.14
403.20	218.55
403.58	218.31
403.95	218.62
404.33	219.36
404.71	219.67
405.08	220.81
405.46	221.05
405.83	221.38
406.21	221.74
406.58	222.10
406.96	222.33
407.33	222.93
407.70	223.57
408.08	225.69
408.45	226.40
408.83	227.55
409.20	228.31
409.58	228.12
409.95	229.21
410.33	230.05
410.70	230.38
411.08	231.64
411.45	232.98
411.82	233.71
412.20	235.17
412.57	237.83
412.95	237.38
413.32	239.26
413.69	240.57
414.07	242.50
414.44	244.26
414.82	246.19
415.19	248.76
415.56	251.17
415.94	252.31
416.31	255.55
416.68	258.62
417.06	261.71
417.43	265.52
417.81	269.07
418.18	272.95
418.55	277.00
418.93	281.02
419.30	284.88
419.67	289.62
420.04	294.26
420.42	298.45
420.79	305.81
421.16	311.43
421.54	318.26
421.91	324.67
422.28	331.10
422.66	338.07
423.03	346.07
423.40	353.19
423.77	360.38
424.15	367.64
424.52	374.93
424.89	383.76
425.26	391.60
425.64	399.40
426.01	408.05
426.38	417.24
426.75	426.90
427.13	436.86
427.50	447.12
427.87	457.64
428.24	467.86
428.61	476.74
428.99	488.43
429.36	499.29
429.73	510.86
430.10	522.71
430.47	534.12
430.85	544.86
431.22	557.90
431.59	573.69
431.96	586.79
432.33	601.43
432.70	615.74
433.08	632.17
433.45	647.69
433.82	663.45
434.19	680.69
434.56	698.26
434.93	714.71
435.30	730.60
435.68	748.83
436.05	766.69
436.42	783.52
436.79	799.40
437.16	817.79
437.53	836.52
437.90	855.19
438.27	874.40
438.64	893.86
439.01	911.43
439.38	925.69
439.75	941.29
440.13	958.83
440.50	974.86
440.87	988.21
441.24	1002.26
441.61	1017.38
441.98	1029.48
442.35	1041.40
442.72	1054.43
443.09	1068.43
443.46	1076.40
443.83	1081.69
444.20	1086.79
444.57	1093.48
444.94	1096.55
445.31	1100.31
445.68	1105.90
446.05	1106.83
446.42	1105.52
446.79	1104.71
447.16	1102.50
447.53	1101.21
447.90	1094.69
448.27	1087.93
448.64	1079.05
449.01	1072.86
449.37	1060.93
449.74	1048.98
450.11	1037.62
450.48	1022.86
450.85	1006.40
451.22	992.62
451.59	980.95
451.96	969.12
452.33	953.29
452.70	938.57
453.07	920.57
453.43	900.40
453.80	884.10
454.17	867.45
454.54	851.64
454.91	834.86
455.28	818.00
455.65	802.67
456.02	790.93
456.38	777.60
456.75	761.45
457.12	748.12
457.49	734.90
457.86	720.24
458.23	709.74
458.59	697.98
458.96	685.93
459.33	674.17
459.70	663.60
460.07	654.60
460.43	644.69
460.80	635.98
461.17	628.24
461.54	619.31
461.91	611.31
462.27	601.88
462.64	594.71
463.01	587.19
463.38	580.19
463.74	569.40
464.11	562.74
464.48	556.69
464.85	549.93
465.21	544.90
465.58	539.76
465.95	532.67
466.32	527.29
466.68	521.76
467.05	516.95
467.42	511.83
467.78	506.36
468.15	501.07
468.52	496.93
468.88	491.17
469.25	486.33
469.62	482.74
469.98	478.74
470.35	475.12
470.72	471.36
471.08	466.40
471.45	463.33
471.82	460.64
472.18	457.02
472.55	454.24
472.92	450.57
473.28	447.29
473.65	444.48
474.02	441.55
474.38	439.21
474.75	437.24
475.11	434.67
475.48	433.07
475.85	431.17
476.21	428.90
476.58	427.69
476.94	426.60
477.31	425.02
477.67	423.90
478.04	422.50
478.41	421.79
478.77	423.45
479.14	422.26
479.50	421.24
479.87	421.05
480.23	420.79
480.60	420.50
480.96	420.24
481.33	420.93
481.69	420.88
482.06	421.19
482.42	421.02
482.79	421.52
483.15	421.93
483.52	422.86
483.88	423.57
484.25	423.88
484.61	424.33
484.98	424.86
485.34	426.76
485.71	428.64
486.07	430.14
486.44	429.74
486.80	431.19
487.17	432.71
487.53	435.07
487.90	437.62
488.26	440.95
488.62	443.40
488.99	445.19
489.35	448.00
489.72	450.64
490.08	453.40
490.44	456.36
490.81	459.48
491.17	462.95
491.54	466.40
491.90	470.31
492.26	473.71
492.63	477.67
492.99	480.90
493.36	485.02
493.72	489.40
494.08	493.88
494.45	499.24
494.81	504.48
495.17	509.14
495.54	514.38
495.90	518.57
496.26	524.00
496.63	529.90
496.99	535.48
497.35	541.43
497.72	547.93
498.08	553.86
498.44	560.36
498.80	566.95
499.17	573.00
499.53	579.57
499.89	587.40
500.26	593.86
500.62	600.79
500.98	608.02
501.34	614.90
501.71	622.62
502.07	629.52
502.43	636.29
502.79	643.79
503.16	650.60
503.52	658.52
503.88	666.21
504.24	673.60
504.60	681.43
504.97	689.21
505.33	696.48
505.69	705.29
506.05	713.33
506.41	720.79
506.78	729.05
507.14	737.02
507.50	744.93
507.86	753.57
508.22	761.88
508.59	769.60
508.95	778.17
509.31	786.79
509.67	795.12
510.03	803.48
510.39	811.21
510.75	819.52
511.12	827.31
511.48	835.29
511.84	843.12
512.20	850.74
512.56	858.29
512.92	866.64
513.28	874.52
513.64	881.71
514.00	889.90
514.37	898.12
514.73	905.71
515.09	912.79
515.45	919.64
515.81	926.93
516.17	934.48
516.53	940.76
516.89	946.76
517.25	953.31
517.61	960.76
517.97	967.52
518.33	974.64
518.69	982.05
519.05	988.52
519.41	995.31
519.77	1003.55
520.13	1010.60
520.49	1016.17
520.85	1021.36
521.21	1028.38
521.57	1033.95
521.93	1039.14
522.29	1044.81
522.65	1050.36
523.01	1056.81
523.37	1062.07
523.73	1067.38
524.09	1073.50
524.45	1078.81
524.81	1084.76
525.17	1089.81
525.53	1094.69
525.89	1099.43
526.25	1103.52
526.61	1108.36
526.97	1112.64
527.33	1116.19
527.68	1122.60
528.04	1128.12
528.40	1132.76
528.76	1136.57
529.12	1141.67
529.48	1146.76
529.84	1152.29
530.20	1156.76
530.56	1160.79
530.91	1166.10
531.27	1170.21
531.63	1174.52
531.99	1178.79
532.35	1182.90
532.71	1186.69
533.07	1191.07
533.42	1197.36
533.78	1202.26
534.14	1207.48
534.50	1212.07
534.86	1217.19
535.21	1219.90
535.57	1224.19
535.93	1228.24
536.29	1234.57
536.65	1238.33
537.00	1242.40
537.36	1245.57
537.72	1249.07
538.08	1253.12
538.44	1255.79
538.79	1259.69
539.15	1263.76
539.51	1268.60
539.87	1272.43
540.22	1276.50
540.58	1281.12
540.94	1283.36
541.29	1286.93
541.65	1289.40
542.01	1294.17
542.37	1297.02
542.72	1298.90
543.08	1301.26
543.44	1305.69
543.79	1306.43
544.15	1310.21
544.51	1314.40
544.87	1318.48
545.22	1322.76
545.58	1326.57
545.94	1330.69
546.29	1334.00
546.65	1336.45
547.01	1339.50
547.36	1342.45
547.72	1345.81
548.07	1348.48
548.43	1351.52
548.79	1354.24
549.14	1358.17
549.50	1360.64
549.86	1362.98
550.21	1367.43
550.57	1372.12
550.92	1374.29
551.28	1378.52
551.64	1381.24
551.99	1384.57
552.35	1387.45
552.70	1390.67
553.06	1394.57
553.41	1397.83
553.77	1403.62
554.13	1407.76
554.48	1412.19
554.84	1417.02
555.19	1421.45
555.55	1427.05
555.90	1431.40
556.26	1436.40
556.61	1439.60
556.97	1443.36
557.32	1448.40
557.68	1452.67
558.03	1456.69
558.39	1461.95
558.74	1466.93
559.10	1471.57
559.45	1476.14
559.81	1481.10
560.16	1485.45
560.52	1489.74
560.87	1494.98
561.23	1497.12
561.58	1503.98
561.94	1508.10
562.29	1512.07
562.64	1517.00
563.00	1520.93
563.35	1525.62
563.71	1530.33
564.06	1536.43
564.42	1542.36
564.77	1547.98
565.12	1553.45
565.48	1560.57
565.83	1566.90
566.19	1572.79
566.54	1578.19
566.89	1583.48
567.25	1589.60
567.60	1597.67
567.96	1605.00
568.31	1612.02
568.66	1619.36
569.02	1623.57
569.37	1627.81
569.72	1633.90
570.08	1638.64
570.43	1643.76
570.78	1649.14
571.14	1653.57
571.49	1658.26
571.84	1663.00
572.20	1666.52
572.55	1672.26
572.90	1674.38
573.26	1678.52
573.61	1682.00
573.96	1687.17
574.31	1691.86
574.67	1695.60
575.02	1697.45
575.37	1699.36
575.72	1700.76
576.08	1704.31
576.43	1706.52
576.78	1710.79
577.13	1714.24
577.49	1717.74
577.84	1721.57
578.19	1725.05
578.54	1729.02
578.90	1733.21
579.25	1736.26
579.60	1739.67
579.95	1741.31
580.30	1745.43
580.66	1747.76
581.01	1750.43
581.36	1751.88
581.71	1754.07
582.06	1757.67
582.42	1760.57
582.77	1762.88
583.12	1765.40
583.47	1767.48
583.82	1771.24
584.17	1773.79
584.53	1776.12
584.88	1777.81
585.23	1779.26
585.58	1781.02
585.93	1782.95
586.28	1783.88
586.63	1786.60
586.98	1789.62
587.34	1792.60
587.69	1793.07
588.04	1794.62
588.39	1796.29
588.74	1796.43
589.09	1797.33
589.44	1796.05
589.79	1797.26
590.14	1798.79
590.49	1800.02
590.84	1800.71
591.19	1801.62
591.54	1802.17
591.89	1801.83
592.25	1805.05
592.60	1805.81
592.95	1806.26
593.30	1807.10
593.65	1807.88
594.00	1807.10
594.35	1812.67
594.70	1811.90
595.05	1812.10
595.40	1811.74
595.75	1811.21
596.10	1812.79
596.45	1813.12
596.80	1814.76
597.15	1814.10
597.50	1813.14
597.85	1814.26
598.19	1814.02
598.54	1813.71
598.89	1812.62
599.24	1813.10
599.59	1811.64
599.94	1810.12
600.29	1809.48
600.64	1808.36
600.99	1807.95
601.34	1806.45
601.69	1800.36
602.04	1798.45
602.39	1796.98
602.74	1797.02
603.08	1796.12
603.43	1796.14
603.78	1795.12
604.13	1793.74
604.48	1792.50
604.83	1792.67
605.18	1790.60
605.53	1788.57
605.87	1786.07
606.22	1785.07
606.57	1783.00
606.92	1779.02
607.27	1777.71
607.62	1775.86
607.96	1774.24
608.31	1772.17
608.66	1770.88
609.01	1767.71
609.36	1766.38
609.70	1764.90
610.05	1760.95
610.40	1758.98
610.75	1755.02
611.10	1751.71
611.44	1747.64
611.79	1744.21
612.14	1739.07
612.49	1735.48
612.83	1731.81
613.18	1727.81
613.53	1724.05
613.88	1719.48
614.22	1716.81
614.57	1712.69
614.92	1708.05
615.27	1703.95
615.61	1698.60
615.96	1693.40
616.31	1689.05
616.65	1685.36
617.00	1680.83
617.35	1676.98
617.70	1671.60
618.04	1667.43
618.39	1661.71
618.74	1656.90
619.08	1651.60
619.43	1647.17
619.78	1641.71
620.12	1637.76
620.47	1633.88
620.82	1627.52
621.16	1622.40
621.51	1617.76
621.85	1612.67
622.20	1608.10
622.55	1602.05
622.89	1596.98
623.24	1592.69
623.59	1587.79
623.93	1582.64
624.28	1578.00
624.62	1574.79
624.97	1571.00
625.32	1566.14
625.66	1562.60
626.01	1558.31
626.35	1554.64
626.70	1550.29
627.04	1546.81
627.39	1541.12
627.73	1536.50
628.08	1533.74
628.43	1529.64
628.77	1524.48
629.12	1520.50
629.46	1515.48
629.81	1510.24
630.15	1505.14
630.50	1500.38
630.84	1494.26
631.19	1488.26
631.53	1482.62
631.88	1474.88
632.22	1467.86
632.57	1462.33
632.91	1455.90
633.26	1450.76
633.60	1444.40
633.95	1438.36
634.29	1431.71
634.64	1427.10
634.98	1420.71
635.32	1415.43
635.67	1410.36
636.01	1405.31
636.36	1398.67
636.70	1394.02
637.05	1389.40
637.39	1383.83
637.73	1378.24
638.08	1374.29
638.42	1369.14
638.77	1363.98
639.11	1358.64
639.45	1353.62
639.80	1347.29
640.14	1341.55
640.49	1335.05
640.83	1328.86
641.17	1322.86
641.52	1317.29
641.86	1310.29
642.20	1305.50
642.55	1298.26
642.89	1291.19
643.23	1284.07
643.58	1278.86
643.92	1271.10
644.26	1264.33
644.61	1258.71
644.95	1251.62
645.29	1244.19
645.64	1237.60
645.98	1231.07
646.32	1225.05
646.66	1217.33
647.01	1211.45
647.35	1205.17
647.69	1198.33
648.04	1192.50
648.38	1186.64
648.72	1180.02
649.06	1173.76
649.41	1165.95
649.75	1159.26
650.09	1152.33
650.43	1145.48
650.78	1138.36
651.12	1131.83
651.46	1125.36
651.80	1118.88
652.14	1112.29
652.49	1105.88
652.83	1099.05
653.17	1091.74
653.51	1084.45
653.85	1078.81
654.20	1071.90
654.54	1064.64
654.88	1058.31
655.22	1052.02
655.56	1045.02
655.90	1038.55
656.25	1032.24
656.59	1025.90
656.93	1020.10
657.27	1014.62
657.61	1008.05
657.95	1001.95
658.29	995.19
658.64	988.67
658.98	981.81
659.32	975.57
659.66	969.52
660.00	962.90
660.34	956.71
660.68	950.76
661.02	944.57
661.36	938.02
661.70	932.83
662.05	926.57
662.39	921.05
662.73	915.76
663.07	910.90
663.41	904.81
663.75	898.62
664.09	892.55
664.43	886.05
664.77	880.52
665.11	873.55
665.45	868.29
665.79	863.00
666.13	856.52
666.47	851.10
666.81	845.43
667.15	839.83
667.49	835.05
667.83	830.45
668.17	825.36
668.51	819.90
668.85	814.07
669.19	809.71
669.53	803.74
669.87	797.71
670.21	791.45
670.55	786.07
670.89	781.86
671.23	776.24
671.57	771.10
671.91	765.60
672.25	761.21
672.58	756.60
672.92	751.17
673.26	746.86
673.60	741.74
673.94	736.69
674.28	732.00
674.62	727.10
674.96	721.45
675.30	716.57
675.64	712.55
675.97	708.12
676.31	703.00
676.65	698.07
676.99	694.31
677.33	689.45
677.67	685.05
678.01	679.40
678.34	675.19
678.68	671.26
679.02	667.07
679.36	662.50
679.70	658.00
680.04	653.17
680.37	648.43
680.71	643.71
681.05	639.62
681.39	635.64
681.73	631.21
682.06	626.83
682.40	622.57
682.74	618.40
683.08	614.81
683.42	610.26
683.75	606.67
684.09	601.71
684.43	597.60
684.77	593.21
685.10	589.05
685.44	584.48
685.78	580.21
686.12	576.07
686.45	571.74
686.79	567.45
687.13	564.10
687.46	560.45
687.80	557.19
688.14	553.02
688.48	549.12
688.81	544.86
689.15	541.43
689.49	537.60
689.82	533.71
690.16	529.00
690.50	525.02
690.83	520.60
691.17	516.33
691.51	512.29
691.84	508.83
692.18	505.07
692.52	501.95
692.85	498.93
693.19	496.33
693.52	493.31
693.86	489.67
694.20	486.21
694.53	482.74
694.87	478.60
695.21	474.74
695.54	471.48
695.88	467.88
696.21	463.83
696.55	460.50
696.88	457.12
697.22	453.76
697.56	451.19
697.89	448.12
698.23	445.64
698.56	442.74
698.90	439.83
699.23	437.17
699.57	434.52
699.90	431.31
700.24	428.07
700.58	425.00
700.91	422.81
701.25	421.43
701.58	419.40
701.92	417.76
702.25	415.55
702.59	412.79
702.92	410.60
703.26	408.57
703.59	405.88
703.93	404.95
704.26	403.02
704.60	400.64
704.93	398.64
705.26	396.43
705.60	394.38
705.93	391.86
706.27	390.21
706.60	388.31
706.94	386.81
707.27	384.10
707.61	382.40
707.94	380.00
708.27	376.50
708.61	373.81
708.94	371.50
709.28	369.64
709.61	367.50
709.94	365.74
710.28	363.74
710.61	362.02
710.95	358.55
711.28	358.17
711.61	356.19
711.95	354.57
712.28	352.69
712.61	350.95
712.95	350.48
713.28	349.36
713.61	347.24
713.95	344.95
714.28	343.48
714.61	341.86
714.95	340.31
715.28	338.48
715.61	336.90
715.95	335.60
716.28	333.81
716.61	332.60
716.95	330.60
717.28	329.10
717.61	327.57
717.94	326.05
718.28	322.88
718.61	321.50
718.94	319.74
719.27	318.26
719.61	317.12
719.94	314.86
720.27	312.76
720.60	311.33
720.94	309.95
721.27	309.07
721.60	307.60
721.93	306.29
722.27	305.93
722.60	304.83
722.93	303.29
723.26	302.33
723.59	300.81
723.93	300.17
724.26	299.05
724.59	297.86
724.92	297.07
725.25	297.02
725.59	295.98
725.92	295.24
726.25	294.14
726.58	293.05
726.91	292.14
727.24	291.29
727.57	290.33
727.91	289.24
728.24	288.64
728.57	287.57
728.90	287.05
729.23	285.86
729.56	285.95
729.89	285.21
730.22	284.36
730.55	283.67
730.89	282.64
731.22	281.98
731.55	281.36
731.88	280.79
732.21	279.40
732.54	278.50
732.87	277.88
733.20	277.36
733.53	276.79
733.86	276.17
734.19	275.02
734.52	274.69
734.85	275.50
735.18	274.21
735.51	274.17
735.84	273.69
736.17	273.31
736.50	271.57
736.83	273.60
737.16	272.93
737.49	272.40
737.82	271.67
738.15	271.40
738.48	270.40
738.81	269.74
739.14	268.98
739.47	268.26
739.80	267.33
740.13	266.88
740.46	265.95
740.79	264.95
741.12	264.60
741.45	263.93
741.78	261.90
742.11	261.76
742.44	260.69
742.77	260.05
743.10	259.33
743.43	258.86
743.75	255.83
744.08	258.12
744.41	257.48
744.74	257.10
745.07	255.95
745.40	256.14
745.73	256.14
746.06	255.62
746.39	255.55
746.71	254.86
747.04	254.12
747.37	253.55
747.70	253.60
748.03	252.95
748.36	252.64
748.68	252.50
749.01	251.69
749.34	251.36
749.67	250.95
750.00	250.71
750.33	251.79
750.65	251.62
750.98	248.64
751.31	248.45
751.64	248.14
751.97	249.12
752.29	248.60
752.62	247.38
752.95	246.90
753.28	246.07
753.60	245.62
753.93	246.10
754.26	245.83
754.59	244.93
754.91	244.71
755.24	244.19
755.57	243.55
755.90	243.21
756.22	242.64
756.55	241.98
756.88	241.12
757.20	239.19
757.53	238.17
757.86	237.64
758.19	236.98
758.51	236.69
758.84	235.19
759.17	234.79
759.49	234.55
759.82	235.52
760.15	235.67
760.47	235.67
760.80	234.50
761.13	234.50
761.45	234.17
761.78	233.81
762.11	233.52
762.43	233.45
762.76	232.98
763.08	233.19
763.41	233.19
763.74	232.93
764.06	233.26
764.39	233.17
764.71	232.98
765.04	232.93
765.37	232.43
765.69	232.24
766.02	231.76
766.34	231.50
766.67	230.24
767.00	230.19
767.32	231.10
767.65	232.40
767.97	231.88
768.30	231.95
768.62	231.79
768.95	231.36
769.27	230.74
769.60	231.17
769.92	230.69
770.25	230.21
770.57	229.86
770.90	229.48
771.22	229.05
771.55	228.90
771.87	228.69
772.20	228.38
772.52	229.81
772.85	232.00
773.17	231.98
773.50	232.02
773.82	231.50
774.15	230.14
774.47	228.52
774.80	228.50
775.12	228.21
775.45	228.00
775.77	228.10
776.09	228.52
776.42	228.19
776.74	228.74
777.07	228.52
777.39	228.48
777.72	228.07
778.04	228.29
778.36	228.07
778.69	227.98
779.01	228.19
779.33	226.50
779.66	224.21
779.98	223.81
780.31	223.50
780.63	224.45
780.95	224.98
781.28	224.86
781.60	224.67
781.92	224.52
782.25	224.26
782.57	224.07
782.89	223.60
783.22	223.31
783.54	222.60
783.86	222.62
784.19	222.40
784.51	223.00
784.83	222.62
785.16	222.45
785.48	222.48
785.80	222.17
786.12	222.21
786.45	222.00
786.77	221.79
787.09	221.57
787.42	220.40
787.74	220.24
788.06	220.12
788.38	220.12
788.71	219.93
789.03	220.31
789.35	220.43
789.67	220.05
789.99	220.07
790.32	219.67
790.64	219.95
790.96	221.81
791.28	220.90
791.61	220.71
791.93	220.57
792.25	220.38
792.57	222.00
792.89	221.52
793.21	221.60
793.54	221.55
793.86	221.60
794.18	221.71
794.50	221.05
794.82	221.17
795.14	221.29
795.47	221.40
795.79	221.33
796.11	220.71
796.43	220.71
796.75	220.64
797.07	220.55
797.39	220.31
797.71	218.76
798.04	218.98
798.36	219.19
798.68	219.31
799.00	219.36
799.32	218.17
799.64	218.45
799.96	218.40
800.28	218.83
800.60	218.52
800.92	218.67
801.24	218.71
801.56	218.76
801.89	218.17
802.21	218.21
802.53	217.64
802.85	218.07
803.17	219.14
803.49	218.86
803.81	219.00
804.13	218.71
804.45	218.14
804.77	218.31
805.09	218.24
805.41	217.98
805.73	217.74
806.05	217.21
806.37	217.17
806.69	216.88
807.01	216.69
807.33	216.79
807.65	216.12
807.97	217.07
808.28	216.67
808.60	216.83
808.92	216.67
809.24	218.17
809.56	217.86
809.88	216.93
810.20	216.86
810.52	217.17
810.84	216.69
811.16	216.71
811.48	216.40
811.80	216.86
812.12	216.76
812.43	217.07
812.75	217.14
813.07	216.90
813.39	217.24
813.71	216.86
814.03	216.76
814.35	216.88
814.67	215.79
814.98	215.69
815.30	215.69
815.62	215.38
815.94	213.79
816.26	213.81
816.58	213.40
816.89	213.55
817.21	212.90
817.53	213.33
817.85	213.38
818.17	213.48
818.48	212.88
818.80	213.38
819.12	213.14
819.44	212.93
819.76	212.79
820.07	212.60
820.39	212.69
820.71	212.79
821.03	212.79
821.34	212.95
821.66	213.36
821.98	213.62
822.30	213.64
822.61	214.98
822.93	214.88
823.25	214.81
823.57	214.67
823.88	215.45
824.20	215.45
824.52	215.76
824.83	215.62
825.15	215.43
825.47	215.29
825.79	215.26
826.10	215.19
826.42	215.00
826.74	215.24
827.05	215.21
827.37	215.21
827.69	215.19
828.00	215.33
828.32	215.40
828.64	215.17
828.95	216.14
829.27	215.76
829.58	215.83
829.90	216.38
830.22	216.64
830.53	216.12
830.85	215.83
831.17	215.26
831.48	215.12
831.80	215.36
832.11	214.93
832.43	214.67
832.75	214.52
833.06	215.79
833.38	215.14
833.69	215.12
834.01	215.02
834.32	214.98
834.64	214.43
834.96	214.12
835.27	214.05
835.59	213.52
835.90	212.74
836.22	212.62
836.53	212.14
836.85	211.86
837.16	213.79
837.48	214.00
837.79	214.90
838.11	215.12
838.42	215.00
838.74	215.62
839.05	215.52
839.37	215.71
839.68	214.26
840.00	214.29
840.31	214.55
840.63	214.43
840.94	214.21
841.26	214.24
841.57	214.33
841.88	214.40
842.20	214.10
842.51	214.07
842.83	214.29
843.14	216.33
843.46	216.50
843.77	215.38
844.08	215.10
844.40	214.40
844.71	214.14
845.03	213.95
845.34	213.69
845.65	213.62
845.97	213.62
846.28	214.02
846.60	214.36
846.91	214.02
847.22	214.12
847.54	214.76
847.85	214.93
848.16	214.90
848.48	214.55
848.79	215.48
849.10	215.79
849.42	215.62
849.73	213.64
850.04	213.60
850.36	212.88
850.67	213.40
850.98	213.36
851.30	213.74
851.61	213.64
851.92	213.60
852.23	214.31
852.55	214.40
852.86	214.62
853.17	214.60
853.49	215.10
853.80	215.43
854.11	215.48
854.42	216.02
854.74	215.71
855.05	215.79
855.36	214.60
855.67	214.64
855.99	214.69
856.30	217.19
856.61	216.95
856.92	217.00
857.23	216.83
857.55	216.83
857.86	216.52
858.17	216.90
858.48	216.60
858.79	216.10
859.11	216.33
859.42	215.98
859.73	215.86
860.04	215.64
860.35	215.02
860.66	214.10
860.98	213.69
861.29	213.81
861.60	213.79
861.91	214.29
862.22	213.86
862.53	213.62
862.84	211.05
863.16	211.60
863.47	211.29
863.78	211.12
864.09	211.12
864.40	211.29
864.71	211.45
865.02	211.67
865.33	211.55
865.64	211.07
865.95	210.83
866.27	212.17
866.58	211.93
866.89	212.48
867.20	212.71
867.51	212.33
867.82	212.33
868.13	212.93
868.44	212.71
868.75	213.00
869.06	213.26
869.37	213.62
869.68	213.07
869.99	213.48
870.30	213.48
870.61	213.71
870.92	213.48
871.23	213.12
871.54	213.24
871.85	213.76
872.16	213.88
872.47	214.05
872.78	212.48
873.09	212.81
873.40	212.45
873.71	212.43
874.02	212.71
874.33	212.43
874.64	211.81
874.95	211.93
875.26	211.71
875.56	211.52
875.87	211.29
876.18	211.12
876.49	213.00
876.80	212.83
877.11	212.60
877.42	212.45
877.73	212.69
878.04	212.55
878.35	212.50
878.66	212.71
878.96	212.69
879.27	212.83
879.58	212.69
879.89	212.67
880.20	213.43
880.51	213.14
880.82	213.31
881.12	213.45
881.43	212.86
881.74	212.86
882.05	212.69
882.36	212.79
882.67	212.93
882.97	210.69
883.28	210.62
883.59	210.26
883.90	210.71
884.21	211.10
884.51	210.98
884.82	210.79
885.13	210.62
885.44	210.60
885.74	210.69
886.05	210.71
886.36	210.57
886.67	209.67
886.98	211.05
887.28	211.29
887.59	211.24
887.90	211.45
888.20	211.17
888.51	211.62
888.82	211.36
889.13	211.50
889.43	213.10
889.74	213.07
890.05	213.07
890.35	213.00
890.66	212.67
890.97	212.62
891.28	212.43
891.58	212.26
891.89	212.29
892.20	212.14
892.50	211.67
892.81	211.81
893.12	211.93
893.42	210.64
893.73	210.79
894.04	210.93
894.34	211.14
894.65	211.26
894.95	211.21
895.26	211.52
895.57	212.38
895.87	210.60
896.18	210.88
896.48	211.00
896.79	210.74
897.10	210.76
897.40	210.83
897.71	211.07
898.01	211.17
898.32	211.48
898.63	211.45
898.93	211.69
899.24	211.57
899.54	211.38
899.85	211.50
900.15	211.29
900.46	211.48
900.76	211.67
901.07	211.62
901.38	211.40
901.68	211.50
901.99	210.60
902.29	210.88
902.60	210.69
902.90	210.81
903.21	210.95
903.51	210.71
903.82	211.10
904.12	211.19
904.43	211.31
904.73	211.02
905.03	211.14
905.34	213.10
905.64	213.05
905.95	213.26
906.25	213.26
906.56	213.17
906.86	212.88
907.17	212.69
907.47	212.79
907.77	212.81
908.08	212.40
908.38	212.52
908.69	212.81
908.99	213.26
909.30	213.38
909.60	213.43
909.90	213.60
910.21	212.93
910.51	212.67
910.81	212.76
911.12	212.95
911.42	212.95
911.73	210.95
912.03	211.00
912.33	211.43
912.64	211.31
912.94	211.26
913.24	211.14
913.55	210.98
913.85	210.88
914.15	211.00
914.46	211.33
914.76	211.12
915.06	210.69
915.37	210.33
915.67	209.98
915.97	209.93
916.27	209.45
916.58	209.71
916.88	209.48
917.18	209.33
917.49	210.67
917.79	210.71
918.09	211.05
918.39	211.83
918.70	211.64
919.00	211.88
919.30	212.62
919.60	212.57
919.91	212.38
920.21	212.45
920.51	211.98
920.81	211.64
921.12	212.10
921.42	211.88
921.72	212.17
922.02	212.67
922.32	213.05
922.63	213.33
922.93	214.31
923.23	214.76
923.53	214.64
923.83	213.52
924.13	213.64
924.44	213.57
924.74	213.71
925.04	214.26
925.34	214.19
925.64	213.48
925.94	213.33
926.24	214.71
926.55	214.79
926.85	215.12
927.15	215.26
927.45	215.48
927.75	215.67
928.05	215.48
928.35	215.17
928.65	215.17
928.95	215.40
929.26	214.57
929.56	214.55
929.86	214.79
930.16	214.62
930.46	214.40
930.76	214.33
931.06	213.48
931.36	212.88
931.66	213.17
931.96	213.45
932.26	213.60
932.56	212.71
932.86	212.93
933.16	213.00
933.46	212.76
933.76	212.05
934.06	212.90
934.36	213.81
934.66	213.74
934.96	213.55
935.26	213.62
935.56	213.74
935.86	213.50
936.16	213.26
936.46	213.02
936.76	213.10
937.06	212.79
937.36	212.90
937.66	213.12
937.96	212.95
938.26	212.52
938.56	212.38
938.86	212.48
939.16	212.67
939.46	213.00
939.76	213.33
940.06	213.50
940.35	212.88
940.65	211.76
940.95	212.17
941.25	211.79
941.55	211.43
941.85	211.62
942.15	212.17
942.45	212.43
942.75	212.24
943.04	212.19
943.34	212.86
943.64	212.45
943.94	212.10
944.24	212.38
944.54	212.67
944.84	212.71
945.13	212.36
945.43	212.19
945.73	211.95
946.03	212.00
946.33	211.86
946.62	211.76
946.92	211.81
947.22	211.71
947.52	211.86
947.82	212.36
948.11	211.88
948.41	211.29
948.71	211.05
949.01	211.29
949.31	211.29
949.60	211.02
949.90	211.50
950.20	211.43
950.50	211.45
950.79	211.24
951.09	211.57
951.39	211.52
951.69	211.05
951.98	211.29
952.28	211.14
952.58	211.21
952.87	211.12
953.17	211.24
953.47	211.21
953.76	211.24
954.06	210.74
954.36	210.83
954.66	210.62
954.95	211.10
955.25	211.36
955.55	211.52
955.84	211.31
956.14	211.52
956.44	211.79
956.73	210.83
957.03	211.05
957.32	211.05
957.62	210.93
957.92	211.26
958.21	211.00
958.51	213.36
958.81	213.55
959.10	213.83
959.40	214.12
959.69	214.05
959.99	214.19
960.29	214.17
960.58	213.83
960.88	214.88
961.17	214.62
961.47	214.62
961.76	214.26
962.06	214.48
962.36	214.14
962.65	214.14
962.95	214.64
963.24	214.40
963.54	214.60
963.83	214.74
964.13	214.52
964.42	214.12
964.72	212.48
965.01	212.38
965.31	212.31
965.60	211.90
965.90	213.05
966.19	212.52
966.49	212.62
966.78	212.64
967.08	212.36
967.37	212.38
967.67	212.02
967.96	212.21
968.26	212.21
968.55	212.43
968.85	212.33
969.14	212.07
969.43	212.10
969.73	211.71
970.02	211.74
970.32	211.69
970.61	211.62
970.91	210.95
971.20	210.64
971.49	210.38
971.79	210.88
972.08	209.57
972.38	209.86
972.67	209.93
972.96	210.17
973.26	209.62
973.55	210.14
973.85	210.05
974.14	210.14
974.43	210.07
974.73	209.76
975.02	209.29
975.31	209.45
975.61	209.48
975.90	209.45
976.19	209.43
976.49	209.74
976.78	210.12
977.07	210.02
977.37	210.24
977.66	210.52
977.95	210.17
978.24	210.29
978.54	210.74
978.83	210.40
979.12	210.31
979.42	210.26
979.71	210.14
980.00	210.29
980.29	210.36
980.59	209.98
980.88	210.64
981.17	210.90
981.46	210.76
981.76	210.52
982.05	211.14
982.34	211.38
982.63	211.31
982.93	211.31
983.22	211.95
983.51	212.02
983.80	211.95
984.09	212.05
984.39	211.88
984.68	211.69
984.97	211.86
985.26	211.74
985.55	212.17
985.85	211.45
986.14	211.83
986.43	211.98
986.72	212.31
987.01	211.50
987.30	211.57
987.59	211.71
987.89	211.88
988.18	211.21
988.47	210.81
988.76	210.81
989.05	210.74
989.34	210.33
989.63	210.93
989.92	210.81
990.22	210.81
990.51	210.88
990.80	210.69
991.09	211.10
991.38	211.33
991.67	210.95
991.96	211.10
992.25	211.10
992.54	210.83
992.83	210.81
993.12	210.81
993.41	211.05
993.70	211.86
993.99	212.43
994.28	212.86
994.58	213.19
994.87	212.93
995.16	212.83
995.45	212.76
995.74	211.90
996.03	212.24
996.32	212.36
996.61	212.86
996.90	212.67
997.19	212.21
997.48	212.31
997.77	212.05
998.06	212.12
998.34	211.90
998.63	211.71
998.92	211.69
999.21	212.00
999.50	212.02
999.79	211.33
1000.08	211.00
1000.37	210.98
1000.66	210.76
1000.95	211.40
1001.24	211.69
1001.53	211.98
1001.82	212.17
1002.11	211.76
1002.40	211.83
1002.68	212.02
1002.97	213.67
1003.26	213.76
1003.55	213.57
1003.84	214.00
1004.13	214.60
1004.42	214.64
1004.71	214.71
1004.99	214.50
1005.28	215.26
1005.57	215.12
1005.86	215.02
1006.15	214.95
1006.44	214.67
1006.72	214.83
1007.01	214.52
1007.30	214.33
1007.59	213.90
1007.88	213.69
1008.17	213.83
1008.45	213.62
1008.74	212.95
1009.03	211.95
1009.32	212.00
1009.60	211.98
1009.89	211.86
1010.18	210.93
1010.47	210.74
1010.76	210.57
1011.04	210.69
1011.33	212.33
1011.62	212.38
1011.91	212.36
1012.19	212.29
1012.48	212.17
1012.77	212.31
1013.05	213.10
1013.34	213.00
1013.63	213.02
1013.92	213.14
1014.20	212.93
1014.49	213.00
1014.78	213.26
1015.06	212.57
1015.35	212.48
1015.64	212.86
1015.92	213.00
1016.21	213.17
1016.50	213.26
1016.78	213.50
1017.07	213.50
1017.36	211.40
1017.64	211.33
1017.93	211.69
1018.22	211.71
1018.50	211.79
1018.79	211.52
1019.08	210.48
1019.36	210.64
1019.65	210.71
1019.93	211.26
1020.22	211.50
1020.51	212.45
1020.79	212.17
1021.08	209.00
1021.36	208.00
1021.65	210.00
1021.94	208.00
1022.22	210.50
1022.51	211.50
1022.79	219.50
1023.08	211.00
1023.36	234.00
1023.65	207.00
>>>>>End Processed Spectral Data<<<<<
