SpectraSuite Data File
++++++++++++++++++++++++++++++++++++
Date: Tue Apr 02 18:43:38 EDT 2013
User: group
Dark Spectrum Present: No
Reference Spectrum Present: No
Number of Sampled Component Spectra: 1
Spectrometers: USB2E7196
Integration Time (usec): 580000 (USB2E7196)
Spectra Averaged: 2 (USB2E7196)
Boxcar Smoothing: 10 (USB2E7196)
Correct for Electrical Dark: No (USB2E7196)
Strobe/Lamp Enabled: No (USB2E7196)
Correct for Detector Non-linearity: No (USB2E7196)
Correct for Stray Light: No (USB2E7196)
Number of Pixels in Processed Spectrum: 2048
>>>>>Begin Processed Spectral Data<<<<<
339.09	0.00
339.48	196.00
339.86	195.00
340.24	198.00
340.63	197.00
341.01	233.50
341.39	203.50
341.78	208.00
342.16	214.00
342.54	209.50
342.93	198.93
343.31	208.88
343.69	209.19
344.07	209.64
344.46	210.40
344.84	211.10
345.22	209.83
345.60	210.02
345.99	210.31
346.37	210.10
346.75	210.17
347.13	210.24
347.52	210.45
347.90	211.12
348.28	211.14
348.66	211.62
349.05	211.02
349.43	211.24
349.81	211.33
350.19	211.31
350.57	211.24
350.96	211.45
351.34	211.48
351.72	211.83
352.10	212.10
352.48	211.76
352.87	211.76
353.25	211.90
353.63	211.90
354.01	211.76
354.39	211.98
354.77	211.93
355.15	212.55
355.54	212.40
355.92	211.69
356.30	211.86
356.68	213.14
357.06	213.43
357.44	213.33
357.82	213.26
358.20	214.36
358.58	214.57
358.97	214.62
359.35	215.10
359.73	215.57
360.11	215.33
360.49	215.69
360.87	215.76
361.25	216.14
361.63	217.02
362.01	217.12
362.39	216.98
362.77	217.10
363.15	216.98
363.53	217.14
363.91	217.31
364.29	217.26
364.67	215.33
365.05	215.29
365.43	215.57
365.81	215.83
366.19	216.00
366.57	216.52
366.95	216.62
367.33	215.95
367.71	215.71
368.09	216.26
368.47	216.07
368.85	215.95
369.23	216.17
369.61	215.36
369.99	216.02
370.37	216.26
370.75	217.36
371.13	217.10
371.51	216.45
371.89	216.55
372.27	216.64
372.65	216.83
373.03	216.81
373.41	216.48
373.78	216.24
374.16	215.21
374.54	214.62
374.92	214.40
375.30	214.45
375.68	214.24
376.06	214.38
376.44	214.31
376.82	214.52
377.19	214.64
377.57	214.52
377.95	213.88
378.33	213.79
378.71	212.52
379.09	212.86
379.47	213.21
379.84	213.19
380.22	213.00
380.60	212.57
380.98	212.67
381.36	212.69
381.73	212.50
382.11	212.74
382.49	212.62
382.87	212.33
383.25	212.55
383.62	214.67
384.00	214.40
384.38	214.36
384.76	214.71
385.13	215.14
385.51	215.36
385.89	215.19
386.27	215.38
386.64	215.74
387.02	215.52
387.40	215.64
387.78	215.83
388.15	216.05
388.53	216.29
388.91	216.24
389.29	216.07
389.66	216.45
390.04	216.00
390.42	216.62
390.79	216.76
391.17	216.71
391.55	214.60
391.92	214.45
392.30	214.86
392.68	214.24
393.05	214.14
393.43	214.14
393.81	214.12
394.18	213.90
394.56	214.07
394.94	214.50
395.31	214.05
395.69	214.71
396.06	215.00
396.44	214.90
396.82	214.60
397.19	215.69
397.57	215.48
397.95	215.95
398.32	215.38
398.70	215.55
399.07	216.05
399.45	216.02
399.82	216.05
400.20	215.90
400.58	216.00
400.95	215.24
401.33	215.69
401.70	217.12
402.08	216.98
402.45	216.74
402.83	217.07
403.20	217.40
403.58	217.02
403.95	217.38
404.33	217.93
404.71	218.38
405.08	219.57
405.46	220.14
405.83	220.62
406.21	220.95
406.58	221.57
406.96	221.60
407.33	222.29
407.70	223.07
408.08	225.17
408.45	225.93
408.83	226.88
409.20	227.36
409.58	226.95
409.95	228.38
410.33	229.07
410.70	229.24
411.08	230.45
411.45	231.50
411.82	232.21
412.20	233.64
412.57	235.93
412.95	235.60
413.32	237.12
413.69	238.40
414.07	240.17
414.44	241.93
414.82	244.36
415.19	246.88
415.56	249.02
415.94	250.21
416.31	253.21
416.68	256.12
417.06	259.43
417.43	263.29
417.81	266.29
418.18	270.36
418.55	274.43
418.93	278.60
419.30	282.93
419.67	287.33
420.04	292.02
420.42	296.29
420.79	303.69
421.16	309.14
421.54	315.88
421.91	321.98
422.28	327.98
422.66	334.05
423.03	341.90
423.40	348.86
423.77	355.93
424.15	363.05
424.52	370.55
424.89	379.02
425.26	386.69
425.64	394.57
426.01	402.50
426.38	411.45
426.75	420.64
427.13	429.50
427.50	438.76
427.87	448.67
428.24	458.57
428.61	466.57
428.99	477.81
429.36	488.40
429.73	499.90
430.10	511.62
430.47	523.43
430.85	533.76
431.22	545.98
431.59	560.43
431.96	573.19
432.33	587.62
432.70	600.88
433.08	616.76
433.45	631.71
433.82	647.17
434.19	664.02
434.56	680.60
434.93	696.26
435.30	712.81
435.68	730.07
436.05	747.69
436.42	764.24
436.79	780.38
437.16	797.52
437.53	815.24
437.90	832.40
438.27	850.62
438.64	868.83
439.01	886.10
439.38	900.07
439.75	915.21
440.13	931.74
440.50	948.21
440.87	960.76
441.24	974.07
441.61	988.40
441.98	999.33
442.35	1011.21
442.72	1023.98
443.09	1037.10
443.46	1044.67
443.83	1049.88
444.20	1055.17
444.57	1060.40
444.94	1063.79
445.31	1067.10
445.68	1073.62
446.05	1074.81
446.42	1073.19
446.79	1072.17
447.16	1070.74
447.53	1069.43
447.90	1063.17
448.27	1056.10
448.64	1047.67
449.01	1042.05
449.37	1031.36
449.74	1020.24
450.11	1009.38
450.48	995.48
450.85	979.52
451.22	967.02
451.59	954.93
451.96	943.79
452.33	928.90
452.70	914.76
453.07	897.52
453.43	877.40
453.80	861.12
454.17	845.36
454.54	829.57
454.91	813.29
455.28	796.95
455.65	782.24
456.02	771.10
456.38	758.55
456.75	742.57
457.12	729.21
457.49	716.60
457.86	702.36
458.23	692.45
458.59	681.05
458.96	669.21
459.33	658.31
459.70	647.36
460.07	638.69
460.43	628.86
460.80	620.40
461.17	612.98
461.54	604.71
461.91	597.00
462.27	589.07
462.64	581.71
463.01	574.29
463.38	567.69
463.74	556.60
464.11	550.00
464.48	544.88
464.85	538.60
465.21	534.10
465.58	529.33
465.95	522.45
466.32	517.02
466.68	511.74
467.05	506.57
467.42	501.74
467.78	496.36
468.15	491.67
468.52	488.10
468.88	482.81
469.25	477.74
469.62	474.40
469.98	470.43
470.35	466.90
470.72	463.55
471.08	458.40
471.45	455.64
471.82	452.86
472.18	449.00
472.55	446.19
472.92	442.64
473.28	439.57
473.65	436.67
474.02	434.62
474.38	432.79
474.75	431.29
475.11	429.02
475.48	427.57
475.85	425.74
476.21	423.62
476.58	422.45
476.94	421.60
477.31	420.14
477.67	419.05
478.04	417.98
478.41	417.31
478.77	418.98
479.14	417.57
479.50	416.86
479.87	416.31
480.23	416.24
480.60	415.29
480.96	414.83
481.33	415.93
481.69	415.71
482.06	415.57
482.42	415.76
482.79	415.95
483.15	415.93
483.52	416.69
483.88	417.17
484.25	417.52
484.61	418.36
484.98	419.21
485.34	420.93
485.71	422.21
486.07	423.38
486.44	423.10
486.80	424.86
487.17	426.21
487.53	428.88
487.90	431.40
488.26	434.62
488.62	437.21
488.99	438.83
489.35	441.31
489.72	444.21
490.08	446.52
490.44	449.31
490.81	452.95
491.17	455.76
491.54	459.71
491.90	463.48
492.26	466.88
492.63	470.29
492.99	473.52
493.36	478.12
493.72	482.43
494.08	486.98
494.45	492.33
494.81	497.50
495.17	501.43
495.54	506.33
495.90	511.24
496.26	516.67
496.63	522.10
496.99	527.31
497.35	532.95
497.72	539.21
498.08	544.93
498.44	551.21
498.80	557.95
499.17	563.64
499.53	569.81
499.89	577.02
500.26	583.98
500.62	590.86
500.98	597.45
501.34	604.50
501.71	611.98
502.07	619.10
502.43	625.95
502.79	632.88
503.16	639.69
503.52	646.83
503.88	653.64
504.24	661.12
504.60	668.98
504.97	676.48
505.33	683.98
505.69	692.50
506.05	699.74
506.41	707.33
506.78	714.98
507.14	722.40
507.50	729.88
507.86	737.40
508.22	745.40
508.59	752.52
508.95	760.24
509.31	768.55
509.67	776.00
510.03	783.83
510.39	792.60
510.75	800.48
511.12	807.60
511.48	815.52
511.84	822.64
512.20	830.31
512.56	837.95
512.92	845.81
513.28	853.17
513.64	860.45
514.00	867.40
514.37	875.38
514.73	882.93
515.09	889.83
515.45	896.86
515.81	903.98
516.17	911.14
516.53	917.64
516.89	923.31
517.25	929.90
517.61	936.02
517.97	941.79
518.33	948.02
518.69	955.12
519.05	961.33
519.41	968.21
519.77	975.40
520.13	981.71
520.49	986.95
520.85	992.52
521.21	999.14
521.57	1005.33
521.93	1010.12
522.29	1015.98
522.65	1021.48
523.01	1027.21
523.37	1031.60
523.73	1037.60
524.09	1042.26
524.45	1047.48
524.81	1052.07
525.17	1057.62
525.53	1062.64
525.89	1067.50
526.25	1072.05
526.61	1076.43
526.97	1079.88
527.33	1083.60
527.68	1089.69
528.04	1094.43
528.40	1098.48
528.76	1102.69
529.12	1106.67
529.48	1112.02
529.84	1115.71
530.20	1119.71
530.56	1123.95
530.91	1128.90
531.27	1132.93
531.63	1138.02
531.99	1141.57
532.35	1145.52
532.71	1148.79
533.07	1153.05
533.42	1159.29
533.78	1163.29
534.14	1168.36
534.50	1173.00
534.86	1177.81
535.21	1179.19
535.57	1183.36
535.93	1186.95
536.29	1191.19
536.65	1195.19
537.00	1197.57
537.36	1201.45
537.72	1205.05
538.08	1208.64
538.44	1211.69
538.79	1215.00
539.15	1217.60
539.51	1221.48
539.87	1225.33
540.22	1229.48
540.58	1232.81
540.94	1234.43
541.29	1237.86
541.65	1239.88
542.01	1243.02
542.37	1244.62
542.72	1247.40
543.08	1249.40
543.44	1252.64
543.79	1253.67
544.15	1256.69
544.51	1260.60
544.87	1263.60
545.22	1267.10
545.58	1269.71
545.94	1272.76
546.29	1275.67
546.65	1278.83
547.01	1280.86
547.36	1283.74
547.72	1285.74
548.07	1289.14
548.43	1291.36
548.79	1293.40
549.14	1296.19
549.50	1298.86
549.86	1301.50
550.21	1304.79
550.57	1308.17
550.92	1311.31
551.28	1315.67
551.64	1318.74
551.99	1321.38
552.35	1324.29
552.70	1326.69
553.06	1330.14
553.41	1332.71
553.77	1336.55
554.13	1340.38
554.48	1344.48
554.84	1349.50
555.19	1353.33
555.55	1357.38
555.90	1360.24
556.26	1364.36
556.61	1367.76
556.97	1371.24
557.32	1375.60
557.68	1379.26
558.03	1383.38
558.39	1386.38
558.74	1389.48
559.10	1392.90
559.45	1397.38
559.81	1402.10
560.16	1405.62
560.52	1409.93
560.87	1415.19
561.23	1418.29
561.58	1423.19
561.94	1425.81
562.29	1428.45
562.64	1432.95
563.00	1436.12
563.35	1441.50
563.71	1446.24
564.06	1451.45
564.42	1456.48
564.77	1461.81
565.12	1467.76
565.48	1474.90
565.83	1481.86
566.19	1487.90
566.54	1493.60
566.89	1498.79
567.25	1504.48
567.60	1512.05
567.96	1519.43
568.31	1526.29
568.66	1533.45
569.02	1537.60
569.37	1544.45
569.72	1550.14
570.08	1555.76
570.43	1560.93
570.78	1567.12
571.14	1572.45
571.49	1577.40
571.84	1582.76
572.20	1587.57
572.55	1592.90
572.90	1595.83
573.26	1600.00
573.61	1604.62
573.96	1609.21
574.31	1613.81
574.67	1617.40
575.02	1620.71
575.37	1622.81
575.72	1624.79
576.08	1628.17
576.43	1632.17
576.78	1635.74
577.13	1639.64
577.49	1644.12
577.84	1648.67
578.19	1651.60
578.54	1655.83
578.90	1660.48
579.25	1664.40
579.60	1667.76
579.95	1670.29
580.30	1674.12
580.66	1678.05
581.01	1681.29
581.36	1684.64
581.71	1687.64
582.06	1691.79
582.42	1695.71
582.77	1698.95
583.12	1702.14
583.47	1704.43
583.82	1708.17
584.17	1711.83
584.53	1714.79
584.88	1717.02
585.23	1720.33
585.58	1722.76
585.93	1724.00
586.28	1726.43
586.63	1729.38
586.98	1732.40
587.34	1735.57
587.69	1737.64
588.04	1739.76
588.39	1741.48
588.74	1742.00
589.09	1744.14
589.44	1745.12
589.79	1747.48
590.14	1749.71
590.49	1751.90
590.84	1753.62
591.19	1755.17
591.54	1756.50
591.89	1757.79
592.25	1760.93
592.60	1761.62
592.95	1763.71
593.30	1766.83
593.65	1768.02
594.00	1768.07
594.35	1774.60
594.70	1774.81
595.05	1775.60
595.40	1775.95
595.75	1777.07
596.10	1779.50
596.45	1780.95
596.80	1782.29
597.15	1782.00
597.50	1781.98
597.85	1782.90
598.19	1783.98
598.54	1784.64
598.89	1785.10
599.24	1786.60
599.59	1786.12
599.94	1786.62
600.29	1787.10
600.64	1786.36
600.99	1786.36
601.34	1787.05
601.69	1781.38
602.04	1781.10
602.39	1780.74
602.74	1780.90
603.08	1780.79
603.43	1781.52
603.78	1780.88
604.13	1780.62
604.48	1780.14
604.83	1780.64
605.18	1780.76
605.53	1780.31
605.87	1778.86
606.22	1777.33
606.57	1775.33
606.92	1773.45
607.27	1772.62
607.62	1771.88
607.96	1770.83
608.31	1770.10
608.66	1768.98
609.01	1767.10
609.36	1766.55
609.70	1765.52
610.05	1763.36
610.40	1761.45
610.75	1758.21
611.10	1756.21
611.44	1752.79
611.79	1750.43
612.14	1747.38
612.49	1742.79
612.83	1739.05
613.18	1736.31
613.53	1733.31
613.88	1730.19
614.22	1726.74
614.57	1722.71
614.92	1718.24
615.27	1715.33
615.61	1710.76
615.96	1706.38
616.31	1702.79
616.65	1700.29
617.00	1696.69
617.35	1693.43
617.70	1690.14
618.04	1686.17
618.39	1681.71
618.74	1678.31
619.08	1673.60
619.43	1669.98
619.78	1666.69
620.12	1663.71
620.47	1660.43
620.82	1656.57
621.16	1652.29
621.51	1649.33
621.85	1645.67
622.20	1641.79
622.55	1637.00
622.89	1633.00
623.24	1629.88
623.59	1626.12
623.93	1620.79
624.28	1616.67
624.62	1614.90
624.97	1612.29
625.32	1608.48
625.66	1604.64
626.01	1600.67
626.35	1598.24
626.70	1594.55
627.04	1592.57
627.39	1588.24
627.73	1585.43
628.08	1582.12
628.43	1578.02
628.77	1573.69
629.12	1570.10
629.46	1566.38
629.81	1563.00
630.15	1558.67
630.50	1554.17
630.84	1549.29
631.19	1544.48
631.53	1539.31
631.88	1531.29
632.22	1523.67
632.57	1519.38
632.91	1514.69
633.26	1510.43
633.60	1504.07
633.95	1498.26
634.29	1491.76
634.64	1486.76
634.98	1480.79
635.32	1477.50
635.67	1473.74
636.01	1469.90
636.36	1463.81
636.70	1459.71
637.05	1454.29
637.39	1450.45
637.73	1445.81
638.08	1441.74
638.42	1436.98
638.77	1433.05
639.11	1428.76
639.45	1424.90
639.80	1419.86
640.14	1415.12
640.49	1409.62
640.83	1404.74
641.17	1400.50
641.52	1394.98
641.86	1390.07
642.20	1385.60
642.55	1378.60
642.89	1373.00
643.23	1366.38
643.58	1361.88
643.92	1355.36
644.26	1349.21
644.61	1343.24
644.95	1337.21
645.29	1330.64
645.64	1326.05
645.98	1319.69
646.32	1314.71
646.66	1308.48
647.01	1301.74
647.35	1296.07
647.69	1289.76
648.04	1284.19
648.38	1278.10
648.72	1272.81
649.06	1266.81
649.41	1259.83
649.75	1253.93
650.09	1247.50
650.43	1240.62
650.78	1233.93
651.12	1227.74
651.46	1221.67
651.80	1215.40
652.14	1209.43
652.49	1204.00
652.83	1196.93
653.17	1189.86
653.51	1182.71
653.85	1176.69
654.20	1170.29
654.54	1162.88
654.88	1156.88
655.22	1150.55
655.56	1143.81
655.90	1136.69
656.25	1130.31
656.59	1124.24
656.93	1117.71
657.27	1112.17
657.61	1105.90
657.95	1100.17
658.29	1093.24
658.64	1087.29
658.98	1080.64
659.32	1073.79
659.66	1066.79
660.00	1060.60
660.34	1054.74
660.68	1049.17
661.02	1042.10
661.36	1036.29
661.70	1030.43
662.05	1023.88
662.39	1017.95
662.73	1012.24
663.07	1007.31
663.41	1001.07
663.75	994.71
664.09	988.95
664.43	982.21
664.77	976.29
665.11	970.02
665.45	964.45
665.79	958.90
666.13	953.00
666.47	947.45
666.81	942.10
667.15	935.81
667.49	930.79
667.83	925.05
668.17	920.10
668.51	914.76
668.85	909.60
669.19	905.31
669.53	899.29
669.87	893.02
670.21	886.64
670.55	880.69
670.89	875.88
671.23	870.36
671.57	864.86
671.91	859.71
672.25	853.71
672.58	849.55
672.92	843.38
673.26	838.10
673.60	832.43
673.94	826.76
674.28	821.40
674.62	816.48
674.96	810.98
675.30	806.02
675.64	801.05
675.97	795.64
676.31	789.98
676.65	784.69
676.99	780.62
677.33	775.52
677.67	771.10
678.01	765.69
678.34	760.64
678.68	756.62
679.02	751.17
679.36	746.55
679.70	740.93
680.04	736.40
680.37	731.33
680.71	726.43
681.05	722.26
681.39	717.79
681.73	712.33
682.06	706.98
682.40	702.64
682.74	698.45
683.08	694.50
683.42	690.07
683.75	685.88
684.09	680.98
684.43	676.55
684.77	671.81
685.10	666.86
685.44	662.60
685.78	657.45
686.12	653.19
686.45	648.48
686.79	643.45
687.13	639.57
687.46	635.38
687.80	632.12
688.14	627.43
688.48	623.40
688.81	618.83
689.15	615.62
689.49	611.00
689.82	606.02
690.16	601.21
690.50	596.52
690.83	592.21
691.17	587.38
691.51	582.95
691.84	579.19
692.18	575.33
692.52	571.29
692.85	567.48
693.19	564.74
693.52	561.05
693.86	557.07
694.20	552.83
694.53	549.07
694.87	544.43
695.21	540.55
695.54	536.76
695.88	533.45
696.21	528.90
696.55	525.12
696.88	521.95
697.22	518.02
697.56	514.93
697.89	511.26
698.23	508.36
698.56	504.93
698.90	501.26
699.23	497.29
699.57	493.76
699.90	489.88
700.24	485.88
700.58	483.02
700.91	480.10
701.25	478.43
701.58	476.17
701.92	473.83
702.25	470.90
702.59	467.31
702.92	464.33
703.26	461.93
703.59	458.79
703.93	457.10
704.26	454.81
704.60	451.60
704.93	448.57
705.26	445.60
705.60	443.29
705.93	440.31
706.27	438.50
706.60	435.90
706.94	434.33
707.27	431.26
707.61	428.43
707.94	425.64
708.27	421.21
708.61	417.50
708.94	414.69
709.28	412.40
709.61	410.05
709.94	407.64
710.28	404.98
710.61	402.64
710.95	398.67
711.28	397.62
711.61	395.45
711.95	393.67
712.28	391.00
712.61	388.29
712.95	387.19
713.28	385.57
713.61	383.29
713.95	380.48
714.28	378.74
714.61	376.81
714.95	374.90
715.28	373.21
715.61	371.57
715.95	369.29
716.28	366.98
716.61	365.48
716.95	363.24
717.28	361.14
717.61	359.48
717.94	357.55
718.28	354.07
718.61	352.21
718.94	350.31
719.27	348.67
719.61	347.36
719.94	345.19
720.27	342.62
720.60	340.81
720.94	339.19
721.27	337.76
721.60	336.33
721.93	334.60
722.27	333.33
722.60	332.07
722.93	330.40
723.26	329.12
723.59	327.29
723.93	326.24
724.26	325.36
724.59	323.95
724.92	322.83
725.25	322.10
725.59	320.88
725.92	319.64
726.25	318.40
726.58	317.31
726.91	315.79
727.24	314.67
727.57	313.60
727.91	312.00
728.24	310.93
728.57	309.36
728.90	308.57
729.23	306.90
729.56	306.36
729.89	305.52
730.22	304.19
730.55	303.19
730.89	302.21
731.22	300.86
731.55	299.74
731.88	298.98
732.21	297.76
732.54	296.67
732.87	295.83
733.20	294.98
733.53	293.86
733.86	293.31
734.19	292.07
734.52	291.67
734.85	292.17
735.18	291.14
735.51	290.93
735.84	290.33
736.17	290.29
736.50	288.48
736.83	289.98
737.16	289.19
737.49	288.38
737.82	287.31
738.15	286.90
738.48	286.10
738.81	284.95
739.14	283.83
739.47	282.93
739.80	282.00
740.13	281.40
740.46	280.48
740.79	279.21
741.12	278.67
741.45	277.40
741.78	275.76
742.11	275.43
742.44	274.26
742.77	273.81
743.10	272.90
743.43	272.17
743.75	269.40
744.08	271.48
744.41	270.57
744.74	270.00
745.07	268.62
745.40	268.29
745.73	268.52
746.06	268.10
746.39	267.86
746.71	267.12
747.04	266.07
747.37	265.45
747.70	265.43
748.03	264.95
748.36	264.69
748.68	264.21
749.01	263.07
749.34	262.36
749.67	261.57
750.00	261.12
750.33	261.86
750.65	261.38
750.98	258.26
751.31	257.86
751.64	257.38
751.97	258.40
752.29	257.79
752.62	256.57
752.95	255.83
753.28	254.93
753.60	254.40
753.93	254.69
754.26	254.31
754.59	253.12
754.91	252.29
755.24	251.40
755.57	250.64
755.90	250.14
756.22	249.43
756.55	248.74
756.88	247.74
757.20	246.26
757.53	245.33
757.86	245.00
758.19	244.98
758.51	244.48
758.84	242.79
759.17	242.31
759.49	241.74
759.82	242.21
760.15	242.31
760.47	241.95
760.80	240.98
761.13	241.00
761.45	240.62
761.78	240.19
762.11	240.05
762.43	239.64
762.76	239.31
763.08	239.55
763.41	239.33
763.74	239.21
764.06	238.95
764.39	238.64
764.71	238.29
765.04	237.43
765.37	236.93
765.69	236.64
766.02	236.12
766.34	235.93
766.67	234.93
767.00	234.79
767.32	235.69
767.65	236.71
767.97	236.19
768.30	236.02
768.62	236.05
768.95	235.69
769.27	235.45
769.60	235.50
769.92	234.83
770.25	234.12
770.57	233.36
770.90	232.95
771.22	232.60
771.55	232.17
771.87	232.36
772.20	232.07
772.52	233.52
772.85	236.05
773.17	235.81
773.50	235.69
773.82	234.98
774.15	233.79
774.47	232.07
774.80	231.69
775.12	231.55
775.45	231.14
775.77	230.98
776.09	230.81
776.42	230.43
776.74	230.69
777.07	230.45
777.39	230.55
777.72	230.24
778.04	230.38
778.36	230.31
778.69	229.74
779.01	229.76
779.33	227.76
779.66	225.29
779.98	224.86
780.31	224.67
780.63	225.45
780.95	225.50
781.28	225.48
781.60	225.07
781.92	224.95
782.25	224.88
782.57	224.86
782.89	224.74
783.22	224.40
783.54	224.12
783.86	224.26
784.19	224.05
784.51	224.31
784.83	223.69
785.16	223.45
785.48	223.52
785.80	223.12
786.12	223.36
786.45	223.14
786.77	223.29
787.09	223.12
787.42	222.19
787.74	222.24
788.06	222.19
788.38	222.14
788.71	221.74
789.03	221.81
789.35	221.98
789.67	221.57
789.99	221.76
790.32	221.31
790.64	221.45
790.96	223.17
791.28	222.67
791.61	222.69
791.93	222.88
792.25	222.74
792.57	224.24
792.89	223.86
793.21	223.90
793.54	223.74
793.86	223.48
794.18	223.43
794.50	222.69
794.82	222.57
795.14	222.79
795.47	223.52
795.79	223.38
796.11	222.48
796.43	222.62
796.75	222.64
797.07	222.67
797.39	222.50
797.71	220.79
798.04	220.76
798.36	220.76
798.68	220.48
799.00	220.62
799.32	219.52
799.64	219.86
799.96	219.71
800.28	220.07
800.60	219.81
800.92	220.10
801.24	220.17
801.56	220.38
801.89	220.21
802.21	219.98
802.53	219.62
802.85	220.19
803.17	220.76
803.49	220.19
803.81	220.07
804.13	220.00
804.45	219.95
804.77	219.93
805.09	219.95
805.41	219.62
805.73	219.12
806.05	218.55
806.37	218.33
806.69	218.07
807.01	217.69
807.33	217.98
807.65	217.29
807.97	218.26
808.28	217.93
808.60	217.83
808.92	217.64
809.24	218.83
809.56	218.64
809.88	218.10
810.20	218.21
810.52	218.62
810.84	218.24
811.16	217.74
811.48	217.76
811.80	218.33
812.12	218.60
812.43	218.90
812.75	219.17
813.07	218.93
813.39	218.90
813.71	218.60
814.03	218.26
814.35	218.40
814.67	217.48
814.98	217.45
815.30	217.29
815.62	216.83
815.94	215.36
816.26	215.33
816.58	214.76
816.89	214.88
817.21	214.48
817.53	214.62
817.85	214.71
818.17	214.64
818.48	213.88
818.80	214.05
819.12	213.81
819.44	213.40
819.76	212.95
820.07	213.26
820.39	213.24
820.71	213.57
821.03	213.38
821.34	213.26
821.66	213.67
821.98	214.10
822.30	213.88
822.61	215.38
822.93	215.12
823.25	215.05
823.57	215.14
823.88	215.45
824.20	215.57
824.52	216.26
824.83	216.26
825.15	216.02
825.47	216.07
825.79	216.55
826.10	216.38
826.42	216.52
826.74	216.57
827.05	216.52
827.37	216.52
827.69	216.48
828.00	216.60
828.32	216.55
828.64	216.26
828.95	217.48
829.27	216.74
829.58	216.95
829.90	217.55
830.22	217.40
830.53	217.05
830.85	216.71
831.17	216.05
831.48	215.93
831.80	216.19
832.11	215.79
832.43	215.14
832.75	215.40
833.06	216.79
833.38	216.12
833.69	216.26
834.01	216.17
834.32	216.07
834.64	215.81
834.96	215.57
835.27	215.38
835.59	214.93
835.90	214.55
836.22	214.31
836.53	213.64
836.85	213.26
837.16	215.29
837.48	215.48
837.79	216.00
838.11	216.14
838.42	216.07
838.74	216.48
839.05	216.45
839.37	216.36
839.68	214.98
840.00	214.98
840.31	215.19
840.63	215.07
840.94	214.76
841.26	214.83
841.57	214.69
841.88	215.17
842.20	214.74
842.51	214.62
842.83	214.69
843.14	216.64
843.46	217.10
843.77	216.02
844.08	215.79
844.40	215.19
844.71	214.93
845.03	214.71
845.34	214.48
845.65	214.55
845.97	214.64
846.28	214.81
846.60	215.12
846.91	214.79
847.22	214.55
847.54	215.17
847.85	215.07
848.16	215.14
848.48	214.52
848.79	215.40
849.10	215.60
849.42	215.90
849.73	214.05
850.04	213.71
850.36	212.83
850.67	213.26
850.98	213.29
851.30	213.60
851.61	213.76
851.92	213.81
852.23	214.21
852.55	214.33
852.86	214.33
853.17	214.33
853.49	214.86
853.80	215.55
854.11	215.64
854.42	215.86
854.74	215.50
855.05	215.62
855.36	214.31
855.67	214.43
855.99	214.21
856.30	216.79
856.61	216.83
856.92	216.83
857.23	216.69
857.55	216.71
857.86	216.40
858.17	216.64
858.48	216.26
858.79	215.93
859.11	216.12
859.42	216.19
859.73	216.10
860.04	215.90
860.35	215.21
860.66	214.64
860.98	214.67
861.29	215.00
861.60	214.98
861.91	215.76
862.22	215.36
862.53	214.93
862.84	212.52
863.16	213.00
863.47	212.52
863.78	212.40
864.09	212.52
864.40	212.86
864.71	212.81
865.02	213.38
865.33	213.36
865.64	212.90
865.95	212.79
866.27	213.88
866.58	213.64
866.89	214.00
867.20	213.90
867.51	213.50
867.82	213.24
868.13	213.95
868.44	213.36
868.75	213.62
869.06	213.86
869.37	213.88
869.68	213.17
869.99	213.86
870.30	214.00
870.61	214.00
870.92	213.71
871.23	213.67
871.54	213.69
871.85	214.02
872.16	214.33
872.47	213.98
872.78	212.88
873.09	212.95
873.40	212.57
873.71	213.02
874.02	213.24
874.33	213.10
874.64	212.50
874.95	212.81
875.26	212.62
875.56	212.71
875.87	212.76
876.18	212.90
876.49	214.79
876.80	214.48
877.11	214.19
877.42	214.05
877.73	213.74
878.04	213.52
878.35	213.60
878.66	213.45
878.96	213.48
879.27	213.36
879.58	213.29
879.89	213.36
880.20	213.76
880.51	213.90
880.82	214.10
881.12	214.19
881.43	213.83
881.74	213.71
882.05	213.55
882.36	213.57
882.67	213.62
882.97	211.52
883.28	211.67
883.59	211.69
883.90	211.95
884.21	212.31
884.51	212.38
884.82	212.02
885.13	212.02
885.44	212.00
885.74	212.19
886.05	212.17
886.36	212.21
886.67	211.43
886.98	212.14
887.28	212.31
887.59	212.40
887.90	212.62
888.20	212.43
888.51	212.90
888.82	212.76
889.13	212.74
889.43	214.36
889.74	214.10
890.05	214.02
890.35	213.67
890.66	213.36
890.97	212.98
891.28	212.74
891.58	212.76
891.89	212.86
892.20	212.50
892.50	212.21
892.81	212.19
893.12	212.38
893.42	211.45
893.73	211.50
894.04	211.36
894.34	211.52
894.65	211.33
894.95	211.02
895.26	211.02
895.57	211.98
895.87	210.14
896.18	210.50
896.48	210.71
896.79	210.83
897.10	211.36
897.40	211.60
897.71	211.98
898.01	211.93
898.32	212.12
898.63	212.10
898.93	212.45
899.24	212.29
899.54	211.98
899.85	212.17
900.15	211.88
900.46	212.00
900.76	211.98
901.07	212.12
901.38	211.62
901.68	211.86
901.99	210.98
902.29	211.17
902.60	210.95
902.90	210.64
903.21	210.71
903.51	210.33
903.82	210.55
904.12	210.45
904.43	210.43
904.73	210.45
905.03	210.52
905.34	212.40
905.64	212.48
905.95	212.76
906.25	212.50
906.56	212.50
906.86	212.26
907.17	212.07
907.47	212.26
907.77	212.40
908.08	212.12
908.38	212.33
908.69	212.50
908.99	213.05
909.30	213.26
909.60	213.31
909.90	213.60
910.21	212.98
910.51	212.64
910.81	212.62
911.12	212.67
911.42	212.74
911.73	210.71
912.03	210.90
912.33	211.33
912.64	211.55
912.94	211.48
913.24	211.33
913.55	211.19
913.85	211.21
914.15	211.69
914.46	211.90
914.76	211.64
915.06	211.45
915.37	210.93
915.67	210.83
915.97	210.90
916.27	210.45
916.58	210.71
916.88	210.57
917.18	210.86
917.49	212.14
917.79	212.17
918.09	212.64
918.39	213.19
918.70	212.95
919.00	212.81
919.30	213.79
919.60	213.79
919.91	213.74
920.21	213.62
920.51	213.21
920.81	213.05
921.12	213.40
921.42	213.45
921.72	213.64
922.02	213.86
922.32	214.12
922.63	214.40
922.93	215.36
923.23	215.60
923.53	215.19
923.83	213.86
924.13	213.98
924.44	213.79
924.74	214.05
925.04	214.52
925.34	214.36
925.64	213.62
925.94	213.62
926.24	214.76
926.55	214.62
926.85	215.05
927.15	215.00
927.45	214.88
927.75	214.69
928.05	214.74
928.35	214.71
928.65	215.07
928.95	215.02
929.26	214.38
929.56	214.98
929.86	215.33
930.16	215.33
930.46	215.21
930.76	215.33
931.06	214.29
931.36	213.60
931.66	214.17
931.96	214.43
932.26	214.64
932.56	213.76
932.86	214.00
933.16	213.98
933.46	213.88
933.76	213.45
934.06	213.98
934.36	214.90
934.66	214.74
934.96	214.40
935.26	214.40
935.56	214.64
935.86	213.98
936.16	213.69
936.46	213.43
936.76	213.50
937.06	213.00
937.36	213.21
937.66	213.24
937.96	212.76
938.26	212.24
938.56	211.86
938.86	211.93
939.16	212.45
939.46	212.57
939.76	212.50
940.06	212.48
940.35	211.95
940.65	210.50
940.95	210.57
941.25	210.02
941.55	209.86
941.85	209.67
942.15	210.17
942.45	210.69
942.75	210.79
943.04	210.67
943.34	211.02
943.64	210.74
943.94	210.55
944.24	210.79
944.54	210.95
944.84	211.19
945.13	210.86
945.43	210.60
945.73	210.55
946.03	210.57
946.33	210.50
946.62	210.48
946.92	210.55
947.22	210.64
947.52	210.81
947.82	211.05
948.11	210.64
948.41	209.98
948.71	209.29
949.01	209.43
949.31	209.24
949.60	209.26
949.90	209.64
950.20	209.69
950.50	209.90
950.79	209.76
951.09	209.93
951.39	209.98
951.69	209.48
951.98	209.60
952.28	209.83
952.58	209.83
952.87	209.74
953.17	210.14
953.47	209.81
953.76	209.81
954.06	209.45
954.36	209.29
954.66	209.57
954.95	210.26
955.25	210.55
955.55	210.69
955.84	210.31
956.14	210.57
956.44	210.48
956.73	209.86
957.03	210.05
957.32	210.07
957.62	210.07
957.92	210.50
958.21	210.17
958.51	212.38
958.81	212.71
959.10	212.90
959.40	213.36
959.69	213.62
959.99	213.90
960.29	213.90
960.58	214.00
960.88	214.81
961.17	214.43
961.47	214.29
961.76	214.36
962.06	214.81
962.36	214.36
962.65	214.83
962.95	214.95
963.24	214.83
963.54	214.90
963.83	214.90
964.13	214.79
964.42	214.48
964.72	212.79
965.01	212.81
965.31	212.93
965.60	212.14
965.90	213.40
966.19	212.90
966.49	213.10
966.78	213.07
967.08	212.67
967.37	212.62
967.67	212.31
967.96	212.55
968.26	212.29
968.55	212.69
968.85	212.33
969.14	212.48
969.43	212.55
969.73	212.26
970.02	212.26
970.32	212.40
970.61	212.50
970.91	211.74
971.20	211.57
971.49	211.33
971.79	211.79
972.08	210.38
972.38	210.76
972.67	210.64
972.96	210.88
973.26	210.55
973.55	211.50
973.85	211.62
974.14	211.57
974.43	211.76
974.73	211.36
975.02	211.31
975.31	211.31
975.61	211.05
975.90	210.95
976.19	210.71
976.49	210.74
976.78	210.93
977.07	211.26
977.37	211.33
977.66	211.69
977.95	211.29
978.24	211.50
978.54	211.57
978.83	211.52
979.12	211.50
979.42	211.62
979.71	210.98
980.00	210.86
980.29	210.86
980.59	210.33
980.88	210.74
981.17	210.69
981.46	210.74
981.76	210.67
982.05	211.17
982.34	211.55
982.63	211.64
982.93	211.52
983.22	212.07
983.51	212.00
983.80	212.29
984.09	212.45
984.39	212.33
984.68	212.07
984.97	212.24
985.26	211.98
985.55	212.10
985.85	211.67
986.14	212.21
986.43	212.48
986.72	212.36
987.01	211.93
987.30	211.90
987.59	211.60
987.89	211.95
988.18	211.38
988.47	211.07
988.76	210.69
989.05	210.60
989.34	209.95
989.63	210.76
989.92	210.33
990.22	210.40
990.51	210.26
990.80	210.33
991.09	210.50
991.38	210.88
991.67	210.43
991.96	210.19
992.25	209.71
992.54	209.24
992.83	209.62
993.12	209.36
993.41	209.71
993.70	210.74
993.99	211.07
994.28	211.31
994.58	211.64
994.87	211.33
995.16	211.19
995.45	211.12
995.74	210.31
996.03	210.69
996.32	210.90
996.61	211.67
996.90	211.48
997.19	211.48
997.48	211.43
997.77	211.50
998.06	211.88
998.34	211.90
998.63	212.17
998.92	212.19
999.21	212.76
999.50	212.83
999.79	211.95
1000.08	211.64
1000.37	211.81
1000.66	211.45
1000.95	212.24
1001.24	212.57
1001.53	212.95
1001.82	212.93
1002.11	212.14
1002.40	212.24
1002.68	212.38
1002.97	214.02
1003.26	213.55
1003.55	213.12
1003.84	213.19
1004.13	213.83
1004.42	213.81
1004.71	213.57
1004.99	213.31
1005.28	213.52
1005.57	213.43
1005.86	213.36
1006.15	213.36
1006.44	212.98
1006.72	213.36
1007.01	213.12
1007.30	213.29
1007.59	213.07
1007.88	212.86
1008.17	213.07
1008.45	212.50
1008.74	211.62
1009.03	210.71
1009.32	210.76
1009.60	210.81
1009.89	210.62
1010.18	209.55
1010.47	209.45
1010.76	209.29
1011.04	209.40
1011.33	209.57
1011.62	209.45
1011.91	209.43
1012.19	209.19
1012.48	209.36
1012.77	209.31
1013.05	210.07
1013.34	209.76
1013.63	209.43
1013.92	209.62
1014.20	209.38
1014.49	209.55
1014.78	209.74
1015.06	208.79
1015.35	208.57
1015.64	208.90
1015.92	209.29
1016.21	209.52
1016.50	209.52
1016.78	209.95
1017.07	210.02
1017.36	209.36
1017.64	209.00
1017.93	209.33
1018.22	209.33
1018.50	209.02
1018.79	209.00
1019.08	208.14
1019.36	208.33
1019.65	208.21
1019.93	208.86
1020.22	209.29
1020.51	210.26
1020.79	210.07
1021.08	206.50
1021.36	203.00
1021.65	212.00
1021.94	211.50
1022.22	211.50
1022.51	204.00
1022.79	221.00
1023.08	212.50
1023.36	231.50
1023.65	206.00
>>>>>End Processed Spectral Data<<<<<
