SpectraSuite Data File
++++++++++++++++++++++++++++++++++++
Date: Tue Apr 02 18:43:56 EDT 2013
User: group
Dark Spectrum Present: No
Reference Spectrum Present: No
Number of Sampled Component Spectra: 1
Spectrometers: USB2E7196
Integration Time (usec): 580000 (USB2E7196)
Spectra Averaged: 2 (USB2E7196)
Boxcar Smoothing: 10 (USB2E7196)
Correct for Electrical Dark: No (USB2E7196)
Strobe/Lamp Enabled: No (USB2E7196)
Correct for Detector Non-linearity: No (USB2E7196)
Correct for Stray Light: No (USB2E7196)
Number of Pixels in Processed Spectrum: 2048
>>>>>Begin Processed Spectral Data<<<<<
339.09	0.00
339.48	193.50
339.86	195.00
340.24	192.00
340.63	196.50
341.01	232.00
341.39	198.00
341.78	207.50
342.16	207.50
342.54	207.00
342.93	197.93
343.31	207.71
343.69	208.38
344.07	208.71
344.46	209.79
344.84	210.57
345.22	209.48
345.60	210.10
345.99	210.17
346.37	210.33
346.75	210.36
347.13	210.14
347.52	210.43
347.90	210.86
348.28	210.86
348.66	211.29
349.05	210.90
349.43	210.86
349.81	211.19
350.19	211.10
350.57	210.98
350.96	211.33
351.34	211.69
351.72	211.76
352.10	212.14
352.48	211.76
352.87	211.71
353.25	211.55
353.63	211.45
354.01	211.55
354.39	211.79
354.77	211.95
355.15	212.45
355.54	212.29
355.92	211.67
356.30	211.69
356.68	213.00
357.06	213.00
357.44	212.79
357.82	212.57
358.20	213.57
358.58	213.60
358.97	213.69
359.35	214.17
359.73	214.60
360.11	214.57
360.49	214.83
360.87	214.83
361.25	215.24
361.63	216.05
362.01	216.19
362.39	215.83
362.77	215.98
363.15	215.98
363.53	216.24
363.91	216.45
364.29	216.45
364.67	214.31
365.05	214.52
365.43	214.74
365.81	214.93
366.19	215.07
366.57	215.98
366.95	215.71
367.33	214.93
367.71	214.76
368.09	215.14
368.47	215.26
368.85	215.29
369.23	215.79
369.61	214.86
369.99	215.57
370.37	215.98
370.75	217.19
371.13	217.10
371.51	216.79
371.89	216.81
372.27	216.93
372.65	217.31
373.03	217.24
373.41	217.14
373.78	217.10
374.16	215.93
374.54	215.33
374.92	215.19
375.30	215.29
375.68	215.05
376.06	215.19
376.44	214.98
376.82	215.00
377.19	214.71
377.57	214.76
377.95	213.71
378.33	213.64
378.71	212.31
379.09	212.67
379.47	212.93
379.84	212.98
380.22	212.86
380.60	212.48
380.98	212.60
381.36	212.55
381.73	212.26
382.11	212.90
382.49	212.71
382.87	212.50
383.25	212.79
383.62	215.10
384.00	214.76
384.38	214.90
384.76	215.21
385.13	215.93
385.51	216.12
385.89	216.10
386.27	216.17
386.64	216.38
387.02	216.07
387.40	215.79
387.78	215.95
388.15	216.02
388.53	216.02
388.91	216.05
389.29	215.86
389.66	216.43
390.04	216.00
390.42	216.55
390.79	216.88
391.17	216.62
391.55	214.62
391.92	214.62
392.30	214.69
392.68	214.19
393.05	214.02
393.43	214.02
393.81	214.29
394.18	213.95
394.56	213.88
394.94	214.36
395.31	214.24
395.69	214.62
396.06	214.88
396.44	215.07
396.82	214.83
397.19	215.98
397.57	215.50
397.95	215.95
398.32	215.40
398.70	215.57
399.07	216.21
399.45	216.10
399.82	215.88
400.20	215.83
400.58	215.98
400.95	215.24
401.33	215.62
401.70	217.05
402.08	217.38
402.45	217.45
402.83	217.95
403.20	218.19
403.58	218.14
403.95	218.69
404.33	219.19
404.71	219.33
405.08	220.55
405.46	220.90
405.83	221.19
406.21	221.62
406.58	221.98
406.96	222.29
407.33	222.86
407.70	223.67
408.08	225.86
408.45	226.90
408.83	228.12
409.20	228.69
409.58	228.05
409.95	228.83
410.33	229.71
410.70	230.07
411.08	231.45
411.45	232.57
411.82	233.26
412.20	234.62
412.57	237.05
412.95	236.55
413.32	238.21
413.69	239.43
414.07	241.21
414.44	242.90
414.82	244.88
415.19	247.05
415.56	249.29
415.94	250.43
416.31	253.07
416.68	255.81
417.06	258.69
417.43	262.48
417.81	266.05
418.18	270.14
418.55	273.69
418.93	277.40
419.30	281.36
419.67	285.83
420.04	290.43
420.42	294.69
420.79	302.02
421.16	307.74
421.54	314.86
421.91	320.88
422.28	327.43
422.66	333.60
423.03	341.69
423.40	348.26
423.77	355.86
424.15	362.81
424.52	370.40
424.89	378.95
425.26	386.50
425.64	394.40
426.01	402.57
426.38	411.60
426.75	421.33
427.13	430.67
427.50	440.40
427.87	450.50
428.24	460.33
428.61	468.43
428.99	479.79
429.36	489.95
429.73	501.14
430.10	512.50
430.47	524.31
430.85	535.24
431.22	548.00
431.59	562.38
431.96	575.00
432.33	589.24
432.70	602.71
433.08	618.62
433.45	632.90
433.82	647.93
434.19	665.12
434.56	681.62
434.93	697.02
435.30	712.36
435.68	729.55
436.05	746.43
436.42	763.60
436.79	779.14
437.16	796.48
437.53	814.19
437.90	831.40
438.27	849.24
438.64	866.95
439.01	884.48
439.38	897.43
439.75	912.76
440.13	928.88
440.50	945.24
440.87	958.14
441.24	971.67
441.61	986.31
441.98	997.10
442.35	1009.26
442.72	1022.40
443.09	1036.10
443.46	1044.52
443.83	1050.33
444.20	1055.19
444.57	1060.98
444.94	1063.88
445.31	1067.81
445.68	1073.71
446.05	1075.00
446.42	1073.36
446.79	1071.62
447.16	1070.52
447.53	1069.10
447.90	1063.21
448.27	1056.52
448.64	1048.05
449.01	1042.26
449.37	1030.69
449.74	1019.60
450.11	1008.17
450.48	993.21
450.85	976.98
451.22	963.43
451.59	951.07
451.96	939.31
452.33	923.81
452.70	909.57
453.07	892.26
453.43	872.81
453.80	856.24
454.17	840.69
454.54	824.98
454.91	808.60
455.28	792.36
455.65	777.50
456.02	765.95
456.38	753.17
456.75	737.86
457.12	724.83
457.49	711.81
457.86	697.48
458.23	687.95
458.59	676.90
458.96	665.55
459.33	654.79
459.70	644.31
460.07	636.10
460.43	626.90
460.80	618.21
461.17	610.95
461.54	603.14
461.91	595.31
462.27	587.48
462.64	580.43
463.01	573.10
463.38	566.74
463.74	556.05
464.11	549.45
464.48	543.62
464.85	537.21
465.21	532.83
465.58	528.12
465.95	521.48
466.32	516.10
466.68	510.74
467.05	506.26
467.42	501.50
467.78	496.55
468.15	491.95
468.52	487.86
468.88	482.17
469.25	477.10
469.62	473.48
469.98	469.50
470.35	466.14
470.72	462.71
471.08	457.79
471.45	455.07
471.82	452.52
472.18	448.79
472.55	446.74
472.92	443.17
473.28	439.93
473.65	436.88
474.02	434.38
474.38	432.10
474.75	430.12
475.11	427.55
475.48	425.64
475.85	423.71
476.21	421.83
476.58	420.76
476.94	419.74
477.31	418.43
477.67	417.38
478.04	416.40
478.41	415.60
478.77	417.24
479.14	415.90
479.50	415.00
479.87	414.67
480.23	414.02
480.60	413.50
480.96	413.36
481.33	414.57
481.69	414.31
482.06	414.38
482.42	414.69
482.79	415.38
483.15	415.52
483.52	416.50
483.88	417.45
484.25	417.79
484.61	418.69
484.98	419.24
485.34	420.76
485.71	422.12
486.07	423.50
486.44	422.67
486.80	424.40
487.17	425.83
487.53	428.48
487.90	430.88
488.26	433.60
488.62	436.45
488.99	438.24
489.35	441.02
489.72	443.71
490.08	446.33
490.44	448.95
490.81	452.50
491.17	455.29
491.54	458.71
491.90	462.76
492.26	466.43
492.63	470.52
492.99	473.74
493.36	477.93
493.72	482.38
494.08	486.98
494.45	491.93
494.81	497.10
495.17	501.64
495.54	506.74
495.90	511.71
496.26	517.02
496.63	522.43
496.99	527.60
497.35	533.83
497.72	539.79
498.08	545.45
498.44	551.12
498.80	557.38
499.17	562.93
499.53	568.98
499.89	576.10
500.26	582.86
500.62	590.07
500.98	597.10
501.34	604.38
501.71	611.67
502.07	618.71
502.43	625.48
502.79	632.40
503.16	638.98
503.52	646.02
503.88	652.79
504.24	660.40
504.60	668.24
504.97	675.76
505.33	683.12
505.69	692.19
506.05	699.88
506.41	707.71
506.78	716.12
507.14	723.67
507.50	730.93
507.86	738.26
508.22	746.02
508.59	753.31
508.95	760.64
509.31	769.62
509.67	777.83
510.03	785.31
510.39	792.67
510.75	800.60
511.12	808.62
511.48	816.38
511.84	823.90
512.20	831.50
512.56	838.79
512.92	846.21
513.28	852.71
513.64	860.24
514.00	867.62
514.37	874.81
514.73	882.17
515.09	889.31
515.45	896.67
515.81	903.76
516.17	910.81
516.53	917.45
516.89	922.57
517.25	928.24
517.61	935.69
517.97	942.29
518.33	949.29
518.69	955.45
519.05	962.31
519.41	968.29
519.77	975.48
520.13	981.29
520.49	986.76
520.85	992.83
521.21	999.55
521.57	1004.86
521.93	1009.95
522.29	1015.50
522.65	1020.50
523.01	1026.88
523.37	1031.79
523.73	1036.79
524.09	1041.48
524.45	1047.10
524.81	1052.00
525.17	1057.12
525.53	1062.14
525.89	1066.07
526.25	1070.86
526.61	1074.12
526.97	1078.26
527.33	1082.67
527.68	1089.21
528.04	1094.26
528.40	1097.79
528.76	1101.26
529.12	1106.17
529.48	1111.14
529.84	1115.86
530.20	1120.95
530.56	1124.45
530.91	1128.83
531.27	1132.95
531.63	1137.95
531.99	1141.24
532.35	1145.48
532.71	1148.38
533.07	1152.69
533.42	1159.26
533.78	1163.67
534.14	1168.38
534.50	1172.67
534.86	1176.62
535.21	1178.71
535.57	1183.12
535.93	1187.05
536.29	1191.76
536.65	1195.67
537.00	1199.17
537.36	1202.19
537.72	1205.36
538.08	1208.98
538.44	1211.86
538.79	1216.17
539.15	1219.48
539.51	1223.24
539.87	1226.69
540.22	1230.50
540.58	1233.93
540.94	1234.76
541.29	1237.43
541.65	1239.48
542.01	1242.76
542.37	1244.88
542.72	1246.81
543.08	1248.62
543.44	1251.67
543.79	1252.69
544.15	1255.00
544.51	1258.86
544.87	1262.40
545.22	1265.05
545.58	1267.64
545.94	1270.86
546.29	1272.74
546.65	1275.48
547.01	1278.12
547.36	1280.81
547.72	1282.90
548.07	1285.02
548.43	1287.52
548.79	1290.33
549.14	1293.93
549.50	1296.19
549.86	1298.69
550.21	1301.86
550.57	1304.86
550.92	1307.21
551.28	1311.07
551.64	1313.98
551.99	1316.26
552.35	1318.60
552.70	1321.90
553.06	1325.50
553.41	1328.33
553.77	1332.52
554.13	1336.02
554.48	1340.26
554.84	1344.05
555.19	1348.10
555.55	1352.88
555.90	1356.71
556.26	1359.86
556.61	1363.05
556.97	1366.67
557.32	1371.21
557.68	1375.36
558.03	1379.10
558.39	1383.26
558.74	1386.98
559.10	1390.62
559.45	1394.36
559.81	1399.26
560.16	1403.10
560.52	1406.86
560.87	1411.00
561.23	1414.36
561.58	1419.71
561.94	1422.62
562.29	1426.12
562.64	1430.83
563.00	1434.19
563.35	1439.55
563.71	1444.57
564.06	1450.07
564.42	1455.40
564.77	1460.52
565.12	1466.33
565.48	1473.52
565.83	1479.64
566.19	1486.36
566.54	1492.40
566.89	1497.26
567.25	1502.81
567.60	1510.29
567.96	1518.33
568.31	1525.93
568.66	1533.12
569.02	1537.07
569.37	1543.14
569.72	1549.26
570.08	1554.55
570.43	1559.95
570.78	1565.90
571.14	1571.90
571.49	1577.45
571.84	1583.43
572.20	1588.38
572.55	1592.62
572.90	1596.57
573.26	1600.76
573.61	1604.71
573.96	1609.17
574.31	1614.33
574.67	1618.21
575.02	1620.62
575.37	1621.50
575.72	1624.29
576.08	1627.76
576.43	1632.26
576.78	1637.24
577.13	1641.62
577.49	1645.71
577.84	1650.40
578.19	1653.31
578.54	1657.62
578.90	1661.52
579.25	1663.86
579.60	1667.95
579.95	1671.12
580.30	1674.02
580.66	1678.76
581.01	1681.57
581.36	1684.60
581.71	1687.88
582.06	1692.45
582.42	1696.40
582.77	1700.00
583.12	1703.55
583.47	1706.40
583.82	1708.76
584.17	1710.12
584.53	1713.26
584.88	1716.43
585.23	1719.00
585.58	1721.69
585.93	1723.60
586.28	1726.40
586.63	1730.43
586.98	1732.43
587.34	1736.64
587.69	1739.10
588.04	1741.36
588.39	1743.38
588.74	1744.74
589.09	1747.38
589.44	1748.05
589.79	1749.95
590.14	1752.14
590.49	1753.24
590.84	1754.71
591.19	1756.88
591.54	1758.86
591.89	1759.76
592.25	1763.10
592.60	1764.38
592.95	1766.10
593.30	1767.71
593.65	1768.45
594.00	1768.24
594.35	1775.05
594.70	1774.60
595.05	1776.02
595.40	1776.24
595.75	1777.62
596.10	1779.69
596.45	1780.33
596.80	1781.02
597.15	1781.05
597.50	1780.79
597.85	1782.45
598.19	1782.67
598.54	1783.19
598.89	1784.48
599.24	1785.48
599.59	1783.31
599.94	1783.60
600.29	1783.62
600.64	1783.12
600.99	1783.43
601.34	1784.48
601.69	1778.52
602.04	1777.88
602.39	1777.12
602.74	1776.98
603.08	1776.02
603.43	1776.05
603.78	1775.93
604.13	1775.33
604.48	1774.95
604.83	1776.40
605.18	1775.98
605.53	1775.79
605.87	1774.36
606.22	1772.55
606.57	1770.76
606.92	1769.79
607.27	1769.05
607.62	1768.71
607.96	1768.43
608.31	1767.90
608.66	1766.38
609.01	1764.40
609.36	1764.00
609.70	1762.48
610.05	1760.43
610.40	1759.00
610.75	1756.43
611.10	1754.02
611.44	1751.55
611.79	1749.62
612.14	1746.24
612.49	1741.88
612.83	1738.74
613.18	1735.93
613.53	1733.88
613.88	1731.52
614.22	1728.12
614.57	1723.60
614.92	1718.90
615.27	1714.43
615.61	1709.81
615.96	1705.74
616.31	1702.88
616.65	1700.62
617.00	1698.07
617.35	1694.83
617.70	1691.29
618.04	1687.79
618.39	1683.76
618.74	1680.62
619.08	1676.24
619.43	1673.00
619.78	1671.40
620.12	1668.24
620.47	1665.26
620.82	1661.02
621.16	1656.55
621.51	1654.26
621.85	1650.71
622.20	1648.29
622.55	1644.14
622.89	1641.57
623.24	1638.38
623.59	1633.79
623.93	1628.62
624.28	1624.24
624.62	1622.43
624.97	1619.21
625.32	1615.10
625.66	1611.81
626.01	1608.38
626.35	1605.17
626.70	1600.12
627.04	1595.69
627.39	1591.24
627.73	1587.90
628.08	1585.05
628.43	1581.17
628.77	1576.52
629.12	1573.17
629.46	1568.50
629.81	1565.52
630.15	1559.55
630.50	1555.05
630.84	1551.33
631.19	1547.21
631.53	1541.98
631.88	1534.55
632.22	1529.17
632.57	1525.57
632.91	1520.79
633.26	1515.86
633.60	1511.00
633.95	1505.90
634.29	1500.21
634.64	1496.19
634.98	1490.36
635.32	1484.95
635.67	1481.17
636.01	1476.95
636.36	1471.79
636.70	1467.31
637.05	1462.14
637.39	1458.45
637.73	1454.07
638.08	1449.86
638.42	1444.36
638.77	1440.02
639.11	1435.81
639.45	1431.14
639.80	1425.02
640.14	1419.60
640.49	1413.60
640.83	1407.79
641.17	1403.43
641.52	1398.93
641.86	1393.55
642.20	1389.33
642.55	1382.90
642.89	1377.19
643.23	1370.98
643.58	1366.81
643.92	1360.71
644.26	1355.05
644.61	1350.02
644.95	1344.36
645.29	1338.21
645.64	1333.26
645.98	1327.17
646.32	1321.67
646.66	1315.64
647.01	1310.10
647.35	1304.55
647.69	1299.26
648.04	1295.07
648.38	1289.43
648.72	1282.88
649.06	1276.12
649.41	1269.05
649.75	1263.71
650.09	1257.05
650.43	1250.90
650.78	1244.05
651.12	1237.55
651.46	1231.12
651.80	1223.76
652.14	1217.43
652.49	1211.71
652.83	1204.90
653.17	1198.31
653.51	1191.64
653.85	1186.02
654.20	1179.71
654.54	1172.69
654.88	1166.14
655.22	1159.05
655.56	1152.19
655.90	1146.10
656.25	1140.12
656.59	1134.24
656.93	1127.71
657.27	1122.52
657.61	1116.07
657.95	1109.60
658.29	1103.50
658.64	1097.55
658.98	1091.43
659.32	1084.62
659.66	1077.33
660.00	1071.67
660.34	1065.64
660.68	1059.52
661.02	1051.69
661.36	1045.26
661.70	1039.40
662.05	1033.48
662.39	1027.02
662.73	1021.55
663.07	1015.79
663.41	1009.60
663.75	1003.64
664.09	997.93
664.43	990.74
664.77	985.00
665.11	978.31
665.45	972.43
665.79	966.40
666.13	960.62
666.47	954.67
666.81	949.10
667.15	942.60
667.49	937.62
667.83	931.90
668.17	927.10
668.51	921.69
668.85	915.83
669.19	910.67
669.53	904.43
669.87	898.07
670.21	892.14
670.55	886.14
670.89	881.24
671.23	875.50
671.57	869.71
671.91	864.10
672.25	858.93
672.58	853.98
672.92	848.24
673.26	842.36
673.60	837.33
673.94	831.95
674.28	826.50
674.62	821.83
674.96	816.95
675.30	811.81
675.64	806.79
675.97	801.69
676.31	796.19
676.65	791.14
676.99	787.21
677.33	781.90
677.67	777.57
678.01	771.93
678.34	767.26
678.68	763.33
679.02	758.02
679.36	753.29
679.70	748.10
680.04	743.14
680.37	738.14
680.71	733.19
681.05	728.69
681.39	724.17
681.73	718.26
682.06	713.21
682.40	708.57
682.74	704.02
683.08	700.45
683.42	695.55
683.75	691.33
684.09	685.93
684.43	681.31
684.77	676.36
685.10	671.88
685.44	666.86
685.78	662.10
686.12	658.00
686.45	653.21
686.79	648.29
687.13	644.71
687.46	640.64
687.80	636.62
688.14	632.31
688.48	628.33
688.81	624.07
689.15	620.40
689.49	615.95
689.82	611.62
690.16	606.43
690.50	602.69
690.83	598.57
691.17	594.36
691.51	590.10
691.84	586.05
692.18	581.60
692.52	577.90
692.85	573.90
693.19	570.50
693.52	566.98
693.86	563.07
694.20	558.21
694.53	554.24
694.87	549.62
695.21	545.12
695.54	540.55
695.88	536.60
696.21	531.79
696.55	528.02
696.88	524.31
697.22	520.48
697.56	516.33
697.89	512.31
698.23	509.14
698.56	505.74
698.90	502.14
699.23	498.71
699.57	495.24
699.90	492.10
700.24	488.31
700.58	484.62
700.91	481.62
701.25	480.29
701.58	477.86
701.92	475.48
702.25	472.74
702.59	470.21
702.92	467.33
703.26	464.48
703.59	461.52
703.93	460.10
704.26	457.83
704.60	455.36
704.93	452.71
705.26	449.64
705.60	447.33
705.93	444.36
706.27	441.86
706.60	439.52
706.94	437.24
707.27	434.05
707.61	432.19
707.94	429.52
708.27	425.29
708.61	421.95
708.94	419.24
709.28	416.93
709.61	414.05
709.94	411.93
710.28	409.79
710.61	407.50
710.95	403.02
711.28	401.81
711.61	399.26
711.95	397.26
712.28	394.88
712.61	392.10
712.95	391.17
713.28	389.95
713.61	387.50
713.95	384.67
714.28	382.81
714.61	380.10
714.95	378.12
715.28	375.83
715.61	373.76
715.95	371.74
716.28	369.33
716.61	367.60
716.95	365.10
717.28	362.76
717.61	360.67
717.94	358.76
718.28	355.24
718.61	353.38
718.94	351.33
719.27	349.45
719.61	347.90
719.94	345.69
720.27	342.83
720.60	341.14
720.94	339.21
721.27	337.45
721.60	336.02
721.93	333.90
722.27	333.29
722.60	332.02
722.93	330.26
723.26	329.26
723.59	327.57
723.93	326.33
724.26	325.26
724.59	323.79
724.92	323.07
725.25	322.40
725.59	320.95
725.92	320.02
726.25	318.95
726.58	317.57
726.91	316.17
727.24	315.69
727.57	314.45
727.91	313.38
728.24	312.52
728.57	311.55
728.90	311.02
729.23	309.45
729.56	309.17
729.89	308.24
730.22	307.00
730.55	305.81
730.89	304.86
731.22	303.62
731.55	302.86
731.88	301.71
732.21	300.29
732.54	299.48
732.87	298.31
733.20	297.38
733.53	296.81
733.86	295.98
734.19	294.07
734.52	293.52
734.85	293.93
735.18	292.93
735.51	292.43
735.84	291.57
736.17	291.02
736.50	289.14
736.83	290.48
737.16	289.55
737.49	289.05
737.82	288.00
738.15	287.55
738.48	286.62
738.81	285.71
739.14	284.76
739.47	283.88
739.80	283.07
740.13	282.38
740.46	281.14
740.79	279.79
741.12	279.12
741.45	277.83
741.78	275.98
742.11	275.55
742.44	274.26
742.77	273.62
743.10	272.74
743.43	272.00
743.75	269.29
744.08	271.17
744.41	270.33
744.74	269.33
745.07	268.12
745.40	267.95
745.73	268.12
746.06	267.36
746.39	267.00
746.71	266.21
747.04	265.31
747.37	264.62
747.70	264.57
748.03	264.21
748.36	263.88
748.68	263.40
749.01	262.38
749.34	261.90
749.67	261.60
750.00	260.93
750.33	261.95
750.65	261.71
750.98	258.60
751.31	258.26
751.64	258.00
751.97	259.05
752.29	258.19
752.62	256.62
752.95	256.31
753.28	255.17
753.60	254.69
753.93	254.88
754.26	254.71
754.59	253.69
754.91	253.10
755.24	252.52
755.57	252.10
755.90	251.40
756.22	250.71
756.55	249.95
756.88	249.43
757.20	247.38
757.53	246.19
757.86	245.57
758.19	245.02
758.51	244.98
758.84	243.31
759.17	242.64
759.49	242.69
759.82	243.36
760.15	243.55
760.47	243.17
760.80	242.31
761.13	242.26
761.45	241.88
761.78	241.19
762.11	240.93
762.43	240.31
762.76	240.05
763.08	239.95
763.41	239.74
763.74	239.57
764.06	239.26
764.39	238.93
764.71	238.83
765.04	238.31
765.37	237.64
765.69	237.26
766.02	237.02
766.34	236.38
766.67	235.10
767.00	235.02
767.32	235.74
767.65	236.40
767.97	235.71
768.30	235.69
768.62	235.60
768.95	235.19
769.27	234.81
769.60	235.00
769.92	234.64
770.25	233.81
770.57	233.31
770.90	233.17
771.22	232.76
771.55	232.45
771.87	232.50
772.20	232.33
772.52	233.95
772.85	236.02
773.17	235.90
773.50	235.60
773.82	235.02
774.15	233.86
774.47	232.50
774.80	232.24
775.12	231.98
775.45	231.69
775.77	231.40
776.09	231.48
776.42	231.33
776.74	231.71
777.07	231.48
777.39	231.40
777.72	231.12
778.04	231.38
778.36	231.21
778.69	231.00
779.01	230.98
779.33	228.88
779.66	226.83
779.98	226.33
780.31	226.17
780.63	226.95
780.95	227.33
781.28	227.40
781.60	227.19
781.92	227.00
782.25	226.90
782.57	226.62
782.89	226.26
783.22	225.62
783.54	225.02
783.86	225.29
784.19	224.81
784.51	225.21
784.83	224.71
785.16	224.48
785.48	224.43
785.80	224.29
786.12	224.52
786.45	224.19
786.77	224.38
787.09	224.31
787.42	223.50
787.74	223.45
788.06	223.12
788.38	222.98
788.71	222.71
789.03	222.86
789.35	223.05
789.67	222.67
789.99	222.76
790.32	222.17
790.64	222.19
790.96	223.69
791.28	222.98
791.61	223.00
791.93	222.90
792.25	222.57
792.57	223.69
792.89	223.14
793.21	223.17
793.54	222.90
793.86	222.60
794.18	222.67
794.50	221.81
794.82	221.81
795.14	221.93
795.47	222.52
795.79	222.43
796.11	222.17
796.43	222.17
796.75	222.36
797.07	222.60
797.39	222.31
797.71	220.95
798.04	220.95
798.36	220.93
798.68	220.79
799.00	221.00
799.32	219.95
799.64	220.43
799.96	220.12
800.28	220.38
800.60	220.26
800.92	220.05
801.24	220.14
801.56	220.26
801.89	219.98
802.21	219.57
802.53	219.19
802.85	219.50
803.17	220.38
803.49	219.64
803.81	219.36
804.13	219.24
804.45	219.10
804.77	219.36
805.09	219.31
805.41	218.98
805.73	218.48
806.05	217.98
806.37	217.50
806.69	217.40
807.01	217.17
807.33	217.38
807.65	216.60
807.97	217.45
808.28	217.07
808.60	216.95
808.92	216.74
809.24	217.95
809.56	217.52
809.88	216.93
810.20	217.29
810.52	217.76
810.84	217.55
811.16	217.12
811.48	216.95
811.80	217.55
812.12	217.83
812.43	218.40
812.75	218.60
813.07	218.57
813.39	218.74
813.71	218.64
814.03	218.29
814.35	218.40
814.67	217.60
814.98	217.36
815.30	217.29
815.62	216.88
815.94	215.52
816.26	215.50
816.58	215.00
816.89	215.24
817.21	214.81
817.53	214.76
817.85	214.95
818.17	214.86
818.48	213.95
818.80	214.31
819.12	213.64
819.44	213.33
819.76	213.10
820.07	212.86
820.39	212.69
820.71	212.93
821.03	213.19
821.34	212.98
821.66	213.50
821.98	213.98
822.30	214.05
822.61	215.26
822.93	215.36
823.25	215.33
823.57	214.86
823.88	214.98
824.20	215.21
824.52	215.57
824.83	215.52
825.15	215.43
825.47	214.83
825.79	215.07
826.10	214.83
826.42	214.93
826.74	215.36
827.05	215.40
827.37	215.48
827.69	215.33
828.00	215.40
828.32	215.12
828.64	214.60
828.95	215.76
829.27	215.33
829.58	214.95
829.90	215.45
830.22	215.69
830.53	215.38
830.85	215.24
831.17	214.74
831.48	214.74
831.80	214.88
832.11	215.07
832.43	214.93
832.75	214.83
833.06	215.88
833.38	215.26
833.69	215.10
834.01	215.10
834.32	214.88
834.64	214.67
834.96	214.88
835.27	214.98
835.59	214.12
835.90	213.52
836.22	213.88
836.53	213.48
836.85	213.12
837.16	215.24
837.48	215.00
837.79	215.76
838.11	215.88
838.42	215.81
838.74	216.10
839.05	215.88
839.37	216.10
839.68	214.88
840.00	214.71
840.31	215.17
840.63	214.93
840.94	214.90
841.26	214.67
841.57	214.52
841.88	214.60
842.20	214.26
842.51	214.14
842.83	214.12
843.14	215.81
843.46	215.90
843.77	214.74
844.08	214.69
844.40	213.90
844.71	213.69
845.03	213.52
845.34	213.36
845.65	213.40
845.97	213.40
846.28	213.52
846.60	213.64
846.91	213.26
847.22	213.33
847.54	213.86
847.85	214.29
848.16	214.14
848.48	213.74
848.79	214.71
849.10	215.07
849.42	214.90
849.73	213.29
850.04	213.12
850.36	212.57
850.67	213.07
850.98	213.38
851.30	213.48
851.61	213.45
851.92	213.48
852.23	214.12
852.55	214.43
852.86	214.40
853.17	214.74
853.49	215.05
853.80	215.52
854.11	215.69
854.42	216.05
854.74	216.02
855.05	216.33
855.36	215.29
855.67	215.38
855.99	215.57
856.30	217.71
856.61	217.74
856.92	217.64
857.23	217.48
857.55	217.17
857.86	217.14
858.17	217.36
858.48	216.98
858.79	216.67
859.11	216.79
859.42	216.71
859.73	216.43
860.04	216.60
860.35	216.05
860.66	215.38
860.98	215.02
861.29	215.21
861.60	214.95
861.91	215.48
862.22	215.10
862.53	214.88
862.84	212.60
863.16	213.19
863.47	212.83
863.78	212.62
864.09	212.60
864.40	212.62
864.71	212.67
865.02	212.95
865.33	212.43
865.64	211.76
865.95	211.76
866.27	213.10
866.58	212.64
866.89	212.76
867.20	212.64
867.51	212.40
867.82	212.07
868.13	212.90
868.44	212.48
868.75	212.88
869.06	213.05
869.37	212.98
869.68	212.29
869.99	212.64
870.30	212.93
870.61	213.07
870.92	212.79
871.23	212.64
871.54	212.88
871.85	213.69
872.16	214.07
872.47	214.00
872.78	212.57
873.09	212.79
873.40	212.50
873.71	212.64
874.02	212.69
874.33	212.57
874.64	211.90
874.95	212.14
875.26	211.33
875.56	211.31
875.87	211.36
876.18	211.29
876.49	213.29
876.80	213.02
877.11	212.76
877.42	212.83
877.73	212.83
878.04	212.57
878.35	212.52
878.66	212.64
878.96	212.71
879.27	213.12
879.58	213.12
879.89	213.05
880.20	213.74
880.51	213.81
880.82	213.81
881.12	213.81
881.43	213.38
881.74	213.55
882.05	213.21
882.36	213.31
882.67	213.64
882.97	211.57
883.28	211.48
883.59	211.24
883.90	211.38
884.21	211.98
884.51	212.05
884.82	211.45
885.13	211.21
885.44	211.05
885.74	210.74
886.05	210.62
886.36	210.64
886.67	209.93
886.98	210.67
887.28	211.05
887.59	211.19
887.90	211.29
888.20	211.24
888.51	211.64
888.82	211.29
889.13	211.24
889.43	212.64
889.74	212.50
890.05	212.83
890.35	212.67
890.66	212.19
890.97	211.67
891.28	211.64
891.58	211.76
891.89	211.90
892.20	211.83
892.50	211.52
892.81	211.52
893.12	211.33
893.42	210.67
893.73	210.48
894.04	210.38
894.34	210.69
894.65	210.69
894.95	210.52
895.26	210.60
895.57	211.67
895.87	209.95
896.18	210.29
896.48	210.29
896.79	210.17
897.10	210.29
897.40	210.67
897.71	210.86
898.01	210.67
898.32	210.98
898.63	210.83
898.93	211.19
899.24	211.19
899.54	211.33
899.85	211.12
900.15	211.26
900.46	211.33
900.76	211.45
901.07	211.36
901.38	211.31
901.68	211.48
901.99	210.24
902.29	210.55
902.60	210.45
902.90	210.48
903.21	210.69
903.51	210.64
903.82	211.02
904.12	211.12
904.43	211.29
904.73	211.07
905.03	211.31
905.34	212.93
905.64	212.86
905.95	212.57
906.25	212.64
906.56	212.60
906.86	212.60
907.17	212.43
907.47	212.52
907.77	212.07
908.08	211.88
908.38	212.14
908.69	212.24
908.99	212.52
909.30	212.57
909.60	212.43
909.90	212.62
910.21	211.95
910.51	211.86
910.81	211.98
911.12	212.21
911.42	212.26
911.73	210.31
912.03	210.81
912.33	211.36
912.64	211.21
912.94	211.19
913.24	210.86
913.55	210.57
913.85	210.57
914.15	211.48
914.46	211.74
914.76	211.48
915.06	211.24
915.37	210.93
915.67	210.76
915.97	210.86
916.27	210.33
916.58	210.48
916.88	210.19
917.18	210.12
917.49	211.29
917.79	211.24
918.09	211.67
918.39	211.98
918.70	212.00
919.00	212.38
919.30	213.19
919.60	213.33
919.91	213.17
920.21	213.50
920.51	212.69
920.81	212.86
921.12	213.38
921.42	213.17
921.72	213.36
922.02	213.43
922.32	213.79
922.63	214.02
922.93	215.02
923.23	215.14
923.53	214.79
923.83	213.43
924.13	213.76
924.44	213.62
924.74	213.69
925.04	214.05
925.34	213.90
925.64	213.00
925.94	213.00
926.24	214.31
926.55	213.98
926.85	214.64
927.15	214.31
927.45	214.17
927.75	214.29
928.05	214.21
928.35	214.02
928.65	214.26
928.95	214.45
929.26	213.71
929.56	214.48
929.86	214.90
930.16	214.83
930.46	214.55
930.76	214.48
931.06	213.57
931.36	213.12
931.66	213.60
931.96	213.74
932.26	213.76
932.56	213.00
932.86	213.19
933.16	213.12
933.46	213.31
933.76	212.88
934.06	213.45
934.36	214.55
934.66	214.57
934.96	214.33
935.26	214.29
935.56	214.40
935.86	213.48
936.16	212.98
936.46	212.83
936.76	212.55
937.06	212.43
937.36	212.57
937.66	212.67
937.96	212.26
938.26	212.05
938.56	211.93
938.86	211.81
939.16	212.24
939.46	212.33
939.76	212.38
940.06	212.60
940.35	212.10
940.65	210.64
940.95	210.98
941.25	210.69
941.55	210.26
941.85	210.29
942.15	210.86
942.45	211.69
942.75	211.62
943.04	211.95
943.34	212.29
943.64	212.29
943.94	211.90
944.24	211.81
944.54	212.05
944.84	212.02
945.13	211.88
945.43	211.48
945.73	211.31
946.03	211.19
946.33	210.83
946.62	210.81
946.92	210.93
947.22	211.05
947.52	210.88
947.82	211.36
948.11	211.19
948.41	210.69
948.71	209.88
949.01	210.05
949.31	209.69
949.60	209.69
949.90	209.88
950.20	209.86
950.50	209.93
950.79	209.55
951.09	209.93
951.39	209.98
951.69	209.67
951.98	210.10
952.28	209.95
952.58	209.93
952.87	209.64
953.17	210.12
953.47	209.83
953.76	210.07
954.06	209.83
954.36	209.48
954.66	209.64
954.95	210.26
955.25	210.14
955.55	210.55
955.84	210.19
956.14	210.43
956.44	210.50
956.73	210.00
957.03	210.31
957.32	210.26
957.62	209.95
957.92	210.55
958.21	210.33
958.51	212.79
958.81	213.24
959.10	213.64
959.40	213.98
959.69	214.14
959.99	214.31
960.29	214.24
960.58	214.40
960.88	215.12
961.17	214.88
961.47	215.29
961.76	215.17
962.06	215.64
962.36	215.43
962.65	215.52
962.95	215.83
963.24	215.55
963.54	215.50
963.83	215.79
964.13	215.60
964.42	215.02
964.72	213.31
965.01	213.31
965.31	213.19
965.60	212.67
965.90	213.74
966.19	213.33
966.49	213.43
966.78	213.26
967.08	213.10
967.37	213.10
967.67	212.67
967.96	213.00
968.26	212.90
968.55	213.21
968.85	213.31
969.14	213.38
969.43	213.40
969.73	213.40
970.02	213.24
970.32	213.02
970.61	212.93
970.91	212.14
971.20	211.76
971.49	211.57
971.79	211.55
972.08	210.21
972.38	210.40
972.67	210.36
972.96	210.83
973.26	210.43
973.55	211.05
973.85	211.19
974.14	210.71
974.43	210.74
974.73	210.24
975.02	209.98
975.31	209.86
975.61	209.86
975.90	209.57
976.19	209.45
976.49	209.45
976.78	209.83
977.07	210.10
977.37	210.40
977.66	210.57
977.95	210.43
978.24	210.62
978.54	211.05
978.83	210.79
979.12	210.43
979.42	210.36
979.71	210.07
980.00	209.76
980.29	209.98
980.59	209.55
980.88	209.88
981.17	209.95
981.46	210.21
981.76	210.17
982.05	210.79
982.34	211.05
982.63	211.33
982.93	211.26
983.22	211.86
983.51	211.60
983.80	211.93
984.09	212.21
984.39	212.10
984.68	211.67
984.97	211.83
985.26	211.64
985.55	211.71
985.85	211.12
986.14	211.60
986.43	211.83
986.72	211.67
987.01	211.33
987.30	211.50
987.59	211.14
987.89	211.40
988.18	210.93
988.47	210.76
988.76	210.76
989.05	210.55
989.34	209.93
989.63	210.57
989.92	210.31
990.22	209.95
990.51	209.90
990.80	210.02
991.09	210.26
991.38	210.62
991.67	210.55
991.96	210.71
992.25	210.64
992.54	210.36
992.83	210.33
993.12	210.31
993.41	210.50
993.70	211.48
993.99	211.88
994.28	212.24
994.58	212.48
994.87	212.10
995.16	212.29
995.45	212.31
995.74	211.76
996.03	212.12
996.32	212.62
996.61	213.07
996.90	212.76
997.19	212.52
997.48	212.50
997.77	212.40
998.06	212.48
998.34	212.40
998.63	212.29
998.92	212.62
999.21	213.00
999.50	212.86
999.79	212.10
1000.08	211.74
1000.37	211.64
1000.66	211.26
1000.95	211.74
1001.24	211.74
1001.53	212.10
1001.82	211.90
1002.11	211.29
1002.40	211.48
1002.68	211.88
1002.97	213.45
1003.26	213.55
1003.55	213.52
1003.84	213.60
1004.13	214.17
1004.42	214.05
1004.71	213.81
1004.99	213.60
1005.28	213.74
1005.57	213.52
1005.86	213.43
1006.15	213.33
1006.44	213.00
1006.72	213.36
1007.01	213.00
1007.30	213.00
1007.59	212.64
1007.88	212.76
1008.17	212.93
1008.45	212.45
1008.74	211.45
1009.03	210.52
1009.32	210.29
1009.60	210.12
1009.89	210.05
1010.18	209.29
1010.47	209.21
1010.76	209.55
1011.04	209.55
1011.33	209.86
1011.62	210.21
1011.91	210.21
1012.19	210.29
1012.48	210.26
1012.77	210.26
1013.05	210.98
1013.34	211.12
1013.63	211.17
1013.92	211.43
1014.20	211.29
1014.49	211.26
1014.78	211.55
1015.06	210.71
1015.35	210.83
1015.64	211.02
1015.92	211.26
1016.21	211.52
1016.50	211.62
1016.78	211.90
1017.07	211.90
1017.36	211.21
1017.64	211.02
1017.93	211.10
1018.22	210.93
1018.50	211.07
1018.79	211.07
1019.08	210.36
1019.36	210.29
1019.65	210.10
1019.93	210.38
1020.22	210.52
1020.51	211.76
1020.79	211.71
1021.08	207.50
1021.36	210.00
1021.65	212.50
1021.94	210.00
1022.22	211.50
1022.51	208.50
1022.79	218.00
1023.08	208.50
1023.36	238.00
1023.65	209.00
>>>>>End Processed Spectral Data<<<<<
