SpectraSuite Data File
++++++++++++++++++++++++++++++++++++
Date: Tue Apr 02 18:44:29 EDT 2013
User: group
Dark Spectrum Present: No
Reference Spectrum Present: No
Number of Sampled Component Spectra: 1
Spectrometers: USB2E7196
Integration Time (usec): 580000 (USB2E7196)
Spectra Averaged: 2 (USB2E7196)
Boxcar Smoothing: 10 (USB2E7196)
Correct for Electrical Dark: No (USB2E7196)
Strobe/Lamp Enabled: No (USB2E7196)
Correct for Detector Non-linearity: No (USB2E7196)
Correct for Stray Light: No (USB2E7196)
Number of Pixels in Processed Spectrum: 2048
>>>>>Begin Processed Spectral Data<<<<<
339.09	0.00
339.48	192.50
339.86	194.50
340.24	196.50
340.63	198.50
341.01	232.50
341.39	204.50
341.78	205.50
342.16	210.00
342.54	208.00
342.93	198.24
343.31	208.19
343.69	208.90
344.07	209.45
344.46	210.12
344.84	210.76
345.22	209.60
345.60	209.88
345.99	210.12
346.37	210.10
346.75	210.29
347.13	210.48
347.52	210.52
347.90	211.26
348.28	211.29
348.66	211.71
349.05	211.43
349.43	211.83
349.81	211.81
350.19	211.98
350.57	212.14
350.96	212.43
351.34	212.57
351.72	212.79
352.10	212.90
352.48	212.81
352.87	212.69
353.25	212.88
353.63	212.98
354.01	212.86
354.39	212.98
354.77	212.69
355.15	213.19
355.54	213.05
355.92	212.55
356.30	212.52
356.68	213.83
357.06	213.93
357.44	213.40
357.82	213.43
358.20	214.21
358.58	213.95
358.97	213.88
359.35	214.19
359.73	214.43
360.11	214.36
360.49	214.19
360.87	214.26
361.25	214.38
361.63	214.98
362.01	215.21
362.39	215.14
362.77	215.36
363.15	215.14
363.53	215.14
363.91	215.19
364.29	215.17
364.67	213.10
365.05	212.90
365.43	213.24
365.81	213.26
366.19	213.48
366.57	214.31
366.95	214.10
367.33	213.76
367.71	213.67
368.09	214.29
368.47	214.48
368.85	214.31
369.23	214.55
369.61	213.79
369.99	214.43
370.37	214.71
370.75	215.64
371.13	215.40
371.51	215.26
371.89	215.57
372.27	215.43
372.65	215.79
373.03	216.10
373.41	215.95
373.78	215.79
374.16	214.60
374.54	214.02
374.92	213.88
375.30	213.71
375.68	213.31
376.06	213.12
376.44	213.10
376.82	213.31
377.19	213.24
377.57	213.24
377.95	212.45
378.33	212.29
378.71	211.10
379.09	211.33
379.47	211.67
379.84	211.43
380.22	211.64
380.60	211.19
380.98	211.02
381.36	211.07
381.73	211.05
382.11	211.62
382.49	211.62
382.87	211.43
383.25	211.57
383.62	213.98
384.00	213.64
384.38	213.69
384.76	214.10
385.13	214.83
385.51	214.71
385.89	214.88
386.27	214.88
386.64	215.21
387.02	215.02
387.40	214.98
387.78	214.88
388.15	214.95
388.53	214.88
388.91	214.83
389.29	214.79
389.66	215.14
390.04	214.81
390.42	215.12
390.79	215.33
391.17	215.45
391.55	213.07
391.92	213.12
392.30	213.33
392.68	212.95
393.05	212.71
393.43	212.83
393.81	212.79
394.18	212.52
394.56	212.69
394.94	213.05
395.31	212.62
395.69	213.29
396.06	213.29
396.44	213.60
396.82	213.33
397.19	214.43
397.57	214.12
397.95	214.48
398.32	214.10
398.70	214.29
399.07	214.71
399.45	215.00
399.82	215.12
400.20	215.21
400.58	215.12
400.95	214.33
401.33	214.88
401.70	216.24
402.08	216.43
402.45	216.17
402.83	216.81
403.20	217.19
403.58	217.12
403.95	217.90
404.33	218.43
404.71	218.81
405.08	220.12
405.46	220.55
405.83	220.93
406.21	221.21
406.58	221.60
406.96	221.52
407.33	222.14
407.70	222.86
408.08	224.88
408.45	225.95
408.83	227.02
409.20	227.31
409.58	226.79
409.95	227.79
410.33	228.93
410.70	229.14
411.08	230.36
411.45	231.31
411.82	232.12
412.20	233.50
412.57	236.12
412.95	235.26
413.32	237.10
413.69	238.26
414.07	239.90
414.44	241.79
414.82	244.02
415.19	246.10
415.56	248.26
415.94	249.45
416.31	251.90
416.68	254.98
417.06	258.36
417.43	262.07
417.81	265.71
418.18	269.69
418.55	273.45
418.93	277.24
419.30	281.71
419.67	286.05
420.04	290.67
420.42	294.74
420.79	301.95
421.16	307.52
421.54	314.60
421.91	320.95
422.28	327.24
422.66	333.67
423.03	341.67
423.40	348.29
423.77	355.40
424.15	362.86
424.52	370.69
424.89	379.05
425.26	386.64
425.64	393.98
426.01	402.00
426.38	410.60
426.75	420.05
427.13	428.93
427.50	438.64
427.87	448.29
428.24	457.93
428.61	466.12
428.99	477.36
429.36	487.38
429.73	498.36
430.10	509.57
430.47	521.43
430.85	532.29
431.22	545.26
431.59	560.40
431.96	573.48
432.33	587.21
432.70	601.45
433.08	617.69
433.45	633.19
433.82	647.76
434.19	664.60
434.56	681.12
434.93	696.90
435.30	713.26
435.68	730.88
436.05	748.55
436.42	765.69
436.79	781.50
437.16	798.69
437.53	817.43
437.90	835.43
438.27	852.60
438.64	870.48
439.01	887.50
439.38	901.02
439.75	915.10
440.13	931.95
440.50	947.67
440.87	960.21
441.24	973.48
441.61	988.74
441.98	999.86
442.35	1012.60
442.72	1025.79
443.09	1038.05
443.46	1045.52
443.83	1051.14
444.20	1056.21
444.57	1062.10
444.94	1065.00
445.31	1067.90
445.68	1073.52
446.05	1075.86
446.42	1074.83
446.79	1073.50
447.16	1071.48
447.53	1070.83
447.90	1064.36
448.27	1057.76
448.64	1049.29
449.01	1043.31
449.37	1032.19
449.74	1021.52
450.11	1009.90
450.48	994.88
450.85	979.33
451.22	966.83
451.59	954.60
451.96	942.81
452.33	927.17
452.70	913.79
453.07	896.71
453.43	877.07
453.80	860.52
454.17	844.31
454.54	828.57
454.91	812.33
455.28	796.12
455.65	781.69
456.02	770.00
456.38	757.50
456.75	742.38
457.12	729.55
457.49	716.71
457.86	702.67
458.23	692.93
458.59	681.71
458.96	670.26
459.33	659.12
459.70	649.10
460.07	640.74
460.43	630.93
460.80	622.00
461.17	614.81
461.54	605.83
461.91	597.93
462.27	590.00
462.64	583.14
463.01	575.81
463.38	569.02
463.74	558.05
464.11	551.31
464.48	545.31
464.85	538.52
465.21	533.88
465.58	528.83
465.95	522.24
466.32	516.98
466.68	511.36
467.05	506.31
467.42	501.07
467.78	495.67
468.15	490.74
468.52	487.29
468.88	481.45
469.25	477.10
469.62	474.00
469.98	470.29
470.35	466.69
470.72	463.05
471.08	458.36
471.45	455.88
471.82	452.86
472.18	449.05
472.55	446.62
472.92	442.90
473.28	439.83
473.65	436.67
474.02	433.93
474.38	431.95
474.75	430.48
475.11	427.83
475.48	426.24
475.85	424.60
476.21	422.76
476.58	421.74
476.94	420.36
477.31	418.74
477.67	417.12
478.04	416.12
478.41	415.38
478.77	416.60
479.14	415.52
479.50	414.86
479.87	414.62
480.23	414.33
480.60	413.95
480.96	413.40
481.33	414.38
481.69	414.36
482.06	414.60
482.42	414.76
482.79	415.55
483.15	415.81
483.52	417.05
483.88	417.26
484.25	417.79
484.61	418.62
484.98	419.29
485.34	421.38
485.71	422.90
486.07	424.36
486.44	424.36
486.80	425.74
487.17	427.52
487.53	429.90
487.90	432.07
488.26	435.29
488.62	438.14
488.99	440.12
489.35	443.05
489.72	445.64
490.08	448.52
490.44	450.98
490.81	454.62
491.17	457.24
491.54	461.17
491.90	464.90
492.26	468.81
492.63	472.62
492.99	475.98
493.36	479.86
493.72	484.31
494.08	488.50
494.45	493.40
494.81	498.24
495.17	502.62
495.54	507.74
495.90	512.07
496.26	517.29
496.63	522.86
496.99	528.00
497.35	533.79
497.72	539.74
498.08	545.43
498.44	551.19
498.80	557.50
499.17	563.48
499.53	569.86
499.89	577.31
500.26	584.02
500.62	590.38
500.98	597.81
501.34	604.69
501.71	611.74
502.07	618.43
502.43	625.55
502.79	632.52
503.16	639.38
503.52	646.74
503.88	653.69
504.24	661.64
504.60	669.67
504.97	677.43
505.33	684.93
505.69	693.86
506.05	701.79
506.41	709.33
506.78	716.98
507.14	724.88
507.50	731.93
507.86	739.81
508.22	747.93
508.59	754.24
508.95	762.24
509.31	771.05
509.67	779.07
510.03	786.74
510.39	794.12
510.75	802.14
511.12	809.93
511.48	817.45
511.84	824.05
512.20	831.55
512.56	839.05
512.92	846.19
513.28	853.67
513.64	861.21
514.00	869.33
514.37	876.10
514.73	883.17
515.09	890.64
515.45	897.10
515.81	903.93
516.17	911.62
516.53	917.43
516.89	922.48
517.25	928.90
517.61	936.02
517.97	942.62
518.33	949.10
518.69	956.02
519.05	963.24
519.41	969.88
519.77	976.50
520.13	982.64
520.49	988.21
520.85	993.10
521.21	999.71
521.57	1005.40
521.93	1010.62
522.29	1016.10
522.65	1020.55
523.01	1026.40
523.37	1031.88
523.73	1036.60
524.09	1042.14
524.45	1047.60
524.81	1052.36
525.17	1056.60
525.53	1062.00
525.89	1066.21
526.25	1069.83
526.61	1073.43
526.97	1077.95
527.33	1081.50
527.68	1087.31
528.04	1092.19
528.40	1096.31
528.76	1099.40
529.12	1103.95
529.48	1109.36
529.84	1113.14
530.20	1117.93
530.56	1122.31
530.91	1126.71
531.27	1131.33
531.63	1135.93
531.99	1140.29
532.35	1144.93
532.71	1148.19
533.07	1152.50
533.42	1159.07
533.78	1163.83
534.14	1168.21
534.50	1171.43
534.86	1176.60
535.21	1179.05
535.57	1182.67
535.93	1186.69
536.29	1191.67
536.65	1194.95
537.00	1197.90
537.36	1201.40
537.72	1205.45
538.08	1209.19
538.44	1211.45
538.79	1214.74
539.15	1216.86
539.51	1220.24
539.87	1223.83
540.22	1227.95
540.58	1231.29
540.94	1233.19
541.29	1235.69
541.65	1237.90
542.01	1242.24
542.37	1244.62
542.72	1246.71
543.08	1249.00
543.44	1252.29
543.79	1253.64
544.15	1256.19
544.51	1260.00
544.87	1263.48
545.22	1265.62
545.58	1268.52
545.94	1272.00
546.29	1275.52
546.65	1278.74
547.01	1280.40
547.36	1282.40
547.72	1284.69
548.07	1287.26
548.43	1288.79
548.79	1290.64
549.14	1293.43
549.50	1295.14
549.86	1296.81
550.21	1299.67
550.57	1303.10
550.92	1305.83
551.28	1309.55
551.64	1312.38
551.99	1314.62
552.35	1316.86
552.70	1319.69
553.06	1322.81
553.41	1325.60
553.77	1329.43
554.13	1333.24
554.48	1338.00
554.84	1342.05
555.19	1346.40
555.55	1350.60
555.90	1354.17
556.26	1358.14
556.61	1362.05
556.97	1365.40
557.32	1369.29
557.68	1372.98
558.03	1377.19
558.39	1380.14
558.74	1382.90
559.10	1387.33
559.45	1391.98
559.81	1396.00
560.16	1400.29
560.52	1404.29
560.87	1409.21
561.23	1412.14
561.58	1418.36
561.94	1422.00
562.29	1425.88
562.64	1430.62
563.00	1434.45
563.35	1439.64
563.71	1445.00
564.06	1451.31
564.42	1457.02
564.77	1463.67
565.12	1470.31
565.48	1477.12
565.83	1483.90
566.19	1490.36
566.54	1495.02
566.89	1500.31
567.25	1507.36
567.60	1514.50
567.96	1522.33
568.31	1528.98
568.66	1535.33
569.02	1538.48
569.37	1543.67
569.72	1549.79
570.08	1554.74
570.43	1559.57
570.78	1565.50
571.14	1571.31
571.49	1574.98
571.84	1580.69
572.20	1585.02
572.55	1589.71
572.90	1592.50
573.26	1596.93
573.61	1600.83
573.96	1606.71
574.31	1611.10
574.67	1614.02
575.02	1616.74
575.37	1618.52
575.72	1621.19
576.08	1625.10
576.43	1629.07
576.78	1633.67
577.13	1636.93
577.49	1641.07
577.84	1645.24
578.19	1649.10
578.54	1652.43
578.90	1657.17
579.25	1660.10
579.60	1663.55
579.95	1666.55
580.30	1671.17
580.66	1675.14
581.01	1679.19
581.36	1681.81
581.71	1684.79
582.06	1690.10
582.42	1693.60
582.77	1696.48
583.12	1700.48
583.47	1703.45
583.82	1706.88
584.17	1710.05
584.53	1713.83
584.88	1716.67
585.23	1720.64
585.58	1722.57
585.93	1726.05
586.28	1728.52
586.63	1731.74
586.98	1735.50
587.34	1738.90
587.69	1740.95
588.04	1742.64
588.39	1745.83
588.74	1747.00
589.09	1749.19
589.44	1749.45
589.79	1751.55
590.14	1754.90
590.49	1756.29
590.84	1757.71
591.19	1759.29
591.54	1761.33
591.89	1762.10
592.25	1765.33
592.60	1766.00
592.95	1767.57
593.30	1769.79
593.65	1770.83
594.00	1770.95
594.35	1776.67
594.70	1776.33
595.05	1777.07
595.40	1777.36
595.75	1776.38
596.10	1778.48
596.45	1780.07
596.80	1781.74
597.15	1782.81
597.50	1781.88
597.85	1783.17
598.19	1783.45
598.54	1784.05
598.89	1784.31
599.24	1786.10
599.59	1785.24
599.94	1785.71
600.29	1785.98
600.64	1784.43
600.99	1785.29
601.34	1785.69
601.69	1780.10
602.04	1779.31
602.39	1779.17
602.74	1780.21
603.08	1781.26
603.43	1781.50
603.78	1781.14
604.13	1780.19
604.48	1779.81
604.83	1781.14
605.18	1780.38
605.53	1780.48
605.87	1780.17
606.22	1779.19
606.57	1777.38
606.92	1775.79
607.27	1775.00
607.62	1775.38
607.96	1775.38
608.31	1774.76
608.66	1774.43
609.01	1771.98
609.36	1772.64
609.70	1770.67
610.05	1768.17
610.40	1765.76
610.75	1762.81
611.10	1761.17
611.44	1758.71
611.79	1756.10
612.14	1752.50
612.49	1749.29
612.83	1747.07
613.18	1743.64
613.53	1740.33
613.88	1736.88
614.22	1733.38
614.57	1729.33
614.92	1724.88
615.27	1720.29
615.61	1715.43
615.96	1711.14
616.31	1708.17
616.65	1705.05
617.00	1702.33
617.35	1700.14
617.70	1696.83
618.04	1693.02
618.39	1688.48
618.74	1685.71
619.08	1681.36
619.43	1678.43
619.78	1674.86
620.12	1671.05
620.47	1667.48
620.82	1663.69
621.16	1659.36
621.51	1656.76
621.85	1653.02
622.20	1648.95
622.55	1645.05
622.89	1642.07
623.24	1639.43
623.59	1635.69
623.93	1631.48
624.28	1628.17
624.62	1624.57
624.97	1621.71
625.32	1618.50
625.66	1615.29
626.01	1611.05
626.35	1608.31
626.70	1604.17
627.04	1601.10
627.39	1597.00
627.73	1594.17
628.08	1590.36
628.43	1587.38
628.77	1582.86
629.12	1579.31
629.46	1575.83
629.81	1572.79
630.15	1567.40
630.50	1561.83
630.84	1558.40
631.19	1553.45
631.53	1548.52
631.88	1542.40
632.22	1536.26
632.57	1532.14
632.91	1525.95
633.26	1521.45
633.60	1516.26
633.95	1510.71
634.29	1504.71
634.64	1500.07
634.98	1495.02
635.32	1491.93
635.67	1487.21
636.01	1482.90
636.36	1477.57
636.70	1472.26
637.05	1467.79
637.39	1464.00
637.73	1460.24
638.08	1455.64
638.42	1450.45
638.77	1445.76
639.11	1441.45
639.45	1436.90
639.80	1430.45
640.14	1426.33
640.49	1421.40
640.83	1416.12
641.17	1411.67
641.52	1407.83
641.86	1402.14
642.20	1397.86
642.55	1391.21
642.89	1385.93
643.23	1379.79
643.58	1374.62
643.92	1368.31
644.26	1361.74
644.61	1356.26
644.95	1350.48
645.29	1344.52
645.64	1339.38
645.98	1333.81
646.32	1328.45
646.66	1322.17
647.01	1316.45
647.35	1311.48
647.69	1305.62
648.04	1300.33
648.38	1294.12
648.72	1287.69
649.06	1282.12
649.41	1275.07
649.75	1268.50
650.09	1262.14
650.43	1256.17
650.78	1250.21
651.12	1244.71
651.46	1238.62
651.80	1232.40
652.14	1224.98
652.49	1218.76
652.83	1212.67
653.17	1205.12
653.51	1198.07
653.85	1192.90
654.20	1187.14
654.54	1179.14
654.88	1171.74
655.22	1165.71
655.56	1158.88
655.90	1152.26
656.25	1145.33
656.59	1138.48
656.93	1132.38
657.27	1126.83
657.61	1120.33
657.95	1114.33
658.29	1107.98
658.64	1102.45
658.98	1095.00
659.32	1089.12
659.66	1083.05
660.00	1076.31
660.34	1070.69
660.68	1064.64
661.02	1057.52
661.36	1051.36
661.70	1046.69
662.05	1041.14
662.39	1035.07
662.73	1029.69
663.07	1024.24
663.41	1018.00
663.75	1011.62
664.09	1006.24
664.43	999.93
664.77	994.33
665.11	987.17
665.45	981.48
665.79	974.95
666.13	969.62
666.47	964.00
666.81	957.79
667.15	951.81
667.49	946.48
667.83	941.62
668.17	936.19
668.51	930.67
668.85	925.00
669.19	920.76
669.53	914.38
669.87	908.38
670.21	902.76
670.55	897.21
670.89	892.86
671.23	887.12
671.57	881.50
671.91	875.40
672.25	870.67
672.58	866.21
672.92	860.33
673.26	855.19
673.60	849.71
673.94	844.38
674.28	839.14
674.62	834.24
674.96	828.24
675.30	823.31
675.64	817.95
675.97	812.45
676.31	805.67
676.65	800.57
676.99	796.57
677.33	790.45
677.67	786.02
678.01	780.52
678.34	775.57
678.68	771.43
679.02	766.55
679.36	761.64
679.70	756.29
680.04	751.86
680.37	746.71
680.71	742.21
681.05	736.81
681.39	732.45
681.73	727.00
682.06	722.00
682.40	717.14
682.74	712.88
683.08	709.10
683.42	704.60
683.75	700.24
684.09	695.00
684.43	691.07
684.77	686.12
685.10	681.45
685.44	676.81
685.78	671.90
686.12	667.55
686.45	662.79
686.79	657.81
687.13	654.12
687.46	649.55
687.80	645.45
688.14	641.14
688.48	636.40
688.81	632.19
689.15	628.74
689.49	624.05
689.82	619.48
690.16	613.69
690.50	609.50
690.83	604.90
691.17	599.90
691.51	595.29
691.84	591.45
692.18	587.40
692.52	583.45
692.85	579.05
693.19	575.93
693.52	572.60
693.86	568.52
694.20	564.43
694.53	560.90
694.87	556.62
695.21	553.10
695.54	549.45
695.88	545.29
696.21	540.43
696.55	536.71
696.88	532.64
697.22	529.43
697.56	526.21
697.89	522.79
698.23	519.57
698.56	516.05
698.90	512.64
699.23	509.02
699.57	505.48
699.90	502.00
700.24	497.90
700.58	494.21
700.91	490.98
701.25	489.05
701.58	486.19
701.92	483.24
702.25	480.17
702.59	476.62
702.92	473.74
703.26	470.81
703.59	467.98
703.93	467.12
704.26	464.21
704.60	461.31
704.93	457.76
705.26	454.98
705.60	452.83
705.93	449.76
706.27	447.24
706.60	444.88
706.94	443.00
707.27	440.24
707.61	437.60
707.94	435.02
708.27	430.64
708.61	427.48
708.94	424.93
709.28	422.31
709.61	419.95
709.94	417.64
710.28	415.31
710.61	412.83
710.95	408.26
711.28	407.55
711.61	404.86
711.95	403.48
712.28	400.69
712.61	397.98
712.95	396.45
713.28	395.33
713.61	392.52
713.95	389.36
714.28	387.21
714.61	385.02
714.95	382.81
715.28	380.93
715.61	378.98
715.95	376.95
716.28	374.74
716.61	373.17
716.95	370.83
717.28	368.57
717.61	366.55
717.94	364.86
718.28	361.19
718.61	359.24
718.94	356.83
719.27	355.17
719.61	353.60
719.94	351.52
720.27	348.57
720.60	346.98
720.94	345.64
721.27	344.05
721.60	342.50
721.93	340.86
722.27	339.67
722.60	338.05
722.93	335.93
723.26	334.38
723.59	332.55
723.93	331.26
724.26	330.10
724.59	328.81
724.92	327.62
725.25	326.60
725.59	325.45
725.92	324.38
726.25	323.26
726.58	322.07
726.91	320.38
727.24	319.76
727.57	318.43
727.91	316.76
728.24	316.05
728.57	314.76
728.90	313.98
729.23	311.93
729.56	311.81
729.89	311.24
730.22	310.19
730.55	309.12
730.89	308.17
731.22	307.05
731.55	305.95
731.88	304.93
732.21	303.69
732.54	302.33
732.87	301.45
733.20	300.88
733.53	299.79
733.86	299.07
734.19	297.50
734.52	296.69
734.85	297.12
735.18	295.36
735.51	295.00
735.84	294.19
736.17	294.10
736.50	292.21
736.83	293.38
737.16	292.64
737.49	291.57
737.82	290.55
738.15	289.90
738.48	288.69
738.81	287.88
739.14	286.81
739.47	286.05
739.80	285.00
740.13	284.24
740.46	283.17
740.79	282.36
741.12	281.48
741.45	280.26
741.78	278.38
742.11	278.12
742.44	276.81
742.77	276.21
743.10	275.07
743.43	274.21
743.75	271.40
744.08	273.12
744.41	272.17
744.74	271.26
745.07	270.12
745.40	270.21
745.73	270.40
746.06	269.81
746.39	269.43
746.71	268.67
747.04	267.43
747.37	266.57
747.70	265.90
748.03	265.57
748.36	265.33
748.68	264.67
749.01	263.43
749.34	262.81
749.67	261.98
750.00	261.69
750.33	262.81
750.65	262.38
750.98	259.21
751.31	258.98
751.64	258.43
751.97	259.24
752.29	258.33
752.62	256.79
752.95	256.19
753.28	255.62
753.60	255.07
753.93	255.33
754.26	255.12
754.59	254.14
754.91	253.33
755.24	252.74
755.57	251.93
755.90	251.71
756.22	251.17
756.55	250.33
756.88	249.21
757.20	247.43
757.53	246.45
757.86	245.98
758.19	245.69
758.51	245.31
758.84	243.67
759.17	243.12
759.49	242.71
759.82	243.33
760.15	242.69
760.47	242.19
760.80	241.12
761.13	241.07
761.45	240.69
761.78	240.21
762.11	239.86
762.43	239.57
762.76	239.26
763.08	239.19
763.41	238.95
763.74	238.86
764.06	238.29
764.39	238.02
764.71	238.00
765.04	237.33
765.37	236.88
765.69	236.62
766.02	236.40
766.34	235.69
766.67	234.64
767.00	234.83
767.32	235.74
767.65	236.60
767.97	236.07
768.30	235.83
768.62	235.81
768.95	235.43
769.27	235.29
769.60	235.24
769.92	234.52
770.25	233.71
770.57	233.19
770.90	233.10
771.22	232.74
771.55	232.52
771.87	232.48
772.20	232.43
772.52	233.93
772.85	236.19
773.17	236.12
773.50	235.79
773.82	235.26
774.15	233.93
774.47	232.52
774.80	232.36
775.12	232.26
775.45	232.14
775.77	231.74
776.09	231.67
776.42	231.50
776.74	232.02
777.07	232.10
777.39	231.93
777.72	231.38
778.04	231.48
778.36	230.98
778.69	230.60
779.01	230.71
779.33	228.79
779.66	226.10
779.98	226.07
780.31	225.95
780.63	226.64
780.95	226.93
781.28	226.83
781.60	226.33
781.92	226.12
782.25	225.57
782.57	225.57
782.89	225.31
783.22	224.93
783.54	224.60
783.86	224.62
784.19	224.52
784.51	225.07
784.83	224.52
785.16	224.36
785.48	224.36
785.80	223.90
786.12	224.05
786.45	224.00
786.77	223.98
787.09	223.76
787.42	222.95
787.74	222.98
788.06	222.88
788.38	222.83
788.71	222.79
789.03	223.02
789.35	223.17
789.67	222.86
789.99	223.05
790.32	222.33
790.64	222.60
790.96	224.19
791.28	223.33
791.61	223.19
791.93	223.12
792.25	223.14
792.57	224.64
792.89	224.19
793.21	224.26
793.54	224.17
793.86	223.88
794.18	223.90
794.50	223.40
794.82	223.29
795.14	223.38
795.47	223.64
795.79	223.31
796.11	222.93
796.43	222.71
796.75	222.48
797.07	222.62
797.39	222.38
797.71	220.69
798.04	220.71
798.36	220.81
798.68	220.83
799.00	220.79
799.32	219.48
799.64	219.71
799.96	219.40
800.28	219.57
800.60	219.57
800.92	219.60
801.24	219.38
801.56	219.36
801.89	219.05
802.21	219.12
802.53	218.81
802.85	219.24
803.17	220.43
803.49	220.12
803.81	219.93
804.13	219.52
804.45	219.38
804.77	219.48
805.09	219.40
805.41	218.90
805.73	218.21
806.05	217.79
806.37	217.71
806.69	217.55
807.01	216.88
807.33	216.90
807.65	216.29
807.97	217.21
808.28	217.05
808.60	217.07
808.92	216.52
809.24	218.12
809.56	217.64
809.88	216.79
810.20	216.90
810.52	217.40
810.84	217.26
811.16	216.88
811.48	216.81
811.80	217.67
812.12	217.71
812.43	218.36
812.75	218.38
813.07	218.17
813.39	218.62
813.71	218.74
814.03	218.50
814.35	218.26
814.67	217.36
814.98	217.17
815.30	217.14
815.62	217.00
815.94	215.33
816.26	215.21
816.58	214.88
816.89	214.90
817.21	214.36
817.53	214.21
817.85	214.52
818.17	214.43
818.48	213.57
818.80	213.95
819.12	213.71
819.44	213.33
819.76	212.86
820.07	212.57
820.39	212.62
820.71	212.86
821.03	213.10
821.34	212.98
821.66	213.50
821.98	213.83
822.30	213.93
822.61	215.26
822.93	215.29
823.25	215.17
823.57	214.88
823.88	215.31
824.20	215.33
824.52	215.64
824.83	215.45
825.15	215.12
825.47	215.17
825.79	215.14
826.10	215.12
826.42	215.33
826.74	215.62
827.05	215.60
827.37	215.64
827.69	215.40
828.00	215.40
828.32	215.07
828.64	214.38
828.95	215.26
829.27	214.48
829.58	214.52
829.90	214.90
830.22	215.12
830.53	214.57
830.85	214.67
831.17	214.38
831.48	214.55
831.80	214.57
832.11	214.33
832.43	214.26
832.75	214.17
833.06	215.26
833.38	214.76
833.69	214.74
834.01	214.55
834.32	214.60
834.64	214.43
834.96	214.48
835.27	214.86
835.59	213.95
835.90	213.64
836.22	213.52
836.53	213.07
836.85	212.95
837.16	215.00
837.48	214.90
837.79	215.48
838.11	215.57
838.42	215.71
838.74	215.90
839.05	215.52
839.37	215.74
839.68	214.40
840.00	214.05
840.31	214.19
840.63	214.19
840.94	214.00
841.26	213.81
841.57	213.79
841.88	213.74
842.20	213.64
842.51	213.48
842.83	213.67
843.14	215.52
843.46	215.48
843.77	214.40
844.08	214.31
844.40	213.36
844.71	213.00
845.03	212.98
845.34	212.93
845.65	213.12
845.97	213.12
846.28	213.33
846.60	213.79
846.91	213.55
847.22	213.40
847.54	213.81
847.85	214.24
848.16	214.00
848.48	213.74
848.79	214.57
849.10	214.81
849.42	214.76
849.73	212.74
850.04	212.88
850.36	211.90
850.67	212.26
850.98	212.52
851.30	212.98
851.61	212.76
851.92	212.86
852.23	213.36
852.55	213.21
852.86	213.40
853.17	213.43
853.49	213.71
853.80	214.31
854.11	214.50
854.42	214.71
854.74	214.67
855.05	214.81
855.36	213.83
855.67	213.86
855.99	213.86
856.30	216.21
856.61	215.86
856.92	215.88
857.23	215.83
857.55	215.55
857.86	215.31
858.17	215.95
858.48	215.48
858.79	215.19
859.11	215.52
859.42	215.24
859.73	214.98
860.04	215.21
860.35	214.52
860.66	214.05
860.98	213.69
861.29	214.05
861.60	213.64
861.91	214.07
862.22	213.93
862.53	213.67
862.84	211.57
863.16	212.21
863.47	211.93
863.78	211.76
864.09	211.90
864.40	212.14
864.71	211.74
865.02	212.05
865.33	211.67
865.64	211.36
865.95	211.48
866.27	212.83
866.58	212.36
866.89	212.74
867.20	212.69
867.51	212.40
867.82	212.29
868.13	213.00
868.44	212.40
868.75	212.57
869.06	212.64
869.37	212.71
869.68	212.05
869.99	212.52
870.30	212.71
870.61	212.98
870.92	212.60
871.23	212.48
871.54	212.86
871.85	213.50
872.16	213.60
872.47	213.57
872.78	212.05
873.09	212.07
873.40	211.86
873.71	211.79
874.02	212.14
874.33	211.83
874.64	211.33
874.95	211.69
875.26	211.43
875.56	211.40
875.87	211.17
876.18	211.10
876.49	213.14
876.80	213.14
877.11	212.69
877.42	212.74
877.73	212.74
878.04	212.50
878.35	212.38
878.66	212.55
878.96	212.36
879.27	212.52
879.58	212.81
879.89	212.67
880.20	213.33
880.51	213.29
880.82	213.10
881.12	213.26
881.43	212.81
881.74	212.71
882.05	212.79
882.36	213.14
882.67	213.36
882.97	211.33
883.28	211.07
883.59	211.14
883.90	211.33
884.21	211.62
884.51	211.21
884.82	210.93
885.13	210.90
885.44	210.98
885.74	210.98
886.05	210.76
886.36	210.90
886.67	210.31
886.98	211.05
887.28	211.40
887.59	211.62
887.90	212.02
888.20	211.79
888.51	212.07
888.82	211.67
889.13	211.67
889.43	213.31
889.74	213.26
890.05	213.29
890.35	212.93
890.66	212.83
890.97	212.81
891.28	212.55
891.58	212.62
891.89	212.55
892.20	212.57
892.50	212.50
892.81	212.43
893.12	212.48
893.42	211.62
893.73	211.86
894.04	211.60
894.34	211.88
894.65	211.93
894.95	211.83
895.26	212.07
895.57	213.05
895.87	210.95
896.18	211.50
896.48	211.83
896.79	212.00
897.10	212.14
897.40	212.17
897.71	212.40
898.01	212.26
898.32	212.79
898.63	212.50
898.93	212.55
899.24	212.60
899.54	212.36
899.85	212.33
900.15	212.24
900.46	212.33
900.76	212.48
901.07	212.60
901.38	212.33
901.68	212.81
901.99	211.86
902.29	212.21
902.60	211.93
902.90	211.62
903.21	211.48
903.51	211.05
903.82	211.62
904.12	211.81
904.43	211.79
904.73	211.60
905.03	211.86
905.34	213.79
905.64	213.50
905.95	213.71
906.25	213.88
906.56	213.64
906.86	213.79
907.17	213.57
907.47	213.88
907.77	213.71
908.08	213.12
908.38	213.31
908.69	213.55
908.99	213.90
909.30	214.02
909.60	214.26
909.90	214.74
910.21	214.17
910.51	213.86
910.81	213.95
911.12	213.79
911.42	213.90
911.73	211.67
912.03	211.88
912.33	212.21
912.64	212.21
912.94	212.05
913.24	211.69
913.55	211.24
913.85	210.69
914.15	211.19
914.46	211.43
914.76	211.07
915.06	210.81
915.37	210.43
915.67	210.43
915.97	210.33
916.27	209.86
916.58	209.83
916.88	209.69
917.18	209.43
917.49	210.88
917.79	210.93
918.09	211.36
918.39	212.00
918.70	211.83
919.00	211.60
919.30	212.76
919.60	212.52
919.91	212.24
920.21	212.43
920.51	212.10
920.81	211.81
921.12	212.36
921.42	212.33
921.72	212.24
922.02	212.05
922.32	212.43
922.63	212.43
922.93	213.38
923.23	213.76
923.53	213.64
923.83	212.36
924.13	212.29
924.44	212.33
924.74	212.64
925.04	213.36
925.34	213.26
925.64	212.19
925.94	212.33
926.24	213.83
926.55	213.60
926.85	213.76
927.15	213.67
927.45	213.57
927.75	213.55
928.05	213.79
928.35	213.67
928.65	213.90
928.95	214.19
929.26	213.60
929.56	213.98
929.86	214.50
930.16	214.29
930.46	214.29
930.76	214.19
931.06	213.12
931.36	212.40
931.66	213.00
931.96	213.52
932.26	213.60
932.56	212.86
932.86	213.24
933.16	213.14
933.46	213.14
933.76	212.83
934.06	213.17
934.36	213.81
934.66	213.86
934.96	213.52
935.26	213.67
935.56	213.98
935.86	213.31
936.16	212.93
936.46	212.71
936.76	212.55
937.06	212.24
937.36	212.38
937.66	212.33
937.96	212.14
938.26	211.76
938.56	211.76
938.86	211.81
939.16	212.26
939.46	212.38
939.76	212.50
940.06	212.60
940.35	212.19
940.65	211.36
940.95	211.67
941.25	211.29
941.55	210.93
941.85	210.74
942.15	211.19
942.45	211.79
942.75	211.88
943.04	211.90
943.34	212.38
943.64	212.17
943.94	211.93
944.24	211.88
944.54	211.86
944.84	211.88
945.13	211.40
945.43	210.95
945.73	210.98
946.03	210.93
946.33	210.40
946.62	210.29
946.92	210.00
947.22	210.14
947.52	210.14
947.82	210.26
948.11	209.88
948.41	209.33
948.71	208.62
949.01	208.71
949.31	208.64
949.60	208.40
949.90	208.76
950.20	208.69
950.50	208.81
950.79	208.81
951.09	208.88
951.39	208.93
951.69	208.69
951.98	208.98
952.28	208.98
952.58	209.02
952.87	209.14
953.17	209.48
953.47	209.17
953.76	209.26
954.06	209.00
954.36	208.79
954.66	208.83
954.95	209.50
955.25	209.74
955.55	210.00
955.84	209.69
956.14	209.74
956.44	209.98
956.73	209.50
957.03	209.50
957.32	209.52
957.62	209.43
957.92	209.83
958.21	209.62
958.51	211.88
958.81	212.45
959.10	212.62
959.40	213.10
959.69	213.10
959.99	213.38
960.29	213.57
960.58	213.62
960.88	214.62
961.17	214.26
961.47	214.43
961.76	213.95
962.06	214.55
962.36	214.24
962.65	214.36
962.95	214.48
963.24	214.33
963.54	214.52
963.83	214.88
964.13	214.79
964.42	214.29
964.72	212.79
965.01	212.60
965.31	212.50
965.60	211.98
965.90	213.26
966.19	212.83
966.49	213.02
966.78	212.86
967.08	212.64
967.37	212.67
967.67	212.14
967.96	212.83
968.26	212.57
968.55	213.10
968.85	212.86
969.14	212.79
969.43	212.60
969.73	212.26
970.02	212.07
970.32	212.12
970.61	212.17
970.91	211.60
971.20	211.38
971.49	211.14
971.79	211.62
972.08	210.31
972.38	210.69
972.67	210.40
972.96	210.98
973.26	210.40
973.55	210.88
973.85	210.81
974.14	210.33
974.43	210.57
974.73	210.14
975.02	210.02
975.31	210.02
975.61	210.19
975.90	210.00
976.19	209.71
976.49	209.71
976.78	209.90
977.07	209.88
977.37	210.12
977.66	210.55
977.95	210.02
978.24	210.21
978.54	210.60
978.83	210.60
979.12	210.38
979.42	210.48
979.71	210.17
980.00	210.50
980.29	210.79
980.59	210.14
980.88	210.83
981.17	210.88
981.46	210.98
981.76	210.95
982.05	211.74
982.34	211.79
982.63	211.74
982.93	211.64
983.22	212.07
983.51	212.12
983.80	212.10
984.09	212.31
984.39	212.21
984.68	211.38
984.97	211.45
985.26	211.21
985.55	211.40
985.85	211.14
986.14	211.36
986.43	211.55
986.72	211.36
987.01	210.79
987.30	210.83
987.59	210.67
987.89	210.81
988.18	210.43
988.47	210.52
988.76	210.31
989.05	210.07
989.34	209.86
989.63	210.40
989.92	210.02
990.22	209.86
990.51	209.67
990.80	209.98
991.09	210.05
991.38	210.33
991.67	209.90
991.96	209.69
992.25	209.57
992.54	209.17
992.83	209.55
993.12	209.14
993.41	209.45
993.70	210.57
993.99	210.95
994.28	210.98
994.58	211.29
994.87	211.26
995.16	211.36
995.45	211.05
995.74	210.24
996.03	210.83
996.32	211.07
996.61	211.67
996.90	211.69
997.19	211.52
997.48	211.64
997.77	211.62
998.06	212.02
998.34	211.76
998.63	211.71
998.92	211.86
999.21	212.33
999.50	212.17
999.79	211.40
1000.08	211.31
1000.37	211.38
1000.66	211.00
1000.95	211.52
1001.24	211.76
1001.53	212.24
1001.82	212.29
1002.11	211.74
1002.40	211.90
1002.68	212.07
1002.97	213.48
1003.26	213.40
1003.55	213.07
1003.84	213.38
1004.13	214.05
1004.42	214.05
1004.71	213.83
1004.99	213.62
1005.28	214.02
1005.57	214.02
1005.86	213.83
1006.15	213.52
1006.44	213.26
1006.72	213.71
1007.01	213.36
1007.30	213.24
1007.59	212.98
1007.88	212.95
1008.17	213.00
1008.45	212.62
1008.74	211.86
1009.03	210.86
1009.32	211.00
1009.60	210.88
1009.89	210.50
1010.18	209.60
1010.47	209.69
1010.76	209.86
1011.04	209.88
1011.33	209.98
1011.62	210.19
1011.91	210.24
1012.19	210.24
1012.48	210.33
1012.77	209.90
1013.05	211.02
1013.34	211.05
1013.63	210.95
1013.92	210.95
1014.20	210.86
1014.49	211.02
1014.78	211.21
1015.06	210.57
1015.35	210.29
1015.64	210.50
1015.92	211.14
1016.21	211.19
1016.50	211.02
1016.78	211.33
1017.07	211.43
1017.36	210.90
1017.64	210.45
1017.93	210.55
1018.22	210.50
1018.50	210.36
1018.79	210.60
1019.08	209.43
1019.36	209.57
1019.65	209.24
1019.93	209.83
1020.22	210.38
1020.51	211.33
1020.79	211.00
1021.08	206.50
1021.36	207.00
1021.65	212.00
1021.94	209.00
1022.22	211.50
1022.51	204.50
1022.79	220.00
1023.08	217.50
1023.36	235.00
1023.65	202.50
>>>>>End Processed Spectral Data<<<<<
