SpectraSuite Data File
++++++++++++++++++++++++++++++++++++
Date: Tue Apr 02 18:43:32 EDT 2013
User: group
Dark Spectrum Present: No
Reference Spectrum Present: No
Number of Sampled Component Spectra: 1
Spectrometers: USB2E7196
Integration Time (usec): 580000 (USB2E7196)
Spectra Averaged: 2 (USB2E7196)
Boxcar Smoothing: 10 (USB2E7196)
Correct for Electrical Dark: No (USB2E7196)
Strobe/Lamp Enabled: No (USB2E7196)
Correct for Detector Non-linearity: No (USB2E7196)
Correct for Stray Light: No (USB2E7196)
Number of Pixels in Processed Spectrum: 2048
>>>>>Begin Processed Spectral Data<<<<<
339.09	0.00
339.48	191.00
339.86	197.50
340.24	201.50
340.63	196.50
341.01	232.00
341.39	201.50
341.78	210.00
342.16	211.50
342.54	205.00
342.93	199.29
343.31	209.00
343.69	209.81
344.07	210.55
344.46	211.24
344.84	211.98
345.22	210.71
345.60	211.10
345.99	211.10
346.37	211.00
346.75	211.10
347.13	211.10
347.52	211.12
347.90	211.76
348.28	211.64
348.66	211.71
349.05	210.90
349.43	211.33
349.81	211.26
350.19	211.10
350.57	211.12
350.96	211.31
351.34	211.81
351.72	211.88
352.10	211.57
352.48	211.24
352.87	211.12
353.25	211.26
353.63	211.21
354.01	211.24
354.39	211.38
354.77	211.36
355.15	212.17
355.54	211.81
355.92	210.90
356.30	210.95
356.68	212.33
357.06	212.36
357.44	211.90
357.82	212.12
358.20	212.98
358.58	212.88
358.97	213.00
359.35	213.07
359.73	213.31
360.11	213.52
360.49	213.60
360.87	213.19
361.25	213.26
361.63	214.07
362.01	214.07
362.39	213.98
362.77	214.21
363.15	213.67
363.53	213.81
363.91	214.14
364.29	213.95
364.67	211.88
365.05	212.07
365.43	212.17
365.81	212.24
366.19	212.36
366.57	213.10
366.95	213.02
367.33	212.57
367.71	212.45
368.09	212.79
368.47	212.67
368.85	212.88
369.23	213.45
369.61	212.57
369.99	213.29
370.37	213.64
370.75	214.62
371.13	214.52
371.51	214.36
371.89	214.50
372.27	214.48
372.65	214.67
373.03	214.74
373.41	214.90
373.78	214.95
374.16	213.67
374.54	213.12
374.92	213.05
375.30	213.31
375.68	213.17
376.06	213.19
376.44	213.26
376.82	213.64
377.19	213.38
377.57	213.33
377.95	212.67
378.33	212.38
378.71	211.17
379.09	211.40
379.47	211.71
379.84	211.67
380.22	211.64
380.60	211.57
380.98	211.55
381.36	211.12
381.73	210.83
382.11	211.50
382.49	211.60
382.87	211.36
383.25	211.33
383.62	213.76
384.00	213.36
384.38	213.19
384.76	213.36
385.13	214.26
385.51	214.48
385.89	214.14
386.27	214.02
386.64	214.31
387.02	213.98
387.40	213.79
387.78	213.86
388.15	214.07
388.53	214.00
388.91	214.14
389.29	214.29
389.66	214.69
390.04	214.50
390.42	214.86
390.79	215.10
391.17	215.00
391.55	212.67
391.92	212.83
392.30	213.21
392.68	212.93
393.05	212.79
393.43	212.74
393.81	213.17
394.18	213.14
394.56	213.36
394.94	213.95
395.31	213.83
395.69	214.48
396.06	214.83
396.44	214.98
396.82	214.60
397.19	215.52
397.57	215.45
397.95	215.64
398.32	214.93
398.70	214.93
399.07	215.64
399.45	215.74
399.82	215.81
400.20	215.81
400.58	215.88
400.95	215.07
401.33	215.45
401.70	217.00
402.08	217.19
402.45	217.43
402.83	218.00
403.20	218.38
403.58	218.24
403.95	218.67
404.33	219.12
404.71	219.81
405.08	221.14
405.46	221.12
405.83	221.76
406.21	222.26
406.58	222.64
406.96	222.55
407.33	223.36
407.70	223.81
408.08	225.95
408.45	226.81
408.83	227.71
409.20	228.45
409.58	227.86
409.95	229.02
410.33	229.81
410.70	230.00
411.08	231.38
411.45	232.55
411.82	233.40
412.20	235.12
412.57	237.43
412.95	237.10
413.32	239.02
413.69	240.55
414.07	242.19
414.44	244.00
414.82	246.12
415.19	248.21
415.56	250.60
415.94	251.48
416.31	254.36
416.68	257.31
417.06	260.43
417.43	263.86
417.81	267.21
418.18	270.79
418.55	274.48
418.93	278.07
419.30	282.24
419.67	286.93
420.04	291.31
420.42	295.50
420.79	302.52
421.16	308.24
421.54	314.90
421.91	320.95
422.28	327.07
422.66	334.10
423.03	342.17
423.40	348.79
423.77	356.19
424.15	363.29
424.52	370.83
424.89	379.33
425.26	387.12
425.64	394.67
426.01	402.76
426.38	411.33
426.75	421.05
427.13	430.43
427.50	439.76
427.87	449.48
428.24	459.31
428.61	467.74
428.99	479.07
429.36	489.52
429.73	501.07
430.10	512.52
430.47	523.81
430.85	533.81
431.22	546.74
431.59	561.07
431.96	573.69
432.33	587.76
432.70	601.79
433.08	617.93
433.45	632.74
433.82	648.21
434.19	665.38
434.56	681.93
434.93	697.64
435.30	713.86
435.68	731.21
436.05	748.74
436.42	765.81
436.79	781.38
437.16	798.93
437.53	817.10
437.90	835.19
438.27	852.76
438.64	871.31
439.01	889.26
439.38	903.90
439.75	919.10
440.13	935.95
440.50	951.36
440.87	964.83
441.24	978.55
441.61	993.05
441.98	1004.02
442.35	1016.21
442.72	1028.31
443.09	1041.21
443.46	1049.48
443.83	1055.19
444.20	1059.50
444.57	1065.74
444.94	1068.40
445.31	1071.43
445.68	1077.02
446.05	1078.64
446.42	1076.71
446.79	1074.24
447.16	1071.74
447.53	1070.62
447.90	1064.50
448.27	1057.88
448.64	1048.57
449.01	1042.71
449.37	1031.69
449.74	1020.57
450.11	1008.79
450.48	994.71
450.85	979.33
451.22	966.31
451.59	953.38
451.96	943.07
452.33	926.52
452.70	912.69
453.07	895.93
453.43	876.19
453.80	860.12
454.17	845.19
454.54	829.38
454.91	813.40
455.28	796.88
455.65	781.98
456.02	770.43
456.38	758.02
456.75	742.26
457.12	728.74
457.49	716.38
457.86	702.55
458.23	692.45
458.59	680.57
458.96	668.81
459.33	658.31
459.70	647.50
460.07	639.90
460.43	630.19
460.80	621.69
461.17	614.24
461.54	605.40
461.91	597.31
462.27	589.79
462.64	583.02
463.01	575.93
463.38	569.29
463.74	558.71
464.11	551.50
464.48	545.86
464.85	539.88
465.21	535.14
465.58	530.40
465.95	524.14
466.32	518.86
466.68	513.31
467.05	508.83
467.42	503.55
467.78	498.14
468.15	492.90
468.52	489.12
468.88	483.62
469.25	479.12
469.62	475.86
469.98	472.02
470.35	468.43
470.72	464.69
471.08	459.52
471.45	456.86
471.82	454.74
472.18	451.21
472.55	448.64
472.92	445.14
473.28	441.93
473.65	438.86
474.02	436.33
474.38	434.81
474.75	432.26
475.11	429.24
475.48	427.79
475.85	426.29
476.21	424.26
476.58	423.12
476.94	422.02
477.31	420.55
477.67	419.21
478.04	417.74
478.41	417.12
478.77	418.98
479.14	417.86
479.50	416.60
479.87	416.40
480.23	416.02
480.60	416.07
480.96	415.88
481.33	416.45
481.69	416.79
482.06	416.88
482.42	417.57
482.79	418.33
483.15	418.38
483.52	419.17
483.88	419.52
484.25	420.02
484.61	420.69
484.98	421.02
485.34	422.81
485.71	424.48
486.07	425.67
486.44	425.00
486.80	426.36
487.17	427.86
487.53	430.14
487.90	432.33
488.26	434.93
488.62	437.38
488.99	439.36
489.35	441.86
489.72	444.21
490.08	446.90
490.44	449.55
490.81	453.38
491.17	456.50
491.54	460.02
491.90	463.93
492.26	467.55
492.63	471.40
492.99	474.57
493.36	478.57
493.72	482.81
494.08	487.38
494.45	492.52
494.81	497.83
495.17	502.12
495.54	507.05
495.90	511.79
496.26	516.88
496.63	522.60
496.99	527.98
497.35	533.52
497.72	538.98
498.08	545.00
498.44	550.60
498.80	556.62
499.17	562.76
499.53	568.76
499.89	575.86
500.26	582.62
500.62	589.26
500.98	596.45
501.34	603.50
501.71	610.88
502.07	617.74
502.43	624.38
502.79	631.02
503.16	637.95
503.52	644.83
503.88	651.69
504.24	658.86
504.60	666.57
504.97	674.45
505.33	682.12
505.69	690.81
506.05	698.40
506.41	705.98
506.78	713.50
507.14	721.26
507.50	728.88
507.86	736.81
508.22	744.67
508.59	751.69
508.95	759.79
509.31	768.55
509.67	776.10
510.03	783.88
510.39	792.14
510.75	800.12
511.12	807.79
511.48	815.67
511.84	823.31
512.20	831.00
512.56	838.69
512.92	846.00
513.28	853.55
513.64	861.38
514.00	868.93
514.37	877.00
514.73	884.71
515.09	891.98
515.45	898.71
515.81	906.40
516.17	913.60
516.53	919.02
516.89	924.31
517.25	930.98
517.61	937.64
517.97	944.19
518.33	950.71
518.69	957.48
519.05	964.21
519.41	970.21
519.77	977.38
520.13	983.05
520.49	988.81
520.85	993.95
521.21	1000.14
521.57	1006.40
521.93	1010.62
522.29	1015.81
522.65	1020.33
523.01	1025.60
523.37	1030.33
523.73	1035.71
524.09	1041.86
524.45	1046.88
524.81	1051.50
525.17	1057.31
525.53	1062.57
525.89	1067.14
526.25	1071.48
526.61	1075.64
526.97	1079.79
527.33	1083.50
527.68	1090.19
528.04	1095.24
528.40	1099.67
528.76	1103.29
529.12	1106.74
529.48	1112.64
529.84	1116.57
530.20	1121.45
530.56	1126.29
530.91	1130.48
531.27	1134.74
531.63	1139.38
531.99	1143.33
532.35	1147.74
532.71	1150.52
533.07	1154.40
533.42	1161.07
533.78	1164.98
534.14	1169.76
534.50	1174.26
534.86	1178.31
535.21	1180.17
535.57	1184.07
535.93	1187.36
536.29	1191.86
536.65	1196.71
537.00	1199.33
537.36	1202.93
537.72	1206.79
538.08	1209.95
538.44	1213.00
538.79	1216.43
539.15	1219.69
539.51	1222.98
539.87	1226.76
540.22	1230.43
540.58	1234.07
540.94	1234.83
541.29	1238.24
541.65	1240.29
542.01	1243.55
542.37	1245.90
542.72	1248.40
543.08	1250.40
543.44	1253.79
543.79	1254.83
544.15	1257.74
544.51	1261.00
544.87	1264.50
545.22	1267.60
545.58	1270.76
545.94	1273.62
546.29	1276.48
546.65	1278.33
547.01	1281.29
547.36	1283.62
547.72	1286.05
548.07	1288.07
548.43	1290.26
548.79	1293.07
549.14	1295.57
549.50	1298.40
549.86	1300.79
550.21	1303.50
550.57	1306.86
550.92	1309.07
551.28	1313.98
551.64	1316.26
551.99	1319.24
552.35	1321.45
552.70	1323.48
553.06	1325.86
553.41	1329.76
553.77	1333.57
554.13	1337.40
554.48	1341.64
554.84	1345.79
555.19	1350.02
555.55	1354.88
555.90	1359.26
556.26	1362.17
556.61	1365.52
556.97	1368.90
557.32	1372.64
557.68	1376.50
558.03	1380.17
558.39	1384.43
558.74	1388.21
559.10	1392.29
559.45	1396.12
559.81	1401.14
560.16	1405.48
560.52	1409.86
560.87	1413.74
561.23	1417.12
561.58	1423.19
561.94	1426.45
562.29	1430.36
562.64	1434.79
563.00	1438.67
563.35	1443.07
563.71	1448.33
564.06	1454.10
564.42	1459.36
564.77	1465.12
565.12	1471.10
565.48	1478.88
565.83	1485.00
566.19	1489.36
566.54	1494.38
566.89	1499.76
567.25	1505.90
567.60	1512.64
567.96	1520.95
568.31	1528.55
568.66	1535.19
569.02	1539.00
569.37	1544.67
569.72	1550.38
570.08	1555.02
570.43	1559.93
570.78	1565.57
571.14	1571.19
571.49	1576.43
571.84	1581.31
572.20	1586.45
572.55	1591.71
572.90	1595.33
573.26	1598.71
573.61	1603.29
573.96	1608.45
574.31	1613.02
574.67	1616.00
575.02	1619.24
575.37	1621.21
575.72	1623.86
576.08	1627.07
576.43	1630.45
576.78	1635.05
577.13	1639.36
577.49	1643.17
577.84	1647.62
578.19	1651.43
578.54	1654.81
578.90	1659.17
579.25	1663.14
579.60	1665.86
579.95	1669.05
580.30	1672.50
580.66	1677.40
581.01	1680.83
581.36	1683.50
581.71	1687.00
582.06	1691.67
582.42	1696.02
582.77	1699.21
583.12	1702.02
583.47	1704.93
583.82	1708.86
584.17	1711.76
584.53	1715.05
584.88	1719.10
585.23	1722.62
585.58	1724.95
585.93	1727.69
586.28	1730.02
586.63	1732.81
586.98	1735.90
587.34	1739.14
587.69	1740.76
588.04	1742.17
588.39	1745.17
588.74	1748.02
589.09	1750.60
589.44	1751.26
589.79	1752.95
590.14	1754.21
590.49	1755.88
590.84	1757.52
591.19	1759.29
591.54	1760.31
591.89	1760.50
592.25	1762.79
592.60	1762.55
592.95	1764.21
593.30	1766.52
593.65	1766.95
594.00	1767.12
594.35	1774.21
594.70	1773.79
595.05	1774.74
595.40	1775.62
595.75	1776.60
596.10	1776.95
596.45	1777.57
596.80	1778.67
597.15	1778.60
597.50	1778.69
597.85	1780.90
598.19	1781.24
598.54	1781.26
598.89	1782.88
599.24	1784.79
599.59	1783.95
599.94	1784.74
600.29	1784.98
600.64	1784.62
600.99	1785.21
601.34	1786.31
601.69	1780.43
602.04	1780.05
602.39	1779.17
602.74	1779.95
603.08	1780.02
603.43	1781.19
603.78	1780.33
604.13	1779.64
604.48	1778.98
604.83	1780.19
605.18	1777.81
605.53	1777.81
605.87	1776.95
606.22	1774.38
606.57	1772.29
606.92	1770.55
607.27	1769.93
607.62	1769.24
607.96	1767.93
608.31	1767.12
608.66	1765.69
609.01	1765.10
609.36	1765.24
609.70	1764.02
610.05	1760.79
610.40	1758.38
610.75	1755.45
611.10	1754.05
611.44	1752.38
611.79	1750.26
612.14	1746.95
612.49	1743.60
612.83	1739.90
613.18	1737.21
613.53	1735.38
613.88	1732.24
614.22	1729.81
614.57	1725.36
614.92	1721.60
615.27	1718.24
615.61	1714.05
615.96	1710.05
616.31	1704.57
616.65	1700.93
617.00	1698.60
617.35	1696.57
617.70	1692.48
618.04	1688.52
618.39	1684.52
618.74	1680.60
619.08	1676.29
619.43	1673.00
619.78	1670.12
620.12	1667.29
620.47	1663.74
620.82	1659.71
621.16	1655.12
621.51	1651.98
621.85	1648.69
622.20	1644.62
622.55	1640.17
622.89	1637.10
623.24	1633.60
623.59	1629.90
623.93	1625.14
624.28	1620.31
624.62	1618.12
624.97	1615.62
625.32	1611.12
625.66	1607.21
626.01	1602.67
626.35	1599.90
626.70	1595.17
627.04	1592.14
627.39	1588.52
627.73	1585.24
628.08	1581.64
628.43	1578.07
628.77	1573.24
629.12	1570.07
629.46	1565.86
629.81	1561.90
630.15	1556.50
630.50	1551.24
630.84	1547.21
631.19	1541.86
631.53	1537.19
631.88	1528.74
632.22	1521.90
632.57	1517.90
632.91	1511.93
633.26	1507.67
633.60	1501.81
633.95	1497.17
634.29	1491.38
634.64	1485.95
634.98	1479.50
635.32	1475.00
635.67	1470.62
636.01	1466.21
636.36	1460.10
636.70	1456.38
637.05	1451.93
637.39	1448.05
637.73	1443.98
638.08	1440.40
638.42	1435.90
638.77	1431.64
639.11	1427.74
639.45	1423.10
639.80	1417.57
640.14	1413.83
640.49	1408.71
640.83	1403.40
641.17	1398.79
641.52	1392.62
641.86	1387.62
642.20	1384.26
642.55	1377.74
642.89	1371.83
643.23	1366.52
643.58	1361.43
643.92	1354.12
644.26	1347.88
644.61	1341.93
644.95	1335.86
645.29	1329.07
645.64	1323.74
645.98	1316.90
646.32	1311.67
646.66	1304.69
647.01	1298.64
647.35	1292.45
647.69	1286.45
648.04	1281.10
648.38	1274.79
648.72	1270.07
649.06	1263.57
649.41	1256.19
649.75	1249.38
650.09	1243.26
650.43	1235.88
650.78	1229.14
651.12	1223.52
651.46	1217.10
651.80	1210.55
652.14	1204.48
652.49	1198.81
652.83	1192.69
653.17	1186.43
653.51	1179.45
653.85	1174.74
654.20	1168.10
654.54	1160.36
654.88	1153.62
655.22	1147.24
655.56	1140.14
655.90	1132.69
656.25	1126.90
656.59	1120.57
656.93	1114.71
657.27	1109.14
657.61	1102.57
657.95	1097.31
658.29	1090.93
658.64	1085.43
658.98	1079.05
659.32	1072.48
659.66	1065.76
660.00	1058.81
660.34	1051.95
660.68	1045.10
661.02	1037.93
661.36	1032.00
661.70	1027.00
662.05	1020.67
662.39	1014.74
662.73	1009.45
663.07	1004.29
663.41	997.79
663.75	991.24
664.09	985.71
664.43	979.19
664.77	973.07
665.11	965.43
665.45	959.33
665.79	952.67
666.13	946.24
666.47	940.90
666.81	934.83
667.15	929.14
667.49	924.69
667.83	919.90
668.17	915.00
668.51	909.45
668.85	904.24
669.19	900.00
669.53	894.19
669.87	888.52
670.21	882.14
670.55	876.74
670.89	872.33
671.23	866.24
671.57	860.67
671.91	856.60
672.25	852.43
672.58	847.62
672.92	841.86
673.26	836.79
673.60	830.57
673.94	825.00
674.28	819.86
674.62	814.26
674.96	808.74
675.30	803.98
675.64	798.76
675.97	792.79
676.31	786.90
676.65	781.79
676.99	777.50
677.33	773.07
677.67	768.38
678.01	762.57
678.34	758.05
678.68	753.45
679.02	747.60
679.36	741.86
679.70	736.36
680.04	732.14
680.37	727.33
680.71	722.88
681.05	718.36
681.39	714.00
681.73	709.48
682.06	705.10
682.40	700.67
682.74	696.50
683.08	693.33
683.42	688.21
683.75	683.57
684.09	678.48
684.43	673.50
684.77	668.48
685.10	663.81
685.44	659.55
685.78	654.98
686.12	650.48
686.45	646.36
686.79	642.24
687.13	638.43
687.46	634.33
687.80	630.38
688.14	626.29
688.48	622.17
688.81	617.57
689.15	613.90
689.49	608.74
689.82	603.83
690.16	598.38
690.50	593.95
690.83	589.76
691.17	585.21
691.51	581.38
691.84	577.52
692.18	573.76
692.52	569.67
692.85	566.36
693.19	563.57
693.52	559.69
693.86	555.57
694.20	551.26
694.53	547.55
694.87	543.24
695.21	538.90
695.54	534.86
695.88	530.67
696.21	525.79
696.55	522.19
696.88	519.07
697.22	515.21
697.56	512.74
697.89	508.74
698.23	505.79
698.56	501.98
698.90	498.40
699.23	495.14
699.57	491.74
699.90	487.60
700.24	483.14
700.58	480.17
700.91	477.05
701.25	475.38
701.58	472.81
701.92	470.50
702.25	467.74
702.59	464.55
702.92	461.48
703.26	458.93
703.59	456.19
703.93	454.90
704.26	452.52
704.60	449.38
704.93	446.93
705.26	443.36
705.60	441.45
705.93	438.45
706.27	436.50
706.60	434.02
706.94	432.38
707.27	429.95
707.61	427.12
707.94	424.50
708.27	420.19
708.61	416.98
708.94	413.81
709.28	411.60
709.61	409.02
709.94	407.17
710.28	404.79
710.61	402.38
710.95	398.45
711.28	397.67
711.61	395.24
711.95	393.40
712.28	391.31
712.61	388.86
712.95	387.88
713.28	386.24
713.61	383.93
713.95	381.12
714.28	379.31
714.61	377.24
714.95	374.93
715.28	372.71
715.61	370.62
715.95	368.74
716.28	366.33
716.61	364.81
716.95	362.52
717.28	360.57
717.61	358.38
717.94	356.14
718.28	352.67
718.61	350.79
718.94	348.45
719.27	346.67
719.61	344.79
719.94	342.12
720.27	339.12
720.60	337.31
720.94	335.36
721.27	333.69
721.60	332.48
721.93	331.36
722.27	330.88
722.60	329.69
722.93	328.29
723.26	327.17
723.59	325.52
723.93	324.31
724.26	323.02
724.59	321.93
724.92	321.24
725.25	320.45
725.59	319.19
725.92	318.33
726.25	317.19
726.58	316.36
726.91	315.24
727.24	314.45
727.57	313.52
727.91	312.12
728.24	311.12
728.57	309.81
728.90	308.90
729.23	307.12
729.56	306.71
729.89	305.57
730.22	304.33
730.55	303.10
730.89	302.36
731.22	301.05
731.55	300.05
731.88	298.74
732.21	297.67
732.54	296.50
732.87	295.48
733.20	294.74
733.53	293.60
733.86	292.83
734.19	291.55
734.52	291.00
734.85	291.62
735.18	290.52
735.51	290.12
735.84	289.29
736.17	288.93
736.50	287.26
736.83	288.69
737.16	288.10
737.49	287.43
737.82	286.57
738.15	286.31
738.48	285.38
738.81	284.29
739.14	283.02
739.47	282.17
739.80	281.10
740.13	280.36
740.46	279.29
740.79	278.40
741.12	277.64
741.45	276.45
741.78	274.95
742.11	274.79
742.44	273.71
742.77	273.33
743.10	272.00
743.43	270.98
743.75	268.17
744.08	269.71
744.41	268.67
744.74	267.52
745.07	266.40
745.40	266.19
745.73	266.86
746.06	266.40
746.39	266.19
746.71	265.62
747.04	264.45
747.37	263.93
747.70	263.55
748.03	263.17
748.36	262.86
748.68	262.02
749.01	261.02
749.34	260.50
749.67	259.76
750.00	259.88
750.33	261.17
750.65	260.95
750.98	258.17
751.31	258.00
751.64	257.64
751.97	258.33
752.29	257.71
752.62	256.07
752.95	255.50
753.28	254.81
753.60	254.31
753.93	254.69
754.26	254.02
754.59	253.00
754.91	252.29
755.24	251.64
755.57	251.19
755.90	250.48
756.22	249.83
756.55	248.90
756.88	247.98
757.20	246.19
757.53	245.10
757.86	244.60
758.19	244.48
758.51	244.17
758.84	242.57
759.17	241.76
759.49	241.60
759.82	242.21
760.15	241.79
760.47	241.31
760.80	240.40
761.13	240.60
761.45	239.98
761.78	239.67
762.11	239.24
762.43	238.71
762.76	238.26
763.08	237.98
763.41	238.05
763.74	237.86
764.06	237.43
764.39	237.36
764.71	236.98
765.04	236.24
765.37	235.81
765.69	235.57
766.02	235.52
766.34	234.93
766.67	233.90
767.00	233.98
767.32	234.83
767.65	235.67
767.97	234.98
768.30	235.02
768.62	234.95
768.95	234.57
769.27	234.10
769.60	234.24
769.92	233.88
770.25	233.36
770.57	232.79
770.90	232.64
771.22	232.14
771.55	232.14
771.87	232.29
772.20	232.14
772.52	233.81
772.85	235.86
773.17	235.81
773.50	235.55
773.82	235.17
774.15	234.05
774.47	232.52
774.80	232.50
775.12	232.14
775.45	231.67
775.77	231.60
776.09	231.76
776.42	231.76
776.74	232.26
777.07	231.83
777.39	231.81
777.72	231.45
778.04	231.71
778.36	231.31
778.69	231.05
779.01	230.83
779.33	228.71
779.66	226.36
779.98	226.05
780.31	225.90
780.63	226.71
780.95	226.90
781.28	226.86
781.60	226.43
781.92	226.48
782.25	226.48
782.57	226.50
782.89	226.33
783.22	225.76
783.54	225.02
783.86	225.14
784.19	224.74
784.51	225.19
784.83	224.67
785.16	224.45
785.48	224.24
785.80	224.36
786.12	224.67
786.45	224.52
786.77	224.76
787.09	224.45
787.42	223.60
787.74	223.52
788.06	223.64
788.38	223.62
788.71	223.43
789.03	223.52
789.35	223.52
789.67	223.29
789.99	223.55
790.32	223.40
790.64	223.62
790.96	225.26
791.28	224.48
791.61	224.38
791.93	224.29
792.25	224.05
792.57	225.40
792.89	224.62
793.21	224.52
793.54	224.10
793.86	223.83
794.18	223.81
794.50	223.33
794.82	222.98
795.14	223.14
795.47	223.33
795.79	223.21
796.11	222.76
796.43	222.36
796.75	222.33
797.07	222.33
797.39	222.05
797.71	220.69
798.04	221.02
798.36	221.12
798.68	221.33
799.00	221.43
799.32	220.14
799.64	220.67
799.96	220.48
800.28	221.00
800.60	221.00
800.92	221.19
801.24	221.19
801.56	221.40
801.89	221.14
802.21	221.26
802.53	220.83
802.85	221.14
803.17	222.24
803.49	221.79
803.81	221.50
804.13	221.33
804.45	221.10
804.77	220.98
805.09	220.79
805.41	220.36
805.73	219.95
806.05	219.45
806.37	219.24
806.69	218.98
807.01	218.81
807.33	218.90
807.65	218.14
807.97	218.81
808.28	218.50
808.60	218.36
808.92	218.00
809.24	219.31
809.56	218.95
809.88	218.21
810.20	218.17
810.52	218.52
810.84	218.19
811.16	217.86
811.48	217.50
811.80	218.38
812.12	218.43
812.43	218.79
812.75	218.93
813.07	218.67
813.39	218.79
813.71	218.29
814.03	217.88
814.35	217.74
814.67	216.98
814.98	216.98
815.30	216.93
815.62	216.55
815.94	214.93
816.26	215.00
816.58	214.52
816.89	214.62
817.21	214.29
817.53	214.52
817.85	214.69
818.17	214.90
818.48	214.02
818.80	214.10
819.12	213.79
819.44	213.31
819.76	213.21
820.07	213.36
820.39	213.17
820.71	213.43
821.03	213.62
821.34	213.50
821.66	213.86
821.98	214.10
822.30	214.24
822.61	215.71
822.93	215.50
823.25	215.60
823.57	215.38
823.88	215.81
824.20	215.67
824.52	215.88
824.83	215.69
825.15	215.55
825.47	215.55
825.79	215.74
826.10	215.79
826.42	215.60
826.74	215.52
827.05	215.52
827.37	215.48
827.69	215.31
828.00	215.43
828.32	215.21
828.64	215.05
828.95	216.07
829.27	215.48
829.58	215.40
829.90	215.83
830.22	216.12
830.53	215.33
830.85	215.02
831.17	214.52
831.48	214.48
831.80	214.52
832.11	214.45
832.43	214.21
832.75	214.33
833.06	215.69
833.38	215.33
833.69	215.48
834.01	215.76
834.32	215.74
834.64	215.38
834.96	215.40
835.27	215.19
835.59	214.40
835.90	214.00
836.22	214.14
836.53	213.74
836.85	213.48
837.16	215.57
837.48	215.67
837.79	216.43
838.11	216.69
838.42	216.81
838.74	217.07
839.05	216.93
839.37	216.93
839.68	215.57
840.00	215.55
840.31	215.76
840.63	215.50
840.94	215.07
841.26	215.00
841.57	214.86
841.88	215.29
842.20	215.07
842.51	214.67
842.83	214.57
843.14	216.36
843.46	216.33
843.77	215.24
844.08	215.26
844.40	214.40
844.71	214.10
845.03	213.86
845.34	213.79
845.65	213.93
845.97	213.95
846.28	213.95
846.60	214.19
846.91	213.67
847.22	213.40
847.54	214.36
847.85	214.50
848.16	214.50
848.48	214.00
848.79	214.95
849.10	215.40
849.42	215.55
849.73	213.79
850.04	213.69
850.36	212.88
850.67	213.21
850.98	213.71
851.30	213.86
851.61	213.74
851.92	213.48
852.23	214.02
852.55	213.93
852.86	214.14
853.17	214.21
853.49	215.00
853.80	215.38
854.11	215.38
854.42	215.64
854.74	215.24
855.05	215.19
855.36	213.90
855.67	213.88
855.99	213.93
856.30	216.33
856.61	215.98
856.92	216.33
857.23	216.24
857.55	215.98
857.86	216.05
858.17	216.50
858.48	216.26
858.79	215.93
859.11	216.21
859.42	216.17
859.73	215.83
860.04	215.48
860.35	215.10
860.66	214.38
860.98	214.14
861.29	214.45
861.60	214.36
861.91	215.10
862.22	214.86
862.53	214.38
862.84	211.83
863.16	212.71
863.47	212.19
863.78	212.19
864.09	212.12
864.40	212.07
864.71	212.02
865.02	212.40
865.33	211.88
865.64	211.45
865.95	211.26
866.27	212.67
866.58	212.57
866.89	212.83
867.20	212.62
867.51	212.36
867.82	212.17
868.13	212.79
868.44	212.24
868.75	212.60
869.06	212.71
869.37	212.86
869.68	212.05
869.99	212.43
870.30	212.43
870.61	212.67
870.92	212.52
871.23	212.21
871.54	212.36
871.85	212.86
872.16	213.02
872.47	212.86
872.78	211.62
873.09	211.45
873.40	211.48
873.71	211.93
874.02	212.10
874.33	211.98
874.64	211.69
874.95	212.02
875.26	211.55
875.56	211.52
875.87	211.52
876.18	211.57
876.49	213.57
876.80	213.52
877.11	213.14
877.42	213.26
877.73	213.40
878.04	213.10
878.35	212.95
878.66	213.19
878.96	213.33
879.27	213.52
879.58	213.71
879.89	213.45
880.20	213.88
880.51	214.02
880.82	214.10
881.12	214.14
881.43	213.71
881.74	213.55
882.05	213.55
882.36	213.79
882.67	213.98
882.97	211.64
883.28	211.29
883.59	211.33
883.90	211.36
884.21	211.43
884.51	211.19
884.82	211.24
885.13	211.19
885.44	211.21
885.74	210.93
886.05	210.88
886.36	210.76
886.67	210.12
886.98	211.05
887.28	211.38
887.59	211.31
887.90	211.57
888.20	211.57
888.51	212.02
888.82	211.40
889.13	211.48
889.43	213.40
889.74	213.40
890.05	213.36
890.35	213.10
890.66	213.00
890.97	213.19
891.28	212.76
891.58	212.79
891.89	212.69
892.20	212.60
892.50	212.19
892.81	212.24
893.12	212.38
893.42	211.40
893.73	211.31
894.04	211.43
894.34	211.48
894.65	211.33
894.95	210.79
895.26	211.29
895.57	212.24
895.87	210.10
896.18	210.55
896.48	210.83
896.79	211.07
897.10	211.52
897.40	211.40
897.71	211.86
898.01	211.62
898.32	211.93
898.63	211.81
898.93	212.14
899.24	212.24
899.54	211.93
899.85	211.71
900.15	211.76
900.46	211.64
900.76	211.93
901.07	212.02
901.38	212.31
901.68	212.24
901.99	211.24
902.29	211.60
902.60	211.40
902.90	211.02
903.21	210.83
903.51	210.43
903.82	211.02
904.12	210.95
904.43	211.24
904.73	211.12
905.03	211.52
905.34	213.36
905.64	213.14
905.95	213.21
906.25	213.29
906.56	213.17
906.86	213.17
907.17	212.90
907.47	213.17
907.77	212.90
908.08	212.50
908.38	212.76
908.69	213.00
908.99	213.12
909.30	213.29
909.60	213.29
909.90	213.40
910.21	212.74
910.51	212.60
910.81	212.36
911.12	212.40
911.42	212.36
911.73	210.33
912.03	210.62
912.33	211.02
912.64	211.07
912.94	210.79
913.24	210.45
913.55	210.19
913.85	209.93
914.15	210.12
914.46	210.55
914.76	210.10
915.06	209.88
915.37	209.67
915.67	209.60
915.97	209.69
916.27	209.29
916.58	209.36
916.88	209.14
917.18	209.07
917.49	210.29
917.79	210.21
918.09	210.52
918.39	211.05
918.70	210.95
919.00	211.10
919.30	212.21
919.60	212.19
919.91	211.93
920.21	212.07
920.51	211.81
920.81	211.64
921.12	212.24
921.42	212.26
921.72	212.50
922.02	212.55
922.32	212.71
922.63	212.86
922.93	213.90
923.23	214.21
923.53	214.07
923.83	212.74
924.13	212.88
924.44	212.90
924.74	213.24
925.04	213.67
925.34	213.62
925.64	212.81
925.94	213.02
926.24	214.36
926.55	214.17
926.85	214.52
927.15	214.57
927.45	214.43
927.75	214.50
928.05	214.57
928.35	214.45
928.65	214.69
928.95	214.93
929.26	214.26
929.56	214.38
929.86	214.86
930.16	215.00
930.46	214.71
930.76	214.79
931.06	213.88
931.36	213.29
931.66	213.50
931.96	213.64
932.26	213.64
932.56	212.79
932.86	213.02
933.16	212.95
933.46	212.74
933.76	212.45
934.06	212.88
934.36	213.45
934.66	213.62
934.96	213.26
935.26	213.33
935.56	213.36
935.86	212.95
936.16	212.60
936.46	212.26
936.76	212.48
937.06	212.24
937.36	212.29
937.66	212.26
937.96	212.14
938.26	211.76
938.56	211.64
938.86	211.86
939.16	212.36
939.46	212.48
939.76	212.67
940.06	212.76
940.35	212.10
940.65	210.88
940.95	210.74
941.25	210.48
941.55	210.31
941.85	210.12
942.15	210.62
942.45	211.14
942.75	211.26
943.04	211.00
943.34	211.52
943.64	211.31
943.94	211.12
944.24	211.10
944.54	211.14
944.84	211.05
945.13	210.60
945.43	209.98
945.73	209.98
946.03	209.69
946.33	209.62
946.62	209.76
946.92	209.95
947.22	210.12
947.52	210.36
947.82	210.57
948.11	210.36
948.41	210.02
948.71	209.40
949.01	209.45
949.31	209.50
949.60	209.24
949.90	209.50
950.20	209.50
950.50	209.48
950.79	209.38
951.09	209.83
951.39	209.93
951.69	209.93
951.98	210.33
952.28	210.52
952.58	210.31
952.87	209.95
953.17	210.43
953.47	210.29
953.76	210.12
954.06	209.74
954.36	209.74
954.66	209.69
954.95	210.45
955.25	210.69
955.55	211.00
955.84	210.45
956.14	210.67
956.44	210.93
956.73	210.79
957.03	211.10
957.32	210.98
957.62	210.83
957.92	211.21
958.21	210.88
958.51	213.36
958.81	213.74
959.10	214.12
959.40	214.45
959.69	214.50
959.99	214.76
960.29	214.83
960.58	214.71
960.88	215.33
961.17	215.05
961.47	215.19
961.76	214.79
962.06	215.29
962.36	215.17
962.65	215.19
962.95	215.12
963.24	214.71
963.54	215.00
963.83	215.12
964.13	215.12
964.42	214.67
964.72	212.83
965.01	212.93
965.31	212.98
965.60	212.36
965.90	213.88
966.19	213.60
966.49	213.67
966.78	213.76
967.08	213.55
967.37	213.33
967.67	212.90
967.96	213.21
968.26	212.98
968.55	213.14
968.85	213.02
969.14	212.93
969.43	213.12
969.73	212.81
970.02	212.69
970.32	212.45
970.61	212.48
970.91	211.98
971.20	211.69
971.49	211.36
971.79	211.64
972.08	210.24
972.38	210.50
972.67	210.40
972.96	210.60
973.26	210.36
973.55	210.79
973.85	210.64
974.14	210.62
974.43	210.93
974.73	210.67
975.02	210.57
975.31	210.69
975.61	210.57
975.90	210.21
976.19	210.02
976.49	210.29
976.78	210.26
977.07	210.26
977.37	210.24
977.66	210.64
977.95	210.36
978.24	210.50
978.54	210.83
978.83	210.60
979.12	210.36
979.42	210.26
979.71	210.14
980.00	210.31
980.29	210.40
980.59	210.02
980.88	210.62
981.17	210.76
981.46	210.93
981.76	211.00
982.05	211.74
982.34	211.98
982.63	211.81
982.93	211.88
983.22	212.40
983.51	212.33
983.80	212.60
984.09	213.02
984.39	212.86
984.68	212.55
984.97	212.86
985.26	212.76
985.55	213.05
985.85	212.69
986.14	213.14
986.43	213.33
986.72	213.12
987.01	212.31
987.30	212.24
987.59	211.93
987.89	212.19
988.18	211.50
988.47	211.24
988.76	211.07
989.05	210.90
989.34	210.52
989.63	211.24
989.92	210.57
990.22	210.14
990.51	210.05
990.80	209.83
991.09	209.64
991.38	209.90
991.67	209.60
991.96	209.21
992.25	209.19
992.54	208.71
992.83	208.88
993.12	208.95
993.41	209.21
993.70	210.26
993.99	210.38
994.28	210.74
994.58	211.43
994.87	211.10
995.16	211.24
995.45	211.21
995.74	210.50
996.03	211.26
996.32	211.71
996.61	212.17
996.90	212.02
997.19	212.14
997.48	212.26
997.77	212.12
998.06	212.45
998.34	212.10
998.63	212.24
998.92	212.57
999.21	212.76
999.50	212.86
999.79	211.98
1000.08	212.12
1000.37	212.02
1000.66	211.57
1000.95	212.10
1001.24	212.36
1001.53	212.43
1001.82	212.50
1002.11	211.83
1002.40	211.93
1002.68	212.29
1002.97	213.90
1003.26	213.57
1003.55	213.40
1003.84	213.52
1004.13	214.19
1004.42	214.10
1004.71	214.00
1004.99	213.67
1005.28	214.26
1005.57	213.81
1005.86	213.60
1006.15	213.29
1006.44	213.17
1006.72	213.17
1007.01	213.21
1007.30	213.05
1007.59	212.98
1007.88	212.76
1008.17	213.12
1008.45	212.38
1008.74	211.52
1009.03	210.57
1009.32	210.74
1009.60	210.71
1009.89	210.50
1010.18	209.52
1010.47	209.52
1010.76	209.60
1011.04	209.71
1011.33	209.71
1011.62	209.98
1011.91	210.21
1012.19	210.31
1012.48	210.33
1012.77	210.45
1013.05	211.19
1013.34	211.29
1013.63	210.98
1013.92	211.38
1014.20	210.93
1014.49	211.02
1014.78	211.14
1015.06	210.33
1015.35	210.33
1015.64	210.38
1015.92	210.81
1016.21	211.07
1016.50	211.14
1016.78	211.38
1017.07	211.38
1017.36	210.79
1017.64	210.57
1017.93	210.79
1018.22	210.57
1018.50	210.48
1018.79	210.62
1019.08	209.67
1019.36	209.79
1019.65	209.69
1019.93	209.86
1020.22	210.07
1020.51	211.26
1020.79	211.17
1021.08	208.00
1021.36	207.00
1021.65	214.50
1021.94	209.50
1022.22	213.50
1022.51	205.50
1022.79	216.50
1023.08	209.50
1023.36	233.00
1023.65	207.00
>>>>>End Processed Spectral Data<<<<<
