SpectraSuite Data File
++++++++++++++++++++++++++++++++++++
Date: Tue Apr 02 18:43:51 EDT 2013
User: group
Dark Spectrum Present: No
Reference Spectrum Present: No
Number of Sampled Component Spectra: 1
Spectrometers: USB2E7196
Integration Time (usec): 580000 (USB2E7196)
Spectra Averaged: 2 (USB2E7196)
Boxcar Smoothing: 10 (USB2E7196)
Correct for Electrical Dark: No (USB2E7196)
Strobe/Lamp Enabled: No (USB2E7196)
Correct for Detector Non-linearity: No (USB2E7196)
Correct for Stray Light: No (USB2E7196)
Number of Pixels in Processed Spectrum: 2048
>>>>>Begin Processed Spectral Data<<<<<
339.09	0.00
339.48	192.50
339.86	189.50
340.24	196.00
340.63	195.00
341.01	229.50
341.39	199.50
341.78	203.00
342.16	206.50
342.54	201.50
342.93	195.81
343.31	205.55
343.69	206.17
344.07	206.79
344.46	207.48
344.84	208.00
345.22	206.95
345.60	207.50
345.99	207.93
346.37	208.19
346.75	208.43
347.13	208.74
347.52	208.83
347.90	209.76
348.28	210.00
348.66	210.40
349.05	210.05
349.43	210.55
349.81	211.00
350.19	211.07
350.57	210.95
350.96	211.31
351.34	211.83
351.72	212.21
352.10	212.52
352.48	212.62
352.87	212.93
353.25	213.12
353.63	212.95
354.01	212.69
354.39	212.83
354.77	213.00
355.15	213.40
355.54	213.29
355.92	212.67
356.30	212.62
356.68	214.00
357.06	214.26
357.44	213.86
357.82	213.86
358.20	214.98
358.58	215.31
358.97	215.48
359.35	215.90
359.73	216.24
360.11	216.36
360.49	216.45
360.87	216.45
361.25	216.52
361.63	217.57
362.01	217.98
362.39	217.93
362.77	218.24
363.15	218.02
363.53	218.31
363.91	218.48
364.29	218.55
364.67	216.57
365.05	216.36
365.43	216.57
365.81	216.93
366.19	216.86
366.57	217.64
366.95	217.33
367.33	216.76
367.71	216.57
368.09	216.98
368.47	216.90
368.85	216.86
369.23	217.33
369.61	216.48
369.99	217.07
370.37	217.48
370.75	218.45
371.13	218.00
371.51	217.60
371.89	218.00
372.27	217.95
372.65	218.31
373.03	218.64
373.41	218.38
373.78	218.10
374.16	216.69
374.54	215.95
374.92	215.79
375.30	215.71
375.68	215.36
376.06	215.31
376.44	215.05
376.82	215.12
377.19	214.90
377.57	214.79
377.95	214.05
378.33	213.57
378.71	212.00
379.09	212.50
379.47	212.88
379.84	212.48
380.22	212.38
380.60	212.10
380.98	211.83
381.36	212.07
381.73	211.81
382.11	212.79
382.49	212.86
382.87	212.79
383.25	212.83
383.62	215.05
384.00	214.55
384.38	214.71
384.76	215.02
385.13	216.02
385.51	216.10
385.89	215.93
386.27	216.05
386.64	216.55
387.02	216.12
387.40	215.76
387.78	216.00
388.15	216.05
388.53	215.62
388.91	215.67
389.29	215.52
389.66	215.69
390.04	215.17
390.42	215.36
390.79	215.62
391.17	215.76
391.55	213.69
391.92	214.00
392.30	214.36
392.68	214.00
393.05	213.55
393.43	213.71
393.81	214.21
394.18	213.93
394.56	213.95
394.94	214.57
395.31	214.33
395.69	214.83
396.06	215.14
396.44	215.40
396.82	215.24
397.19	216.29
397.57	216.19
397.95	216.64
398.32	216.24
398.70	216.14
399.07	216.57
399.45	216.60
399.82	216.50
400.20	216.21
400.58	216.19
400.95	215.69
401.33	215.83
401.70	217.00
402.08	217.12
402.45	217.36
402.83	217.86
403.20	218.33
403.58	218.19
403.95	218.55
404.33	219.12
404.71	219.45
405.08	220.62
405.46	220.81
405.83	221.10
406.21	221.21
406.58	221.90
406.96	221.95
407.33	222.48
407.70	223.31
408.08	225.40
408.45	226.36
408.83	227.24
409.20	227.95
409.58	227.43
409.95	228.67
410.33	229.57
410.70	229.74
411.08	230.98
411.45	231.81
411.82	232.45
412.20	234.00
412.57	236.48
412.95	236.21
413.32	238.12
413.69	239.36
414.07	241.17
414.44	242.95
414.82	244.83
415.19	247.26
415.56	249.10
415.94	250.29
416.31	253.12
416.68	255.76
417.06	258.98
417.43	262.67
417.81	265.88
418.18	269.50
418.55	273.38
418.93	277.52
419.30	281.98
419.67	286.55
420.04	290.95
420.42	295.21
420.79	302.12
421.16	307.52
421.54	314.60
421.91	321.12
422.28	326.98
422.66	333.62
423.03	341.36
423.40	348.45
423.77	355.50
424.15	362.67
424.52	370.38
424.89	379.00
425.26	386.48
425.64	394.05
426.01	402.14
426.38	410.33
426.75	419.71
427.13	428.90
427.50	438.48
427.87	448.71
428.24	458.62
428.61	466.95
428.99	478.60
429.36	488.95
429.73	499.76
430.10	511.24
430.47	523.07
430.85	533.48
431.22	546.12
431.59	561.10
431.96	573.67
432.33	587.55
432.70	601.05
433.08	617.38
433.45	632.43
433.82	647.55
434.19	665.60
434.56	682.07
434.93	697.43
435.30	713.57
435.68	730.67
436.05	747.40
436.42	764.24
436.79	779.88
437.16	796.29
437.53	814.67
437.90	832.52
438.27	850.55
438.64	869.26
439.01	886.45
439.38	899.93
439.75	914.31
440.13	931.02
440.50	946.74
440.87	959.48
441.24	973.24
441.61	988.36
441.98	998.50
442.35	1010.12
442.72	1023.64
443.09	1036.71
443.46	1044.55
443.83	1050.29
444.20	1055.24
444.57	1061.29
444.94	1065.57
445.31	1068.79
445.68	1074.29
446.05	1075.64
446.42	1074.24
446.79	1073.07
447.16	1071.45
447.53	1071.36
447.90	1065.14
448.27	1058.62
448.64	1049.48
449.01	1043.79
449.37	1032.12
449.74	1021.48
450.11	1011.05
450.48	995.69
450.85	979.98
451.22	967.40
451.59	955.64
451.96	944.43
452.33	928.74
452.70	914.33
453.07	897.14
453.43	877.81
453.80	861.00
454.17	844.76
454.54	828.57
454.91	812.36
455.28	795.55
455.65	780.93
456.02	769.52
456.38	757.33
456.75	741.19
457.12	727.93
457.49	714.88
457.86	700.00
458.23	690.52
458.59	678.79
458.96	666.83
459.33	655.86
459.70	644.74
460.07	636.55
460.43	626.93
460.80	618.50
461.17	611.26
461.54	603.00
461.91	595.21
462.27	587.24
462.64	580.38
463.01	573.43
463.38	567.00
463.74	556.24
464.11	549.71
464.48	544.19
464.85	538.48
465.21	534.40
465.58	529.79
465.95	523.29
466.32	518.21
466.68	512.90
467.05	507.81
467.42	502.93
467.78	497.17
468.15	492.17
468.52	488.52
468.88	482.60
469.25	477.55
469.62	474.12
469.98	470.24
470.35	466.52
470.72	462.83
471.08	457.81
471.45	454.86
471.82	451.98
472.18	448.60
472.55	445.67
472.92	441.67
473.28	438.33
473.65	435.29
474.02	433.24
474.38	431.26
474.75	429.50
475.11	427.24
475.48	425.98
475.85	424.17
476.21	421.71
476.58	420.88
476.94	420.17
477.31	419.02
477.67	418.07
478.04	416.98
478.41	415.98
478.77	417.26
479.14	416.29
479.50	415.26
479.87	414.71
480.23	414.38
480.60	414.43
480.96	414.24
481.33	414.76
481.69	414.24
482.06	414.55
482.42	414.76
482.79	415.36
483.15	415.36
483.52	416.45
483.88	417.48
484.25	417.71
484.61	418.36
484.98	418.95
485.34	420.76
485.71	422.57
486.07	423.88
486.44	423.31
486.80	424.98
487.17	426.81
487.53	429.40
487.90	431.95
488.26	434.79
488.62	437.86
488.99	439.98
489.35	442.93
489.72	445.67
490.08	448.21
490.44	450.95
490.81	454.24
491.17	457.14
491.54	460.57
491.90	464.71
492.26	468.33
492.63	472.02
492.99	475.19
493.36	479.14
493.72	483.81
494.08	488.67
494.45	493.33
494.81	498.31
495.17	502.55
495.54	507.36
495.90	512.05
496.26	517.19
496.63	522.60
496.99	528.12
497.35	533.29
497.72	539.21
498.08	545.29
498.44	551.55
498.80	557.88
499.17	564.17
499.53	569.95
499.89	577.19
500.26	584.36
500.62	591.36
500.98	598.21
501.34	604.95
501.71	612.26
502.07	619.05
502.43	625.74
502.79	632.50
503.16	639.83
503.52	646.95
503.88	653.17
504.24	661.00
504.60	668.57
504.97	676.76
505.33	684.36
505.69	692.71
506.05	699.86
506.41	707.74
506.78	715.17
507.14	722.88
507.50	730.21
507.86	737.71
508.22	745.24
508.59	752.57
508.95	760.55
509.31	769.45
509.67	777.05
510.03	784.74
510.39	792.33
510.75	799.55
511.12	807.05
511.48	815.24
511.84	822.83
512.20	830.60
512.56	838.10
512.92	845.95
513.28	853.02
513.64	860.43
514.00	867.52
514.37	874.74
514.73	882.14
515.09	890.10
515.45	897.19
515.81	904.60
516.17	911.29
516.53	917.90
516.89	923.05
517.25	930.17
517.61	937.83
517.97	944.38
518.33	950.36
518.69	956.67
519.05	963.74
519.41	969.00
519.77	975.90
520.13	981.90
520.49	987.62
520.85	993.05
521.21	999.62
521.57	1005.64
521.93	1011.14
522.29	1017.10
522.65	1021.52
523.01	1026.57
523.37	1031.45
523.73	1036.64
524.09	1041.48
524.45	1046.88
524.81	1051.79
525.17	1055.76
525.53	1060.74
525.89	1066.24
526.25	1071.33
526.61	1075.17
526.97	1079.62
527.33	1083.26
527.68	1088.88
528.04	1093.24
528.40	1097.52
528.76	1101.69
529.12	1106.24
529.48	1111.10
529.84	1115.00
530.20	1119.57
530.56	1124.74
530.91	1129.02
531.27	1133.19
531.63	1137.95
531.99	1140.81
532.35	1144.12
532.71	1147.55
533.07	1151.64
533.42	1158.26
533.78	1162.33
534.14	1166.57
534.50	1170.67
534.86	1175.29
535.21	1177.67
535.57	1181.57
535.93	1185.90
536.29	1190.60
536.65	1193.67
537.00	1196.67
537.36	1200.07
537.72	1203.36
538.08	1206.48
538.44	1209.07
538.79	1212.98
539.15	1215.48
539.51	1220.36
539.87	1224.00
540.22	1228.43
540.58	1232.40
540.94	1233.60
541.29	1236.26
541.65	1239.29
542.01	1243.62
542.37	1245.81
542.72	1247.74
543.08	1250.88
543.44	1253.21
543.79	1254.50
544.15	1257.76
544.51	1261.36
544.87	1264.76
545.22	1267.21
545.58	1269.93
545.94	1272.79
546.29	1275.88
546.65	1278.69
547.01	1280.19
547.36	1282.98
547.72	1284.76
548.07	1287.10
548.43	1288.52
548.79	1290.64
549.14	1292.29
549.50	1295.14
549.86	1296.29
550.21	1299.62
550.57	1302.33
550.92	1304.24
551.28	1308.71
551.64	1311.24
551.99	1314.02
552.35	1316.81
552.70	1320.29
553.06	1322.67
553.41	1325.60
553.77	1329.62
554.13	1333.57
554.48	1338.31
554.84	1342.33
555.19	1345.76
555.55	1350.05
555.90	1354.29
556.26	1358.52
556.61	1363.26
556.97	1365.74
557.32	1370.83
557.68	1375.00
558.03	1378.55
558.39	1383.50
558.74	1386.76
559.10	1390.69
559.45	1394.90
559.81	1399.45
560.16	1403.31
560.52	1407.88
560.87	1412.62
561.23	1415.60
561.58	1421.26
561.94	1424.50
562.29	1429.38
562.64	1435.00
563.00	1438.98
563.35	1443.21
563.71	1448.21
564.06	1453.67
564.42	1459.05
564.77	1465.17
565.12	1471.19
565.48	1478.07
565.83	1483.83
566.19	1488.69
566.54	1494.36
566.89	1499.05
567.25	1504.90
567.60	1511.90
567.96	1519.88
568.31	1527.67
568.66	1534.14
569.02	1538.10
569.37	1544.43
569.72	1549.71
570.08	1554.60
570.43	1559.60
570.78	1566.29
571.14	1571.79
571.49	1576.88
571.84	1582.60
572.20	1586.64
572.55	1591.88
572.90	1594.90
573.26	1599.33
573.61	1604.76
573.96	1609.48
574.31	1614.43
574.67	1617.48
575.02	1620.71
575.37	1622.48
575.72	1624.45
576.08	1627.81
576.43	1631.76
576.78	1634.74
577.13	1638.10
577.49	1641.64
577.84	1645.26
578.19	1648.57
578.54	1652.29
578.90	1655.86
579.25	1658.81
579.60	1661.88
579.95	1664.07
580.30	1668.33
580.66	1671.64
581.01	1674.81
581.36	1677.52
581.71	1681.02
582.06	1685.88
582.42	1690.12
582.77	1693.79
583.12	1698.24
583.47	1702.24
583.82	1705.14
584.17	1708.62
584.53	1712.43
584.88	1716.12
585.23	1720.14
585.58	1722.12
585.93	1724.45
586.28	1726.81
586.63	1730.10
586.98	1733.14
587.34	1737.02
587.69	1738.76
588.04	1741.24
588.39	1743.00
588.74	1744.95
589.09	1746.50
589.44	1746.79
589.79	1748.81
590.14	1750.81
590.49	1751.48
590.84	1751.76
591.19	1753.69
591.54	1754.67
591.89	1755.93
592.25	1757.79
592.60	1758.52
592.95	1759.98
593.30	1761.95
593.65	1762.90
594.00	1763.21
594.35	1770.57
594.70	1770.57
595.05	1771.90
595.40	1772.74
595.75	1773.55
596.10	1774.67
596.45	1776.26
596.80	1777.24
597.15	1776.98
597.50	1777.07
597.85	1778.95
598.19	1779.36
598.54	1780.36
598.89	1781.45
599.24	1781.50
599.59	1781.50
599.94	1781.81
600.29	1783.10
600.64	1782.76
600.99	1782.93
601.34	1784.52
601.69	1778.33
602.04	1777.60
602.39	1776.55
602.74	1776.64
603.08	1777.21
603.43	1778.00
603.78	1777.48
604.13	1777.76
604.48	1777.12
604.83	1777.14
605.18	1776.69
605.53	1776.62
605.87	1774.95
606.22	1774.26
606.57	1773.24
606.92	1771.40
607.27	1770.83
607.62	1769.76
607.96	1768.93
608.31	1768.40
608.66	1765.98
609.01	1764.12
609.36	1763.57
609.70	1762.64
610.05	1760.86
610.40	1758.95
610.75	1757.48
611.10	1755.79
611.44	1752.62
611.79	1750.60
612.14	1748.00
612.49	1743.60
612.83	1741.14
613.18	1738.33
613.53	1735.48
613.88	1733.19
614.22	1730.67
614.57	1726.19
614.92	1721.88
615.27	1718.00
615.61	1713.26
615.96	1709.98
616.31	1707.07
616.65	1704.76
617.00	1702.45
617.35	1699.43
617.70	1695.43
618.04	1690.57
618.39	1686.17
618.74	1683.31
619.08	1679.45
619.43	1675.98
619.78	1673.12
620.12	1669.57
620.47	1666.10
620.82	1661.83
621.16	1656.83
621.51	1653.62
621.85	1650.43
622.20	1646.40
622.55	1642.14
622.89	1639.67
623.24	1635.90
623.59	1631.93
623.93	1626.76
624.28	1622.86
624.62	1619.48
624.97	1616.45
625.32	1612.38
625.66	1608.45
626.01	1603.93
626.35	1599.67
626.70	1595.57
627.04	1591.98
627.39	1588.36
627.73	1585.52
628.08	1582.00
628.43	1578.21
628.77	1573.60
629.12	1569.38
629.46	1565.98
629.81	1562.24
630.15	1556.79
630.50	1552.48
630.84	1548.17
631.19	1542.64
631.53	1537.12
631.88	1530.74
632.22	1524.24
632.57	1520.52
632.91	1515.48
633.26	1511.48
633.60	1506.26
633.95	1500.57
634.29	1495.12
634.64	1490.14
634.98	1484.57
635.32	1480.40
635.67	1476.88
636.01	1472.69
636.36	1467.55
636.70	1463.00
637.05	1458.76
637.39	1455.10
637.73	1450.62
638.08	1446.33
638.42	1442.17
638.77	1437.69
639.11	1433.74
639.45	1429.52
639.80	1424.57
640.14	1419.76
640.49	1414.29
640.83	1409.88
641.17	1405.79
641.52	1401.21
641.86	1395.67
642.20	1391.29
642.55	1385.40
642.89	1379.21
643.23	1373.57
643.58	1368.62
643.92	1362.71
644.26	1356.36
644.61	1350.55
644.95	1344.50
645.29	1338.10
645.64	1333.76
645.98	1327.95
646.32	1322.07
646.66	1316.07
647.01	1309.24
647.35	1303.74
647.69	1297.90
648.04	1292.52
648.38	1286.69
648.72	1280.24
649.06	1274.17
649.41	1267.48
649.75	1261.60
650.09	1255.19
650.43	1248.33
650.78	1241.81
651.12	1235.36
651.46	1229.45
651.80	1223.45
652.14	1217.26
652.49	1211.24
652.83	1204.71
653.17	1197.38
653.51	1191.05
653.85	1184.95
654.20	1178.38
654.54	1171.50
654.88	1164.00
655.22	1157.48
655.56	1149.93
655.90	1143.36
656.25	1137.05
656.59	1130.48
656.93	1123.31
657.27	1117.98
657.61	1111.71
657.95	1106.10
658.29	1099.83
658.64	1094.12
658.98	1087.14
659.32	1079.88
659.66	1073.52
660.00	1066.86
660.34	1061.07
660.68	1054.45
661.02	1047.88
661.36	1041.79
661.70	1036.12
662.05	1030.98
662.39	1025.07
662.73	1020.21
663.07	1015.74
663.41	1009.74
663.75	1003.67
664.09	998.52
664.43	991.67
664.77	985.57
665.11	979.05
665.45	973.02
665.79	966.26
666.13	960.60
666.47	955.19
666.81	949.07
667.15	942.64
667.49	937.71
667.83	932.43
668.17	926.76
668.51	921.74
668.85	916.12
669.19	911.26
669.53	905.21
669.87	899.17
670.21	892.36
670.55	886.24
670.89	881.71
671.23	875.95
671.57	870.38
671.91	865.05
672.25	859.62
672.58	855.17
672.92	850.17
673.26	844.40
673.60	838.71
673.94	833.55
674.28	828.71
674.62	823.52
674.96	818.33
675.30	813.52
675.64	808.14
675.97	802.95
676.31	797.26
676.65	791.60
676.99	787.31
677.33	782.19
677.67	778.31
678.01	772.24
678.34	767.50
678.68	763.00
679.02	757.71
679.36	752.86
679.70	747.21
680.04	741.81
680.37	736.98
680.71	731.95
681.05	727.60
681.39	722.69
681.73	717.10
682.06	711.98
682.40	707.62
682.74	703.07
683.08	699.00
683.42	694.29
683.75	690.33
684.09	685.00
684.43	680.38
684.77	674.57
685.10	670.19
685.44	665.38
685.78	660.50
686.12	656.81
686.45	652.26
686.79	647.29
687.13	643.71
687.46	639.19
687.80	635.74
688.14	630.86
688.48	626.76
688.81	622.79
689.15	618.90
689.49	613.86
689.82	609.60
690.16	604.24
690.50	600.00
690.83	595.60
691.17	590.74
691.51	586.45
691.84	583.00
692.18	578.50
692.52	574.40
692.85	571.02
693.19	567.52
693.52	563.57
693.86	559.79
694.20	555.57
694.53	552.21
694.87	548.12
695.21	544.33
695.54	540.48
695.88	536.38
696.21	532.12
696.55	528.36
696.88	524.62
697.22	521.24
697.56	517.90
697.89	514.17
698.23	511.05
698.56	507.76
698.90	504.40
699.23	500.98
699.57	497.40
699.90	493.74
700.24	489.76
700.58	486.74
700.91	484.10
701.25	482.45
701.58	479.90
701.92	476.98
702.25	473.90
702.59	470.43
702.92	467.33
703.26	464.29
703.59	461.48
703.93	460.33
704.26	457.86
704.60	454.90
704.93	451.90
705.26	449.12
705.60	446.57
705.93	443.07
706.27	440.81
706.60	438.62
706.94	436.74
707.27	433.24
707.61	430.36
707.94	427.43
708.27	423.07
708.61	419.29
708.94	416.62
709.28	414.07
709.61	411.40
709.94	409.21
710.28	406.90
710.61	404.36
710.95	399.79
711.28	398.86
711.61	396.31
711.95	394.45
712.28	392.07
712.61	389.71
712.95	388.90
713.28	387.57
713.61	384.98
713.95	381.79
714.28	380.29
714.61	378.19
714.95	376.07
715.28	374.14
715.61	372.02
715.95	369.95
716.28	367.83
716.61	366.38
716.95	364.29
717.28	362.43
717.61	360.64
717.94	358.95
718.28	355.26
718.61	353.38
718.94	351.10
719.27	349.43
719.61	347.60
719.94	344.98
720.27	342.26
720.60	340.43
720.94	338.90
721.27	337.38
721.60	336.21
721.93	334.52
722.27	333.43
722.60	332.67
722.93	330.86
723.26	329.48
723.59	327.48
723.93	326.02
724.26	324.83
724.59	323.29
724.92	321.83
725.25	321.29
725.59	319.76
725.92	319.17
726.25	317.83
726.58	316.71
726.91	315.62
727.24	314.71
727.57	313.69
727.91	312.14
728.24	311.48
728.57	310.10
728.90	309.52
729.23	307.90
729.56	307.40
729.89	306.55
730.22	305.62
730.55	304.62
730.89	303.69
731.22	302.48
731.55	301.48
731.88	300.90
732.21	299.24
732.54	298.17
732.87	296.86
733.20	295.88
733.53	294.93
733.86	294.10
734.19	292.36
734.52	291.57
734.85	292.29
735.18	290.88
735.51	290.74
735.84	289.79
736.17	289.43
736.50	287.62
736.83	289.57
737.16	288.38
737.49	287.79
737.82	286.74
738.15	286.33
738.48	285.62
738.81	284.52
739.14	283.48
739.47	282.90
739.80	281.95
740.13	281.14
740.46	280.00
740.79	278.86
741.12	278.38
741.45	277.48
741.78	275.45
742.11	275.14
742.44	273.71
742.77	273.19
743.10	272.36
743.43	271.50
743.75	268.05
744.08	270.43
744.41	269.62
744.74	269.26
745.07	268.17
745.40	267.79
745.73	268.10
746.06	267.74
746.39	267.26
746.71	266.74
747.04	265.88
747.37	265.12
747.70	264.88
748.03	264.38
748.36	264.24
748.68	263.76
749.01	262.67
749.34	262.12
749.67	261.57
750.00	261.19
750.33	262.12
750.65	261.93
750.98	258.81
751.31	258.19
751.64	257.48
751.97	258.07
752.29	257.24
752.62	255.67
752.95	255.10
753.28	254.60
753.60	254.21
753.93	254.60
754.26	254.45
754.59	253.40
754.91	253.05
755.24	252.33
755.57	251.79
755.90	251.10
756.22	250.29
756.55	249.40
756.88	248.55
757.20	246.90
757.53	245.83
757.86	245.38
758.19	245.31
758.51	245.19
758.84	243.67
759.17	243.38
759.49	243.12
759.82	243.67
760.15	243.43
760.47	242.74
760.80	241.57
761.13	241.57
761.45	241.38
761.78	240.62
762.11	240.17
762.43	239.74
762.76	239.24
763.08	239.45
763.41	239.45
763.74	239.43
764.06	238.95
764.39	238.76
764.71	238.38
765.04	237.79
765.37	237.07
765.69	236.88
766.02	236.45
766.34	235.90
766.67	235.12
767.00	235.31
767.32	236.21
767.65	237.36
767.97	236.81
768.30	236.69
768.62	236.76
768.95	236.36
769.27	236.05
769.60	236.50
769.92	235.67
770.25	234.90
770.57	234.29
770.90	234.14
771.22	233.76
771.55	233.48
771.87	233.38
772.20	233.07
772.52	234.69
772.85	237.24
773.17	237.26
773.50	236.79
773.82	236.19
774.15	235.02
774.47	233.36
774.80	232.83
775.12	232.67
775.45	232.29
775.77	232.26
776.09	232.02
776.42	231.83
776.74	232.48
777.07	232.19
777.39	232.00
777.72	231.69
778.04	231.71
778.36	231.40
778.69	231.12
779.01	231.17
779.33	229.24
779.66	226.79
779.98	226.40
780.31	226.24
780.63	226.67
780.95	226.76
781.28	226.79
781.60	226.69
781.92	226.33
782.25	226.36
782.57	226.12
782.89	225.95
783.22	225.45
783.54	224.76
783.86	224.86
784.19	224.40
784.51	224.90
784.83	224.50
785.16	224.40
785.48	224.24
785.80	224.07
786.12	223.93
786.45	223.76
786.77	223.60
787.09	223.69
787.42	223.02
787.74	223.12
788.06	222.98
788.38	222.86
788.71	222.67
789.03	222.45
789.35	222.62
789.67	222.40
789.99	222.40
790.32	222.07
790.64	222.24
790.96	224.17
791.28	223.21
791.61	223.05
791.93	222.86
792.25	222.81
792.57	224.07
792.89	223.62
793.21	223.50
793.54	223.57
793.86	223.12
794.18	223.02
794.50	222.38
794.82	222.52
795.14	222.76
795.47	222.95
795.79	223.17
796.11	222.45
796.43	222.36
796.75	222.36
797.07	222.62
797.39	222.43
797.71	220.90
798.04	221.14
798.36	221.36
798.68	221.38
799.00	221.50
799.32	220.48
799.64	221.12
799.96	221.14
800.28	221.29
800.60	221.07
800.92	221.10
801.24	221.12
801.56	221.14
801.89	220.74
802.21	220.95
802.53	220.67
802.85	221.43
803.17	222.26
803.49	221.90
803.81	221.69
804.13	221.57
804.45	221.19
804.77	221.21
805.09	220.98
805.41	220.74
805.73	220.43
806.05	220.12
806.37	219.67
806.69	219.26
807.01	219.17
807.33	219.31
807.65	218.57
807.97	219.36
808.28	219.07
808.60	219.02
808.92	218.64
809.24	219.76
809.56	219.24
809.88	218.38
810.20	218.21
810.52	218.40
810.84	217.95
811.16	217.67
811.48	217.52
811.80	218.40
812.12	218.48
812.43	218.81
812.75	218.86
813.07	218.60
813.39	218.76
813.71	218.55
814.03	218.36
814.35	218.48
814.67	217.50
814.98	217.43
815.30	217.38
815.62	216.79
815.94	215.24
816.26	215.36
816.58	215.07
816.89	215.26
817.21	214.86
817.53	215.10
817.85	214.95
818.17	214.76
818.48	213.95
818.80	214.26
819.12	213.98
819.44	213.38
819.76	213.19
820.07	213.12
820.39	212.95
820.71	212.98
821.03	212.79
821.34	212.60
821.66	213.00
821.98	213.38
822.30	213.55
822.61	214.76
822.93	214.33
823.25	214.48
823.57	214.52
823.88	215.00
824.20	214.90
824.52	215.55
824.83	215.60
825.15	215.36
825.47	215.24
825.79	215.21
826.10	215.36
826.42	215.36
826.74	215.52
827.05	215.17
827.37	215.17
827.69	215.31
828.00	215.64
828.32	215.12
828.64	214.69
828.95	215.88
829.27	215.05
829.58	215.40
829.90	215.64
830.22	215.71
830.53	215.14
830.85	215.00
831.17	214.45
831.48	214.36
831.80	214.40
832.11	214.14
832.43	213.88
832.75	213.74
833.06	215.10
833.38	214.36
833.69	214.55
834.01	214.76
834.32	214.52
834.64	214.21
834.96	214.45
835.27	214.48
835.59	213.64
835.90	213.64
836.22	213.43
836.53	213.02
836.85	212.67
837.16	214.79
837.48	214.74
837.79	215.55
838.11	215.62
838.42	215.67
838.74	215.83
839.05	215.60
839.37	215.55
839.68	214.12
840.00	214.21
840.31	214.67
840.63	214.69
840.94	214.69
841.26	214.43
841.57	214.26
841.88	214.60
842.20	214.40
842.51	213.98
842.83	214.05
843.14	215.76
843.46	215.81
843.77	214.57
844.08	214.43
844.40	213.60
844.71	213.57
845.03	213.26
845.34	213.36
845.65	213.57
845.97	213.62
846.28	213.62
846.60	213.67
846.91	213.43
847.22	213.02
847.54	213.69
847.85	213.90
848.16	213.64
848.48	213.02
848.79	213.67
849.10	214.21
849.42	214.43
849.73	212.71
850.04	212.60
850.36	211.83
850.67	212.40
850.98	212.43
851.30	212.60
851.61	212.79
851.92	212.74
852.23	213.31
852.55	213.62
852.86	213.81
853.17	214.02
853.49	214.36
853.80	214.79
854.11	214.74
854.42	215.10
854.74	215.10
855.05	215.31
855.36	214.31
855.67	214.24
855.99	214.24
856.30	216.67
856.61	216.62
856.92	216.60
857.23	216.33
857.55	216.33
857.86	216.38
858.17	216.43
858.48	215.86
858.79	215.31
859.11	215.33
859.42	215.21
859.73	215.05
860.04	214.88
860.35	214.52
860.66	214.05
860.98	213.90
861.29	214.19
861.60	214.02
861.91	214.81
862.22	214.52
862.53	213.95
862.84	211.45
863.16	212.19
863.47	212.19
863.78	212.17
864.09	212.17
864.40	212.33
864.71	212.60
865.02	212.98
865.33	212.79
865.64	212.17
865.95	212.07
866.27	213.48
866.58	213.26
866.89	213.19
867.20	213.12
867.51	212.93
867.82	212.71
868.13	213.24
868.44	212.62
868.75	213.19
869.06	213.50
869.37	213.74
869.68	212.98
869.99	213.33
870.30	213.45
870.61	213.71
870.92	213.21
871.23	213.10
871.54	213.40
871.85	213.93
872.16	214.45
872.47	214.29
872.78	212.76
873.09	213.12
873.40	213.17
873.71	213.24
874.02	213.38
874.33	213.36
874.64	212.98
874.95	213.36
875.26	212.60
875.56	212.38
875.87	212.33
876.18	212.31
876.49	214.33
876.80	214.26
877.11	213.93
877.42	213.90
877.73	213.71
878.04	213.43
878.35	213.67
878.66	213.93
878.96	214.21
879.27	214.31
879.58	213.98
879.89	213.88
880.20	214.50
880.51	214.36
880.82	214.31
881.12	214.21
881.43	213.79
881.74	213.64
882.05	213.62
882.36	213.64
882.67	213.81
882.97	211.21
883.28	211.19
883.59	211.24
883.90	211.45
884.21	211.67
884.51	211.50
884.82	210.88
885.13	210.57
885.44	210.48
885.74	210.45
886.05	210.48
886.36	210.52
886.67	209.69
886.98	210.86
887.28	210.95
887.59	211.36
887.90	211.40
888.20	211.40
888.51	212.10
888.82	211.76
889.13	211.76
889.43	213.43
889.74	213.05
890.05	212.86
890.35	212.52
890.66	212.40
890.97	212.29
891.28	212.26
891.58	212.43
891.89	212.43
892.20	212.36
892.50	212.21
892.81	212.07
893.12	212.10
893.42	211.00
893.73	211.29
894.04	211.00
894.34	211.31
894.65	211.24
894.95	210.81
895.26	210.86
895.57	211.95
895.87	210.29
896.18	210.86
896.48	211.14
896.79	211.38
897.10	211.57
897.40	211.64
897.71	211.86
898.01	211.52
898.32	211.60
898.63	211.48
898.93	211.52
899.24	211.60
899.54	211.67
899.85	211.60
900.15	211.38
900.46	211.36
900.76	211.45
901.07	211.64
901.38	211.62
901.68	211.90
901.99	210.71
902.29	210.69
902.60	210.57
902.90	210.21
903.21	210.29
903.51	210.26
903.82	210.71
904.12	210.67
904.43	211.10
904.73	210.98
905.03	211.21
905.34	213.14
905.64	213.07
905.95	213.10
906.25	213.02
906.56	213.05
906.86	213.10
907.17	212.95
907.47	212.90
907.77	212.50
908.08	212.21
908.38	212.48
908.69	212.79
908.99	212.93
909.30	213.10
909.60	212.98
909.90	212.93
910.21	212.38
910.51	212.00
910.81	211.86
911.12	212.02
911.42	211.98
911.73	210.05
912.03	210.31
912.33	210.48
912.64	210.62
912.94	210.19
913.24	209.98
913.55	209.64
913.85	209.48
914.15	210.07
914.46	210.48
914.76	210.38
915.06	210.21
915.37	209.81
915.67	209.88
915.97	209.79
916.27	209.29
916.58	209.43
916.88	209.45
917.18	209.29
917.49	210.86
917.79	210.81
918.09	211.02
918.39	211.31
918.70	211.38
919.00	211.17
919.30	212.36
919.60	212.21
919.91	212.05
920.21	212.31
920.51	212.00
920.81	211.71
921.12	212.10
921.42	212.19
921.72	212.43
922.02	212.33
922.32	212.67
922.63	212.95
922.93	213.93
923.23	214.14
923.53	213.90
923.83	212.45
924.13	212.60
924.44	212.52
924.74	212.90
925.04	213.60
925.34	213.81
925.64	212.83
925.94	212.93
926.24	214.12
926.55	213.86
926.85	214.12
927.15	214.12
927.45	213.83
927.75	213.93
928.05	214.19
928.35	214.05
928.65	214.55
928.95	214.62
929.26	213.81
929.56	214.21
929.86	214.38
930.16	214.00
930.46	213.88
930.76	213.86
931.06	212.95
931.36	212.26
931.66	212.62
931.96	213.07
932.26	213.26
932.56	212.43
932.86	212.81
933.16	212.81
933.46	212.81
933.76	212.55
934.06	213.02
934.36	213.67
934.66	213.71
934.96	213.43
935.26	213.57
935.56	214.00
935.86	213.36
936.16	213.17
936.46	213.19
936.76	213.12
937.06	213.07
937.36	213.14
937.66	213.14
937.96	212.90
938.26	212.50
938.56	212.48
938.86	212.52
939.16	213.02
939.46	213.05
939.76	213.14
940.06	213.31
940.35	212.74
940.65	211.60
940.95	211.83
941.25	211.33
941.55	210.98
941.85	210.71
942.15	211.26
942.45	211.90
942.75	211.90
943.04	212.14
943.34	212.45
943.64	212.40
943.94	212.14
944.24	211.93
944.54	211.98
944.84	211.71
945.13	211.48
945.43	210.90
945.73	210.83
946.03	210.69
946.33	210.45
946.62	210.43
946.92	210.24
947.22	210.26
947.52	210.38
947.82	210.64
948.11	210.43
948.41	209.98
948.71	209.40
949.01	209.55
949.31	209.21
949.60	208.98
949.90	209.31
950.20	209.12
950.50	209.45
950.79	209.38
951.09	209.93
951.39	210.00
951.69	209.90
951.98	210.33
952.28	210.31
952.58	210.26
952.87	210.02
953.17	210.31
953.47	210.21
953.76	210.02
954.06	209.98
954.36	209.71
954.66	209.74
954.95	210.48
955.25	210.60
955.55	210.98
955.84	210.81
956.14	210.98
956.44	211.26
956.73	210.90
957.03	210.83
957.32	210.62
957.62	210.62
957.92	211.07
958.21	210.90
958.51	213.45
958.81	213.76
959.10	214.17
959.40	214.83
959.69	214.90
959.99	215.33
960.29	215.43
960.58	215.36
960.88	216.38
961.17	215.81
961.47	215.98
961.76	215.71
962.06	216.14
962.36	215.64
962.65	215.83
962.95	215.86
963.24	215.81
963.54	215.83
963.83	215.98
964.13	215.74
964.42	215.05
964.72	213.12
965.01	213.14
965.31	212.93
965.60	212.02
965.90	213.31
966.19	212.86
966.49	212.74
966.78	212.71
967.08	212.26
967.37	212.29
967.67	211.76
967.96	211.93
968.26	211.76
968.55	212.38
968.85	212.05
969.14	212.14
969.43	212.12
969.73	211.98
970.02	211.71
970.32	211.64
970.61	211.64
970.91	211.07
971.20	210.62
971.49	210.52
971.79	211.12
972.08	209.67
972.38	209.83
972.67	209.86
972.96	210.12
973.26	209.62
973.55	210.26
973.85	210.52
974.14	210.48
974.43	210.67
974.73	210.19
975.02	210.12
975.31	209.95
975.61	210.00
975.90	209.83
976.19	209.93
976.49	210.05
976.78	210.33
977.07	210.31
977.37	210.81
977.66	211.12
977.95	210.90
978.24	210.95
978.54	211.36
978.83	211.24
979.12	211.19
979.42	211.33
979.71	210.98
980.00	210.76
980.29	210.86
980.59	210.26
980.88	210.83
981.17	210.90
981.46	211.00
981.76	210.90
982.05	211.69
982.34	211.67
982.63	211.76
982.93	211.83
983.22	212.50
983.51	212.38
983.80	212.40
984.09	212.55
984.39	212.43
984.68	212.29
984.97	212.21
985.26	212.14
985.55	212.29
985.85	211.90
986.14	212.33
986.43	212.43
986.72	212.67
987.01	212.07
987.30	211.90
987.59	211.98
987.89	212.00
988.18	211.45
988.47	211.33
988.76	211.21
989.05	210.95
989.34	210.48
989.63	210.90
989.92	210.31
990.22	210.05
990.51	209.98
990.80	209.57
991.09	209.86
991.38	210.21
991.67	209.90
991.96	209.88
992.25	209.74
992.54	209.52
992.83	209.50
993.12	209.26
993.41	209.64
993.70	210.29
993.99	210.83
994.28	210.98
994.58	211.36
994.87	211.05
995.16	211.07
995.45	211.12
995.74	210.50
996.03	211.26
996.32	211.62
996.61	212.36
996.90	212.26
997.19	211.98
997.48	211.98
997.77	211.93
998.06	211.76
998.34	211.62
998.63	211.48
998.92	211.26
999.21	211.67
999.50	211.81
999.79	211.05
1000.08	211.00
1000.37	210.98
1000.66	210.86
1000.95	211.33
1001.24	211.57
1001.53	211.74
1001.82	211.79
1002.11	211.33
1002.40	211.40
1002.68	211.48
1002.97	213.24
1003.26	213.07
1003.55	212.60
1003.84	212.83
1004.13	213.83
1004.42	213.67
1004.71	213.69
1004.99	213.93
1005.28	214.38
1005.57	214.19
1005.86	214.10
1006.15	213.79
1006.44	213.55
1006.72	213.60
1007.01	213.19
1007.30	212.93
1007.59	212.81
1007.88	212.74
1008.17	212.83
1008.45	212.38
1008.74	211.62
1009.03	210.57
1009.32	210.71
1009.60	210.69
1009.89	210.48
1010.18	209.45
1010.47	209.55
1010.76	209.48
1011.04	209.10
1011.33	209.07
1011.62	209.19
1011.91	209.05
1012.19	209.05
1012.48	209.14
1012.77	208.90
1013.05	210.07
1013.34	210.21
1013.63	210.02
1013.92	210.10
1014.20	209.95
1014.49	210.12
1014.78	210.24
1015.06	209.60
1015.35	209.57
1015.64	210.10
1015.92	210.40
1016.21	210.83
1016.50	210.81
1016.78	211.21
1017.07	211.57
1017.36	211.12
1017.64	210.69
1017.93	211.12
1018.22	211.07
1018.50	210.86
1018.79	210.95
1019.08	209.67
1019.36	209.95
1019.65	210.02
1019.93	210.69
1020.22	210.98
1020.51	212.19
1020.79	212.02
1021.08	208.00
1021.36	205.50
1021.65	209.50
1021.94	205.50
1022.22	216.00
1022.51	211.00
1022.79	222.50
1023.08	213.50
1023.36	239.00
1023.65	204.00
>>>>>End Processed Spectral Data<<<<<
