SpectraSuite Data File
++++++++++++++++++++++++++++++++++++
Date: Tue Apr 02 18:42:40 EDT 2013
User: group
Dark Spectrum Present: No
Reference Spectrum Present: No
Number of Sampled Component Spectra: 1
Spectrometers: USB2E7196
Integration Time (usec): 580000 (USB2E7196)
Spectra Averaged: 2 (USB2E7196)
Boxcar Smoothing: 10 (USB2E7196)
Correct for Electrical Dark: No (USB2E7196)
Strobe/Lamp Enabled: No (USB2E7196)
Correct for Detector Non-linearity: No (USB2E7196)
Correct for Stray Light: No (USB2E7196)
Number of Pixels in Processed Spectrum: 2048
>>>>>Begin Processed Spectral Data<<<<<
339.09	0.00
339.48	194.50
339.86	198.50
340.24	199.00
340.63	196.50
341.01	235.00
341.39	202.50
341.78	206.50
342.16	211.00
342.54	205.50
342.93	198.52
343.31	208.24
343.69	208.74
344.07	209.26
344.46	209.88
344.84	210.40
345.22	208.98
345.60	209.43
345.99	209.69
346.37	209.71
346.75	209.86
347.13	210.14
347.52	210.40
347.90	210.95
348.28	211.12
348.66	211.69
349.05	211.29
349.43	211.60
349.81	211.86
350.19	211.95
350.57	211.90
350.96	212.19
351.34	212.60
351.72	212.90
352.10	212.98
352.48	212.93
352.87	213.05
353.25	213.40
353.63	213.26
354.01	213.12
354.39	213.36
354.77	213.45
355.15	214.14
355.54	214.02
355.92	213.48
356.30	213.64
356.68	214.93
357.06	214.93
357.44	214.62
357.82	214.48
358.20	215.57
358.58	215.57
358.97	215.90
359.35	216.31
359.73	216.86
360.11	216.76
360.49	216.98
360.87	217.07
361.25	217.21
361.63	218.00
362.01	218.17
362.39	217.93
362.77	218.21
363.15	217.86
363.53	217.76
363.91	218.00
364.29	218.00
364.67	216.14
365.05	216.31
365.43	216.60
365.81	217.00
366.19	217.00
366.57	217.71
366.95	217.36
367.33	216.90
367.71	216.76
368.09	217.26
368.47	217.10
368.85	217.00
369.23	217.55
369.61	216.98
369.99	217.79
370.37	218.21
370.75	218.86
371.13	218.57
371.51	218.55
371.89	218.64
372.27	218.98
372.65	219.14
373.03	219.10
373.41	218.81
373.78	218.52
374.16	217.38
374.54	216.86
374.92	216.64
375.30	216.64
375.68	216.21
376.06	216.38
376.44	216.26
376.82	216.36
377.19	215.95
377.57	215.69
377.95	215.00
378.33	214.64
378.71	213.60
379.09	213.76
379.47	214.14
379.84	213.86
380.22	213.40
380.60	212.90
380.98	213.02
381.36	213.19
381.73	213.02
382.11	213.38
382.49	213.43
382.87	213.19
383.25	213.36
383.62	215.69
384.00	215.17
384.38	215.36
384.76	215.90
385.13	216.81
385.51	216.98
385.89	216.74
386.27	216.93
386.64	217.36
387.02	217.26
387.40	216.79
387.78	216.81
388.15	217.10
388.53	217.07
388.91	217.19
389.29	216.93
389.66	216.98
390.04	216.64
390.42	216.79
390.79	217.14
391.17	216.93
391.55	214.50
391.92	214.24
392.30	214.43
392.68	213.79
393.05	213.45
393.43	213.38
393.81	213.38
394.18	213.10
394.56	212.90
394.94	213.29
395.31	213.19
395.69	213.90
396.06	214.05
396.44	214.24
396.82	213.64
397.19	214.76
397.57	214.90
397.95	215.17
398.32	214.93
398.70	215.36
399.07	215.76
399.45	215.83
399.82	215.95
400.20	215.74
400.58	215.79
400.95	215.05
401.33	215.69
401.70	217.31
402.08	217.36
402.45	217.57
402.83	218.07
403.20	218.17
403.58	217.79
403.95	218.26
404.33	218.83
404.71	219.36
405.08	220.52
405.46	220.74
405.83	221.12
406.21	221.40
406.58	221.52
406.96	221.83
407.33	222.64
407.70	223.45
408.08	225.52
408.45	226.43
408.83	227.38
409.20	227.45
409.58	226.86
409.95	227.83
410.33	228.81
410.70	229.07
411.08	230.69
411.45	231.90
411.82	232.45
412.20	233.86
412.57	236.24
412.95	235.88
413.32	237.64
413.69	239.10
414.07	240.74
414.44	242.45
414.82	244.33
415.19	246.55
415.56	248.43
415.94	249.57
416.31	252.36
416.68	255.12
417.06	258.48
417.43	262.12
417.81	265.81
418.18	269.29
418.55	273.12
418.93	276.83
419.30	281.21
419.67	285.86
420.04	290.14
420.42	294.21
420.79	301.05
421.16	306.50
421.54	312.95
421.91	319.17
422.28	325.45
422.66	332.07
423.03	339.86
423.40	347.26
423.77	354.55
424.15	361.60
424.52	369.31
424.89	377.98
425.26	385.62
425.64	392.98
426.01	401.19
426.38	410.12
426.75	419.79
427.13	428.76
427.50	438.83
427.87	449.07
428.24	459.31
428.61	468.10
428.99	479.48
429.36	490.60
429.73	502.19
430.10	513.79
430.47	525.76
430.85	536.60
431.22	549.12
431.59	564.36
431.96	577.05
432.33	591.02
432.70	605.02
433.08	621.38
433.45	636.88
433.82	652.45
434.19	669.05
434.56	685.74
434.93	701.57
435.30	717.55
435.68	735.33
436.05	752.62
436.42	769.17
436.79	785.62
437.16	803.29
437.53	821.19
437.90	838.88
438.27	857.14
438.64	875.69
439.01	892.62
439.38	905.81
439.75	921.45
440.13	938.48
440.50	954.21
440.87	966.90
441.24	980.52
441.61	994.93
441.98	1005.93
442.35	1017.93
442.72	1031.12
443.09	1044.17
443.46	1051.88
443.83	1056.98
444.20	1062.02
444.57	1067.83
444.94	1070.64
445.31	1074.24
445.68	1080.45
446.05	1081.26
446.42	1079.93
446.79	1078.86
447.16	1077.38
447.53	1076.55
447.90	1070.38
448.27	1064.24
448.64	1055.74
449.01	1049.26
449.37	1038.62
449.74	1027.93
450.11	1016.45
450.48	1001.24
450.85	985.26
451.22	972.50
451.59	960.74
451.96	949.67
452.33	933.67
452.70	919.45
453.07	901.90
453.43	882.21
453.80	865.90
454.17	849.57
454.54	833.93
454.91	817.60
455.28	800.88
455.65	785.74
456.02	774.29
456.38	761.60
456.75	746.43
457.12	733.17
457.49	720.21
457.86	706.57
458.23	696.93
458.59	685.43
458.96	673.29
459.33	662.79
459.70	651.88
460.07	643.90
460.43	634.12
460.80	625.62
461.17	618.12
461.54	610.31
461.91	602.57
462.27	594.57
462.64	587.60
463.01	579.90
463.38	573.50
463.74	561.93
464.11	555.10
464.48	549.26
464.85	542.48
465.21	538.36
465.58	532.90
465.95	526.26
466.32	521.36
466.68	516.17
467.05	511.10
467.42	505.86
467.78	500.33
468.15	495.36
468.52	491.69
468.88	485.90
469.25	480.29
469.62	476.71
469.98	472.98
470.35	469.24
470.72	465.83
471.08	461.02
471.45	458.48
471.82	455.67
472.18	451.90
472.55	449.50
472.92	445.40
473.28	442.57
473.65	440.12
474.02	437.19
474.38	435.07
474.75	432.71
475.11	430.50
475.48	428.26
475.85	426.48
476.21	424.24
476.58	423.02
476.94	421.98
477.31	420.26
477.67	418.74
478.04	417.67
478.41	417.10
478.77	418.83
479.14	417.40
479.50	416.81
479.87	416.67
480.23	416.55
480.60	416.14
480.96	416.14
481.33	416.45
481.69	416.36
482.06	416.62
482.42	416.79
482.79	417.07
483.15	417.74
483.52	418.83
483.88	419.45
484.25	420.21
484.61	421.14
484.98	422.17
485.34	424.12
485.71	426.00
486.07	427.24
486.44	426.60
486.80	428.55
487.17	430.00
487.53	432.26
487.90	434.24
488.26	437.50
488.62	439.86
488.99	441.95
489.35	444.79
489.72	447.14
490.08	449.95
490.44	453.00
490.81	456.29
491.17	459.33
491.54	462.90
491.90	466.62
492.26	470.29
492.63	474.33
492.99	477.60
493.36	481.05
493.72	485.74
494.08	490.31
494.45	494.93
494.81	499.98
495.17	504.21
495.54	509.36
495.90	513.57
496.26	518.81
496.63	524.38
496.99	529.52
497.35	535.36
497.72	541.43
498.08	547.33
498.44	553.74
498.80	560.19
499.17	566.40
499.53	572.19
499.89	579.10
500.26	585.52
500.62	591.83
500.98	599.38
501.34	605.48
501.71	612.38
502.07	619.40
502.43	626.52
502.79	633.93
503.16	641.24
503.52	648.83
503.88	655.57
504.24	663.02
504.60	671.00
504.97	678.52
505.33	685.57
505.69	693.98
506.05	701.40
506.41	709.26
506.78	716.76
507.14	724.45
507.50	732.17
507.86	740.24
508.22	748.57
508.59	755.74
508.95	763.93
509.31	772.67
509.67	780.50
510.03	787.79
510.39	796.19
510.75	803.69
511.12	811.10
511.48	819.05
511.84	826.10
512.20	833.12
512.56	841.02
512.92	848.93
513.28	856.74
513.64	863.79
514.00	871.10
514.37	878.90
514.73	885.67
515.09	893.45
515.45	899.95
515.81	907.12
516.17	914.17
516.53	920.93
516.89	926.38
517.25	933.29
517.61	940.88
517.97	946.36
518.33	952.43
518.69	959.12
519.05	965.71
519.41	972.43
519.77	980.26
520.13	986.88
520.49	992.62
520.85	997.55
521.21	1004.98
521.57	1010.81
521.93	1015.93
522.29	1022.29
522.65	1026.76
523.01	1032.81
523.37	1037.95
523.73	1043.19
524.09	1047.93
524.45	1053.17
524.81	1057.24
525.17	1061.69
525.53	1067.26
525.89	1072.29
526.25	1077.12
526.61	1081.05
526.97	1085.21
527.33	1088.60
527.68	1094.07
528.04	1098.67
528.40	1103.29
528.76	1106.29
529.12	1110.50
529.48	1115.52
529.84	1120.38
530.20	1125.50
530.56	1129.45
530.91	1134.17
531.27	1138.31
531.63	1142.60
531.99	1146.38
532.35	1150.33
532.71	1154.40
533.07	1158.83
533.42	1166.07
533.78	1170.79
534.14	1175.31
534.50	1179.24
534.86	1184.36
535.21	1186.62
535.57	1191.52
535.93	1194.88
536.29	1200.21
536.65	1203.79
537.00	1206.76
537.36	1210.00
537.72	1212.43
538.08	1216.17
538.44	1218.81
538.79	1222.31
539.15	1225.43
539.51	1230.07
539.87	1234.76
540.22	1238.57
540.58	1241.60
540.94	1241.86
541.29	1244.79
541.65	1247.33
542.01	1251.48
542.37	1253.52
542.72	1256.17
543.08	1257.67
543.44	1260.86
543.79	1261.81
544.15	1265.50
544.51	1269.38
544.87	1272.62
545.22	1276.57
545.58	1279.79
545.94	1283.24
546.29	1286.00
546.65	1289.40
547.01	1290.98
547.36	1292.55
547.72	1295.05
548.07	1297.33
548.43	1300.07
548.79	1302.62
549.14	1305.55
549.50	1307.88
549.86	1309.98
550.21	1313.29
550.57	1317.24
550.92	1319.57
551.28	1323.52
551.64	1326.02
551.99	1328.64
552.35	1331.60
552.70	1334.26
553.06	1337.21
553.41	1340.24
553.77	1344.95
554.13	1348.38
554.48	1352.76
554.84	1358.07
555.19	1361.07
555.55	1366.26
555.90	1369.71
556.26	1372.86
556.61	1377.40
556.97	1380.62
557.32	1385.21
557.68	1388.88
558.03	1392.60
558.39	1397.50
558.74	1401.24
559.10	1405.45
559.45	1410.02
559.81	1413.95
560.16	1418.10
560.52	1421.69
560.87	1426.33
561.23	1429.83
561.58	1435.76
561.94	1439.95
562.29	1444.10
562.64	1449.60
563.00	1452.81
563.35	1458.05
563.71	1463.14
564.06	1467.62
564.42	1473.26
564.77	1479.62
565.12	1485.21
565.48	1492.93
565.83	1498.81
566.19	1503.95
566.54	1509.57
566.89	1514.48
567.25	1520.81
567.60	1527.95
567.96	1536.93
568.31	1543.40
568.66	1549.67
569.02	1553.24
569.37	1558.81
569.72	1563.69
570.08	1568.62
570.43	1574.05
570.78	1579.71
571.14	1585.26
571.49	1591.90
571.84	1597.40
572.20	1601.19
572.55	1606.38
572.90	1609.05
573.26	1613.07
573.61	1617.86
573.96	1621.95
574.31	1626.17
574.67	1630.21
575.02	1633.45
575.37	1634.95
575.72	1638.19
576.08	1642.71
576.43	1646.81
576.78	1650.67
577.13	1654.71
577.49	1658.19
577.84	1662.48
578.19	1665.83
578.54	1670.19
578.90	1672.21
579.25	1675.81
579.60	1679.19
579.95	1681.95
580.30	1685.00
580.66	1688.90
581.01	1692.33
581.36	1695.36
581.71	1699.24
582.06	1703.17
582.42	1706.90
582.77	1710.02
583.12	1713.31
583.47	1715.05
583.82	1718.40
584.17	1720.98
584.53	1724.62
584.88	1727.60
585.23	1730.48
585.58	1732.79
585.93	1734.40
586.28	1737.17
586.63	1739.40
586.98	1742.45
587.34	1746.05
587.69	1748.52
588.04	1750.86
588.39	1752.64
588.74	1753.83
589.09	1755.60
589.44	1755.98
589.79	1757.62
590.14	1759.29
590.49	1760.36
590.84	1761.19
591.19	1763.07
591.54	1764.93
591.89	1765.79
592.25	1768.90
592.60	1769.52
592.95	1771.55
593.30	1773.45
593.65	1774.14
594.00	1773.98
594.35	1780.60
594.70	1780.69
595.05	1780.83
595.40	1781.21
595.75	1781.81
596.10	1783.05
596.45	1784.26
596.80	1784.74
597.15	1785.00
597.50	1785.19
597.85	1786.74
598.19	1786.93
598.54	1786.00
598.89	1786.14
599.24	1786.26
599.59	1784.93
599.94	1784.60
600.29	1783.90
600.64	1784.19
600.99	1784.33
601.34	1784.43
601.69	1777.74
602.04	1776.38
602.39	1776.29
602.74	1775.95
603.08	1776.14
603.43	1776.60
603.78	1775.55
604.13	1775.38
604.48	1774.36
604.83	1774.10
605.18	1773.31
605.53	1774.02
605.87	1773.52
606.22	1771.86
606.57	1769.69
606.92	1769.12
607.27	1768.88
607.62	1768.14
607.96	1766.36
608.31	1766.38
608.66	1765.69
609.01	1764.21
609.36	1763.69
609.70	1762.14
610.05	1759.55
610.40	1757.81
610.75	1755.19
611.10	1753.02
611.44	1750.55
611.79	1748.71
612.14	1745.57
612.49	1741.48
612.83	1737.40
613.18	1734.98
613.53	1732.40
613.88	1729.29
614.22	1725.05
614.57	1720.76
614.92	1716.67
615.27	1712.50
615.61	1707.48
615.96	1703.52
616.31	1700.14
616.65	1696.95
617.00	1693.98
617.35	1690.88
617.70	1687.21
618.04	1682.95
618.39	1677.98
618.74	1675.00
619.08	1670.69
619.43	1667.57
619.78	1663.40
620.12	1660.83
620.47	1657.33
620.82	1652.48
621.16	1648.76
621.51	1645.79
621.85	1641.48
622.20	1637.38
622.55	1632.90
622.89	1628.83
623.24	1625.55
623.59	1620.62
623.93	1615.17
624.28	1610.74
624.62	1607.52
624.97	1604.62
625.32	1600.74
625.66	1597.38
626.01	1591.88
626.35	1587.31
626.70	1582.69
627.04	1579.98
627.39	1574.36
627.73	1570.67
628.08	1567.07
628.43	1562.60
628.77	1557.29
629.12	1554.29
629.46	1550.64
629.81	1547.33
630.15	1543.12
630.50	1537.88
630.84	1533.21
631.19	1528.64
631.53	1523.50
631.88	1516.86
632.22	1510.10
632.57	1505.36
632.91	1500.57
633.26	1496.64
633.60	1491.57
633.95	1486.10
634.29	1479.95
634.64	1476.33
634.98	1470.05
635.32	1465.69
635.67	1461.79
636.01	1457.45
636.36	1451.45
636.70	1447.33
637.05	1442.21
637.39	1437.19
637.73	1432.81
638.08	1428.55
638.42	1424.19
638.77	1419.55
639.11	1415.40
639.45	1409.36
639.80	1403.71
640.14	1398.57
640.49	1393.38
640.83	1387.86
641.17	1382.83
641.52	1377.33
641.86	1370.67
642.20	1366.36
642.55	1360.00
642.89	1353.62
643.23	1347.38
643.58	1342.33
643.92	1335.05
644.26	1328.31
644.61	1322.62
644.95	1316.43
645.29	1309.45
645.64	1302.95
645.98	1296.40
646.32	1290.38
646.66	1284.12
647.01	1278.05
647.35	1271.45
647.69	1264.62
648.04	1258.86
648.38	1252.69
648.72	1247.02
649.06	1241.31
649.41	1233.90
649.75	1227.50
650.09	1221.17
650.43	1214.88
650.78	1208.29
651.12	1202.10
651.46	1196.00
651.80	1189.24
652.14	1182.69
652.49	1176.67
652.83	1170.02
653.17	1163.07
653.51	1155.76
653.85	1150.48
654.20	1143.86
654.54	1137.02
654.88	1130.07
655.22	1124.05
655.56	1117.05
655.90	1110.40
656.25	1103.12
656.59	1096.12
656.93	1090.24
657.27	1084.69
657.61	1077.69
657.95	1071.07
658.29	1064.55
658.64	1058.95
658.98	1052.60
659.32	1045.71
659.66	1039.52
660.00	1033.67
660.34	1028.00
660.68	1022.07
661.02	1015.33
661.36	1009.21
661.70	1003.43
662.05	997.52
662.39	991.26
662.73	986.43
663.07	980.86
663.41	975.48
663.75	970.00
664.09	963.98
664.43	957.43
664.77	951.38
665.11	945.05
665.45	939.40
665.79	933.38
666.13	927.00
666.47	920.71
666.81	914.52
667.15	908.29
667.49	902.81
667.83	897.86
668.17	892.50
668.51	886.69
668.85	881.38
669.19	876.43
669.53	870.19
669.87	863.71
670.21	857.74
670.55	851.67
670.89	846.90
671.23	841.26
671.57	835.48
671.91	830.64
672.25	825.48
672.58	820.38
672.92	814.26
673.26	809.19
673.60	804.40
673.94	799.29
674.28	794.45
674.62	789.38
674.96	783.79
675.30	778.52
675.64	773.81
675.97	768.69
676.31	762.62
676.65	757.55
676.99	753.76
677.33	748.17
677.67	744.05
678.01	738.40
678.34	734.02
678.68	730.12
679.02	725.12
679.36	720.02
679.70	715.21
680.04	710.50
680.37	705.86
680.71	700.98
681.05	697.00
681.39	692.12
681.73	687.17
682.06	682.43
682.40	678.21
682.74	673.93
683.08	669.88
683.42	665.57
683.75	661.48
684.09	655.71
684.43	651.81
684.77	647.02
685.10	642.69
685.44	637.52
685.78	632.33
686.12	627.90
686.45	623.83
686.79	618.62
687.13	615.19
687.46	611.02
687.80	608.14
688.14	603.48
688.48	599.76
688.81	595.57
689.15	592.24
689.49	587.83
689.82	583.45
690.16	578.45
690.50	574.48
690.83	569.98
691.17	565.81
691.51	561.40
691.84	557.14
692.18	553.50
692.52	549.93
692.85	546.71
693.19	543.67
693.52	539.95
693.86	536.38
694.20	532.02
694.53	528.07
694.87	523.19
695.21	519.43
695.54	515.24
695.88	511.40
696.21	506.31
696.55	502.86
696.88	499.45
697.22	496.24
697.56	493.17
697.89	489.90
698.23	487.14
698.56	483.76
698.90	480.90
699.23	477.33
699.57	474.10
699.90	470.26
700.24	466.40
700.58	462.98
700.91	460.19
701.25	458.64
701.58	456.62
701.92	454.02
702.25	451.52
702.59	448.57
702.92	446.00
703.26	443.76
703.59	440.98
703.93	440.10
704.26	437.05
704.60	434.17
704.93	431.17
705.26	427.74
705.60	425.88
705.93	422.74
706.27	421.21
706.60	419.02
706.94	417.64
707.27	415.17
707.61	413.00
707.94	410.62
708.27	406.79
708.61	403.71
708.94	401.36
709.28	399.31
709.61	397.12
709.94	394.71
710.28	392.67
710.61	390.31
710.95	385.98
711.28	385.33
711.61	383.50
711.95	382.12
712.28	380.64
712.61	378.24
712.95	377.45
713.28	375.52
713.61	373.40
713.95	370.93
714.28	369.07
714.61	367.17
714.95	365.14
715.28	363.17
715.61	361.38
715.95	359.40
716.28	357.07
716.61	355.93
716.95	353.90
717.28	351.90
717.61	350.24
717.94	348.79
718.28	345.69
718.61	344.00
718.94	342.05
719.27	340.19
719.61	338.62
719.94	336.38
720.27	333.74
720.60	331.88
720.94	329.90
721.27	328.57
721.60	327.33
721.93	325.52
722.27	324.67
722.60	323.10
722.93	321.69
723.26	320.55
723.59	318.52
723.93	317.50
724.26	316.48
724.59	315.19
724.92	314.10
725.25	313.52
725.59	312.21
725.92	311.26
726.25	310.36
726.58	309.29
726.91	308.17
727.24	307.64
727.57	306.81
727.91	305.69
728.24	304.88
728.57	303.50
728.90	302.95
729.23	301.36
729.56	301.45
729.89	300.48
730.22	299.33
730.55	298.36
730.89	297.33
731.22	296.02
731.55	294.81
731.88	294.02
732.21	292.88
732.54	291.50
732.87	290.43
733.20	289.33
733.53	288.43
733.86	287.88
734.19	286.50
734.52	285.93
734.85	286.57
735.18	285.31
735.51	285.26
735.84	284.67
736.17	284.21
736.50	282.38
736.83	283.95
737.16	283.36
737.49	282.86
737.82	282.00
738.15	281.69
738.48	280.90
738.81	279.60
739.14	278.48
739.47	277.93
739.80	277.07
740.13	276.81
740.46	275.81
740.79	274.43
741.12	273.50
741.45	272.33
741.78	270.33
742.11	270.17
742.44	268.79
742.77	268.26
743.10	267.21
743.43	266.48
743.75	263.60
744.08	265.29
744.41	264.48
744.74	263.62
745.07	262.48
745.40	262.33
745.73	262.90
746.06	262.40
746.39	262.14
746.71	261.36
747.04	260.12
747.37	259.24
747.70	259.02
748.03	258.81
748.36	258.74
748.68	258.07
749.01	256.88
749.34	256.43
749.67	255.76
750.00	255.98
750.33	257.17
750.65	256.81
750.98	254.21
751.31	253.71
751.64	253.29
751.97	254.05
752.29	253.26
752.62	251.60
752.95	251.17
753.28	250.48
753.60	249.93
753.93	250.43
754.26	250.40
754.59	249.62
754.91	248.90
755.24	248.14
755.57	247.74
755.90	247.52
756.22	246.98
756.55	246.12
756.88	245.19
757.20	243.24
757.53	242.36
757.86	241.60
758.19	241.36
758.51	241.02
758.84	239.31
759.17	238.74
759.49	238.76
759.82	239.33
760.15	239.31
760.47	239.05
760.80	237.98
761.13	237.83
761.45	237.48
761.78	237.40
762.11	237.07
762.43	236.74
762.76	236.05
763.08	236.05
763.41	236.10
763.74	235.90
764.06	235.57
764.39	235.29
764.71	234.86
765.04	234.38
765.37	234.21
765.69	234.21
766.02	234.14
766.34	233.69
766.67	232.69
767.00	232.62
767.32	233.64
767.65	234.69
767.97	234.24
768.30	234.12
768.62	233.71
768.95	233.62
769.27	233.57
769.60	233.90
769.92	233.45
770.25	232.95
770.57	232.29
770.90	231.98
771.22	231.67
771.55	231.71
771.87	231.64
772.20	231.31
772.52	232.93
772.85	235.29
773.17	234.90
773.50	234.83
773.82	234.12
774.15	232.86
774.47	231.29
774.80	231.21
775.12	230.98
775.45	231.02
775.77	230.64
776.09	230.52
776.42	230.14
776.74	230.64
777.07	230.43
777.39	230.26
777.72	230.00
778.04	230.14
778.36	229.69
778.69	229.62
779.01	229.83
779.33	227.81
779.66	225.24
779.98	224.95
780.31	224.86
780.63	225.74
780.95	225.83
781.28	225.81
781.60	225.26
781.92	224.88
782.25	224.45
782.57	224.33
782.89	223.95
783.22	223.76
783.54	223.21
783.86	223.31
784.19	223.33
784.51	223.64
784.83	223.48
785.16	223.48
785.48	223.33
785.80	223.10
786.12	223.29
786.45	223.19
786.77	223.43
787.09	223.19
787.42	222.29
787.74	222.21
788.06	222.19
788.38	222.24
788.71	222.14
789.03	222.19
789.35	222.48
789.67	222.21
789.99	222.36
790.32	221.90
790.64	221.71
790.96	223.14
791.28	222.52
791.61	222.14
791.93	222.40
792.25	222.10
792.57	223.57
792.89	222.88
793.21	222.88
793.54	222.67
793.86	222.31
794.18	222.36
794.50	221.95
794.82	221.83
795.14	221.93
795.47	222.55
795.79	222.48
796.11	221.88
796.43	221.76
796.75	221.88
797.07	222.02
797.39	222.05
797.71	220.69
798.04	220.69
798.36	220.83
798.68	220.57
799.00	220.88
799.32	219.21
799.64	219.76
799.96	219.76
800.28	220.10
800.60	220.00
800.92	219.98
801.24	219.83
801.56	219.88
801.89	219.67
802.21	219.52
802.53	219.19
802.85	219.71
803.17	220.50
803.49	219.76
803.81	219.33
804.13	219.31
804.45	218.98
804.77	219.12
805.09	219.17
805.41	218.83
805.73	218.21
806.05	217.90
806.37	217.62
806.69	217.26
807.01	217.14
807.33	217.14
807.65	216.62
807.97	217.64
808.28	217.29
808.60	217.19
808.92	216.81
809.24	217.95
809.56	217.33
809.88	216.93
810.20	217.17
810.52	217.60
810.84	217.26
811.16	216.93
811.48	216.86
811.80	217.31
812.12	217.21
812.43	217.71
812.75	217.98
813.07	217.98
813.39	218.24
813.71	217.86
814.03	217.81
814.35	217.95
814.67	216.98
814.98	216.98
815.30	217.00
815.62	216.50
815.94	215.26
816.26	215.45
816.58	214.98
816.89	214.95
817.21	214.76
817.53	214.95
817.85	215.12
818.17	215.14
818.48	214.55
818.80	215.10
819.12	214.90
819.44	214.48
819.76	214.14
820.07	214.02
820.39	214.02
820.71	214.02
821.03	213.88
821.34	213.67
821.66	213.95
821.98	214.12
822.30	214.12
822.61	215.26
822.93	214.86
823.25	214.48
823.57	214.55
823.88	214.79
824.20	214.52
824.52	214.86
824.83	214.64
825.15	214.17
825.47	214.07
825.79	214.12
826.10	214.31
826.42	214.43
826.74	214.57
827.05	214.52
827.37	214.60
827.69	214.45
828.00	214.64
828.32	214.40
828.64	214.02
828.95	215.33
829.27	214.86
829.58	215.05
829.90	215.69
830.22	215.55
830.53	214.98
830.85	214.88
831.17	214.24
831.48	214.43
831.80	214.62
832.11	214.43
832.43	214.05
832.75	213.86
833.06	215.02
833.38	214.52
833.69	214.38
834.01	214.43
834.32	214.40
834.64	214.38
834.96	214.38
835.27	214.57
835.59	213.79
835.90	213.31
836.22	213.33
836.53	212.95
836.85	212.98
837.16	215.19
837.48	215.10
837.79	215.86
838.11	215.88
838.42	215.71
838.74	216.02
839.05	215.88
839.37	215.81
839.68	214.24
840.00	214.12
840.31	214.52
840.63	214.48
840.94	214.29
841.26	214.02
841.57	213.90
841.88	214.10
842.20	213.71
842.51	213.64
842.83	213.69
843.14	215.60
843.46	215.38
843.77	214.31
844.08	214.48
844.40	213.98
844.71	213.79
845.03	213.93
845.34	213.67
845.65	213.69
845.97	213.76
846.28	214.07
846.60	214.21
846.91	213.81
847.22	213.74
847.54	214.29
847.85	214.26
848.16	214.21
848.48	213.71
848.79	214.83
849.10	215.10
849.42	215.17
849.73	213.19
850.04	213.36
850.36	212.62
850.67	212.83
850.98	212.83
851.30	213.14
851.61	212.76
851.92	212.76
852.23	213.45
852.55	213.50
852.86	213.43
853.17	213.57
853.49	213.88
853.80	214.05
854.11	213.86
854.42	214.57
854.74	214.48
855.05	214.76
855.36	213.45
855.67	213.40
855.99	213.36
856.30	215.88
856.61	215.76
856.92	215.57
857.23	215.64
857.55	215.38
857.86	215.00
858.17	215.76
858.48	215.50
858.79	214.98
859.11	215.31
859.42	215.26
859.73	215.12
860.04	215.10
860.35	214.55
860.66	214.21
860.98	213.83
861.29	213.95
861.60	213.62
861.91	214.10
862.22	213.74
862.53	213.48
862.84	211.02
863.16	211.48
863.47	211.21
863.78	210.79
864.09	211.29
864.40	211.48
864.71	211.57
865.02	211.52
865.33	211.33
865.64	210.79
865.95	210.90
866.27	211.90
866.58	211.67
866.89	212.02
867.20	211.98
867.51	211.71
867.82	211.62
868.13	212.43
868.44	212.02
868.75	212.45
869.06	212.55
869.37	212.83
869.68	212.33
869.99	212.95
870.30	213.43
870.61	213.31
870.92	212.93
871.23	212.55
871.54	213.00
871.85	213.62
872.16	213.95
872.47	213.81
872.78	212.71
873.09	213.02
873.40	212.95
873.71	213.14
874.02	213.14
874.33	213.00
874.64	212.36
874.95	212.74
875.26	212.43
875.56	212.36
875.87	212.12
876.18	211.83
876.49	213.60
876.80	213.19
877.11	212.83
877.42	212.98
877.73	213.10
878.04	212.76
878.35	212.52
878.66	212.52
878.96	212.31
879.27	212.45
879.58	212.12
879.89	211.98
880.20	212.55
880.51	212.57
880.82	212.74
881.12	212.95
881.43	212.55
881.74	212.36
882.05	212.48
882.36	212.76
882.67	213.12
882.97	210.86
883.28	210.93
883.59	211.10
883.90	211.50
884.21	211.88
884.51	211.74
884.82	211.45
885.13	211.45
885.44	211.55
885.74	211.31
886.05	211.38
886.36	211.50
886.67	210.64
886.98	211.55
887.28	211.71
887.59	211.81
887.90	212.00
888.20	211.95
888.51	212.21
888.82	211.60
889.13	211.52
889.43	213.17
889.74	212.90
890.05	212.69
890.35	212.24
890.66	211.67
890.97	211.71
891.28	211.67
891.58	211.71
891.89	211.79
892.20	211.81
892.50	211.86
892.81	211.76
893.12	211.88
893.42	211.24
893.73	211.07
894.04	210.95
894.34	211.00
894.65	210.83
894.95	210.40
895.26	210.79
895.57	211.74
895.87	209.86
896.18	210.17
896.48	210.31
896.79	210.45
897.10	210.62
897.40	210.57
897.71	210.93
898.01	210.71
898.32	210.95
898.63	210.86
898.93	210.90
899.24	210.76
899.54	211.02
899.85	210.74
900.15	210.98
900.46	211.02
900.76	211.17
901.07	211.21
901.38	211.26
901.68	211.24
901.99	210.60
902.29	210.90
902.60	210.93
902.90	210.81
903.21	210.86
903.51	210.83
903.82	211.40
904.12	211.29
904.43	211.36
904.73	211.38
905.03	211.62
905.34	213.50
905.64	213.55
905.95	213.43
906.25	213.52
906.56	213.36
906.86	213.38
907.17	213.36
907.47	213.71
907.77	213.86
908.08	213.67
908.38	213.62
908.69	213.86
908.99	214.14
909.30	214.33
909.60	214.40
909.90	214.62
910.21	213.88
910.51	213.74
910.81	213.83
911.12	214.00
911.42	214.00
911.73	211.90
912.03	212.17
912.33	212.43
912.64	212.60
912.94	212.45
913.24	212.17
913.55	211.98
913.85	211.83
914.15	212.12
914.46	212.33
914.76	212.26
915.06	211.98
915.37	211.76
915.67	211.64
915.97	211.55
916.27	210.90
916.58	211.21
916.88	211.10
917.18	210.95
917.49	212.14
917.79	212.10
918.09	212.60
918.39	212.98
918.70	212.74
919.00	212.64
919.30	213.69
919.60	213.60
919.91	213.29
920.21	213.40
920.51	213.00
920.81	212.81
921.12	212.98
921.42	212.93
921.72	212.93
922.02	213.24
922.32	213.48
922.63	213.64
922.93	214.57
923.23	214.76
923.53	214.64
923.83	213.38
924.13	213.55
924.44	213.40
924.74	213.98
925.04	214.48
925.34	214.26
925.64	213.50
925.94	213.74
926.24	215.19
926.55	214.93
926.85	215.07
927.15	215.10
927.45	214.79
927.75	214.93
928.05	215.07
928.35	214.71
928.65	215.05
928.95	215.38
929.26	214.79
929.56	215.00
929.86	215.36
930.16	215.21
930.46	215.12
930.76	215.21
931.06	214.00
931.36	213.62
931.66	214.00
931.96	214.07
932.26	213.88
932.56	213.02
932.86	213.10
933.16	213.17
933.46	213.02
933.76	213.17
934.06	213.50
934.36	214.10
934.66	214.17
934.96	213.90
935.26	214.02
935.56	214.21
935.86	213.95
936.16	213.40
936.46	213.24
936.76	213.07
937.06	212.74
937.36	212.95
937.66	212.88
937.96	212.67
938.26	212.29
938.56	212.26
938.86	212.24
939.16	213.07
939.46	213.36
939.76	213.62
940.06	213.55
940.35	213.21
940.65	212.12
940.95	212.31
941.25	211.79
941.55	211.43
941.85	211.21
942.15	211.43
942.45	212.14
942.75	211.93
943.04	212.12
943.34	212.71
943.64	212.50
943.94	212.21
944.24	212.21
944.54	212.36
944.84	212.40
945.13	211.98
945.43	211.17
945.73	210.81
946.03	210.60
946.33	210.24
946.62	210.12
946.92	210.31
947.22	210.24
947.52	210.26
947.82	210.40
948.11	210.07
948.41	209.71
948.71	209.38
949.01	209.60
949.31	209.52
949.60	209.10
949.90	209.57
950.20	209.57
950.50	209.86
950.79	209.55
951.09	209.79
951.39	209.90
951.69	209.67
951.98	210.17
952.28	210.33
952.58	210.55
952.87	210.36
953.17	210.48
953.47	210.48
953.76	210.55
954.06	210.19
954.36	209.90
954.66	209.81
954.95	210.31
955.25	210.55
955.55	210.55
955.84	210.50
956.14	210.62
956.44	210.83
956.73	210.31
957.03	210.62
957.32	210.50
957.62	210.48
957.92	210.95
958.21	210.76
958.51	213.24
958.81	213.31
959.10	213.76
959.40	214.14
959.69	214.02
959.99	214.21
960.29	214.43
960.58	214.64
960.88	215.52
961.17	214.93
961.47	215.17
961.76	215.14
962.06	215.24
962.36	214.88
962.65	215.05
962.95	215.14
963.24	214.90
963.54	215.02
963.83	215.17
964.13	215.00
964.42	214.55
964.72	212.60
965.01	212.67
965.31	212.48
965.60	212.05
965.90	213.29
966.19	213.14
966.49	213.33
966.78	213.24
967.08	213.02
967.37	213.10
967.67	212.48
967.96	212.71
968.26	212.71
968.55	212.93
968.85	212.76
969.14	212.76
969.43	212.79
969.73	212.62
970.02	212.60
970.32	212.60
970.61	212.50
970.91	212.02
971.20	211.81
971.49	211.38
971.79	211.69
972.08	210.29
972.38	210.31
972.67	210.14
972.96	210.36
973.26	209.86
973.55	210.43
973.85	210.57
974.14	210.12
974.43	210.48
974.73	210.21
975.02	210.12
975.31	210.21
975.61	210.31
975.90	210.12
976.19	209.76
976.49	209.90
976.78	210.02
977.07	210.00
977.37	210.19
977.66	210.64
977.95	210.36
978.24	210.60
978.54	211.14
978.83	211.14
979.12	211.10
979.42	211.19
979.71	210.98
980.00	210.88
980.29	211.21
980.59	210.69
980.88	211.19
981.17	211.07
981.46	210.98
981.76	210.83
982.05	211.50
982.34	211.69
982.63	211.69
982.93	211.62
983.22	212.31
983.51	212.29
983.80	212.57
984.09	212.76
984.39	212.52
984.68	212.05
984.97	212.05
985.26	211.76
985.55	211.86
985.85	211.31
986.14	211.40
986.43	211.67
986.72	211.55
987.01	210.81
987.30	210.86
987.59	210.79
987.89	211.00
988.18	210.40
988.47	210.36
988.76	210.12
989.05	210.24
989.34	209.69
989.63	210.19
989.92	209.86
990.22	209.48
990.51	209.45
990.80	209.45
991.09	209.50
991.38	209.88
991.67	209.55
991.96	209.52
992.25	209.74
992.54	209.31
992.83	209.21
993.12	209.10
993.41	209.48
993.70	210.36
993.99	210.90
994.28	211.17
994.58	211.57
994.87	211.45
995.16	211.17
995.45	211.05
995.74	210.40
996.03	210.76
996.32	211.14
996.61	211.81
996.90	211.90
997.19	211.95
997.48	211.98
997.77	212.29
998.06	212.50
998.34	212.21
998.63	212.26
998.92	212.38
999.21	212.95
999.50	212.93
999.79	212.14
1000.08	211.95
1000.37	212.21
1000.66	212.00
1000.95	212.69
1001.24	212.83
1001.53	213.00
1001.82	212.95
1002.11	212.38
1002.40	212.81
1002.68	212.95
1002.97	214.21
1003.26	213.83
1003.55	213.81
1003.84	213.74
1004.13	214.57
1004.42	214.67
1004.71	214.86
1004.99	214.81
1005.28	215.43
1005.57	215.21
1005.86	215.21
1006.15	214.76
1006.44	214.19
1006.72	214.48
1007.01	214.14
1007.30	214.24
1007.59	214.05
1007.88	214.14
1008.17	214.36
1008.45	213.76
1008.74	213.26
1009.03	212.36
1009.32	212.45
1009.60	212.14
1009.89	211.86
1010.18	210.86
1010.47	210.83
1010.76	210.74
1011.04	210.64
1011.33	210.48
1011.62	210.64
1011.91	210.79
1012.19	210.98
1012.48	211.00
1012.77	210.74
1013.05	211.45
1013.34	211.29
1013.63	211.64
1013.92	211.83
1014.20	211.67
1014.49	211.79
1014.78	211.98
1015.06	211.40
1015.35	211.29
1015.64	211.45
1015.92	211.83
1016.21	211.93
1016.50	211.71
1016.78	211.95
1017.07	212.33
1017.36	211.81
1017.64	211.60
1017.93	211.57
1018.22	211.31
1018.50	211.52
1018.79	211.67
1019.08	210.71
1019.36	211.07
1019.65	210.33
1019.93	210.64
1020.22	211.02
1020.51	211.90
1020.79	211.50
1021.08	205.50
1021.36	211.00
1021.65	214.50
1021.94	208.50
1022.22	213.50
1022.51	202.00
1022.79	220.00
1023.08	214.50
1023.36	233.00
1023.65	206.50
>>>>>End Processed Spectral Data<<<<<
