SpectraSuite Data File
++++++++++++++++++++++++++++++++++++
Date: Tue Apr 02 18:40:02 EDT 2013
User: group
Dark Spectrum Present: No
Reference Spectrum Present: No
Number of Sampled Component Spectra: 1
Spectrometers: USB2E7196
Integration Time (usec): 580000 (USB2E7196)
Spectra Averaged: 2 (USB2E7196)
Boxcar Smoothing: 10 (USB2E7196)
Correct for Electrical Dark: No (USB2E7196)
Strobe/Lamp Enabled: No (USB2E7196)
Correct for Detector Non-linearity: No (USB2E7196)
Correct for Stray Light: No (USB2E7196)
Number of Pixels in Processed Spectrum: 2048
>>>>>Begin Processed Spectral Data<<<<<
339.09	0.00
339.48	191.50
339.86	194.50
340.24	195.50
340.63	197.50
341.01	230.50
341.39	200.00
341.78	205.00
342.16	205.50
342.54	202.50
342.93	197.40
343.31	207.40
343.69	208.02
344.07	208.55
344.46	209.33
344.84	210.02
345.22	208.88
345.60	209.57
345.99	209.88
346.37	210.14
346.75	210.57
347.13	210.48
347.52	210.62
347.90	211.17
348.28	211.02
348.66	211.76
349.05	211.26
349.43	211.48
349.81	211.60
350.19	211.29
350.57	211.26
350.96	211.38
351.34	211.55
351.72	211.67
352.10	211.83
352.48	211.71
352.87	211.55
353.25	211.55
353.63	211.48
354.01	211.38
354.39	211.57
354.77	211.71
355.15	212.21
355.54	212.00
355.92	211.60
356.30	211.69
356.68	212.62
357.06	212.60
357.44	212.40
357.82	212.33
358.20	213.52
358.58	213.24
358.97	213.26
359.35	213.55
359.73	213.83
360.11	213.83
360.49	213.76
360.87	213.76
361.25	214.10
361.63	214.62
362.01	214.83
362.39	214.67
362.77	214.64
363.15	214.55
363.53	214.74
363.91	214.86
364.29	214.93
364.67	213.31
365.05	213.36
365.43	213.50
365.81	213.86
366.19	214.12
366.57	215.14
366.95	215.24
367.33	214.81
367.71	215.00
368.09	215.40
368.47	215.62
368.85	215.64
369.23	216.10
369.61	215.21
369.99	215.81
370.37	215.90
370.75	217.00
371.13	216.74
371.51	216.43
371.89	216.50
372.27	216.83
372.65	217.10
373.03	217.12
373.41	217.19
373.78	217.14
374.16	215.95
374.54	215.36
374.92	215.19
375.30	215.17
375.68	214.74
376.06	214.74
376.44	214.69
376.82	214.95
377.19	214.71
377.57	214.86
377.95	214.10
378.33	214.31
378.71	213.17
379.09	213.45
379.47	213.79
379.84	213.67
380.22	213.29
380.60	212.79
380.98	212.86
381.36	212.69
381.73	212.40
382.11	212.95
382.49	213.19
382.87	212.88
383.25	212.93
383.62	215.29
384.00	215.14
384.38	215.14
384.76	215.48
385.13	216.26
385.51	216.36
385.89	216.17
386.27	216.10
386.64	216.43
387.02	216.24
387.40	215.93
387.78	216.38
388.15	216.74
388.53	216.90
388.91	216.90
389.29	216.81
389.66	217.02
390.04	216.67
390.42	216.95
390.79	217.26
391.17	217.21
391.55	215.17
391.92	215.02
392.30	215.29
392.68	214.86
393.05	214.74
393.43	214.90
393.81	215.14
394.18	214.71
394.56	214.60
394.94	215.02
395.31	214.90
395.69	215.31
396.06	215.43
396.44	215.60
396.82	215.29
397.19	216.45
397.57	216.43
397.95	216.57
398.32	215.79
398.70	215.81
399.07	216.45
399.45	216.48
399.82	216.31
400.20	216.00
400.58	215.93
400.95	215.02
401.33	215.29
401.70	216.79
402.08	217.19
402.45	217.10
402.83	217.50
403.20	217.86
403.58	217.52
403.95	218.21
404.33	218.57
404.71	219.07
405.08	220.26
405.46	220.40
405.83	221.14
406.21	221.50
406.58	222.19
406.96	222.45
407.33	223.02
407.70	224.02
408.08	226.29
408.45	227.60
408.83	228.79
409.20	229.19
409.58	228.69
409.95	229.88
410.33	231.02
410.70	231.36
411.08	232.79
411.45	233.76
411.82	234.33
412.20	236.02
412.57	238.55
412.95	238.21
413.32	240.05
413.69	241.57
414.07	243.76
414.44	245.52
414.82	247.43
415.19	249.76
415.56	251.86
415.94	253.50
416.31	256.38
416.68	259.48
417.06	263.26
417.43	267.48
417.81	271.21
418.18	275.02
418.55	279.12
418.93	283.31
419.30	288.10
419.67	293.00
420.04	297.74
420.42	302.24
420.79	309.83
421.16	316.02
421.54	323.14
421.91	330.02
422.28	337.00
422.66	344.67
423.03	353.36
423.40	360.81
423.77	368.21
424.15	376.00
424.52	384.29
424.89	393.17
425.26	401.02
425.64	409.07
426.01	418.19
426.38	427.88
426.75	437.93
427.13	448.05
427.50	458.52
427.87	469.14
428.24	479.88
428.61	489.02
428.99	501.31
429.36	513.07
429.73	524.71
430.10	536.83
430.47	549.19
430.85	560.81
431.22	574.76
431.59	590.79
431.96	604.64
432.33	619.17
432.70	634.45
433.08	652.12
433.45	668.38
433.82	684.83
434.19	703.14
434.56	721.12
434.93	737.90
435.30	755.79
435.68	774.62
436.05	792.98
436.42	811.48
436.79	828.36
437.16	847.05
437.53	866.64
437.90	886.36
438.27	905.81
438.64	925.36
439.01	943.19
439.38	958.24
439.75	973.88
440.13	992.60
440.50	1008.90
440.87	1022.33
441.24	1036.86
441.61	1052.02
441.98	1063.55
442.35	1076.14
442.72	1090.31
443.09	1104.36
443.46	1112.67
443.83	1118.81
444.20	1123.88
444.57	1130.40
444.94	1133.26
445.31	1136.90
445.68	1142.60
446.05	1143.76
446.42	1142.14
446.79	1141.05
447.16	1138.79
447.53	1137.98
447.90	1131.05
448.27	1123.98
448.64	1115.02
449.01	1108.21
449.37	1096.88
449.74	1085.12
450.11	1073.88
450.48	1057.29
450.85	1039.69
451.22	1025.79
451.59	1012.48
451.96	999.93
452.33	983.48
452.70	968.48
453.07	950.31
453.43	928.98
453.80	910.57
454.17	893.69
454.54	876.88
454.91	859.60
455.28	841.90
455.65	826.12
456.02	813.38
456.38	799.48
456.75	782.95
457.12	768.50
457.49	754.64
457.86	738.60
458.23	728.29
458.59	715.50
458.96	703.43
459.33	692.50
459.70	680.74
460.07	671.36
460.43	660.81
460.80	651.02
461.17	643.07
461.54	634.45
461.91	625.45
462.27	616.76
462.64	608.88
463.01	600.69
463.38	593.19
463.74	582.14
464.11	575.10
464.48	568.55
464.85	561.71
465.21	556.67
465.58	551.52
465.95	544.60
466.32	539.12
466.68	533.07
467.05	527.33
467.42	522.14
467.78	516.12
468.15	510.45
468.52	506.48
468.88	500.43
469.25	495.48
469.62	492.10
469.98	487.88
470.35	483.93
470.72	480.12
471.08	474.83
471.45	471.93
471.82	469.10
472.18	465.38
472.55	462.74
472.92	459.24
473.28	456.02
473.65	452.71
474.02	450.00
474.38	447.74
474.75	445.36
475.11	442.79
475.48	441.19
475.85	439.69
476.21	437.50
476.58	436.24
476.94	435.31
477.31	433.83
477.67	432.79
478.04	431.90
478.41	430.98
478.77	432.83
479.14	431.38
479.50	430.38
479.87	430.10
480.23	430.07
480.60	429.62
480.96	429.14
481.33	430.43
481.69	430.26
482.06	430.26
482.42	430.95
482.79	431.74
483.15	432.21
483.52	433.12
483.88	433.57
484.25	434.05
484.61	434.88
484.98	435.48
485.34	437.55
485.71	438.88
486.07	440.40
486.44	440.19
486.80	442.26
487.17	443.74
487.53	446.40
487.90	448.74
488.26	451.81
488.62	455.31
488.99	456.88
489.35	459.90
489.72	462.69
490.08	465.55
490.44	468.21
490.81	471.79
491.17	474.86
491.54	478.57
491.90	482.64
492.26	486.81
492.63	490.76
492.99	494.14
493.36	498.90
493.72	503.74
494.08	508.17
494.45	513.62
494.81	519.48
495.17	524.21
495.54	529.50
495.90	534.60
496.26	539.81
496.63	545.45
496.99	551.55
497.35	557.69
497.72	564.19
498.08	570.50
498.44	577.40
498.80	584.90
499.17	591.74
499.53	598.88
499.89	605.79
500.26	613.02
500.62	620.40
500.98	628.33
501.34	635.76
501.71	644.36
502.07	651.55
502.43	659.24
502.79	666.83
503.16	674.40
503.52	682.57
503.88	690.50
504.24	699.31
504.60	707.81
504.97	716.52
505.33	724.79
505.69	734.93
506.05	743.43
506.41	751.81
506.78	760.33
507.14	768.81
507.50	777.36
507.86	786.90
508.22	795.79
508.59	803.52
508.95	812.81
509.31	821.45
509.67	830.05
510.03	838.31
510.39	846.76
510.75	855.52
511.12	863.79
511.48	872.19
511.84	880.40
512.20	888.76
512.56	897.36
512.92	906.33
513.28	914.45
513.64	922.29
514.00	930.26
514.37	939.17
514.73	947.71
515.09	956.40
515.45	963.50
515.81	971.33
516.17	979.55
516.53	987.02
516.89	994.10
517.25	1001.90
517.61	1010.55
517.97	1018.95
518.33	1026.17
518.69	1033.57
519.05	1041.29
519.41	1048.88
519.77	1056.79
520.13	1063.71
520.49	1069.40
520.85	1076.17
521.21	1083.74
521.57	1090.40
521.93	1096.36
522.29	1103.07
522.65	1109.07
523.01	1115.71
523.37	1122.07
523.73	1128.07
524.09	1134.26
524.45	1140.69
524.81	1146.52
525.17	1151.88
525.53	1157.79
525.89	1163.38
526.25	1169.69
526.61	1174.45
526.97	1179.95
527.33	1185.14
527.68	1191.90
528.04	1197.90
528.40	1203.14
528.76	1207.62
529.12	1213.36
529.48	1219.50
529.84	1224.26
530.20	1229.69
530.56	1235.67
530.91	1240.86
531.27	1246.48
531.63	1250.95
531.99	1255.81
532.35	1260.86
532.71	1265.81
533.07	1270.93
533.42	1278.74
533.78	1283.83
534.14	1290.50
534.50	1295.29
534.86	1301.00
535.21	1305.19
535.57	1311.10
535.93	1315.74
536.29	1321.98
536.65	1326.88
537.00	1331.48
537.36	1335.90
537.72	1339.88
538.08	1344.36
538.44	1348.05
538.79	1352.90
539.15	1357.48
539.51	1362.48
539.87	1367.29
540.22	1372.07
540.58	1376.74
540.94	1378.60
541.29	1382.83
541.65	1385.50
542.01	1390.02
542.37	1393.07
542.72	1396.02
543.08	1398.64
543.44	1402.29
543.79	1404.69
544.15	1409.05
544.51	1413.83
544.87	1418.55
545.22	1423.33
545.58	1427.24
545.94	1431.29
546.29	1435.48
546.65	1440.45
547.01	1443.60
547.36	1447.71
547.72	1450.95
548.07	1454.40
548.43	1458.45
548.79	1461.10
549.14	1465.62
549.50	1469.29
549.86	1472.81
550.21	1477.02
550.57	1481.45
550.92	1484.36
551.28	1488.57
551.64	1492.00
551.99	1494.60
552.35	1498.83
552.70	1502.36
553.06	1505.83
553.41	1510.05
553.77	1514.76
554.13	1518.07
554.48	1523.33
554.84	1528.45
555.19	1532.69
555.55	1538.12
555.90	1542.29
556.26	1547.19
556.61	1550.79
556.97	1554.26
557.32	1558.38
557.68	1562.10
558.03	1566.00
558.39	1570.86
558.74	1576.29
559.10	1580.26
559.45	1585.07
559.81	1588.31
560.16	1592.07
560.52	1597.10
560.87	1602.00
561.23	1605.24
561.58	1611.10
561.94	1615.67
562.29	1618.95
562.64	1624.21
563.00	1627.62
563.35	1632.07
563.71	1637.10
564.06	1642.69
564.42	1648.33
564.77	1654.00
565.12	1660.12
565.48	1667.55
565.83	1673.14
566.19	1677.83
566.54	1682.95
566.89	1687.98
567.25	1694.79
567.60	1701.26
567.96	1708.62
568.31	1714.14
568.66	1719.26
569.02	1722.48
569.37	1725.60
569.72	1730.52
570.08	1734.00
570.43	1738.48
570.78	1742.60
571.14	1746.55
571.49	1750.31
571.84	1754.19
572.20	1758.12
572.55	1762.33
572.90	1763.93
573.26	1767.29
573.61	1769.90
573.96	1773.21
574.31	1776.00
574.67	1777.43
575.02	1779.38
575.37	1779.64
575.72	1781.40
576.08	1784.12
576.43	1785.90
576.78	1789.00
577.13	1790.74
577.49	1793.10
577.84	1795.33
578.19	1796.90
578.54	1799.88
578.90	1802.17
579.25	1804.43
579.60	1806.38
579.95	1805.90
580.30	1807.14
580.66	1809.05
581.01	1810.60
581.36	1810.57
581.71	1811.79
582.06	1814.07
582.42	1815.55
582.77	1815.81
583.12	1816.31
583.47	1817.69
583.82	1819.50
584.17	1820.79
584.53	1821.93
584.88	1822.79
585.23	1823.24
585.58	1824.02
585.93	1822.90
586.28	1823.43
586.63	1823.50
586.98	1822.48
587.34	1824.52
587.69	1824.00
588.04	1823.90
588.39	1823.81
588.74	1823.40
589.09	1822.88
589.44	1820.81
589.79	1820.55
590.14	1820.40
590.49	1819.62
590.84	1817.76
591.19	1817.05
591.54	1815.45
591.89	1813.74
592.25	1814.31
592.60	1811.79
592.95	1810.43
593.30	1809.79
593.65	1807.19
594.00	1805.52
594.35	1809.19
594.70	1805.62
595.05	1804.19
595.40	1801.26
595.75	1799.36
596.10	1799.62
596.45	1798.07
596.80	1797.36
597.15	1794.83
597.50	1792.50
597.85	1791.45
598.19	1789.33
598.54	1786.93
598.89	1784.40
599.24	1783.43
599.59	1779.40
599.94	1778.36
600.29	1777.05
600.64	1775.12
600.99	1774.57
601.34	1773.24
601.69	1766.21
602.04	1764.98
602.39	1763.43
602.74	1762.14
603.08	1759.02
603.43	1756.29
603.78	1753.76
604.13	1751.00
604.48	1748.26
604.83	1746.48
605.18	1744.50
605.53	1742.33
605.87	1738.98
606.22	1736.67
606.57	1732.95
606.92	1729.90
607.27	1726.64
607.62	1723.83
607.96	1720.83
608.31	1716.81
608.66	1712.36
609.01	1708.62
609.36	1705.36
609.70	1701.00
610.05	1696.60
610.40	1693.43
610.75	1688.36
611.10	1684.52
611.44	1679.45
611.79	1674.48
612.14	1669.55
612.49	1663.79
612.83	1658.50
613.18	1654.69
613.53	1649.19
613.88	1643.64
614.22	1637.83
614.57	1631.83
614.92	1625.79
615.27	1620.07
615.61	1614.00
615.96	1608.43
616.31	1602.60
616.65	1598.02
617.00	1592.45
617.35	1587.48
617.70	1581.86
618.04	1576.60
618.39	1570.21
618.74	1564.83
619.08	1559.93
619.43	1554.45
619.78	1549.12
620.12	1544.33
620.47	1538.81
620.82	1532.45
621.16	1526.71
621.51	1522.05
621.85	1516.62
622.20	1511.21
622.55	1504.86
622.89	1499.10
623.24	1493.81
623.59	1488.05
623.93	1481.21
624.28	1477.19
624.62	1473.67
624.97	1468.95
625.32	1463.50
625.66	1459.17
626.01	1453.88
626.35	1449.05
626.70	1443.81
627.04	1439.29
627.39	1433.38
627.73	1428.36
628.08	1424.00
628.43	1418.57
628.77	1413.17
629.12	1408.19
629.46	1402.31
629.81	1396.81
630.15	1390.88
630.50	1385.17
630.84	1379.81
631.19	1373.38
631.53	1366.21
631.88	1358.12
632.22	1350.60
632.57	1345.67
632.91	1338.71
633.26	1332.57
633.60	1325.10
633.95	1318.38
634.29	1311.55
634.64	1304.74
634.98	1297.14
635.32	1292.43
635.67	1287.33
636.01	1280.86
636.36	1274.48
636.70	1269.98
637.05	1264.62
637.39	1259.24
637.73	1253.71
638.08	1248.48
638.42	1243.57
638.77	1238.40
639.11	1232.52
639.45	1226.95
639.80	1220.10
640.14	1214.24
640.49	1208.48
640.83	1203.29
641.17	1197.29
641.52	1190.90
641.86	1185.17
642.20	1180.33
642.55	1172.40
642.89	1165.90
643.23	1159.60
643.58	1154.36
643.92	1146.64
644.26	1139.83
644.61	1133.10
644.95	1125.81
645.29	1118.69
645.64	1112.69
645.98	1105.48
646.32	1099.12
646.66	1091.90
647.01	1085.36
647.35	1078.93
647.69	1072.07
648.04	1066.31
648.38	1060.17
648.72	1054.00
649.06	1047.76
649.41	1041.14
649.75	1035.29
650.09	1028.64
650.43	1021.83
650.78	1014.10
651.12	1007.29
651.46	1001.07
651.80	995.05
652.14	988.93
652.49	982.93
652.83	975.74
653.17	969.29
653.51	962.24
653.85	956.62
654.20	950.26
654.54	943.64
654.88	936.95
655.22	930.55
655.56	923.74
655.90	917.05
656.25	910.93
656.59	904.07
656.93	898.12
657.27	892.60
657.61	886.69
657.95	881.40
658.29	875.62
658.64	869.50
658.98	862.98
659.32	856.98
659.66	851.26
660.00	845.88
660.34	839.93
660.68	834.17
661.02	828.38
661.36	822.21
661.70	816.88
662.05	811.71
662.39	806.52
662.73	802.05
663.07	797.64
663.41	792.33
663.75	786.90
664.09	780.95
664.43	774.71
664.77	769.52
665.11	763.64
665.45	758.38
665.79	753.31
666.13	748.12
666.47	742.71
666.81	737.29
667.15	731.45
667.49	726.90
667.83	722.83
668.17	717.93
668.51	713.33
668.85	708.69
669.19	704.67
669.53	698.69
669.87	692.83
670.21	687.24
670.55	681.60
670.89	677.79
671.23	672.69
671.57	668.48
671.91	664.38
672.25	660.02
672.58	656.00
672.92	651.45
673.26	647.00
673.60	642.40
673.94	637.55
674.28	633.43
674.62	629.45
674.96	624.81
675.30	620.60
675.64	616.26
675.97	611.83
676.31	607.21
676.65	602.98
676.99	599.86
677.33	595.71
677.67	591.83
678.01	586.95
678.34	583.71
678.68	579.90
679.02	575.29
679.36	571.74
679.70	567.40
680.04	563.02
680.37	559.45
680.71	555.79
681.05	552.50
681.39	548.71
681.73	544.31
682.06	539.98
682.40	536.45
682.74	532.93
683.08	530.12
683.42	526.00
683.75	522.76
684.09	518.19
684.43	514.36
684.77	510.67
685.10	507.14
685.44	503.24
685.78	499.45
686.12	496.02
686.45	492.69
686.79	489.10
687.13	486.40
687.46	482.55
687.80	479.50
688.14	476.21
688.48	473.29
688.81	470.40
689.15	468.24
689.49	464.86
689.82	462.05
690.16	457.95
690.50	454.98
690.83	451.55
691.17	448.38
691.51	445.38
691.84	443.02
692.18	440.17
692.52	437.12
692.85	434.60
693.19	432.69
693.52	429.48
693.86	426.79
694.20	423.67
694.53	421.57
694.87	418.98
695.21	416.00
695.54	413.17
695.88	410.45
696.21	406.64
696.55	404.07
696.88	401.74
697.22	399.02
697.56	396.69
697.89	394.33
698.23	392.45
698.56	390.17
698.90	387.74
699.23	385.43
699.57	383.38
699.90	380.90
700.24	378.48
700.58	375.98
700.91	374.52
701.25	374.07
701.58	372.43
701.92	370.52
702.25	368.76
702.59	366.76
702.92	364.95
703.26	363.40
703.59	361.62
703.93	361.10
704.26	359.88
704.60	358.40
704.93	356.48
705.26	354.60
705.60	353.29
705.93	351.29
706.27	350.00
706.60	348.88
706.94	348.52
707.27	346.48
707.61	345.62
707.94	343.83
708.27	340.79
708.61	338.67
708.94	337.26
709.28	335.90
709.61	334.14
709.94	332.36
710.28	330.93
710.61	329.50
710.95	326.31
711.28	326.02
711.61	324.26
711.95	323.52
712.28	322.14
712.61	320.60
712.95	320.29
713.28	319.76
713.61	318.10
713.95	315.83
714.28	314.83
714.61	313.05
714.95	311.43
715.28	309.76
715.61	308.62
715.95	307.07
716.28	305.50
716.61	304.74
716.95	303.62
717.28	302.62
717.61	301.19
717.94	300.07
718.28	297.31
718.61	296.26
718.94	294.71
719.27	293.36
719.61	292.50
719.94	290.57
720.27	288.57
720.60	287.33
720.94	286.24
721.27	285.38
721.60	284.93
721.93	283.90
722.27	284.19
722.60	283.38
722.93	282.36
723.26	281.98
723.59	280.57
723.93	279.86
724.26	279.10
724.59	278.38
724.92	277.76
725.25	277.76
725.59	277.00
725.92	276.31
726.25	275.88
726.58	275.10
726.91	274.62
727.24	274.00
727.57	273.67
727.91	272.81
728.24	272.05
728.57	271.00
728.90	270.88
729.23	269.29
729.56	269.40
729.89	268.88
730.22	267.76
730.55	267.33
730.89	266.60
731.22	265.79
731.55	265.21
731.88	264.64
732.21	263.48
732.54	262.74
732.87	262.29
733.20	261.62
733.53	261.02
733.86	260.48
734.19	259.74
734.52	259.17
734.85	259.76
735.18	258.98
735.51	259.19
735.84	258.50
736.17	258.50
736.50	257.26
736.83	259.02
737.16	258.76
737.49	258.50
737.82	257.86
738.15	257.90
738.48	257.48
738.81	257.07
739.14	256.67
739.47	256.31
739.80	255.83
740.13	255.67
740.46	255.10
740.79	254.26
741.12	254.00
741.45	253.14
741.78	251.71
742.11	252.00
742.44	251.00
742.77	251.14
743.10	250.60
743.43	250.10
743.75	247.69
744.08	249.98
744.41	249.43
744.74	248.86
745.07	247.93
745.40	247.74
745.73	247.93
746.06	247.40
746.39	247.14
746.71	246.57
747.04	245.86
747.37	245.31
747.70	245.57
748.03	245.26
748.36	245.26
748.68	244.95
749.01	243.83
749.34	243.69
749.67	243.24
750.00	243.17
750.33	244.40
750.65	244.07
750.98	241.31
751.31	241.19
751.64	241.40
751.97	242.45
752.29	242.10
752.62	241.14
752.95	241.19
753.28	240.86
753.60	240.48
753.93	240.71
754.26	240.67
754.59	239.74
754.91	239.05
755.24	238.60
755.57	238.40
755.90	238.14
756.22	237.60
756.55	236.79
756.88	236.14
757.20	234.43
757.53	233.55
757.86	233.21
758.19	232.90
758.51	232.48
758.84	230.95
759.17	230.50
759.49	230.07
759.82	230.57
760.15	230.38
760.47	230.38
760.80	229.50
761.13	229.71
761.45	229.50
761.78	229.43
762.11	229.33
762.43	228.93
762.76	228.67
763.08	228.71
763.41	228.74
763.74	228.71
764.06	228.60
764.39	228.81
764.71	228.48
765.04	228.07
765.37	227.88
765.69	227.74
766.02	227.74
766.34	227.57
766.67	226.62
767.00	226.88
767.32	227.69
767.65	228.93
767.97	228.38
768.30	228.64
768.62	228.43
768.95	228.00
769.27	227.88
769.60	228.12
769.92	227.52
770.25	226.86
770.57	226.29
770.90	226.00
771.22	225.45
771.55	225.57
771.87	225.64
772.20	225.43
772.52	226.76
772.85	228.79
773.17	228.62
773.50	228.45
773.82	227.74
774.15	226.67
774.47	225.48
774.80	225.12
775.12	224.88
775.45	224.81
775.77	224.74
776.09	224.81
776.42	224.57
776.74	225.17
777.07	225.19
777.39	225.26
777.72	225.02
778.04	225.26
778.36	224.79
778.69	224.81
779.01	224.69
779.33	223.17
779.66	221.05
779.98	220.86
780.31	220.76
780.63	221.62
780.95	221.98
781.28	221.83
781.60	221.74
781.92	221.60
782.25	221.45
782.57	221.57
782.89	221.40
783.22	221.45
783.54	220.83
783.86	221.07
784.19	220.88
784.51	221.24
784.83	220.69
785.16	220.62
785.48	220.55
785.80	220.67
786.12	220.90
786.45	220.57
786.77	220.71
787.09	220.79
787.42	220.02
787.74	219.98
788.06	219.83
788.38	219.81
788.71	219.64
789.03	219.81
789.35	220.00
789.67	219.64
789.99	219.62
790.32	219.57
790.64	219.83
790.96	221.43
791.28	221.00
791.61	221.21
791.93	221.40
792.25	220.98
792.57	222.40
792.89	221.76
793.21	221.86
793.54	221.62
793.86	221.24
794.18	221.40
794.50	221.07
794.82	221.05
795.14	220.98
795.47	221.21
795.79	221.31
796.11	220.76
796.43	220.50
796.75	220.40
797.07	220.55
797.39	220.10
797.71	218.62
798.04	218.67
798.36	218.98
798.68	219.05
799.00	219.40
799.32	218.07
799.64	218.52
799.96	218.64
800.28	219.05
800.60	218.81
800.92	218.71
801.24	218.45
801.56	218.60
801.89	218.60
802.21	218.76
802.53	218.26
802.85	218.60
803.17	219.74
803.49	219.31
803.81	218.74
804.13	218.76
804.45	218.64
804.77	218.69
805.09	218.43
805.41	218.00
805.73	217.60
806.05	217.21
806.37	217.02
806.69	216.74
807.01	216.33
807.33	216.31
807.65	216.00
807.97	217.00
808.28	216.57
808.60	216.50
808.92	216.00
809.24	217.17
809.56	216.74
809.88	215.74
810.20	215.71
810.52	216.26
810.84	215.81
811.16	215.50
811.48	215.33
811.80	216.07
812.12	216.14
812.43	216.31
812.75	216.57
813.07	216.48
813.39	216.45
813.71	216.36
814.03	216.50
814.35	216.45
814.67	215.55
814.98	215.45
815.30	215.29
815.62	215.17
815.94	213.88
816.26	213.95
816.58	213.93
816.89	214.33
817.21	213.98
817.53	214.10
817.85	214.17
818.17	214.14
818.48	213.33
818.80	213.57
819.12	213.50
819.44	213.10
819.76	212.79
820.07	212.74
820.39	212.69
820.71	212.83
821.03	212.81
821.34	212.62
821.66	213.05
821.98	213.38
822.30	213.26
822.61	214.50
822.93	214.55
823.25	214.43
823.57	213.98
823.88	214.52
824.20	214.67
824.52	214.93
824.83	214.93
825.15	214.40
825.47	214.57
825.79	214.76
826.10	214.64
826.42	214.50
826.74	215.10
827.05	215.19
827.37	215.24
827.69	215.10
828.00	215.21
828.32	215.14
828.64	215.05
828.95	216.14
829.27	215.67
829.58	215.62
829.90	215.86
830.22	216.17
830.53	215.69
830.85	215.40
831.17	215.05
831.48	215.12
831.80	215.45
832.11	214.95
832.43	214.40
832.75	214.45
833.06	215.81
833.38	214.88
833.69	214.67
834.01	214.60
834.32	214.67
834.64	214.36
834.96	214.19
835.27	214.33
835.59	213.48
835.90	212.76
836.22	212.71
836.53	212.45
836.85	212.24
837.16	214.10
837.48	214.14
837.79	214.81
838.11	214.67
838.42	214.83
838.74	215.17
839.05	215.38
839.37	215.38
839.68	214.17
840.00	214.19
840.31	214.45
840.63	214.38
840.94	214.07
841.26	213.93
841.57	214.19
841.88	214.02
842.20	213.83
842.51	213.76
842.83	213.86
843.14	215.71
843.46	215.81
843.77	214.81
844.08	214.83
844.40	214.07
844.71	214.07
845.03	213.95
845.34	213.83
845.65	213.64
845.97	213.55
846.28	213.69
846.60	213.69
846.91	213.21
847.22	213.26
847.54	213.88
847.85	214.02
848.16	214.00
848.48	213.83
848.79	214.86
849.10	215.14
849.42	215.00
849.73	213.10
850.04	212.81
850.36	212.19
850.67	212.55
850.98	212.67
851.30	212.71
851.61	212.57
851.92	212.31
852.23	213.12
852.55	213.36
852.86	213.50
853.17	213.90
853.49	214.52
853.80	214.90
854.11	214.88
854.42	215.12
854.74	214.64
855.05	214.62
855.36	213.36
855.67	213.45
855.99	213.60
856.30	216.26
856.61	216.29
856.92	216.21
857.23	216.00
857.55	215.64
857.86	215.69
858.17	215.95
858.48	215.81
858.79	215.14
859.11	215.19
859.42	214.71
859.73	214.43
860.04	214.14
860.35	213.24
860.66	212.62
860.98	212.55
861.29	212.88
861.60	212.83
861.91	213.48
862.22	213.14
862.53	213.02
862.84	210.43
863.16	211.21
863.47	210.79
863.78	210.60
864.09	210.88
864.40	211.02
864.71	211.00
865.02	211.38
865.33	211.33
865.64	210.88
865.95	211.14
866.27	212.21
866.58	212.31
866.89	212.74
867.20	212.57
867.51	212.29
867.82	212.00
868.13	212.79
868.44	212.07
868.75	212.57
869.06	212.55
869.37	212.83
869.68	211.98
869.99	212.64
870.30	213.00
870.61	213.31
870.92	212.69
871.23	212.55
871.54	212.71
871.85	213.07
872.16	213.38
872.47	213.21
872.78	212.21
873.09	212.48
873.40	212.38
873.71	212.62
874.02	212.81
874.33	212.69
874.64	211.95
874.95	212.55
875.26	211.95
875.56	211.93
875.87	211.67
876.18	211.64
876.49	213.40
876.80	213.33
877.11	212.90
877.42	213.26
877.73	213.36
878.04	212.93
878.35	212.90
878.66	213.19
878.96	213.07
879.27	213.05
879.58	212.88
879.89	212.67
880.20	213.26
880.51	213.12
880.82	213.14
881.12	213.19
881.43	212.67
881.74	212.64
882.05	212.79
882.36	212.95
882.67	213.19
882.97	211.00
883.28	210.67
883.59	210.67
883.90	210.83
884.21	211.21
884.51	211.10
884.82	210.83
885.13	210.67
885.44	210.88
885.74	210.86
886.05	210.71
886.36	210.69
886.67	210.12
886.98	211.24
887.28	211.45
887.59	211.57
887.90	211.81
888.20	211.76
888.51	211.86
888.82	211.76
889.13	211.86
889.43	213.74
889.74	213.69
890.05	213.69
890.35	213.62
890.66	213.24
890.97	213.17
891.28	213.00
891.58	213.10
891.89	212.90
892.20	212.62
892.50	212.50
892.81	212.38
893.12	212.24
893.42	211.12
893.73	211.33
894.04	211.38
894.34	211.26
894.65	211.21
894.95	211.07
895.26	210.88
895.57	211.88
895.87	209.86
896.18	210.24
896.48	210.38
896.79	210.24
897.10	210.52
897.40	211.02
897.71	211.50
898.01	211.26
898.32	211.50
898.63	211.67
898.93	211.81
899.24	212.05
899.54	211.98
899.85	212.14
900.15	211.81
900.46	211.81
900.76	212.17
901.07	212.12
901.38	212.26
901.68	212.60
901.99	211.48
902.29	211.64
902.60	211.60
902.90	211.38
903.21	211.36
903.51	211.02
903.82	211.14
904.12	210.90
904.43	210.95
904.73	210.81
905.03	211.12
905.34	213.24
905.64	213.12
905.95	213.14
906.25	213.00
906.56	213.14
906.86	213.00
907.17	212.76
907.47	213.02
907.77	212.62
908.08	212.10
908.38	212.31
908.69	212.62
908.99	212.76
909.30	212.98
909.60	213.10
909.90	213.14
910.21	212.38
910.51	212.33
910.81	212.50
911.12	212.76
911.42	212.52
911.73	210.33
912.03	210.64
912.33	211.19
912.64	211.45
912.94	211.19
913.24	210.98
913.55	211.02
913.85	210.62
914.15	211.19
914.46	211.50
914.76	211.31
915.06	211.05
915.37	210.71
915.67	210.74
915.97	210.71
916.27	210.45
916.58	210.86
916.88	210.76
917.18	210.48
917.49	211.74
917.79	211.79
918.09	212.02
918.39	212.40
918.70	212.26
919.00	212.26
919.30	213.50
919.60	213.50
919.91	213.19
920.21	213.67
920.51	213.07
920.81	212.93
921.12	213.31
921.42	213.36
921.72	213.67
922.02	213.67
922.32	213.76
922.63	213.98
922.93	214.79
923.23	214.83
923.53	214.76
923.83	213.40
924.13	213.62
924.44	213.52
924.74	213.74
925.04	214.33
925.34	214.14
925.64	213.12
925.94	213.19
926.24	214.57
926.55	214.29
926.85	214.60
927.15	214.69
927.45	214.55
927.75	214.57
928.05	214.40
928.35	214.33
928.65	214.76
928.95	214.76
929.26	214.07
929.56	214.24
929.86	214.74
930.16	214.79
930.46	214.45
930.76	214.67
931.06	213.86
931.36	213.05
931.66	213.57
931.96	213.79
932.26	213.71
932.56	212.76
932.86	213.10
933.16	213.33
933.46	213.17
933.76	212.95
934.06	213.31
934.36	214.12
934.66	214.00
934.96	213.57
935.26	213.64
935.56	213.88
935.86	213.74
936.16	213.40
936.46	213.19
936.76	213.24
937.06	212.69
937.36	212.90
937.66	213.21
937.96	212.93
938.26	212.45
938.56	212.43
938.86	212.38
939.16	212.86
939.46	212.83
939.76	212.98
940.06	212.95
940.35	212.50
940.65	211.48
940.95	211.79
941.25	211.48
941.55	211.26
941.85	211.21
942.15	211.45
942.45	211.93
942.75	211.93
943.04	212.12
943.34	212.60
943.64	212.40
943.94	212.19
944.24	212.19
944.54	212.45
944.84	212.50
945.13	212.24
945.43	211.57
945.73	211.36
946.03	211.31
946.33	211.00
946.62	210.79
946.92	210.69
947.22	210.74
947.52	210.95
947.82	211.29
948.11	211.02
948.41	210.62
948.71	210.17
949.01	210.33
949.31	209.95
949.60	209.93
949.90	210.31
950.20	210.14
950.50	210.17
950.79	209.90
951.09	210.17
951.39	210.19
951.69	210.05
951.98	210.45
952.28	210.57
952.58	210.60
952.87	210.69
953.17	210.88
953.47	210.52
953.76	210.36
954.06	210.07
954.36	209.76
954.66	209.69
954.95	210.12
955.25	210.24
955.55	210.45
955.84	210.17
956.14	210.36
956.44	210.48
956.73	210.21
957.03	210.52
957.32	210.57
957.62	210.64
957.92	211.10
958.21	210.93
958.51	213.33
958.81	213.79
959.10	214.05
959.40	214.86
959.69	215.00
959.99	215.57
960.29	215.55
960.58	215.38
960.88	216.36
961.17	216.07
961.47	216.26
961.76	216.05
962.06	216.33
962.36	215.86
962.65	215.90
962.95	215.88
963.24	215.76
963.54	215.60
963.83	215.90
964.13	215.86
964.42	215.45
964.72	213.81
965.01	213.83
965.31	213.71
965.60	212.71
965.90	214.10
966.19	213.71
966.49	214.10
966.78	214.43
967.08	214.12
967.37	214.07
967.67	213.55
967.96	214.12
968.26	214.12
968.55	214.69
968.85	214.50
969.14	214.29
969.43	214.10
969.73	213.95
970.02	213.69
970.32	213.40
970.61	213.31
970.91	212.64
971.20	212.02
971.49	211.98
971.79	212.57
972.08	211.02
972.38	211.02
972.67	210.55
972.96	210.88
973.26	210.45
973.55	211.12
973.85	211.07
974.14	210.71
974.43	210.90
974.73	210.31
975.02	210.31
975.31	210.45
975.61	210.40
975.90	210.36
976.19	210.05
976.49	210.38
976.78	210.52
977.07	210.45
977.37	210.62
977.66	210.64
977.95	210.33
978.24	210.38
978.54	210.74
978.83	210.74
979.12	210.48
979.42	210.52
979.71	209.93
980.00	210.05
980.29	210.07
980.59	209.36
980.88	210.02
981.17	209.88
981.46	210.12
981.76	210.21
982.05	210.88
982.34	211.00
982.63	210.71
982.93	210.57
983.22	211.21
983.51	211.26
983.80	211.57
984.09	211.81
984.39	211.74
984.68	211.55
984.97	211.88
985.26	211.64
985.55	211.76
985.85	211.67
986.14	212.12
986.43	212.60
986.72	212.55
987.01	211.71
987.30	211.86
987.59	211.57
987.89	211.74
988.18	211.05
988.47	210.98
988.76	211.05
989.05	211.00
989.34	210.50
989.63	211.05
989.92	210.36
990.22	210.12
990.51	210.14
990.80	209.88
991.09	209.83
991.38	210.26
991.67	210.12
991.96	209.90
992.25	209.71
992.54	209.10
992.83	209.38
993.12	209.40
993.41	209.69
993.70	210.57
993.99	210.95
994.28	211.43
994.58	211.90
994.87	211.79
995.16	211.64
995.45	211.67
995.74	211.07
996.03	211.67
996.32	212.00
996.61	212.33
996.90	212.38
997.19	212.12
997.48	211.98
997.77	211.88
998.06	211.81
998.34	211.48
998.63	211.60
998.92	211.38
999.21	211.74
999.50	211.55
999.79	210.83
1000.08	210.60
1000.37	210.31
1000.66	209.88
1000.95	210.21
1001.24	210.43
1001.53	210.50
1001.82	210.48
1002.11	210.00
1002.40	209.98
1002.68	210.45
1002.97	211.86
1003.26	211.76
1003.55	211.74
1003.84	211.90
1004.13	212.81
1004.42	212.90
1004.71	212.71
1004.99	212.79
1005.28	213.17
1005.57	213.24
1005.86	213.19
1006.15	213.29
1006.44	213.02
1006.72	213.19
1007.01	213.00
1007.30	212.93
1007.59	212.74
1007.88	212.79
1008.17	213.17
1008.45	212.69
1008.74	211.93
1009.03	211.12
1009.32	211.21
1009.60	211.00
1009.89	210.74
1010.18	210.00
1010.47	209.86
1010.76	209.95
1011.04	209.93
1011.33	210.19
1011.62	210.31
1011.91	210.45
1012.19	210.45
1012.48	210.55
1012.77	210.57
1013.05	211.55
1013.34	211.79
1013.63	211.71
1013.92	211.90
1014.20	211.43
1014.49	211.57
1014.78	211.74
1015.06	210.93
1015.35	210.90
1015.64	211.29
1015.92	211.67
1016.21	211.64
1016.50	211.64
1016.78	211.98
1017.07	212.12
1017.36	211.52
1017.64	211.21
1017.93	211.26
1018.22	210.98
1018.50	210.95
1018.79	210.76
1019.08	209.81
1019.36	209.79
1019.65	209.90
1019.93	210.55
1020.22	210.76
1020.51	211.90
1020.79	211.52
1021.08	208.50
1021.36	206.00
1021.65	207.00
1021.94	212.00
1022.22	210.50
1022.51	212.50
1022.79	224.50
1023.08	208.50
1023.36	235.00
1023.65	202.50
>>>>>End Processed Spectral Data<<<<<
