SpectraSuite Data File
++++++++++++++++++++++++++++++++++++
Date: Tue Apr 02 18:41:23 EDT 2013
User: group
Dark Spectrum Present: No
Reference Spectrum Present: No
Number of Sampled Component Spectra: 1
Spectrometers: USB2E7196
Integration Time (usec): 580000 (USB2E7196)
Spectra Averaged: 2 (USB2E7196)
Boxcar Smoothing: 10 (USB2E7196)
Correct for Electrical Dark: No (USB2E7196)
Strobe/Lamp Enabled: No (USB2E7196)
Correct for Detector Non-linearity: No (USB2E7196)
Correct for Stray Light: No (USB2E7196)
Number of Pixels in Processed Spectrum: 2048
>>>>>Begin Processed Spectral Data<<<<<
339.09	0.00
339.48	196.00
339.86	192.50
340.24	197.00
340.63	194.50
341.01	233.50
341.39	199.50
341.78	203.50
342.16	212.00
342.54	208.00
342.93	197.79
343.31	207.79
343.69	208.29
344.07	208.93
344.46	209.69
344.84	210.40
345.22	208.90
345.60	209.36
345.99	209.62
346.37	209.48
346.75	209.57
347.13	209.81
347.52	210.17
347.90	210.83
348.28	210.81
348.66	211.62
349.05	210.93
349.43	211.12
349.81	211.26
350.19	211.50
350.57	211.74
350.96	212.00
351.34	212.12
351.72	212.29
352.10	212.55
352.48	212.45
352.87	212.38
353.25	212.64
353.63	212.64
354.01	212.88
354.39	213.00
354.77	213.02
355.15	213.55
355.54	213.36
355.92	212.90
356.30	212.79
356.68	213.88
357.06	214.17
357.44	213.98
357.82	214.12
358.20	214.95
358.58	214.69
358.97	214.62
359.35	214.86
359.73	215.26
360.11	215.38
360.49	215.38
360.87	215.38
361.25	215.74
361.63	216.57
362.01	216.48
362.39	216.24
362.77	216.21
363.15	216.10
363.53	216.05
363.91	216.24
364.29	216.33
364.67	214.33
365.05	214.43
365.43	214.67
365.81	214.76
366.19	215.00
366.57	215.60
366.95	215.31
367.33	215.02
367.71	214.98
368.09	214.93
368.47	214.95
368.85	215.00
369.23	215.52
369.61	214.71
369.99	215.57
370.37	216.14
370.75	217.24
371.13	216.83
371.51	216.48
371.89	216.45
372.27	216.71
372.65	216.83
373.03	216.71
373.41	216.40
373.78	216.17
374.16	215.07
374.54	214.55
374.92	214.69
375.30	214.55
375.68	214.10
376.06	214.40
376.44	214.26
376.82	214.45
377.19	214.10
377.57	214.02
377.95	213.29
378.33	212.90
378.71	211.81
379.09	212.07
379.47	212.26
379.84	212.14
380.22	211.60
380.60	211.40
380.98	211.36
381.36	211.52
381.73	211.38
382.11	211.69
382.49	211.69
382.87	211.45
383.25	211.60
383.62	214.17
384.00	213.60
384.38	213.98
384.76	214.36
385.13	215.36
385.51	215.40
385.89	215.12
386.27	215.43
386.64	215.74
387.02	215.74
387.40	215.88
387.78	216.14
388.15	216.64
388.53	216.60
388.91	216.86
389.29	216.52
389.66	216.83
390.04	216.48
390.42	217.26
390.79	217.43
391.17	217.36
391.55	215.00
391.92	215.17
392.30	215.12
392.68	214.60
393.05	214.17
393.43	214.21
393.81	214.24
394.18	214.02
394.56	214.07
394.94	214.55
395.31	214.45
395.69	214.98
396.06	215.19
396.44	215.52
396.82	215.21
397.19	216.38
397.57	216.12
397.95	216.57
398.32	215.74
398.70	215.98
399.07	216.50
399.45	216.67
399.82	216.74
400.20	216.57
400.58	216.57
400.95	215.90
401.33	216.36
401.70	218.02
402.08	218.07
402.45	218.14
402.83	218.50
403.20	218.71
403.58	218.62
403.95	218.95
404.33	219.31
404.71	219.69
405.08	220.81
405.46	221.19
405.83	221.52
406.21	221.74
406.58	222.02
406.96	222.38
407.33	222.88
407.70	223.55
408.08	225.88
408.45	226.81
408.83	227.95
409.20	228.38
409.58	228.05
409.95	229.21
410.33	230.10
410.70	230.24
411.08	231.48
411.45	232.57
411.82	233.55
412.20	235.02
412.57	237.62
412.95	237.12
413.32	239.00
413.69	240.36
414.07	242.21
414.44	244.02
414.82	245.93
415.19	248.36
415.56	250.79
415.94	251.88
416.31	255.21
416.68	258.02
417.06	261.74
417.43	265.29
417.81	268.88
418.18	272.95
418.55	276.98
418.93	280.74
419.30	284.50
419.67	288.88
420.04	293.52
420.42	297.55
420.79	305.24
421.16	310.90
421.54	317.88
421.91	324.50
422.28	330.79
422.66	337.60
423.03	345.45
423.40	352.55
423.77	360.12
424.15	366.93
424.52	374.86
424.89	383.40
425.26	390.60
425.64	398.17
426.01	406.69
426.38	416.02
426.75	426.17
427.13	436.10
427.50	445.95
427.87	455.95
428.24	465.88
428.61	474.60
428.99	485.95
429.36	496.86
429.73	508.00
430.10	520.07
430.47	532.05
430.85	543.07
431.22	556.02
431.59	571.12
431.96	584.60
432.33	599.43
432.70	613.64
433.08	630.52
433.45	646.43
433.82	661.57
434.19	678.74
434.56	695.62
434.93	711.69
435.30	728.45
435.68	746.76
436.05	765.55
436.42	782.90
436.79	798.88
437.16	817.12
437.53	835.79
437.90	854.17
438.27	872.36
438.64	890.55
439.01	908.12
439.38	922.57
439.75	937.50
440.13	954.93
440.50	970.83
440.87	984.33
441.24	998.05
441.61	1013.69
441.98	1024.57
442.35	1037.10
442.72	1050.38
443.09	1064.05
443.46	1071.98
443.83	1077.14
444.20	1082.19
444.57	1088.69
444.94	1091.76
445.31	1095.26
445.68	1101.02
446.05	1102.60
446.42	1102.12
446.79	1100.90
447.16	1098.45
447.53	1097.76
447.90	1091.74
448.27	1085.33
448.64	1076.12
449.01	1069.95
449.37	1058.21
449.74	1046.79
450.11	1035.24
450.48	1020.67
450.85	1004.67
451.22	991.83
451.59	979.26
451.96	967.05
452.33	951.43
452.70	936.90
453.07	919.26
453.43	898.86
453.80	881.76
454.17	865.05
454.54	848.83
454.91	832.57
455.28	815.64
455.65	799.14
456.02	787.00
456.38	774.02
456.75	758.00
457.12	744.38
457.49	731.69
457.86	716.38
458.23	705.57
458.59	692.98
458.96	680.19
459.33	669.33
459.70	659.00
460.07	650.14
460.43	639.71
460.80	631.19
461.17	623.83
461.54	615.64
461.91	607.69
462.27	599.43
462.64	591.98
463.01	584.50
463.38	577.24
463.74	566.64
464.11	560.10
464.48	554.31
464.85	547.64
465.21	543.29
465.58	538.12
465.95	531.40
466.32	526.14
466.68	520.98
467.05	515.57
467.42	510.24
467.78	504.69
468.15	499.81
468.52	495.60
468.88	489.90
469.25	484.88
469.62	481.19
469.98	477.19
470.35	473.40
470.72	469.50
471.08	465.21
471.45	461.88
471.82	458.86
472.18	454.83
472.55	452.10
472.92	448.29
473.28	445.55
473.65	442.98
474.02	440.07
474.38	438.21
474.75	436.10
475.11	433.52
475.48	431.81
475.85	430.19
476.21	428.33
476.58	426.93
476.94	425.81
477.31	424.29
477.67	423.43
478.04	422.48
478.41	421.79
478.77	423.07
479.14	422.00
479.50	421.50
479.87	421.33
480.23	421.52
480.60	421.14
480.96	421.14
481.33	421.83
481.69	422.10
482.06	422.00
482.42	422.55
482.79	423.19
483.15	423.69
483.52	424.71
483.88	425.17
484.25	425.93
484.61	427.10
484.98	427.93
485.34	429.31
485.71	430.79
486.07	432.07
486.44	432.19
486.80	433.98
487.17	435.24
487.53	437.74
487.90	439.62
488.26	442.83
488.62	445.95
488.99	447.60
489.35	450.64
489.72	453.26
490.08	455.52
490.44	458.14
490.81	461.31
491.17	464.29
491.54	467.95
491.90	471.57
492.26	474.95
492.63	478.60
492.99	481.79
493.36	485.69
493.72	490.31
494.08	494.76
494.45	499.74
494.81	505.07
495.17	509.57
495.54	515.36
495.90	519.81
496.26	524.40
496.63	530.07
496.99	535.21
497.35	541.31
497.72	547.79
498.08	554.05
498.44	560.45
498.80	566.83
499.17	573.02
499.53	579.38
499.89	585.83
500.26	593.02
500.62	600.02
500.98	607.21
501.34	614.02
501.71	620.98
502.07	627.88
502.43	634.98
502.79	642.24
503.16	648.86
503.52	656.43
503.88	663.95
504.24	671.55
504.60	679.64
504.97	687.38
505.33	694.67
505.69	702.76
506.05	710.24
506.41	717.74
506.78	725.29
507.14	732.95
507.50	740.81
507.86	748.26
508.22	756.14
508.59	763.67
508.95	772.00
509.31	780.90
509.67	789.02
510.03	797.10
510.39	805.40
510.75	814.10
511.12	822.38
511.48	830.67
511.84	838.31
512.20	846.64
512.56	854.29
512.92	862.31
513.28	870.12
513.64	878.17
514.00	886.31
514.37	894.81
514.73	902.95
515.09	911.10
515.45	918.69
515.81	926.29
516.17	934.21
516.53	940.98
516.89	947.31
517.25	954.17
517.61	961.64
517.97	968.29
518.33	974.50
518.69	981.05
519.05	988.10
519.41	994.93
519.77	1002.26
520.13	1008.38
520.49	1014.45
520.85	1020.67
521.21	1027.38
521.57	1032.76
521.93	1037.60
522.29	1042.81
522.65	1048.48
523.01	1054.57
523.37	1060.10
523.73	1064.98
524.09	1070.88
524.45	1076.05
524.81	1080.83
525.17	1085.21
525.53	1090.02
525.89	1094.98
526.25	1099.95
526.61	1103.88
526.97	1108.55
527.33	1112.21
527.68	1118.45
528.04	1123.02
528.40	1127.00
528.76	1130.98
529.12	1135.93
529.48	1142.07
529.84	1147.93
530.20	1152.48
530.56	1157.05
530.91	1161.60
531.27	1167.00
531.63	1171.31
531.99	1175.45
532.35	1180.76
532.71	1185.07
533.07	1189.86
533.42	1195.60
533.78	1199.33
534.14	1204.45
534.50	1208.86
534.86	1212.90
535.21	1215.50
535.57	1220.52
535.93	1224.71
536.29	1229.62
536.65	1234.33
537.00	1237.17
537.36	1239.74
537.72	1243.52
538.08	1247.40
538.44	1250.90
538.79	1254.67
539.15	1257.71
539.51	1261.55
539.87	1264.98
540.22	1268.57
540.58	1272.00
540.94	1274.62
541.29	1278.31
541.65	1281.12
542.01	1284.90
542.37	1288.79
542.72	1292.05
543.08	1294.90
543.44	1298.45
543.79	1300.88
544.15	1304.05
544.51	1307.90
544.87	1311.95
545.22	1315.67
545.58	1319.05
545.94	1322.52
546.29	1325.62
546.65	1329.33
547.01	1331.57
547.36	1334.38
547.72	1337.98
548.07	1341.76
548.43	1343.76
548.79	1345.98
549.14	1348.24
549.50	1351.43
549.86	1354.17
550.21	1358.07
550.57	1361.40
550.92	1363.95
551.28	1367.71
551.64	1371.17
551.99	1374.81
552.35	1377.95
552.70	1380.45
553.06	1384.26
553.41	1387.67
553.77	1391.81
554.13	1395.95
554.48	1402.00
554.84	1407.43
555.19	1411.36
555.55	1415.55
555.90	1420.69
556.26	1426.26
556.61	1430.71
556.97	1433.64
557.32	1437.26
557.68	1441.40
558.03	1446.07
558.39	1451.26
558.74	1455.71
559.10	1459.67
559.45	1464.10
559.81	1468.19
560.16	1472.90
560.52	1477.12
560.87	1481.88
561.23	1485.90
561.58	1492.05
561.94	1496.29
562.29	1500.12
562.64	1505.24
563.00	1509.60
563.35	1514.50
563.71	1519.48
564.06	1525.40
564.42	1531.33
564.77	1538.05
565.12	1544.21
565.48	1551.60
565.83	1557.52
566.19	1562.62
566.54	1568.02
566.89	1573.57
567.25	1580.14
567.60	1587.14
567.96	1594.74
568.31	1601.57
568.66	1607.62
569.02	1611.48
569.37	1615.52
569.72	1621.43
570.08	1626.10
570.43	1631.57
570.78	1637.55
571.14	1642.43
571.49	1646.95
571.84	1652.00
572.20	1655.76
572.55	1659.90
572.90	1662.95
573.26	1666.81
573.61	1671.57
573.96	1676.26
574.31	1680.43
574.67	1684.76
575.02	1688.10
575.37	1689.74
575.72	1692.48
576.08	1696.45
576.43	1699.60
576.78	1703.69
577.13	1706.64
577.49	1710.33
577.84	1713.93
578.19	1717.02
578.54	1721.07
578.90	1724.88
579.25	1728.55
579.60	1731.81
579.95	1734.33
580.30	1737.00
580.66	1740.83
581.01	1743.86
581.36	1746.43
581.71	1748.52
582.06	1750.98
582.42	1753.93
582.77	1756.55
583.12	1759.45
583.47	1761.21
583.82	1763.88
584.17	1766.38
584.53	1769.38
584.88	1772.07
585.23	1774.69
585.58	1775.07
585.93	1776.50
586.28	1778.98
586.63	1780.12
586.98	1782.43
587.34	1784.86
587.69	1785.64
588.04	1786.69
588.39	1787.76
588.74	1787.79
589.09	1789.98
589.44	1790.40
589.79	1790.86
590.14	1792.31
590.49	1792.64
590.84	1793.02
591.19	1794.88
591.54	1796.38
591.89	1796.71
592.25	1798.79
592.60	1798.10
592.95	1799.79
593.30	1800.79
593.65	1799.62
594.00	1799.60
594.35	1804.67
594.70	1804.19
595.05	1805.71
595.40	1805.69
595.75	1806.00
596.10	1807.17
596.45	1806.62
596.80	1807.40
597.15	1808.31
597.50	1808.07
597.85	1809.26
598.19	1808.81
598.54	1807.19
598.89	1806.40
599.24	1806.43
599.59	1804.93
599.94	1804.24
600.29	1804.05
600.64	1802.74
600.99	1803.05
601.34	1803.83
601.69	1798.48
602.04	1797.79
602.39	1795.90
602.74	1795.52
603.08	1793.71
603.43	1794.00
603.78	1792.90
604.13	1791.33
604.48	1788.90
604.83	1787.60
605.18	1786.19
605.53	1785.50
605.87	1784.38
606.22	1782.67
606.57	1780.45
606.92	1778.26
607.27	1777.24
607.62	1775.10
607.96	1772.52
608.31	1770.93
608.66	1768.50
609.01	1765.83
609.36	1764.17
609.70	1761.86
610.05	1758.62
610.40	1756.02
610.75	1751.76
611.10	1749.40
611.44	1745.60
611.79	1742.62
612.14	1739.19
612.49	1734.48
612.83	1730.83
613.18	1727.45
613.53	1723.05
613.88	1718.24
614.22	1714.05
614.57	1709.17
614.92	1704.93
615.27	1701.17
615.61	1695.83
615.96	1691.36
616.31	1686.83
616.65	1683.31
617.00	1679.10
617.35	1675.26
617.70	1670.29
618.04	1665.90
618.39	1660.93
618.74	1657.69
619.08	1652.74
619.43	1648.50
619.78	1643.14
620.12	1638.98
620.47	1633.86
620.82	1629.29
621.16	1624.62
621.51	1620.17
621.85	1615.40
622.20	1610.64
622.55	1605.55
622.89	1601.36
623.24	1597.31
623.59	1592.45
623.93	1586.93
624.28	1582.10
624.62	1578.86
624.97	1576.00
625.32	1571.67
625.66	1566.90
626.01	1561.52
626.35	1558.02
626.70	1553.29
627.04	1550.26
627.39	1544.71
627.73	1541.05
628.08	1536.81
628.43	1532.67
628.77	1527.79
629.12	1524.62
629.46	1520.21
629.81	1515.07
630.15	1509.79
630.50	1503.64
630.84	1497.81
631.19	1491.95
631.53	1486.52
631.88	1478.26
632.22	1471.98
632.57	1467.33
632.91	1461.69
633.26	1455.71
633.60	1448.50
633.95	1442.36
634.29	1436.07
634.64	1430.76
634.98	1424.86
635.32	1420.26
635.67	1416.00
636.01	1410.98
636.36	1403.67
636.70	1397.67
637.05	1393.67
637.39	1388.79
637.73	1384.21
638.08	1380.36
638.42	1375.29
638.77	1370.00
639.11	1365.50
639.45	1359.57
639.80	1351.93
640.14	1346.12
640.49	1340.57
640.83	1335.05
641.17	1329.55
641.52	1323.64
641.86	1318.38
642.20	1312.83
642.55	1305.19
642.89	1298.10
643.23	1290.50
643.58	1285.60
643.92	1278.45
644.26	1270.64
644.61	1264.31
644.95	1257.36
645.29	1250.26
645.64	1243.81
645.98	1237.52
646.32	1231.21
646.66	1224.43
647.01	1219.02
647.35	1213.31
647.69	1207.12
648.04	1201.52
648.38	1195.02
648.72	1188.71
649.06	1181.45
649.41	1174.00
649.75	1167.81
650.09	1161.05
650.43	1155.45
650.78	1148.07
651.12	1142.64
651.46	1136.76
651.80	1129.48
652.14	1122.67
652.49	1116.52
652.83	1109.60
653.17	1102.21
653.51	1095.19
653.85	1088.71
654.20	1081.71
654.54	1074.67
654.88	1067.62
655.22	1061.21
655.56	1054.14
655.90	1047.52
656.25	1040.81
656.59	1034.74
656.93	1028.76
657.27	1023.02
657.61	1016.38
657.95	1010.76
658.29	1004.60
658.64	998.50
658.98	992.26
659.32	984.98
659.66	977.93
660.00	971.67
660.34	966.05
660.68	959.88
661.02	953.76
661.36	947.98
661.70	941.57
662.05	935.93
662.39	930.29
662.73	925.21
663.07	919.55
663.41	914.02
663.75	907.90
664.09	901.86
664.43	895.52
664.77	889.81
665.11	882.93
665.45	877.02
665.79	871.50
666.13	865.90
666.47	861.12
666.81	855.83
667.15	849.95
667.49	844.07
667.83	838.95
668.17	833.83
668.51	827.88
668.85	822.60
669.19	817.93
669.53	811.57
669.87	805.48
670.21	799.76
670.55	793.76
670.89	789.26
671.23	783.83
671.57	778.10
671.91	772.88
672.25	768.02
672.58	763.43
672.92	757.29
673.26	752.29
673.60	747.31
673.94	742.00
674.28	737.21
674.62	733.29
674.96	728.26
675.30	723.38
675.64	719.10
675.97	714.45
676.31	709.74
676.65	704.81
676.99	701.31
677.33	696.40
677.67	692.81
678.01	687.71
678.34	683.38
678.68	679.60
679.02	674.90
679.36	670.57
679.70	665.40
680.04	660.86
680.37	656.40
680.71	651.55
681.05	647.76
681.39	643.29
681.73	638.26
682.06	633.76
682.40	629.24
682.74	625.38
683.08	621.93
683.42	616.76
683.75	612.64
684.09	607.64
684.43	603.67
684.77	599.12
685.10	594.98
685.44	590.50
685.78	585.62
686.12	581.43
686.45	577.00
686.79	572.52
687.13	569.38
687.46	565.02
687.80	561.62
688.14	556.93
688.48	553.50
688.81	549.52
689.15	546.19
689.49	542.36
689.82	538.07
690.16	532.90
690.50	529.14
690.83	525.76
691.17	521.45
691.51	517.45
691.84	514.24
692.18	510.50
692.52	506.93
692.85	503.93
693.19	501.12
693.52	497.76
693.86	493.76
694.20	490.00
694.53	486.74
694.87	482.93
695.21	480.14
695.54	476.48
695.88	473.10
696.21	468.74
696.55	465.38
696.88	461.93
697.22	459.19
697.56	456.43
697.89	452.67
698.23	450.14
698.56	447.07
698.90	443.69
699.23	440.45
699.57	437.90
699.90	434.86
700.24	431.50
700.58	428.60
700.91	426.74
701.25	425.79
701.58	424.12
701.92	421.90
702.25	418.52
702.59	415.67
702.92	412.95
703.26	410.79
703.59	408.45
703.93	407.98
704.26	406.12
704.60	403.64
704.93	401.69
705.26	399.36
705.60	397.62
705.93	395.07
706.27	393.29
706.60	391.36
706.94	389.83
707.27	387.60
707.61	385.76
707.94	383.12
708.27	379.36
708.61	376.43
708.94	374.48
709.28	373.21
709.61	371.43
709.94	369.62
710.28	368.00
710.61	366.19
710.95	362.21
711.28	361.31
711.61	359.52
711.95	358.19
712.28	356.00
712.61	354.12
712.95	353.45
713.28	352.40
713.61	350.19
713.95	347.74
714.28	346.38
714.61	344.48
714.95	343.36
715.28	341.31
715.61	339.64
715.95	338.10
716.28	336.02
716.61	334.86
716.95	333.43
717.28	331.83
717.61	330.36
717.94	329.26
718.28	326.10
718.61	324.07
718.94	321.93
719.27	320.60
719.61	319.31
719.94	317.26
720.27	314.98
720.60	313.52
720.94	312.31
721.27	310.67
721.60	309.86
721.93	308.24
722.27	308.10
722.60	307.05
722.93	305.40
723.26	304.40
723.59	302.90
723.93	301.93
724.26	300.93
724.59	299.57
724.92	298.62
725.25	298.29
725.59	297.62
725.92	297.21
726.25	296.33
726.58	295.21
726.91	294.29
727.24	293.45
727.57	292.81
727.91	291.60
728.24	290.88
728.57	289.57
728.90	289.02
729.23	287.45
729.56	287.60
729.89	286.90
730.22	286.00
730.55	285.29
730.89	284.21
731.22	283.24
731.55	282.52
731.88	281.93
732.21	280.81
732.54	279.81
732.87	278.86
733.20	278.33
733.53	277.79
733.86	277.36
734.19	276.19
734.52	275.26
734.85	276.10
735.18	275.33
735.51	275.55
735.84	274.95
736.17	274.79
736.50	273.00
736.83	274.95
737.16	274.40
737.49	273.81
737.82	273.31
738.15	272.81
738.48	272.07
738.81	271.17
739.14	270.31
739.47	269.67
739.80	268.95
740.13	268.38
740.46	267.79
740.79	266.52
741.12	266.26
741.45	265.69
741.78	263.95
742.11	263.76
742.44	262.45
742.77	262.00
743.10	260.98
743.43	260.26
743.75	257.12
744.08	259.14
744.41	258.07
744.74	257.38
745.07	256.50
745.40	256.26
745.73	256.33
746.06	255.93
746.39	255.60
746.71	255.12
747.04	254.40
747.37	253.62
747.70	253.52
748.03	253.00
748.36	252.88
748.68	252.36
749.01	251.17
749.34	250.64
749.67	250.21
750.00	250.02
750.33	251.26
750.65	251.31
750.98	248.24
751.31	248.10
751.64	247.67
751.97	248.52
752.29	248.05
752.62	246.93
752.95	246.62
753.28	246.10
753.60	245.55
753.93	245.62
754.26	245.26
754.59	244.36
754.91	243.81
755.24	243.24
755.57	242.98
755.90	242.88
756.22	242.33
756.55	241.64
756.88	240.81
757.20	238.93
757.53	237.74
757.86	237.31
758.19	237.40
758.51	237.48
758.84	236.05
759.17	235.64
759.49	235.52
759.82	236.12
760.15	236.12
760.47	235.71
760.80	234.88
761.13	234.90
761.45	234.81
761.78	234.52
762.11	234.24
762.43	233.50
762.76	233.02
763.08	233.21
763.41	233.07
763.74	233.17
764.06	232.93
764.39	232.86
764.71	232.74
765.04	232.02
765.37	231.38
765.69	231.05
766.02	230.71
766.34	230.31
766.67	229.17
767.00	229.21
767.32	230.19
767.65	231.36
767.97	231.02
768.30	230.76
768.62	230.74
768.95	230.31
769.27	230.17
769.60	230.52
769.92	229.88
770.25	229.57
770.57	228.98
770.90	228.90
771.22	228.74
771.55	228.79
771.87	228.60
772.20	228.38
772.52	230.10
772.85	232.40
773.17	232.26
773.50	232.14
773.82	231.62
774.15	230.71
774.47	229.00
774.80	228.64
775.12	228.57
775.45	228.29
775.77	228.19
776.09	228.33
776.42	228.10
776.74	228.52
777.07	228.19
777.39	228.31
777.72	228.07
778.04	228.26
778.36	227.81
778.69	228.14
779.01	228.29
779.33	226.48
779.66	224.14
779.98	223.81
780.31	223.64
780.63	224.29
780.95	224.21
781.28	224.17
781.60	223.86
781.92	223.81
782.25	223.69
782.57	223.71
782.89	223.43
783.22	223.07
783.54	222.74
783.86	222.69
784.19	222.31
784.51	222.86
784.83	222.36
785.16	222.21
785.48	221.76
785.80	221.60
786.12	221.45
786.45	221.31
786.77	221.40
787.09	221.07
787.42	220.33
787.74	220.40
788.06	220.43
788.38	220.33
788.71	220.07
789.03	220.24
789.35	220.26
789.67	219.83
789.99	220.07
790.32	219.71
790.64	219.83
790.96	221.71
791.28	220.81
791.61	220.71
791.93	220.83
792.25	220.71
792.57	221.98
792.89	221.50
793.21	221.24
793.54	220.90
793.86	220.83
794.18	220.83
794.50	220.60
794.82	220.52
795.14	220.95
795.47	221.48
795.79	221.21
796.11	220.62
796.43	220.81
796.75	220.57
797.07	220.52
797.39	220.57
797.71	218.81
798.04	218.93
798.36	219.19
798.68	219.02
799.00	219.19
799.32	217.98
799.64	218.55
799.96	218.74
800.28	219.19
800.60	219.14
800.92	219.52
801.24	219.33
801.56	219.57
801.89	219.24
802.21	219.05
802.53	218.90
802.85	219.60
803.17	220.50
803.49	220.17
803.81	219.83
804.13	219.62
804.45	219.43
804.77	219.43
805.09	219.21
805.41	219.05
805.73	218.74
806.05	218.43
806.37	218.12
806.69	217.74
807.01	217.48
807.33	217.52
807.65	216.79
807.97	217.43
808.28	217.21
808.60	217.07
808.92	216.88
809.24	218.19
809.56	217.83
809.88	216.88
810.20	217.07
810.52	217.69
810.84	217.40
811.16	217.19
811.48	217.10
811.80	217.90
812.12	218.05
812.43	218.29
812.75	218.45
813.07	218.52
813.39	219.07
813.71	218.81
814.03	218.69
814.35	218.50
814.67	217.74
814.98	217.43
815.30	217.40
815.62	217.14
815.94	215.60
816.26	215.69
816.58	215.33
816.89	215.45
817.21	214.98
817.53	215.00
817.85	215.31
818.17	215.55
818.48	214.55
818.80	214.57
819.12	214.43
819.44	213.95
819.76	213.50
820.07	213.48
820.39	213.52
820.71	213.45
821.03	213.67
821.34	213.55
821.66	214.07
821.98	214.12
822.30	214.10
822.61	215.50
822.93	215.17
823.25	215.19
823.57	214.83
823.88	215.31
824.20	215.17
824.52	215.33
824.83	215.07
825.15	215.19
825.47	215.33
825.79	215.31
826.10	215.36
826.42	215.67
826.74	215.43
827.05	215.43
827.37	215.93
827.69	215.69
828.00	215.76
828.32	215.60
828.64	215.57
828.95	216.55
829.27	215.74
829.58	215.79
829.90	216.21
830.22	216.43
830.53	215.71
830.85	215.64
831.17	215.29
831.48	215.33
831.80	215.12
832.11	214.76
832.43	214.55
832.75	214.52
833.06	215.36
833.38	214.88
833.69	214.76
834.01	214.64
834.32	214.62
834.64	214.40
834.96	214.31
835.27	214.40
835.59	213.69
835.90	213.10
836.22	213.17
836.53	212.55
836.85	212.36
837.16	214.76
837.48	214.88
837.79	215.52
838.11	215.74
838.42	215.57
838.74	215.86
839.05	215.86
839.37	215.69
839.68	214.64
840.00	214.62
840.31	214.90
840.63	214.64
840.94	214.55
841.26	214.26
841.57	214.38
841.88	214.43
842.20	214.14
842.51	214.14
842.83	214.17
843.14	216.07
843.46	216.14
843.77	214.79
844.08	214.86
844.40	214.14
844.71	213.83
845.03	213.90
845.34	213.88
845.65	213.71
845.97	214.12
846.28	214.02
846.60	214.43
846.91	214.00
847.22	214.05
847.54	214.57
847.85	214.83
848.16	214.50
848.48	214.31
848.79	215.02
849.10	215.36
849.42	215.40
849.73	213.69
850.04	213.74
850.36	212.95
850.67	213.21
850.98	213.31
851.30	213.45
851.61	213.40
851.92	213.07
852.23	213.93
852.55	213.83
852.86	214.02
853.17	213.83
853.49	214.31
853.80	214.62
854.11	214.48
854.42	214.69
854.74	214.52
855.05	214.40
855.36	213.43
855.67	213.38
855.99	213.24
856.30	215.64
856.61	215.33
856.92	215.57
857.23	215.40
857.55	215.19
857.86	215.05
858.17	215.48
858.48	215.55
858.79	214.90
859.11	214.98
859.42	214.95
859.73	214.76
860.04	214.79
860.35	214.19
860.66	213.79
860.98	213.95
861.29	214.36
861.60	214.36
861.91	214.86
862.22	214.64
862.53	214.38
862.84	212.02
863.16	212.50
863.47	212.07
863.78	212.17
864.09	212.17
864.40	212.45
864.71	212.48
865.02	212.55
865.33	212.38
865.64	212.02
865.95	211.83
866.27	213.29
866.58	213.14
866.89	213.55
867.20	213.43
867.51	212.98
867.82	212.69
868.13	213.36
868.44	212.83
868.75	213.14
869.06	213.38
869.37	213.45
869.68	212.98
869.99	213.36
870.30	213.14
870.61	213.43
870.92	213.05
871.23	212.76
871.54	213.17
871.85	213.64
872.16	213.98
872.47	213.79
872.78	212.43
873.09	212.40
873.40	212.17
873.71	212.40
874.02	212.69
874.33	212.62
874.64	211.98
874.95	212.31
875.26	212.02
875.56	211.76
875.87	211.67
876.18	211.52
876.49	213.31
876.80	213.26
877.11	213.00
877.42	213.17
877.73	213.19
878.04	212.62
878.35	212.52
878.66	212.50
878.96	212.62
879.27	212.62
879.58	212.40
879.89	212.26
880.20	212.90
880.51	212.79
880.82	212.79
881.12	212.83
881.43	212.50
881.74	212.43
882.05	212.55
882.36	212.98
882.67	213.43
882.97	211.31
883.28	211.14
883.59	211.10
883.90	211.17
884.21	211.52
884.51	211.60
884.82	211.33
885.13	211.45
885.44	211.40
885.74	211.57
886.05	211.83
886.36	212.02
886.67	211.05
886.98	212.10
887.28	212.36
887.59	212.36
887.90	212.52
888.20	212.38
888.51	212.71
888.82	212.12
889.13	212.17
889.43	213.81
889.74	213.93
890.05	213.88
890.35	213.76
890.66	213.14
890.97	213.31
891.28	213.21
891.58	212.98
891.89	213.07
892.20	212.95
892.50	212.74
892.81	212.55
893.12	212.86
893.42	211.67
893.73	211.71
894.04	211.62
894.34	211.83
894.65	211.83
894.95	211.62
895.26	211.79
895.57	212.79
895.87	211.10
896.18	211.19
896.48	211.24
896.79	211.07
897.10	211.60
897.40	211.50
897.71	212.05
898.01	212.14
898.32	212.38
898.63	212.48
898.93	212.71
899.24	212.90
899.54	212.79
899.85	212.76
900.15	212.64
900.46	212.86
900.76	212.88
901.07	212.74
901.38	212.69
901.68	213.02
901.99	211.83
902.29	212.02
902.60	211.93
902.90	212.00
903.21	212.12
903.51	211.86
903.82	212.24
904.12	212.02
904.43	211.98
904.73	211.76
905.03	211.79
905.34	213.57
905.64	213.14
905.95	213.29
906.25	213.31
906.56	213.26
906.86	213.12
907.17	213.24
907.47	213.55
907.77	213.19
908.08	212.83
908.38	212.98
908.69	213.10
908.99	213.48
909.30	213.36
909.60	213.29
909.90	213.29
910.21	212.62
910.51	212.21
910.81	212.45
911.12	212.83
911.42	212.45
911.73	210.26
912.03	210.52
912.33	210.81
912.64	210.71
912.94	210.71
913.24	210.69
913.55	210.19
913.85	209.88
914.15	210.50
914.46	210.76
914.76	210.74
915.06	210.69
915.37	210.45
915.67	210.50
915.97	210.55
916.27	210.21
916.58	210.26
916.88	210.10
917.18	209.83
917.49	210.64
917.79	210.86
918.09	211.26
918.39	212.02
918.70	211.71
919.00	211.90
919.30	212.52
919.60	212.29
919.91	212.17
920.21	212.55
920.51	212.10
920.81	212.00
921.12	212.12
921.42	212.10
921.72	212.10
922.02	212.38
922.32	212.62
922.63	212.88
922.93	214.17
923.23	214.48
923.53	214.43
923.83	213.19
924.13	213.36
924.44	213.52
924.74	213.74
925.04	214.33
925.34	214.00
925.64	213.31
925.94	213.55
926.24	214.79
926.55	214.52
926.85	215.02
927.15	214.90
927.45	214.67
927.75	214.50
928.05	214.60
928.35	214.29
928.65	214.79
928.95	214.95
929.26	214.10
929.56	214.48
929.86	214.81
930.16	214.83
930.46	214.45
930.76	214.33
931.06	213.38
931.36	213.02
931.66	213.60
931.96	213.81
932.26	213.69
932.56	212.95
932.86	213.38
933.16	213.17
933.46	213.21
933.76	213.10
934.06	213.64
934.36	214.43
934.66	214.38
934.96	214.12
935.26	214.24
935.56	214.48
935.86	213.88
936.16	213.33
936.46	213.21
936.76	213.48
937.06	213.17
937.36	213.21
937.66	213.17
937.96	213.12
938.26	212.81
938.56	212.79
938.86	212.74
939.16	212.81
939.46	213.12
939.76	213.02
940.06	213.05
940.35	212.55
940.65	211.36
940.95	211.33
941.25	210.76
941.55	210.29
941.85	210.14
942.15	210.90
942.45	211.52
942.75	211.62
943.04	211.74
943.34	211.98
943.64	211.79
943.94	211.31
944.24	211.40
944.54	211.55
944.84	211.57
945.13	211.38
945.43	211.07
945.73	210.83
946.03	210.81
946.33	210.67
946.62	210.67
946.92	210.74
947.22	211.19
947.52	211.33
947.82	211.79
948.11	211.50
948.41	210.88
948.71	210.52
949.01	210.50
949.31	210.36
949.60	210.26
949.90	210.71
950.20	211.00
950.50	211.00
950.79	210.76
951.09	211.14
951.39	211.21
951.69	211.19
951.98	211.43
952.28	211.52
952.58	211.48
952.87	211.36
953.17	211.62
953.47	211.10
953.76	210.86
954.06	210.48
954.36	210.05
954.66	210.31
954.95	210.62
955.25	210.62
955.55	210.74
955.84	210.57
956.14	210.76
956.44	210.79
956.73	210.31
957.03	210.48
957.32	210.33
957.62	210.26
957.92	210.40
958.21	210.48
958.51	212.90
958.81	213.21
959.10	213.67
959.40	213.86
959.69	214.24
959.99	214.45
960.29	214.60
960.58	214.76
960.88	215.26
961.17	215.12
961.47	215.55
961.76	215.12
962.06	215.43
962.36	215.02
962.65	214.95
962.95	215.26
963.24	215.12
963.54	215.05
963.83	215.02
964.13	215.07
964.42	214.50
964.72	212.71
965.01	212.81
965.31	212.62
965.60	212.24
965.90	213.36
966.19	213.26
966.49	213.38
966.78	213.31
967.08	213.12
967.37	213.17
967.67	212.62
967.96	213.26
968.26	213.29
968.55	213.62
968.85	213.60
969.14	213.29
969.43	213.12
969.73	212.90
970.02	212.95
970.32	212.62
970.61	212.52
970.91	211.69
971.20	211.33
971.49	210.86
971.79	211.07
972.08	209.55
972.38	209.69
972.67	209.57
972.96	209.93
973.26	209.38
973.55	209.95
973.85	210.02
974.14	209.86
974.43	209.93
974.73	209.60
975.02	209.45
975.31	209.50
975.61	209.64
975.90	209.50
976.19	209.29
976.49	209.45
976.78	209.79
977.07	209.93
977.37	209.81
977.66	210.19
977.95	210.05
978.24	210.19
978.54	210.52
978.83	210.26
979.12	210.12
979.42	210.31
979.71	209.83
980.00	209.79
980.29	209.86
980.59	209.48
980.88	210.07
981.17	209.95
981.46	210.05
981.76	210.12
982.05	211.05
982.34	211.14
982.63	211.29
982.93	211.02
983.22	211.57
983.51	211.95
983.80	212.31
984.09	212.62
984.39	212.60
984.68	212.21
984.97	212.38
985.26	212.31
985.55	212.48
985.85	211.95
986.14	212.33
986.43	212.40
986.72	212.31
987.01	211.48
987.30	211.50
987.59	211.52
987.89	211.67
988.18	210.93
988.47	210.71
988.76	210.50
989.05	210.48
989.34	209.98
989.63	210.48
989.92	209.98
990.22	209.67
990.51	209.81
990.80	209.83
991.09	209.98
991.38	210.05
991.67	209.71
991.96	209.62
992.25	209.62
992.54	209.33
992.83	209.17
993.12	209.19
993.41	209.71
993.70	210.57
993.99	210.76
994.28	210.79
994.58	211.02
994.87	210.83
995.16	210.95
995.45	210.90
995.74	210.02
996.03	210.50
996.32	210.69
996.61	210.95
996.90	210.98
997.19	210.93
997.48	211.07
997.77	211.05
998.06	211.40
998.34	211.07
998.63	211.10
998.92	211.50
999.21	211.71
999.50	211.71
999.79	210.76
1000.08	210.52
1000.37	210.71
1000.66	210.60
1000.95	211.21
1001.24	211.62
1001.53	212.10
1001.82	212.36
1002.11	211.98
1002.40	212.21
1002.68	212.57
1002.97	213.83
1003.26	213.60
1003.55	213.31
1003.84	213.19
1004.13	213.69
1004.42	214.00
1004.71	214.02
1004.99	213.79
1005.28	214.19
1005.57	213.95
1005.86	213.62
1006.15	213.45
1006.44	213.12
1006.72	213.38
1007.01	212.95
1007.30	212.52
1007.59	212.21
1007.88	212.10
1008.17	211.95
1008.45	211.60
1008.74	210.83
1009.03	209.76
1009.32	209.83
1009.60	209.83
1009.89	209.95
1010.18	209.24
1010.47	209.10
1010.76	209.00
1011.04	209.12
1011.33	209.33
1011.62	209.55
1011.91	209.86
1012.19	210.05
1012.48	210.19
1012.77	210.26
1013.05	211.26
1013.34	211.29
1013.63	211.17
1013.92	210.90
1014.20	210.93
1014.49	211.00
1014.78	211.29
1015.06	210.86
1015.35	210.81
1015.64	211.14
1015.92	211.48
1016.21	211.62
1016.50	211.31
1016.78	211.45
1017.07	211.52
1017.36	210.98
1017.64	210.64
1017.93	210.93
1018.22	210.67
1018.50	210.69
1018.79	210.52
1019.08	209.33
1019.36	209.48
1019.65	209.14
1019.93	209.95
1020.22	209.93
1020.51	210.69
1020.79	210.26
1021.08	204.50
1021.36	209.00
1021.65	210.00
1021.94	206.00
1022.22	212.00
1022.51	203.50
1022.79	219.00
1023.08	207.00
1023.36	229.00
1023.65	203.50
>>>>>End Processed Spectral Data<<<<<
