SpectraSuite Data File
++++++++++++++++++++++++++++++++++++
Date: Tue Apr 02 18:40:40 EDT 2013
User: group
Dark Spectrum Present: No
Reference Spectrum Present: No
Number of Sampled Component Spectra: 1
Spectrometers: USB2E7196
Integration Time (usec): 580000 (USB2E7196)
Spectra Averaged: 2 (USB2E7196)
Boxcar Smoothing: 10 (USB2E7196)
Correct for Electrical Dark: No (USB2E7196)
Strobe/Lamp Enabled: No (USB2E7196)
Correct for Detector Non-linearity: No (USB2E7196)
Correct for Stray Light: No (USB2E7196)
Number of Pixels in Processed Spectrum: 2048
>>>>>Begin Processed Spectral Data<<<<<
339.09	0.00
339.48	195.00
339.86	193.00
340.24	200.00
340.63	198.00
341.01	233.00
341.39	202.00
341.78	203.00
342.16	208.50
342.54	204.00
342.93	198.24
343.31	208.05
343.69	208.67
344.07	209.21
344.46	209.76
344.84	210.14
345.22	208.93
345.60	209.17
345.99	209.29
346.37	209.36
346.75	209.55
347.13	209.50
347.52	209.60
347.90	210.12
348.28	210.07
348.66	210.43
349.05	209.76
349.43	209.67
349.81	209.79
350.19	209.71
350.57	209.93
350.96	209.76
351.34	210.05
351.72	210.10
352.10	210.12
352.48	209.86
352.87	209.93
353.25	209.86
353.63	209.98
354.01	210.12
354.39	210.29
354.77	210.50
355.15	211.19
355.54	211.02
355.92	210.60
356.30	210.64
356.68	211.95
357.06	212.21
357.44	211.81
357.82	211.83
358.20	212.81
358.58	212.95
358.97	213.31
359.35	213.55
359.73	214.17
360.11	214.38
360.49	214.71
360.87	214.90
361.25	215.36
361.63	216.07
362.01	216.31
362.39	216.29
362.77	216.19
363.15	215.98
363.53	216.17
363.91	216.29
364.29	216.26
364.67	214.40
365.05	214.12
365.43	214.76
365.81	214.93
366.19	215.10
366.57	215.83
366.95	216.05
367.33	215.83
367.71	215.62
368.09	216.10
368.47	216.12
368.85	216.19
369.23	216.50
369.61	215.76
369.99	216.55
370.37	216.81
370.75	218.19
371.13	217.62
371.51	217.45
371.89	217.55
372.27	217.64
372.65	217.67
373.03	217.74
373.41	217.71
373.78	217.69
374.16	216.57
374.54	215.83
374.92	215.62
375.30	215.60
375.68	215.19
376.06	215.26
376.44	215.19
376.82	215.31
377.19	214.95
377.57	215.00
377.95	214.43
378.33	214.21
378.71	212.52
379.09	213.07
379.47	213.50
379.84	213.33
380.22	213.19
380.60	213.02
380.98	213.14
381.36	212.86
381.73	212.50
382.11	213.05
382.49	213.21
382.87	212.79
383.25	212.74
383.62	215.17
384.00	214.69
384.38	214.48
384.76	214.83
385.13	215.83
385.51	215.69
385.89	215.36
386.27	215.33
386.64	216.02
387.02	215.60
387.40	215.19
387.78	215.40
388.15	215.55
388.53	215.52
388.91	215.79
389.29	215.98
389.66	216.48
390.04	216.05
390.42	216.57
390.79	216.79
391.17	216.81
391.55	214.50
391.92	214.50
392.30	214.76
392.68	214.19
393.05	214.00
393.43	214.10
393.81	214.12
394.18	213.93
394.56	213.95
394.94	214.74
395.31	214.55
395.69	215.02
396.06	215.24
396.44	215.45
396.82	215.02
397.19	216.24
397.57	215.90
397.95	216.45
398.32	215.74
398.70	215.90
399.07	216.31
399.45	216.36
399.82	216.33
400.20	216.19
400.58	216.31
400.95	215.55
401.33	216.14
401.70	217.67
402.08	217.71
402.45	217.55
402.83	217.83
403.20	218.24
403.58	218.12
403.95	218.50
404.33	218.98
404.71	219.38
405.08	220.31
405.46	220.57
405.83	220.88
406.21	221.17
406.58	221.83
406.96	221.98
407.33	222.57
407.70	223.38
408.08	225.83
408.45	226.79
408.83	228.00
409.20	228.52
409.58	228.14
409.95	229.60
410.33	230.60
410.70	231.14
411.08	232.38
411.45	233.67
411.82	234.79
412.20	236.52
412.57	238.88
412.95	238.38
413.32	240.38
413.69	241.76
414.07	243.69
414.44	245.38
414.82	247.74
415.19	250.24
415.56	252.55
415.94	253.76
416.31	256.64
416.68	259.57
417.06	262.57
417.43	266.07
417.81	269.67
418.18	273.76
418.55	277.81
418.93	282.05
419.30	286.33
419.67	290.90
420.04	295.57
420.42	300.29
420.79	307.90
421.16	313.76
421.54	320.95
421.91	327.31
422.28	333.79
422.66	340.88
423.03	349.07
423.40	356.17
423.77	363.40
424.15	370.95
424.52	379.21
424.89	388.29
425.26	396.38
425.64	404.36
426.01	412.76
426.38	422.36
426.75	431.98
427.13	441.88
427.50	452.17
427.87	462.52
428.24	472.90
428.61	481.71
428.99	493.36
429.36	504.57
429.73	516.57
430.10	528.93
430.47	540.81
430.85	552.07
431.22	565.48
431.59	581.33
431.96	594.71
432.33	609.29
432.70	624.67
433.08	641.98
433.45	657.67
433.82	673.71
434.19	691.40
434.56	709.50
434.93	725.38
435.30	742.02
435.68	760.62
436.05	778.67
436.42	796.76
436.79	813.86
437.16	832.31
437.53	850.43
437.90	869.14
438.27	888.19
438.64	907.36
439.01	925.45
439.38	940.10
439.75	955.62
440.13	973.17
440.50	988.83
440.87	1002.29
441.24	1016.64
441.61	1032.43
441.98	1043.43
442.35	1055.76
442.72	1069.60
443.09	1084.07
443.46	1091.74
443.83	1097.43
444.20	1102.33
444.57	1108.19
444.94	1111.14
445.31	1115.21
445.68	1121.05
446.05	1122.76
446.42	1121.52
446.79	1120.38
447.16	1118.52
447.53	1117.74
447.90	1111.31
448.27	1104.31
448.64	1095.10
449.01	1088.64
449.37	1076.74
449.74	1065.90
450.11	1054.26
450.48	1038.81
450.85	1021.48
451.22	1008.33
451.59	995.83
451.96	983.50
452.33	967.45
452.70	952.64
453.07	935.02
453.43	914.50
453.80	896.57
454.17	879.60
454.54	862.69
454.91	845.07
455.28	827.69
455.65	811.62
456.02	799.69
456.38	786.02
456.75	769.79
457.12	755.86
457.49	741.90
457.86	726.74
458.23	716.79
458.59	704.90
458.96	692.26
459.33	680.50
459.70	669.33
460.07	660.17
460.43	650.02
460.80	640.62
461.17	632.60
461.54	623.74
461.91	615.21
462.27	606.71
462.64	599.88
463.01	592.17
463.38	585.60
463.74	574.29
464.11	567.57
464.48	561.36
464.85	554.64
465.21	549.64
465.58	544.38
465.95	536.93
466.32	531.29
466.68	525.86
467.05	520.71
467.42	515.62
467.78	510.43
468.15	505.02
468.52	501.50
468.88	495.71
469.25	491.29
469.62	488.12
469.98	484.07
470.35	480.14
470.72	476.36
471.08	471.38
471.45	468.79
471.82	465.98
472.18	462.00
472.55	459.24
472.92	455.57
473.28	452.26
473.65	449.62
474.02	446.60
474.38	444.36
474.75	442.69
475.11	440.19
475.48	438.33
475.85	436.38
476.21	434.14
476.58	433.02
476.94	431.45
477.31	429.45
477.67	428.55
478.04	427.45
478.41	426.71
478.77	428.14
479.14	426.48
479.50	425.62
479.87	425.50
480.23	425.24
480.60	424.69
480.96	424.74
481.33	425.45
481.69	425.64
482.06	425.71
482.42	425.90
482.79	426.21
483.15	426.69
483.52	427.86
483.88	428.64
484.25	429.10
484.61	430.10
484.98	430.76
485.34	432.52
485.71	433.88
486.07	435.05
486.44	434.76
486.80	436.76
487.17	438.48
487.53	441.17
487.90	443.10
488.26	446.45
488.62	449.14
488.99	451.02
489.35	454.12
489.72	457.07
490.08	459.88
490.44	462.98
490.81	466.14
491.17	469.05
491.54	472.55
491.90	476.52
492.26	480.26
492.63	484.50
492.99	487.43
493.36	491.88
493.72	497.00
494.08	501.50
494.45	506.55
494.81	511.81
495.17	516.02
495.54	521.52
495.90	526.10
496.26	531.29
496.63	536.86
496.99	542.24
497.35	548.02
497.72	554.07
498.08	560.00
498.44	566.33
498.80	573.38
499.17	579.79
499.53	586.33
499.89	593.48
500.26	600.69
500.62	607.86
500.98	615.19
501.34	622.26
501.71	630.05
502.07	637.45
502.43	644.14
502.79	651.76
503.16	659.19
503.52	667.29
503.88	675.24
504.24	682.79
504.60	690.93
504.97	699.21
505.33	707.26
505.69	716.26
506.05	724.29
506.41	732.26
506.78	740.57
507.14	748.10
507.50	756.55
507.86	764.95
508.22	773.76
508.59	781.19
508.95	789.93
509.31	798.52
509.67	806.71
510.03	815.55
510.39	823.76
510.75	832.00
511.12	839.74
511.48	848.55
511.84	856.83
512.20	865.36
512.56	874.19
512.92	882.31
513.28	890.07
513.64	898.07
514.00	905.95
514.37	913.19
514.73	921.88
515.09	929.67
515.45	937.33
515.81	944.83
516.17	952.98
516.53	959.45
516.89	965.45
517.25	973.21
517.61	980.98
517.97	988.31
518.33	995.62
518.69	1003.38
519.05	1009.45
519.41	1017.05
519.77	1024.48
520.13	1030.81
520.49	1037.36
520.85	1043.81
521.21	1051.12
521.57	1057.55
521.93	1064.29
522.29	1070.62
522.65	1076.05
523.01	1082.57
523.37	1088.17
523.73	1093.02
524.09	1099.38
524.45	1105.38
524.81	1109.60
525.17	1115.05
525.53	1120.55
525.89	1125.74
526.25	1131.79
526.61	1137.00
526.97	1141.45
527.33	1146.14
527.68	1152.31
528.04	1156.95
528.40	1161.69
528.76	1166.21
529.12	1170.76
529.48	1176.40
529.84	1180.52
530.20	1185.88
530.56	1190.90
530.91	1195.95
531.27	1202.36
531.63	1207.14
531.99	1211.64
532.35	1217.62
532.71	1221.64
533.07	1227.14
533.42	1234.60
533.78	1238.52
534.14	1243.81
534.50	1248.29
534.86	1253.10
535.21	1256.10
535.57	1261.88
535.93	1265.69
536.29	1271.31
536.65	1276.02
537.00	1279.14
537.36	1284.10
537.72	1288.40
538.08	1291.95
538.44	1296.00
538.79	1299.57
539.15	1303.00
539.51	1307.81
539.87	1311.26
540.22	1315.62
540.58	1319.24
540.94	1321.36
541.29	1324.60
541.65	1327.81
542.01	1332.19
542.37	1335.33
542.72	1337.88
543.08	1341.17
543.44	1345.76
543.79	1347.83
544.15	1352.40
544.51	1357.24
544.87	1360.52
545.22	1363.88
545.58	1367.45
545.94	1371.10
546.29	1374.67
546.65	1378.79
547.01	1381.67
547.36	1385.74
547.72	1388.81
548.07	1391.55
548.43	1394.40
548.79	1398.02
549.14	1401.50
549.50	1405.57
549.86	1408.36
550.21	1412.67
550.57	1415.74
550.92	1418.67
551.28	1422.29
551.64	1425.33
551.99	1428.36
552.35	1431.88
552.70	1435.10
553.06	1439.24
553.41	1442.48
553.77	1447.40
554.13	1451.52
554.48	1456.69
554.84	1461.57
555.19	1466.24
555.55	1472.19
555.90	1477.00
556.26	1481.83
556.61	1485.93
556.97	1488.83
557.32	1493.50
557.68	1498.62
558.03	1503.21
558.39	1507.57
558.74	1512.21
559.10	1516.93
559.45	1521.12
559.81	1525.50
560.16	1529.93
560.52	1534.45
560.87	1540.02
561.23	1543.74
561.58	1549.81
561.94	1553.83
562.29	1557.67
562.64	1562.10
563.00	1566.62
563.35	1570.71
563.71	1575.24
564.06	1580.33
564.42	1586.36
564.77	1592.29
565.12	1597.81
565.48	1604.62
565.83	1610.81
566.19	1616.14
566.54	1621.50
566.89	1627.26
567.25	1634.05
567.60	1641.64
567.96	1649.45
568.31	1655.90
568.66	1662.24
569.02	1665.71
569.37	1670.67
569.72	1675.79
570.08	1681.29
570.43	1685.43
570.78	1690.48
571.14	1695.38
571.49	1700.17
571.84	1704.55
572.20	1708.57
572.55	1712.81
572.90	1715.55
573.26	1719.50
573.61	1723.45
573.96	1727.26
574.31	1731.36
574.67	1734.36
575.02	1736.17
575.37	1736.83
575.72	1738.38
576.08	1740.71
576.43	1743.60
576.78	1746.88
577.13	1749.88
577.49	1752.12
577.84	1753.67
578.19	1756.88
578.54	1760.45
578.90	1763.76
579.25	1765.98
579.60	1768.26
579.95	1770.10
580.30	1772.83
580.66	1775.62
581.01	1778.29
581.36	1779.67
581.71	1781.71
582.06	1784.33
582.42	1787.31
582.77	1788.74
583.12	1791.52
583.47	1793.52
583.82	1795.98
584.17	1798.36
584.53	1800.31
584.88	1802.67
585.23	1805.29
585.58	1806.07
585.93	1805.36
586.28	1806.19
586.63	1808.48
586.98	1809.71
587.34	1812.14
587.69	1812.95
588.04	1813.86
588.39	1814.95
588.74	1814.55
589.09	1815.64
589.44	1815.79
589.79	1816.29
590.14	1817.00
590.49	1816.81
590.84	1816.33
591.19	1816.69
591.54	1816.19
591.89	1814.60
592.25	1816.14
592.60	1815.88
592.95	1815.76
593.30	1817.31
593.65	1817.45
594.00	1816.14
594.35	1821.45
594.70	1818.74
595.05	1817.88
595.40	1816.19
595.75	1814.31
596.10	1814.64
596.45	1813.21
596.80	1811.88
597.15	1810.74
597.50	1809.98
597.85	1809.98
598.19	1809.14
598.54	1807.40
598.89	1806.29
599.24	1807.17
599.59	1803.83
599.94	1802.74
600.29	1802.17
600.64	1800.57
600.99	1798.55
601.34	1797.02
601.69	1790.05
602.04	1788.02
602.39	1785.95
602.74	1784.98
603.08	1783.40
603.43	1782.62
603.78	1781.74
604.13	1779.67
604.48	1776.83
604.83	1775.45
605.18	1772.93
605.53	1770.40
605.87	1767.62
606.22	1765.43
606.57	1762.38
606.92	1759.26
607.27	1756.74
607.62	1753.76
607.96	1751.31
608.31	1749.21
608.66	1746.71
609.01	1742.57
609.36	1742.12
609.70	1739.33
610.05	1735.88
610.40	1733.33
610.75	1728.81
611.10	1724.98
611.44	1720.98
611.79	1717.12
612.14	1712.79
612.49	1707.81
612.83	1704.12
613.18	1700.64
613.53	1695.98
613.88	1690.43
614.22	1686.57
614.57	1682.02
614.92	1677.14
615.27	1671.81
615.61	1666.14
615.96	1660.31
616.31	1656.14
616.65	1650.71
617.00	1646.52
617.35	1641.50
617.70	1635.67
618.04	1630.95
618.39	1624.74
618.74	1620.10
619.08	1615.45
619.43	1610.81
619.78	1606.10
620.12	1601.95
620.47	1596.64
620.82	1591.10
621.16	1585.88
621.51	1581.60
621.85	1575.64
622.20	1569.93
622.55	1563.48
622.89	1558.40
623.24	1554.64
623.59	1548.86
623.93	1543.31
624.28	1537.67
624.62	1534.60
624.97	1530.81
625.32	1526.48
625.66	1522.10
626.01	1516.76
626.35	1512.60
626.70	1507.19
627.04	1503.45
627.39	1497.98
627.73	1493.45
628.08	1488.93
628.43	1484.74
628.77	1478.90
629.12	1474.29
629.46	1470.10
629.81	1466.55
630.15	1460.98
630.50	1454.93
630.84	1449.10
631.19	1442.98
631.53	1437.31
631.88	1428.76
632.22	1421.57
632.57	1415.69
632.91	1409.29
633.26	1403.67
633.60	1397.26
633.95	1391.07
634.29	1383.43
634.64	1376.67
634.98	1369.83
635.32	1364.38
635.67	1358.60
636.01	1352.98
636.36	1346.55
636.70	1341.43
637.05	1335.76
637.39	1330.55
637.73	1325.43
638.08	1321.60
638.42	1316.36
638.77	1311.10
639.11	1306.67
639.45	1301.83
639.80	1294.93
640.14	1289.62
640.49	1283.45
640.83	1277.21
641.17	1271.76
641.52	1266.05
641.86	1260.26
642.20	1256.26
642.55	1249.62
642.89	1243.55
643.23	1237.29
643.58	1232.52
643.92	1224.50
644.26	1217.05
644.61	1211.05
644.95	1203.86
645.29	1197.02
645.64	1191.21
645.98	1184.26
646.32	1177.98
646.66	1170.10
647.01	1163.79
647.35	1157.21
647.69	1151.17
648.04	1145.10
648.38	1138.38
648.72	1132.14
649.06	1125.79
649.41	1117.24
649.75	1110.10
650.09	1103.12
650.43	1096.19
650.78	1088.50
651.12	1082.07
651.46	1075.40
651.80	1068.62
652.14	1062.45
652.49	1056.07
652.83	1048.64
653.17	1041.52
653.51	1034.64
653.85	1028.81
654.20	1022.07
654.54	1014.76
654.88	1007.33
655.22	1000.88
655.56	994.00
655.90	987.02
656.25	980.05
656.59	974.38
656.93	968.62
657.27	963.38
657.61	956.67
657.95	951.50
658.29	945.36
658.64	940.10
658.98	932.98
659.32	926.62
659.66	920.60
660.00	914.69
660.34	908.76
660.68	901.90
661.02	896.14
661.36	890.24
661.70	885.14
662.05	880.14
662.39	874.79
662.73	869.33
663.07	865.00
663.41	860.29
663.75	854.45
664.09	848.93
664.43	842.05
664.77	837.05
665.11	830.29
665.45	824.98
665.79	819.33
666.13	814.17
666.47	808.57
666.81	803.12
667.15	797.33
667.49	792.95
667.83	789.31
668.17	784.14
668.51	779.24
668.85	773.93
669.19	769.19
669.53	762.81
669.87	757.24
670.21	751.38
670.55	745.05
670.89	740.83
671.23	735.50
671.57	730.74
671.91	726.07
672.25	721.57
672.58	717.29
672.92	712.29
673.26	707.48
673.60	702.55
673.94	697.29
674.28	692.88
674.62	688.79
674.96	683.29
675.30	678.95
675.64	674.86
675.97	670.24
676.31	665.55
676.65	661.10
676.99	657.69
677.33	653.19
677.67	649.64
678.01	644.36
678.34	640.57
678.68	636.83
679.02	631.81
679.36	627.36
679.70	622.45
680.04	617.79
680.37	613.60
680.71	609.19
681.05	605.14
681.39	600.83
681.73	595.55
682.06	591.26
682.40	586.36
682.74	581.98
683.08	578.60
683.42	574.19
683.75	570.69
684.09	565.83
684.43	562.10
684.77	557.74
685.10	553.57
685.44	548.95
685.78	544.74
686.12	540.88
686.45	537.10
686.79	533.43
687.13	530.07
687.46	526.55
687.80	524.00
688.14	520.19
688.48	516.69
688.81	513.19
689.15	510.36
689.49	506.90
689.82	503.74
690.16	499.45
690.50	496.02
690.83	492.21
691.17	488.50
691.51	484.88
691.84	481.88
692.18	478.69
692.52	476.07
692.85	473.17
693.19	471.31
693.52	468.05
693.86	464.64
694.20	461.07
694.53	458.10
694.87	454.43
695.21	451.14
695.54	448.19
695.88	444.60
696.21	440.48
696.55	437.76
696.88	434.71
697.22	431.88
697.56	429.48
697.89	426.55
698.23	424.31
698.56	421.50
698.90	418.93
699.23	416.36
699.57	413.50
699.90	410.62
700.24	406.64
700.58	404.26
700.91	402.07
701.25	401.07
701.58	399.00
701.92	397.05
702.25	394.95
702.59	392.24
702.92	390.36
703.26	388.40
703.59	386.29
703.93	385.33
704.26	383.57
704.60	381.29
704.93	379.00
705.26	376.60
705.60	374.86
705.93	372.64
706.27	371.40
706.60	369.93
706.94	368.79
707.27	366.86
707.61	364.95
707.94	363.21
708.27	360.33
708.61	357.62
708.94	355.79
709.28	354.12
709.61	352.60
709.94	351.00
710.28	349.36
710.61	347.12
710.95	344.12
711.28	343.86
711.61	341.98
711.95	341.07
712.28	339.93
712.61	338.26
712.95	337.26
713.28	336.38
713.61	334.19
713.95	332.00
714.28	330.90
714.61	329.36
714.95	327.79
715.28	326.14
715.61	325.05
715.95	323.69
716.28	321.93
716.61	320.88
716.95	319.14
717.28	317.81
717.61	316.69
717.94	315.50
718.28	312.57
718.61	311.26
718.94	309.50
719.27	307.93
719.61	306.57
719.94	304.93
720.27	302.57
720.60	301.40
720.94	300.21
721.27	298.93
721.60	298.26
721.93	297.26
722.27	296.90
722.60	295.86
722.93	294.29
723.26	293.76
723.59	292.48
723.93	291.98
724.26	290.79
724.59	290.17
724.92	288.86
725.25	288.45
725.59	288.00
725.92	287.50
726.25	286.67
726.58	286.00
726.91	285.21
727.24	284.76
727.57	283.98
727.91	283.19
728.24	282.98
728.57	281.62
728.90	280.86
729.23	279.40
729.56	279.81
729.89	278.95
730.22	278.05
730.55	277.21
730.89	276.21
731.22	275.74
731.55	274.76
731.88	274.12
732.21	273.14
732.54	272.02
732.87	271.43
733.20	270.62
733.53	269.81
733.86	269.21
734.19	268.17
734.52	267.90
734.85	268.26
735.18	267.10
735.51	267.31
735.84	266.86
736.17	266.79
736.50	264.98
736.83	266.93
737.16	266.31
737.49	265.76
737.82	265.48
738.15	265.00
738.48	264.24
738.81	263.86
739.14	262.90
739.47	262.48
739.80	261.62
740.13	261.48
740.46	260.81
740.79	259.90
741.12	259.12
741.45	258.24
741.78	256.81
742.11	256.95
742.44	255.88
742.77	255.45
743.10	254.50
743.43	254.00
743.75	251.26
744.08	253.36
744.41	252.64
744.74	251.74
745.07	250.90
745.40	251.12
745.73	251.43
746.06	251.12
746.39	250.69
746.71	250.10
747.04	249.33
747.37	248.95
747.70	249.02
748.03	248.79
748.36	248.62
748.68	248.26
749.01	247.31
749.34	247.02
749.67	246.71
750.00	246.83
750.33	248.12
750.65	248.29
750.98	245.36
751.31	245.29
751.64	245.31
751.97	246.36
752.29	245.38
752.62	244.17
752.95	243.79
753.28	243.10
753.60	243.02
753.93	243.02
754.26	242.74
754.59	241.79
754.91	241.43
755.24	241.07
755.57	240.67
755.90	240.21
756.22	239.45
756.55	238.88
756.88	238.26
757.20	236.60
757.53	235.55
757.86	235.33
758.19	235.19
758.51	234.74
758.84	232.93
759.17	232.74
759.49	232.55
759.82	233.36
760.15	233.40
760.47	232.98
760.80	232.52
761.13	232.62
761.45	232.38
761.78	232.14
762.11	231.93
762.43	231.57
762.76	231.52
763.08	231.71
763.41	231.64
763.74	231.43
764.06	231.02
764.39	230.88
764.71	230.55
765.04	230.14
765.37	229.60
765.69	229.64
766.02	229.48
766.34	229.07
766.67	228.00
767.00	228.24
767.32	229.02
767.65	230.12
767.97	229.81
768.30	229.93
768.62	229.60
768.95	229.10
769.27	228.86
769.60	229.00
769.92	228.48
770.25	227.90
770.57	227.45
770.90	227.40
771.22	226.88
771.55	226.98
771.87	226.81
772.20	226.93
772.52	228.57
772.85	230.88
773.17	230.95
773.50	230.83
773.82	230.45
774.15	229.36
774.47	227.79
774.80	227.50
775.12	227.10
775.45	226.98
775.77	227.10
776.09	227.31
776.42	227.02
776.74	227.76
777.07	227.48
777.39	227.55
777.72	227.17
778.04	227.71
778.36	227.19
778.69	227.31
779.01	227.45
779.33	225.57
779.66	223.07
779.98	222.60
780.31	222.40
780.63	222.95
780.95	223.31
781.28	223.33
781.60	222.98
781.92	222.88
782.25	222.83
782.57	222.45
782.89	222.07
783.22	221.67
783.54	221.00
783.86	221.33
784.19	220.93
784.51	221.67
784.83	221.12
785.16	220.90
785.48	220.55
785.80	220.24
786.12	220.55
786.45	220.36
786.77	220.90
787.09	220.79
787.42	220.05
787.74	219.88
788.06	219.74
788.38	219.71
788.71	219.64
789.03	219.79
789.35	220.21
789.67	220.07
789.99	220.31
790.32	220.12
790.64	220.12
790.96	221.98
791.28	221.02
791.61	221.00
791.93	221.29
792.25	221.10
792.57	222.52
792.89	221.88
793.21	222.05
793.54	221.57
793.86	221.52
794.18	221.52
794.50	221.12
794.82	221.14
795.14	221.52
795.47	221.98
795.79	221.86
796.11	221.14
796.43	220.95
796.75	221.02
797.07	220.88
797.39	220.69
797.71	219.12
798.04	219.17
798.36	219.33
798.68	219.02
799.00	219.24
799.32	218.33
799.64	218.90
799.96	219.07
800.28	219.43
800.60	219.10
800.92	219.45
801.24	219.57
801.56	219.62
801.89	219.14
802.21	219.12
802.53	218.81
802.85	219.36
803.17	220.24
803.49	219.74
803.81	219.74
804.13	219.55
804.45	219.17
804.77	219.36
805.09	219.14
805.41	219.00
805.73	218.69
806.05	218.07
806.37	217.71
806.69	217.29
807.01	216.83
807.33	216.81
807.65	215.83
807.97	216.57
808.28	216.38
808.60	216.50
808.92	216.26
809.24	217.64
809.56	217.45
809.88	216.74
810.20	216.90
810.52	217.40
810.84	217.29
811.16	217.24
811.48	217.07
811.80	217.86
812.12	217.74
812.43	218.29
812.75	218.45
813.07	218.26
813.39	218.38
813.71	218.14
814.03	218.07
814.35	218.40
814.67	217.76
814.98	217.50
815.30	217.14
815.62	216.67
815.94	215.00
816.26	214.95
816.58	214.33
816.89	214.40
817.21	213.74
817.53	213.71
817.85	213.83
818.17	213.81
818.48	213.05
818.80	213.64
819.12	213.21
819.44	212.76
819.76	212.64
820.07	212.76
820.39	213.05
820.71	213.40
821.03	213.17
821.34	212.79
821.66	213.24
821.98	213.64
822.30	213.74
822.61	215.19
822.93	214.93
823.25	215.31
823.57	215.00
823.88	215.38
824.20	215.52
824.52	215.76
824.83	215.74
825.15	215.52
825.47	215.45
825.79	215.76
826.10	215.62
826.42	215.43
826.74	215.50
827.05	215.17
827.37	215.12
827.69	215.24
828.00	215.52
828.32	215.29
828.64	214.90
828.95	215.90
829.27	215.21
829.58	215.26
829.90	215.62
830.22	215.98
830.53	215.50
830.85	215.24
831.17	214.74
831.48	214.74
831.80	214.93
832.11	214.76
832.43	214.33
832.75	214.45
833.06	215.76
833.38	215.19
833.69	215.12
834.01	215.33
834.32	214.98
834.64	214.81
834.96	214.81
835.27	214.98
835.59	214.26
835.90	213.86
836.22	214.14
836.53	213.74
836.85	213.38
837.16	215.50
837.48	215.64
837.79	216.40
838.11	216.43
838.42	216.43
838.74	216.64
839.05	216.48
839.37	216.67
839.68	215.40
840.00	215.43
840.31	215.93
840.63	215.69
840.94	215.64
841.26	215.26
841.57	215.40
841.88	215.62
842.20	215.19
842.51	214.95
842.83	214.88
843.14	216.45
843.46	216.50
843.77	215.38
844.08	215.24
844.40	214.67
844.71	214.52
845.03	214.29
845.34	214.07
845.65	214.05
845.97	213.81
846.28	214.07
846.60	214.05
846.91	213.71
847.22	213.48
847.54	214.00
847.85	214.05
848.16	213.81
848.48	213.10
848.79	214.10
849.10	214.52
849.42	214.45
849.73	212.64
850.04	212.62
850.36	211.93
850.67	211.95
850.98	211.86
851.30	212.10
851.61	211.95
851.92	211.95
852.23	212.67
852.55	213.00
852.86	212.83
853.17	213.05
853.49	213.29
853.80	213.88
854.11	214.24
854.42	214.69
854.74	214.48
855.05	214.88
855.36	213.98
855.67	214.07
855.99	214.12
856.30	216.62
856.61	216.64
856.92	216.64
857.23	216.83
857.55	216.69
857.86	216.45
858.17	217.07
858.48	216.71
858.79	216.21
859.11	216.02
859.42	215.83
859.73	215.60
860.04	215.71
860.35	215.12
860.66	214.31
860.98	214.33
861.29	214.71
861.60	214.57
861.91	215.10
862.22	214.60
862.53	214.24
862.84	212.05
863.16	212.45
863.47	212.14
863.78	211.98
864.09	212.12
864.40	212.26
864.71	211.98
865.02	212.50
865.33	212.10
865.64	211.93
865.95	212.02
866.27	213.43
866.58	213.29
866.89	213.48
867.20	213.38
867.51	213.14
867.82	212.81
868.13	213.62
868.44	212.83
868.75	213.38
869.06	213.50
869.37	213.55
869.68	212.81
869.99	213.33
870.30	213.29
870.61	213.45
870.92	213.02
871.23	212.90
871.54	213.05
871.85	213.76
872.16	213.98
872.47	213.93
872.78	212.67
873.09	212.64
873.40	212.38
873.71	212.71
874.02	212.76
874.33	212.74
874.64	212.12
874.95	212.69
875.26	212.10
875.56	212.05
875.87	211.76
876.18	211.71
876.49	213.69
876.80	213.64
877.11	213.17
877.42	213.38
877.73	213.38
878.04	212.90
878.35	212.76
878.66	212.57
878.96	212.67
879.27	212.38
879.58	212.24
879.89	212.17
880.20	212.71
880.51	212.43
880.82	212.29
881.12	212.38
881.43	211.98
881.74	211.83
882.05	211.90
882.36	212.33
882.67	212.60
882.97	210.07
883.28	210.12
883.59	210.43
883.90	210.81
884.21	211.10
884.51	211.05
884.82	210.88
885.13	211.07
885.44	210.83
885.74	211.24
886.05	211.19
886.36	211.43
886.67	210.50
886.98	211.67
887.28	211.98
887.59	211.88
887.90	211.88
888.20	211.88
888.51	212.21
888.82	211.71
889.13	211.86
889.43	213.43
889.74	213.31
890.05	213.12
890.35	212.81
890.66	212.50
890.97	212.24
891.28	211.93
891.58	211.95
891.89	211.98
892.20	211.64
892.50	211.52
892.81	211.19
893.12	211.36
893.42	210.29
893.73	210.40
894.04	210.40
894.34	210.67
894.65	211.05
894.95	210.79
895.26	210.93
895.57	211.93
895.87	210.38
896.18	210.71
896.48	210.88
896.79	210.74
897.10	211.17
897.40	211.38
897.71	211.64
898.01	211.43
898.32	211.93
898.63	211.98
898.93	212.38
899.24	212.38
899.54	212.38
899.85	212.45
900.15	212.24
900.46	212.26
900.76	212.57
901.07	212.12
901.38	212.05
901.68	212.48
901.99	211.38
902.29	211.69
902.60	211.57
902.90	211.33
903.21	211.69
903.51	211.43
903.82	211.98
904.12	212.19
904.43	212.36
904.73	211.90
905.03	212.21
905.34	214.05
905.64	214.07
905.95	213.93
906.25	213.95
906.56	213.95
906.86	214.07
907.17	213.67
907.47	213.79
907.77	213.74
908.08	213.07
908.38	213.26
908.69	213.33
908.99	213.43
909.30	213.52
909.60	213.26
909.90	213.33
910.21	212.52
910.51	212.07
910.81	212.07
911.12	212.29
911.42	211.95
911.73	209.86
912.03	210.00
912.33	210.38
912.64	210.31
912.94	210.10
913.24	209.71
913.55	209.76
913.85	209.64
914.15	209.93
914.46	210.40
914.76	210.05
915.06	209.83
915.37	209.71
915.67	209.71
915.97	209.79
916.27	209.55
916.58	209.86
916.88	209.88
917.18	209.57
917.49	210.93
917.79	210.95
918.09	211.29
918.39	211.90
918.70	211.93
919.00	211.81
919.30	212.83
919.60	212.81
919.91	212.38
920.21	212.79
920.51	212.26
920.81	212.17
921.12	212.60
921.42	212.79
921.72	212.88
922.02	213.07
922.32	213.29
922.63	213.33
922.93	214.24
923.23	214.24
923.53	214.36
923.83	213.17
924.13	213.33
924.44	213.40
924.74	213.43
925.04	213.93
925.34	214.05
925.64	213.43
925.94	213.45
926.24	214.90
926.55	214.79
926.85	215.14
927.15	215.02
927.45	215.12
927.75	214.83
928.05	214.83
928.35	214.50
928.65	214.88
928.95	214.98
929.26	214.31
929.56	214.86
929.86	215.02
930.16	214.86
930.46	214.71
930.76	214.55
931.06	213.93
931.36	213.38
931.66	213.67
931.96	213.83
932.26	213.95
932.56	213.00
932.86	213.05
933.16	213.07
933.46	212.98
933.76	212.55
934.06	213.14
934.36	213.81
934.66	213.98
934.96	213.40
935.26	213.52
935.56	213.79
935.86	213.17
936.16	212.95
936.46	212.76
936.76	212.67
937.06	212.36
937.36	212.40
937.66	212.52
937.96	212.31
938.26	211.88
938.56	211.76
938.86	211.95
939.16	212.38
939.46	212.64
939.76	212.76
940.06	212.93
940.35	212.40
940.65	211.60
940.95	211.57
941.25	211.29
941.55	211.02
941.85	210.67
942.15	211.52
942.45	212.00
942.75	212.07
943.04	212.33
943.34	212.88
943.64	212.60
943.94	212.21
944.24	212.29
944.54	212.26
944.84	212.31
945.13	212.05
945.43	211.60
945.73	211.33
946.03	211.29
946.33	210.86
946.62	210.71
946.92	210.43
947.22	210.67
947.52	210.90
947.82	211.19
948.11	211.21
948.41	210.40
948.71	210.02
949.01	210.14
949.31	209.86
949.60	209.76
949.90	210.10
950.20	209.98
950.50	210.10
950.79	210.14
951.09	210.21
951.39	210.24
951.69	210.00
951.98	210.43
952.28	210.33
952.58	210.45
952.87	210.33
953.17	210.62
953.47	210.33
953.76	210.38
954.06	210.02
954.36	209.67
954.66	209.74
954.95	210.14
955.25	210.24
955.55	210.55
955.84	210.19
956.14	210.17
956.44	210.38
956.73	209.93
957.03	210.10
957.32	210.12
957.62	209.81
957.92	210.45
958.21	210.17
958.51	212.81
958.81	212.79
959.10	213.19
959.40	213.79
959.69	213.98
959.99	214.21
960.29	214.40
960.58	214.52
960.88	215.14
961.17	214.90
961.47	214.90
961.76	214.83
962.06	215.12
962.36	214.95
962.65	215.07
962.95	215.29
963.24	214.95
963.54	214.95
963.83	215.36
964.13	214.93
964.42	214.76
964.72	212.98
965.01	213.24
965.31	213.24
965.60	212.79
965.90	214.21
966.19	213.64
966.49	213.60
966.78	213.64
967.08	213.60
967.37	213.79
967.67	213.71
967.96	213.95
968.26	214.02
968.55	214.29
968.85	214.31
969.14	214.14
969.43	214.21
969.73	214.10
970.02	213.71
970.32	213.79
970.61	213.48
970.91	212.88
971.20	212.55
971.49	212.21
971.79	212.40
972.08	210.69
972.38	210.98
972.67	210.88
972.96	211.07
973.26	210.71
973.55	210.98
973.85	210.74
974.14	210.45
974.43	210.43
974.73	210.19
975.02	209.93
975.31	209.95
975.61	209.93
975.90	209.74
976.19	209.76
976.49	209.74
976.78	209.71
977.07	209.60
977.37	210.05
977.66	210.29
977.95	209.98
978.24	210.12
978.54	210.60
978.83	210.40
979.12	210.02
979.42	209.86
979.71	209.45
980.00	209.52
980.29	209.71
980.59	209.29
980.88	209.88
981.17	209.98
981.46	210.19
981.76	210.40
982.05	210.98
982.34	211.17
982.63	211.10
982.93	211.50
983.22	212.17
983.51	212.19
983.80	212.55
984.09	212.71
984.39	212.62
984.68	212.07
984.97	212.21
985.26	212.21
985.55	212.36
985.85	211.88
986.14	212.26
986.43	212.43
986.72	212.55
987.01	211.88
987.30	211.90
987.59	211.74
987.89	211.67
988.18	211.36
988.47	210.95
988.76	210.86
989.05	210.64
989.34	210.21
989.63	210.62
989.92	210.17
990.22	209.86
990.51	210.19
990.80	210.36
991.09	210.45
991.38	210.86
991.67	210.90
991.96	211.07
992.25	210.90
992.54	210.52
992.83	210.40
993.12	210.50
993.41	210.64
993.70	211.43
993.99	211.64
994.28	211.81
994.58	212.36
994.87	212.31
995.16	212.31
995.45	212.21
995.74	211.33
996.03	211.67
996.32	212.00
996.61	212.19
996.90	211.88
997.19	211.81
997.48	211.86
997.77	211.62
998.06	211.64
998.34	211.48
998.63	211.55
998.92	211.67
999.21	211.98
999.50	212.19
999.79	211.50
1000.08	211.29
1000.37	211.31
1000.66	210.81
1000.95	211.26
1001.24	211.24
1001.53	211.33
1001.82	211.43
1002.11	210.83
1002.40	211.10
1002.68	211.29
1002.97	213.05
1003.26	212.67
1003.55	212.29
1003.84	212.60
1004.13	213.71
1004.42	213.71
1004.71	213.52
1004.99	213.45
1005.28	213.86
1005.57	213.57
1005.86	213.43
1006.15	213.57
1006.44	213.21
1006.72	213.67
1007.01	213.60
1007.30	213.76
1007.59	213.67
1007.88	213.76
1008.17	214.05
1008.45	213.43
1008.74	212.81
1009.03	211.71
1009.32	211.88
1009.60	211.57
1009.89	211.19
1010.18	209.93
1010.47	210.00
1010.76	210.07
1011.04	209.88
1011.33	210.02
1011.62	210.19
1011.91	210.38
1012.19	210.29
1012.48	210.31
1012.77	210.21
1013.05	210.81
1013.34	210.76
1013.63	210.50
1013.92	210.62
1014.20	210.31
1014.49	210.90
1014.78	211.17
1015.06	210.45
1015.35	210.43
1015.64	211.14
1015.92	211.48
1016.21	211.57
1016.50	211.38
1016.78	211.67
1017.07	211.79
1017.36	211.26
1017.64	211.07
1017.93	211.07
1018.22	210.93
1018.50	211.10
1018.79	210.98
1019.08	210.05
1019.36	210.00
1019.65	209.86
1019.93	210.14
1020.22	210.64
1020.51	211.33
1020.79	210.95
1021.08	207.00
1021.36	210.00
1021.65	209.00
1021.94	208.00
1022.22	209.50
1022.51	205.00
1022.79	217.00
1023.08	214.00
1023.36	234.50
1023.65	205.50
>>>>>End Processed Spectral Data<<<<<
