SpectraSuite Data File
++++++++++++++++++++++++++++++++++++
Date: Tue Apr 02 18:37:23 EDT 2013
User: group
Dark Spectrum Present: No
Reference Spectrum Present: No
Number of Sampled Component Spectra: 1
Spectrometers: USB2E7196
Integration Time (usec): 580000 (USB2E7196)
Spectra Averaged: 2 (USB2E7196)
Boxcar Smoothing: 10 (USB2E7196)
Correct for Electrical Dark: No (USB2E7196)
Strobe/Lamp Enabled: No (USB2E7196)
Correct for Detector Non-linearity: No (USB2E7196)
Correct for Stray Light: No (USB2E7196)
Number of Pixels in Processed Spectrum: 2048
>>>>>Begin Processed Spectral Data<<<<<
339.09	0.00
339.48	188.00
339.86	191.50
340.24	195.00
340.63	197.00
341.01	232.00
341.39	203.00
341.78	205.50
342.16	211.00
342.54	207.00
342.93	198.21
343.31	208.17
343.69	209.14
344.07	209.88
344.46	210.69
344.84	211.38
345.22	210.21
345.60	210.45
345.99	210.88
346.37	210.83
346.75	211.02
347.13	211.07
347.52	211.12
347.90	211.79
348.28	211.98
348.66	212.40
349.05	211.81
349.43	211.98
349.81	212.02
350.19	211.83
350.57	211.98
350.96	212.29
351.34	212.64
351.72	212.60
352.10	212.69
352.48	212.52
352.87	212.38
353.25	212.45
353.63	212.36
354.01	212.19
354.39	212.36
354.77	212.29
355.15	213.10
355.54	212.90
355.92	212.33
356.30	212.26
356.68	213.43
357.06	213.43
357.44	213.19
357.82	213.00
358.20	213.95
358.58	214.05
358.97	213.95
359.35	214.31
359.73	214.76
360.11	214.90
360.49	215.07
360.87	215.17
361.25	215.52
361.63	216.43
362.01	216.60
362.39	216.52
362.77	216.76
363.15	216.17
363.53	216.31
363.91	216.55
364.29	216.79
364.67	214.88
365.05	214.98
365.43	215.21
365.81	215.26
366.19	215.52
366.57	216.17
366.95	216.14
367.33	215.38
367.71	215.50
368.09	215.98
368.47	216.07
368.85	216.05
369.23	216.40
369.61	215.57
369.99	216.10
370.37	216.31
370.75	217.33
371.13	217.26
371.51	216.88
371.89	217.05
372.27	217.07
372.65	217.40
373.03	217.33
373.41	217.33
373.78	217.55
374.16	216.62
374.54	216.12
374.92	215.64
375.30	215.71
375.68	215.33
376.06	215.26
376.44	215.02
376.82	215.02
377.19	214.69
377.57	214.81
377.95	214.14
378.33	213.86
378.71	212.69
379.09	213.10
379.47	213.36
379.84	213.07
380.22	212.76
380.60	212.50
380.98	212.69
381.36	212.43
381.73	212.21
382.11	212.57
382.49	212.26
382.87	212.14
383.25	212.29
383.62	214.43
384.00	213.93
384.38	213.90
384.76	214.31
385.13	215.21
385.51	215.26
385.89	215.12
386.27	215.31
386.64	215.74
387.02	215.48
387.40	215.40
387.78	215.55
388.15	215.69
388.53	215.69
388.91	215.60
389.29	215.55
389.66	215.83
390.04	215.31
390.42	215.83
390.79	215.93
391.17	216.00
391.55	213.90
391.92	213.95
392.30	214.21
392.68	213.93
393.05	213.64
393.43	213.67
393.81	213.79
394.18	213.43
394.56	213.02
394.94	213.38
395.31	213.26
395.69	213.90
396.06	214.24
396.44	214.17
396.82	213.90
397.19	215.19
397.57	215.07
397.95	215.55
398.32	215.24
398.70	215.36
399.07	215.71
399.45	215.57
399.82	215.81
400.20	215.79
400.58	215.64
400.95	214.86
401.33	215.31
401.70	216.67
402.08	216.81
402.45	217.14
402.83	217.67
403.20	217.90
403.58	217.88
403.95	218.38
404.33	218.86
404.71	219.43
405.08	220.38
405.46	220.79
405.83	221.00
406.21	221.40
406.58	222.12
406.96	222.36
407.33	223.24
407.70	223.88
408.08	226.00
408.45	227.17
408.83	228.29
409.20	228.69
409.58	228.57
409.95	230.05
410.33	231.24
410.70	231.71
411.08	233.33
411.45	234.21
411.82	235.14
412.20	237.10
412.57	239.55
412.95	239.55
413.32	241.81
413.69	243.55
414.07	245.33
414.44	247.60
414.82	250.02
415.19	253.02
415.56	255.74
415.94	257.26
416.31	260.62
416.68	264.00
417.06	267.69
417.43	271.48
417.81	275.52
418.18	279.45
418.55	283.69
418.93	288.17
419.30	293.50
419.67	298.40
420.04	303.33
420.42	308.55
420.79	316.60
421.16	323.24
421.54	331.33
421.91	338.79
422.28	345.93
422.66	353.48
423.03	361.93
423.40	370.00
423.77	378.76
424.15	386.93
424.52	395.86
424.89	406.21
425.26	415.45
425.64	424.33
426.01	434.55
426.38	444.86
426.75	455.98
427.13	466.40
427.50	478.33
427.87	489.98
428.24	501.40
428.61	511.31
428.99	524.05
429.36	536.00
429.73	549.38
430.10	562.55
430.47	576.26
430.85	589.19
431.22	604.21
431.59	621.48
431.96	636.55
432.33	653.52
432.70	670.17
433.08	689.55
433.45	707.98
433.82	726.21
434.19	746.50
434.56	766.74
434.93	785.45
435.30	804.02
435.68	825.02
436.05	846.02
436.42	866.69
436.79	885.52
437.16	906.76
437.53	928.76
437.90	950.74
438.27	972.19
438.64	994.74
439.01	1015.17
439.38	1031.95
439.75	1049.64
440.13	1069.95
440.50	1088.95
440.87	1105.05
441.24	1121.55
441.61	1139.45
441.98	1153.36
442.35	1168.21
442.72	1184.24
443.09	1200.24
443.46	1210.14
443.83	1216.90
444.20	1222.83
444.57	1230.81
444.94	1235.48
445.31	1239.50
445.68	1245.26
446.05	1247.86
446.42	1246.64
446.79	1244.83
447.16	1243.14
447.53	1243.10
447.90	1235.48
448.27	1228.02
448.64	1217.31
449.01	1209.52
449.37	1195.71
449.74	1182.05
450.11	1167.50
450.48	1150.14
450.85	1131.98
451.22	1116.86
451.59	1102.31
451.96	1088.40
452.33	1069.79
452.70	1052.45
453.07	1031.67
453.43	1009.60
453.80	990.05
454.17	971.12
454.54	952.90
454.91	933.10
455.28	913.10
455.65	895.26
456.02	880.05
456.38	864.83
456.75	846.36
457.12	830.50
457.49	815.55
457.86	799.31
458.23	786.90
458.59	772.79
458.96	758.33
459.33	746.00
459.70	733.55
460.07	723.12
460.43	711.64
460.80	701.95
461.17	692.67
461.54	682.29
461.91	672.38
462.27	663.05
462.64	654.79
463.01	646.40
463.38	638.48
463.74	626.38
464.11	618.64
464.48	611.98
464.85	604.40
465.21	599.31
465.58	593.48
465.95	586.10
466.32	580.43
466.68	574.67
467.05	568.38
467.42	562.48
467.78	556.57
468.15	550.60
468.52	545.83
468.88	539.29
469.25	533.55
469.62	529.60
469.98	524.93
470.35	521.00
470.72	516.79
471.08	511.76
471.45	509.19
471.82	505.95
472.18	501.55
472.55	499.19
472.92	494.62
473.28	491.12
473.65	487.95
474.02	484.71
474.38	482.14
474.75	480.07
475.11	477.83
475.48	475.79
475.85	473.88
476.21	472.02
476.58	470.79
476.94	470.45
477.31	468.98
477.67	467.50
478.04	466.45
478.41	465.88
478.77	467.24
479.14	465.67
479.50	465.02
479.87	465.38
480.23	464.90
480.60	464.98
480.96	465.24
481.33	466.29
481.69	466.67
482.06	466.88
482.42	467.79
482.79	468.24
483.15	469.12
483.52	470.50
483.88	471.05
484.25	472.33
484.61	473.24
484.98	474.19
485.34	476.69
485.71	478.64
486.07	480.57
486.44	480.74
486.80	483.19
487.17	485.36
487.53	488.02
487.90	490.90
488.26	494.43
488.62	497.43
488.99	500.02
489.35	503.38
489.72	507.21
490.08	510.43
490.44	514.40
490.81	518.69
491.17	522.26
491.54	526.98
491.90	531.90
492.26	536.26
492.63	541.12
492.99	545.40
493.36	550.74
493.72	556.10
494.08	562.38
494.45	568.71
494.81	575.21
495.17	580.76
495.54	587.93
495.90	594.21
496.26	600.90
496.63	608.17
496.99	614.98
497.35	622.62
497.72	630.62
498.08	637.88
498.44	645.76
498.80	654.52
499.17	662.12
499.53	670.33
499.89	679.21
500.26	687.62
500.62	696.79
500.98	705.76
501.34	714.81
501.71	723.64
502.07	732.88
502.43	741.52
502.79	751.45
503.16	760.48
503.52	769.62
503.88	778.83
504.24	787.93
504.60	798.50
504.97	808.52
505.33	818.55
505.69	829.50
506.05	839.38
506.41	849.14
506.78	860.00
507.14	870.10
507.50	880.48
507.86	891.21
508.22	901.38
508.59	910.76
508.95	921.05
509.31	932.24
509.67	942.55
510.03	953.31
510.39	963.10
510.75	972.69
511.12	982.74
511.48	993.64
511.84	1004.12
512.20	1013.36
512.56	1023.48
512.92	1033.19
513.28	1042.57
513.64	1052.02
514.00	1061.67
514.37	1071.12
514.73	1079.50
515.09	1089.07
515.45	1097.88
515.81	1107.38
516.17	1116.05
516.53	1124.74
516.89	1132.40
517.25	1140.71
517.61	1149.38
517.97	1158.26
518.33	1167.21
518.69	1176.10
519.05	1183.93
519.41	1192.24
519.77	1201.17
520.13	1208.17
520.49	1214.98
520.85	1222.38
521.21	1230.38
521.57	1237.67
521.93	1243.45
522.29	1250.90
522.65	1256.81
523.01	1264.21
523.37	1269.57
523.73	1277.45
524.09	1284.02
524.45	1289.57
524.81	1295.26
525.17	1300.64
525.53	1305.52
525.89	1310.71
526.25	1316.02
526.61	1320.57
526.97	1324.71
527.33	1329.38
527.68	1335.81
528.04	1340.83
528.40	1344.79
528.76	1348.74
529.12	1353.26
529.48	1358.81
529.84	1363.43
530.20	1367.64
530.56	1371.52
530.91	1375.86
531.27	1378.55
531.63	1381.64
531.99	1385.52
532.35	1388.52
532.71	1392.24
533.07	1396.95
533.42	1402.79
533.78	1405.60
534.14	1409.48
534.50	1412.50
534.86	1415.60
535.21	1416.17
535.57	1419.55
535.93	1422.45
536.29	1426.50
536.65	1428.79
537.00	1431.12
537.36	1433.31
537.72	1435.31
538.08	1437.14
538.44	1438.79
538.79	1441.05
539.15	1443.07
539.51	1445.07
539.87	1446.88
540.22	1448.14
540.58	1449.12
540.94	1448.38
541.29	1449.83
541.65	1450.67
542.01	1452.40
542.37	1452.38
542.72	1453.10
543.08	1452.05
543.44	1453.00
543.79	1451.12
544.15	1451.74
544.51	1452.36
544.87	1452.29
545.22	1453.40
545.58	1452.86
545.94	1452.98
546.29	1452.48
546.65	1451.45
547.01	1450.52
547.36	1449.52
547.72	1448.21
548.07	1447.29
548.43	1445.98
548.79	1444.10
549.14	1442.76
549.50	1441.81
549.86	1440.24
550.21	1439.33
550.57	1439.05
550.92	1437.36
551.28	1437.02
551.64	1435.19
551.99	1433.48
552.35	1431.86
552.70	1429.79
553.06	1429.02
553.41	1428.55
553.77	1428.26
554.13	1427.83
554.48	1427.45
554.84	1427.55
555.19	1426.79
555.55	1426.69
555.90	1425.52
556.26	1424.81
556.61	1423.19
556.97	1420.50
557.32	1420.00
557.68	1418.95
558.03	1417.24
558.39	1415.86
558.74	1414.33
559.10	1413.07
559.45	1410.69
559.81	1409.60
560.16	1407.33
560.52	1405.19
560.87	1402.36
561.23	1399.40
561.58	1398.81
561.94	1397.31
562.29	1395.19
562.64	1393.83
563.00	1390.64
563.35	1387.88
563.71	1386.60
564.06	1385.26
564.42	1384.50
564.77	1382.69
565.12	1381.00
565.48	1381.81
565.83	1380.48
566.19	1378.95
566.54	1377.33
566.89	1376.40
567.25	1375.52
567.60	1376.31
567.96	1376.74
568.31	1376.17
568.66	1376.12
569.02	1372.55
569.37	1369.62
569.72	1368.14
570.08	1366.31
570.43	1363.88
570.78	1363.12
571.14	1361.38
571.49	1359.31
571.84	1356.81
572.20	1354.88
572.55	1353.21
572.90	1348.60
573.26	1346.10
573.61	1343.07
573.96	1340.45
574.31	1337.64
574.67	1334.48
575.02	1329.98
575.37	1325.79
575.72	1321.69
576.08	1317.57
576.43	1314.50
576.78	1311.57
577.13	1308.05
577.49	1304.62
577.84	1302.26
578.19	1298.07
578.54	1294.40
578.90	1290.57
579.25	1286.81
579.60	1282.12
579.95	1276.88
580.30	1273.40
580.66	1269.40
581.01	1265.57
581.36	1261.52
581.71	1257.43
582.06	1254.90
582.42	1251.55
582.77	1246.86
583.12	1243.48
583.47	1239.62
583.82	1235.36
584.17	1231.29
584.53	1227.86
584.88	1223.21
585.23	1218.90
585.58	1214.29
585.93	1209.05
586.28	1205.12
586.63	1201.74
586.98	1198.45
587.34	1196.14
587.69	1191.93
588.04	1187.74
588.39	1183.40
588.74	1178.14
589.09	1174.55
589.44	1168.43
589.79	1163.64
590.14	1159.26
590.49	1154.64
590.84	1149.88
591.19	1145.79
591.54	1141.12
591.89	1135.67
592.25	1133.33
592.60	1128.64
592.95	1125.40
593.30	1121.64
593.65	1116.60
594.00	1111.62
594.35	1112.76
594.70	1107.10
595.05	1102.79
595.40	1098.10
595.75	1093.60
596.10	1090.55
596.45	1085.88
596.80	1081.24
597.15	1076.67
597.50	1071.57
597.85	1068.48
598.19	1064.12
598.54	1059.62
598.89	1055.67
599.24	1051.90
599.59	1045.62
599.94	1040.74
600.29	1036.31
600.64	1032.24
600.99	1029.36
601.34	1024.98
601.69	1014.71
602.04	1010.62
602.39	1006.29
602.74	1002.64
603.08	998.36
603.43	994.62
603.78	989.31
604.13	985.31
604.48	980.38
604.83	977.12
605.18	971.90
605.53	967.67
605.87	963.43
606.22	958.31
606.57	953.52
606.92	949.36
607.27	945.45
607.62	940.90
607.96	936.48
608.31	931.17
608.66	927.48
609.01	923.07
609.36	918.33
609.70	914.26
610.05	909.60
610.40	905.14
610.75	899.40
611.10	896.02
611.44	891.52
611.79	887.36
612.14	883.12
612.49	878.45
612.83	873.48
613.18	868.98
613.53	864.55
613.88	859.19
614.22	854.26
614.57	849.12
614.92	844.67
615.27	840.24
615.61	835.69
615.96	830.45
616.31	826.07
616.65	822.81
617.00	818.07
617.35	813.69
617.70	809.69
618.04	806.12
618.39	801.74
618.74	797.95
619.08	793.50
619.43	789.26
619.78	785.02
620.12	780.88
620.47	777.12
620.82	773.21
621.16	769.55
621.51	766.76
621.85	762.93
622.20	759.24
622.55	754.43
622.89	750.38
623.24	747.52
623.59	743.81
623.93	740.00
624.28	736.33
624.62	735.36
624.97	733.62
625.32	729.26
625.66	725.60
626.01	721.17
626.35	718.50
626.70	714.60
627.04	711.93
627.39	708.76
627.73	706.24
628.08	703.36
628.43	699.76
628.77	695.19
629.12	692.14
629.46	688.55
629.81	685.62
630.15	682.60
630.50	678.26
630.84	674.67
631.19	670.52
631.53	666.86
631.88	660.31
632.22	654.76
632.57	652.21
632.91	648.21
633.26	645.29
633.60	641.02
633.95	637.64
634.29	633.31
634.64	630.05
634.98	625.81
635.32	622.90
635.67	620.29
636.01	617.14
636.36	613.83
636.70	611.07
637.05	607.71
637.39	604.90
637.73	602.62
638.08	599.90
638.42	597.26
638.77	594.48
639.11	591.62
639.45	588.69
639.80	584.98
640.14	582.24
640.49	578.52
640.83	575.52
641.17	572.52
641.52	569.36
641.86	566.62
642.20	564.31
642.55	560.24
642.89	556.83
643.23	553.81
643.58	551.05
643.92	547.50
644.26	544.98
644.61	542.00
644.95	538.95
645.29	535.12
645.64	532.50
645.98	529.40
646.32	527.21
646.66	524.19
647.01	521.36
647.35	519.02
647.69	517.10
648.04	514.93
648.38	512.45
648.72	509.88
649.06	506.93
649.41	503.40
649.75	501.48
650.09	499.69
650.43	496.95
650.78	494.07
651.12	491.10
651.46	488.12
651.80	485.14
652.14	482.02
652.49	480.38
652.83	477.19
653.17	474.86
653.51	471.40
653.85	469.07
654.20	466.95
654.54	463.67
654.88	460.71
655.22	459.05
655.56	456.43
655.90	454.38
656.25	452.60
656.59	450.45
656.93	447.76
657.27	445.86
657.61	443.83
657.95	442.17
658.29	440.24
658.64	438.83
658.98	436.71
659.32	434.62
659.66	432.88
660.00	431.38
660.34	429.36
660.68	427.60
661.02	425.43
661.36	423.02
661.70	421.62
662.05	419.83
662.39	417.50
662.73	416.38
663.07	415.45
663.41	413.33
663.75	411.12
664.09	409.43
664.43	406.93
664.77	405.60
665.11	403.52
665.45	401.98
665.79	400.33
666.13	398.17
666.47	396.67
666.81	394.52
667.15	392.38
667.49	390.57
667.83	389.52
668.17	388.19
668.51	386.83
668.85	385.45
669.19	384.79
669.53	382.38
669.87	380.36
670.21	378.07
670.55	376.71
670.89	376.74
671.23	375.38
671.57	374.02
671.91	372.45
672.25	371.07
672.58	370.33
672.92	368.10
673.26	367.02
673.60	365.48
673.94	363.98
674.28	362.86
674.62	361.90
674.96	360.36
675.30	359.19
675.64	357.88
675.97	356.40
676.31	354.40
676.65	353.48
676.99	352.60
677.33	351.07
677.67	349.93
678.01	347.69
678.34	346.67
678.68	345.67
679.02	343.93
679.36	342.64
679.70	340.71
680.04	339.71
680.37	338.71
680.71	337.45
681.05	336.86
681.39	335.40
681.73	333.76
682.06	332.74
682.40	331.93
682.74	331.14
683.08	330.57
683.42	329.33
683.75	328.52
684.09	326.93
684.43	325.81
684.77	324.26
685.10	323.00
685.44	321.90
685.78	320.79
686.12	320.12
686.45	319.02
686.79	317.90
687.13	317.29
687.46	316.07
687.80	315.81
688.14	314.33
688.48	313.60
688.81	312.79
689.15	311.83
689.49	310.38
689.82	309.48
690.16	307.90
690.50	306.93
690.83	305.76
691.17	304.86
691.51	303.81
691.84	303.17
692.18	302.19
692.52	301.10
692.85	300.26
693.19	299.88
693.52	298.90
693.86	298.05
694.20	297.48
694.53	296.74
694.87	295.57
695.21	294.62
695.54	293.88
695.88	292.52
696.21	291.31
696.55	290.60
696.88	289.50
697.22	288.81
697.56	288.71
697.89	287.69
698.23	286.98
698.56	286.12
698.90	285.67
699.23	284.95
699.57	284.36
699.90	283.14
700.24	282.00
700.58	281.29
700.91	280.74
701.25	281.26
701.58	281.24
701.92	281.12
702.25	280.69
702.59	279.64
702.92	279.60
703.26	279.12
703.59	278.33
703.93	279.60
704.26	279.21
704.60	278.31
704.93	277.64
705.26	276.88
705.60	276.64
705.93	275.31
706.27	275.12
706.60	274.76
706.94	275.29
707.27	274.55
707.61	274.26
707.94	273.48
708.27	271.24
708.61	269.83
708.94	268.81
709.28	268.38
709.61	267.74
709.94	267.31
710.28	266.69
710.61	266.45
710.95	263.93
711.28	264.93
711.61	264.02
711.95	264.02
712.28	263.21
712.61	262.95
712.95	263.95
713.28	264.17
713.61	263.45
713.95	262.07
714.28	261.81
714.61	261.29
714.95	260.86
715.28	260.19
715.61	259.98
715.95	259.45
716.28	258.26
716.61	258.19
716.95	257.60
717.28	257.17
717.61	256.38
717.94	256.07
718.28	253.67
718.61	253.45
718.94	252.74
719.27	252.48
719.61	252.14
719.94	250.93
720.27	249.50
720.60	248.83
720.94	248.76
721.27	248.17
721.60	247.98
721.93	247.62
722.27	248.00
722.60	247.93
722.93	247.48
723.26	247.45
723.59	246.79
723.93	246.76
724.26	246.60
724.59	246.48
724.92	246.24
725.25	246.69
725.59	246.29
725.92	246.29
726.25	246.02
726.58	245.36
726.91	245.07
727.24	245.19
727.57	245.02
727.91	244.31
728.24	244.17
728.57	243.57
728.90	243.62
729.23	242.76
729.56	243.50
729.89	243.38
730.22	243.36
730.55	243.17
730.89	242.60
731.22	242.07
731.55	241.69
731.88	241.57
732.21	240.76
732.54	240.50
732.87	240.02
733.20	239.81
733.53	239.71
733.86	239.45
734.19	238.88
734.52	238.88
734.85	239.86
735.18	239.31
735.51	239.90
735.84	239.76
736.17	240.10
736.50	238.67
736.83	240.69
737.16	240.17
737.49	240.05
737.82	239.64
738.15	239.81
738.48	239.48
738.81	239.12
739.14	238.79
739.47	238.57
739.80	238.48
740.13	238.52
740.46	238.05
740.79	237.64
741.12	237.38
741.45	236.88
741.78	235.64
742.11	236.17
742.44	235.29
742.77	235.29
743.10	234.74
743.43	234.62
743.75	232.29
744.08	235.05
744.41	234.62
744.74	234.60
745.07	234.02
745.40	234.07
745.73	234.76
746.06	234.62
746.39	234.48
746.71	233.83
747.04	233.31
747.37	233.26
747.70	233.52
748.03	233.29
748.36	233.50
748.68	233.50
749.01	232.90
749.34	232.95
749.67	232.62
750.00	232.67
750.33	233.69
750.65	233.67
750.98	231.00
751.31	231.02
751.64	230.81
751.97	231.88
752.29	231.81
752.62	230.62
752.95	230.55
753.28	230.31
753.60	230.43
753.93	230.86
754.26	230.67
754.59	229.74
754.91	229.55
755.24	229.10
755.57	228.71
755.90	228.43
756.22	228.10
756.55	227.64
756.88	227.19
757.20	225.93
757.53	225.24
757.86	225.12
758.19	225.17
758.51	224.98
758.84	223.64
759.17	223.24
759.49	223.31
759.82	224.07
760.15	224.05
760.47	223.67
760.80	223.10
761.13	223.31
761.45	223.24
761.78	223.05
762.11	222.93
762.43	222.88
762.76	222.76
763.08	222.60
763.41	222.86
763.74	222.67
764.06	222.48
764.39	222.33
764.71	221.98
765.04	221.52
765.37	221.31
765.69	221.40
766.02	221.33
766.34	221.12
766.67	220.29
767.00	220.62
767.32	222.07
767.65	223.33
767.97	222.88
768.30	222.90
768.62	222.98
768.95	222.43
769.27	222.29
769.60	222.62
769.92	222.48
770.25	221.79
770.57	221.43
770.90	221.36
771.22	221.24
771.55	221.29
771.87	221.36
772.20	221.17
772.52	222.50
772.85	224.71
773.17	224.62
773.50	224.55
773.82	224.00
774.15	222.74
774.47	221.19
774.80	221.10
775.12	220.98
775.45	220.98
775.77	221.48
776.09	221.50
776.42	221.57
776.74	222.31
777.07	222.29
777.39	222.48
777.72	222.24
778.04	222.29
778.36	222.00
778.69	222.02
779.01	222.36
779.33	220.69
779.66	218.69
779.98	218.48
780.31	218.45
780.63	219.33
780.95	219.64
781.28	219.62
781.60	219.55
781.92	219.60
782.25	219.50
782.57	219.45
782.89	219.19
783.22	218.71
783.54	217.93
783.86	218.12
784.19	218.02
784.51	218.62
784.83	218.52
785.16	218.60
785.48	218.71
785.80	218.50
786.12	219.02
786.45	218.71
786.77	219.12
787.09	219.02
787.42	218.38
787.74	218.33
788.06	218.36
788.38	218.00
788.71	217.79
789.03	218.02
789.35	218.29
789.67	218.10
789.99	218.14
790.32	217.90
790.64	218.26
790.96	220.02
791.28	219.33
791.61	219.19
791.93	219.31
792.25	219.07
792.57	220.55
792.89	219.79
793.21	219.88
793.54	219.48
793.86	219.40
794.18	219.33
794.50	218.86
794.82	218.67
795.14	219.00
795.47	219.64
795.79	219.40
796.11	218.88
796.43	218.76
796.75	218.90
797.07	219.21
797.39	218.81
797.71	217.38
798.04	217.55
798.36	217.74
798.68	217.50
799.00	217.60
799.32	216.38
799.64	216.71
799.96	216.55
800.28	216.83
800.60	216.48
800.92	216.86
801.24	216.95
801.56	217.36
801.89	217.38
802.21	217.33
802.53	216.98
802.85	217.33
803.17	218.38
803.49	218.02
803.81	217.62
804.13	217.67
804.45	217.36
804.77	217.29
805.09	217.26
805.41	217.14
805.73	216.71
806.05	216.29
806.37	216.26
806.69	216.17
807.01	216.12
807.33	216.38
807.65	215.48
807.97	216.19
808.28	215.93
808.60	215.79
808.92	215.60
809.24	217.14
809.56	216.83
809.88	216.07
810.20	216.05
810.52	216.55
810.84	216.07
811.16	216.00
811.48	216.00
811.80	216.57
812.12	216.48
812.43	217.12
812.75	217.64
813.07	217.52
813.39	217.71
813.71	217.57
814.03	217.43
814.35	217.50
814.67	216.83
814.98	216.67
815.30	216.64
815.62	216.21
815.94	214.79
816.26	214.90
816.58	214.57
816.89	214.93
817.21	214.31
817.53	214.60
817.85	214.52
818.17	214.48
818.48	213.76
818.80	214.29
819.12	213.74
819.44	212.98
819.76	212.76
820.07	212.90
820.39	212.76
820.71	213.02
821.03	213.26
821.34	213.00
821.66	213.38
821.98	213.64
822.30	213.57
822.61	214.93
822.93	214.60
823.25	214.74
823.57	214.36
823.88	214.76
824.20	215.05
824.52	215.24
824.83	215.36
825.15	214.98
825.47	214.98
825.79	215.43
826.10	215.43
826.42	215.45
826.74	215.57
827.05	215.62
827.37	215.43
827.69	215.14
828.00	215.36
828.32	215.17
828.64	214.83
828.95	215.93
829.27	215.21
829.58	215.40
829.90	215.62
830.22	215.76
830.53	215.33
830.85	214.93
831.17	214.60
831.48	214.36
831.80	214.62
832.11	214.36
832.43	213.95
832.75	214.05
833.06	214.98
833.38	214.33
833.69	214.31
834.01	214.31
834.32	214.50
834.64	214.17
834.96	214.26
835.27	214.33
835.59	213.60
835.90	213.24
836.22	213.14
836.53	212.81
836.85	212.48
837.16	214.71
837.48	214.57
837.79	215.21
838.11	215.38
838.42	215.43
838.74	215.64
839.05	215.45
839.37	215.55
839.68	214.48
840.00	214.62
840.31	214.95
840.63	214.93
840.94	214.52
841.26	214.31
841.57	214.24
841.88	214.43
842.20	214.02
842.51	213.83
842.83	213.69
843.14	215.40
843.46	215.50
843.77	214.33
844.08	214.33
844.40	213.74
844.71	213.69
845.03	213.69
845.34	213.64
845.65	213.55
845.97	213.48
846.28	213.62
846.60	213.52
846.91	213.10
847.22	212.95
847.54	213.40
847.85	213.71
848.16	213.48
848.48	212.98
848.79	214.14
849.10	214.36
849.42	214.33
849.73	212.62
850.04	212.55
850.36	211.93
850.67	212.31
850.98	212.19
851.30	212.17
851.61	212.02
851.92	211.95
852.23	212.69
852.55	212.90
852.86	213.12
853.17	213.50
853.49	213.93
853.80	214.24
854.11	214.55
854.42	214.79
854.74	214.67
855.05	214.79
855.36	213.55
855.67	213.64
855.99	213.83
856.30	216.05
856.61	216.26
856.92	216.07
857.23	216.00
857.55	216.05
857.86	215.81
858.17	216.14
858.48	215.86
858.79	215.43
859.11	215.43
859.42	215.14
859.73	214.76
860.04	214.64
860.35	214.12
860.66	213.19
860.98	213.24
861.29	213.76
861.60	213.62
861.91	214.07
862.22	213.86
862.53	213.86
862.84	211.62
863.16	212.14
863.47	211.90
863.78	211.76
864.09	211.79
864.40	212.12
864.71	212.24
865.02	212.67
865.33	212.38
865.64	212.05
865.95	212.02
866.27	213.43
866.58	213.24
866.89	213.62
867.20	213.71
867.51	213.29
867.82	212.98
868.13	213.83
868.44	213.45
868.75	213.86
869.06	213.86
869.37	214.02
869.68	213.07
869.99	213.43
870.30	213.48
870.61	213.67
870.92	213.31
871.23	212.88
871.54	212.88
871.85	213.62
872.16	213.93
872.47	213.98
872.78	212.81
873.09	213.12
873.40	212.98
873.71	213.14
874.02	213.24
874.33	212.98
874.64	212.40
874.95	212.81
875.26	212.14
875.56	211.98
875.87	212.05
876.18	212.17
876.49	214.17
876.80	214.19
877.11	213.93
877.42	214.26
877.73	214.40
878.04	213.95
878.35	213.67
878.66	213.79
878.96	213.90
879.27	213.90
879.58	213.64
879.89	213.43
880.20	213.93
880.51	213.71
880.82	213.98
881.12	214.14
881.43	213.71
881.74	213.50
882.05	213.62
882.36	213.71
882.67	213.90
882.97	211.64
883.28	211.36
883.59	211.31
883.90	211.31
884.21	211.86
884.51	211.83
884.82	211.71
885.13	211.52
885.44	211.38
885.74	211.31
886.05	211.48
886.36	211.69
886.67	211.24
886.98	212.38
887.28	212.38
887.59	212.31
887.90	212.29
888.20	212.40
888.51	212.64
888.82	212.10
889.13	212.50
889.43	214.52
889.74	214.52
890.05	214.50
890.35	214.24
890.66	213.60
890.97	213.55
891.28	213.38
891.58	213.74
891.89	213.79
892.20	213.52
892.50	213.12
892.81	213.02
893.12	212.83
893.42	212.00
893.73	212.17
894.04	212.17
894.34	212.31
894.65	212.26
894.95	212.05
895.26	212.33
895.57	212.90
895.87	210.93
896.18	211.31
896.48	211.38
896.79	211.40
897.10	211.64
897.40	211.74
897.71	211.93
898.01	211.48
898.32	211.62
898.63	211.76
898.93	211.74
899.24	211.88
899.54	211.90
899.85	211.83
900.15	211.67
900.46	211.64
900.76	211.93
901.07	211.93
901.38	212.02
901.68	212.17
901.99	211.31
902.29	211.43
902.60	211.31
902.90	211.17
903.21	211.10
903.51	210.98
903.82	211.43
904.12	211.60
904.43	211.86
904.73	211.74
905.03	211.76
905.34	213.86
905.64	213.71
905.95	213.76
906.25	213.62
906.56	213.52
906.86	213.57
907.17	213.43
907.47	213.71
907.77	213.50
908.08	213.29
908.38	213.38
908.69	213.43
908.99	213.71
909.30	214.07
909.60	214.29
909.90	214.60
910.21	214.02
910.51	213.60
910.81	213.71
911.12	213.76
911.42	213.79
911.73	211.64
912.03	211.74
912.33	212.07
912.64	211.95
912.94	211.71
913.24	211.31
913.55	211.07
913.85	210.67
914.15	210.93
914.46	210.93
914.76	210.64
915.06	210.31
915.37	209.95
915.67	209.57
915.97	209.45
916.27	208.71
916.58	208.90
916.88	208.83
917.18	208.62
917.49	209.79
917.79	209.69
918.09	209.93
918.39	210.43
918.70	210.31
919.00	210.45
919.30	211.48
919.60	211.43
919.91	211.17
920.21	211.40
920.51	211.00
920.81	211.21
921.12	211.71
921.42	211.76
921.72	211.90
922.02	212.24
922.32	212.38
922.63	212.74
922.93	213.62
923.23	213.81
923.53	213.64
923.83	212.57
924.13	212.79
924.44	212.90
924.74	213.12
925.04	213.45
925.34	213.52
925.64	212.62
925.94	212.71
926.24	214.02
926.55	213.86
926.85	214.31
927.15	214.21
927.45	214.14
927.75	214.31
928.05	214.36
928.35	214.10
928.65	214.69
928.95	214.71
929.26	214.00
929.56	214.26
929.86	214.52
930.16	214.21
930.46	214.17
930.76	214.17
931.06	213.26
931.36	212.93
931.66	213.45
931.96	213.76
932.26	213.93
932.56	213.21
932.86	213.40
933.16	213.10
933.46	212.86
933.76	212.43
934.06	212.93
934.36	213.74
934.66	213.76
934.96	213.38
935.26	213.69
935.56	213.88
935.86	213.43
936.16	213.07
936.46	213.12
936.76	213.05
937.06	212.76
937.36	212.93
937.66	212.90
937.96	212.52
938.26	212.19
938.56	212.07
938.86	212.07
939.16	212.71
939.46	213.12
939.76	213.21
940.06	213.19
940.35	212.69
940.65	211.69
940.95	211.62
941.25	210.95
941.55	210.40
941.85	210.26
942.15	210.71
942.45	211.17
942.75	210.88
943.04	210.76
943.34	211.36
943.64	211.24
943.94	211.12
944.24	211.12
944.54	211.29
944.84	211.14
945.13	211.05
945.43	210.40
945.73	210.17
946.03	210.24
946.33	210.02
946.62	210.02
946.92	209.76
947.22	210.26
947.52	210.52
947.82	211.10
948.11	211.00
948.41	210.57
948.71	210.21
949.01	210.57
949.31	210.45
949.60	210.19
949.90	210.48
950.20	210.57
950.50	210.64
950.79	210.48
951.09	211.02
951.39	211.00
951.69	211.02
951.98	211.50
952.28	211.38
952.58	211.43
952.87	211.33
953.17	211.79
953.47	211.62
953.76	211.74
954.06	211.21
954.36	210.90
954.66	211.05
954.95	211.62
955.25	211.88
955.55	212.12
955.84	211.86
956.14	211.93
956.44	211.83
956.73	211.26
957.03	211.21
957.32	210.90
957.62	210.43
957.92	211.00
958.21	210.60
958.51	213.07
958.81	213.43
959.10	213.74
959.40	214.00
959.69	213.88
959.99	214.10
960.29	214.31
960.58	214.36
960.88	215.02
961.17	214.50
961.47	214.48
961.76	214.43
962.06	214.71
962.36	214.52
962.65	214.88
962.95	215.21
963.24	215.29
963.54	215.45
963.83	215.95
964.13	215.40
964.42	215.05
964.72	213.36
965.01	213.33
965.31	213.17
965.60	212.88
965.90	214.24
966.19	213.93
966.49	214.07
966.78	214.12
967.08	213.81
967.37	213.88
967.67	213.67
967.96	213.98
968.26	213.83
968.55	214.26
968.85	214.10
969.14	214.10
969.43	214.10
969.73	213.95
970.02	213.79
970.32	213.74
970.61	213.93
970.91	213.31
971.20	212.95
971.49	212.83
971.79	213.05
972.08	211.43
972.38	211.57
972.67	211.31
972.96	211.64
973.26	211.38
973.55	212.14
973.85	211.93
974.14	211.57
974.43	211.79
974.73	211.26
975.02	211.02
975.31	210.95
975.61	210.86
975.90	210.79
976.19	210.45
976.49	210.60
976.78	210.38
977.07	210.19
977.37	210.48
977.66	210.50
977.95	210.17
978.24	210.55
978.54	211.10
978.83	210.90
979.12	210.64
979.42	210.79
979.71	210.29
980.00	210.19
980.29	210.52
980.59	210.14
980.88	210.74
981.17	210.64
981.46	210.79
981.76	210.93
982.05	211.48
982.34	211.57
982.63	211.62
982.93	211.74
983.22	212.43
983.51	212.40
983.80	212.74
984.09	212.88
984.39	212.52
984.68	211.81
984.97	212.17
985.26	212.12
985.55	212.36
985.85	212.00
986.14	212.50
986.43	212.50
986.72	212.38
987.01	211.55
987.30	211.48
987.59	211.36
987.89	211.21
988.18	210.52
988.47	210.33
988.76	210.26
989.05	210.26
989.34	210.00
989.63	210.57
989.92	210.29
990.22	209.90
990.51	209.76
990.80	209.81
991.09	209.83
991.38	209.86
991.67	209.29
991.96	209.21
992.25	209.00
992.54	208.64
992.83	208.62
993.12	208.71
993.41	209.12
993.70	209.86
993.99	210.36
994.28	210.67
994.58	211.40
994.87	211.12
995.16	211.00
995.45	210.67
995.74	210.07
996.03	210.50
996.32	210.98
996.61	211.64
996.90	211.76
997.19	211.60
997.48	211.69
997.77	211.74
998.06	212.02
998.34	211.98
998.63	212.05
998.92	212.14
999.21	212.50
999.50	212.40
999.79	211.67
1000.08	211.50
1000.37	211.76
1000.66	211.48
1000.95	212.05
1001.24	212.29
1001.53	212.74
1001.82	212.62
1002.11	212.21
1002.40	212.62
1002.68	213.14
1002.97	214.57
1003.26	214.43
1003.55	214.05
1003.84	214.17
1004.13	214.98
1004.42	214.69
1004.71	215.00
1004.99	214.93
1005.28	215.33
1005.57	215.38
1005.86	215.12
1006.15	215.05
1006.44	214.45
1006.72	214.45
1007.01	213.93
1007.30	213.88
1007.59	213.76
1007.88	213.71
1008.17	213.81
1008.45	213.19
1008.74	212.31
1009.03	211.21
1009.32	211.31
1009.60	211.36
1009.89	211.29
1010.18	210.14
1010.47	210.24
1010.76	209.86
1011.04	210.05
1011.33	210.05
1011.62	210.07
1011.91	210.29
1012.19	210.38
1012.48	210.55
1012.77	210.52
1013.05	211.64
1013.34	211.62
1013.63	211.26
1013.92	211.60
1014.20	211.40
1014.49	211.55
1014.78	211.57
1015.06	211.10
1015.35	211.10
1015.64	211.36
1015.92	211.57
1016.21	211.64
1016.50	211.86
1016.78	212.36
1017.07	212.45
1017.36	212.10
1017.64	211.67
1017.93	212.07
1018.22	211.76
1018.50	211.64
1018.79	211.48
1019.08	210.33
1019.36	210.57
1019.65	210.38
1019.93	210.55
1020.22	210.71
1020.51	211.57
1020.79	211.40
1021.08	206.50
1021.36	206.00
1021.65	207.50
1021.94	206.50
1022.22	214.50
1022.51	205.00
1022.79	217.00
1023.08	212.00
1023.36	232.50
1023.65	206.00
>>>>>End Processed Spectral Data<<<<<
