SpectraSuite Data File
++++++++++++++++++++++++++++++++++++
Date: Tue Apr 02 18:44:04 EDT 2013
User: group
Dark Spectrum Present: No
Reference Spectrum Present: No
Number of Sampled Component Spectra: 1
Spectrometers: USB2E7196
Integration Time (usec): 580000 (USB2E7196)
Spectra Averaged: 2 (USB2E7196)
Boxcar Smoothing: 10 (USB2E7196)
Correct for Electrical Dark: No (USB2E7196)
Strobe/Lamp Enabled: No (USB2E7196)
Correct for Detector Non-linearity: No (USB2E7196)
Correct for Stray Light: No (USB2E7196)
Number of Pixels in Processed Spectrum: 2048
>>>>>Begin Processed Spectral Data<<<<<
339.09	0.00
339.48	194.50
339.86	196.00
340.24	195.50
340.63	195.00
341.01	232.00
341.39	204.00
341.78	206.00
342.16	214.50
342.54	201.50
342.93	197.95
343.31	207.93
343.69	208.55
344.07	209.17
344.46	210.10
344.84	210.98
345.22	209.60
345.60	210.05
345.99	210.21
346.37	210.12
346.75	210.64
347.13	211.00
347.52	211.00
347.90	211.71
348.28	211.79
348.66	212.43
349.05	211.93
349.43	212.19
349.81	212.33
350.19	212.50
350.57	212.79
350.96	213.14
351.34	213.33
351.72	213.50
352.10	213.55
352.48	213.33
352.87	213.21
353.25	213.52
353.63	213.40
354.01	213.36
354.39	213.55
354.77	213.55
355.15	213.83
355.54	213.90
355.92	213.55
356.30	213.50
356.68	214.81
357.06	215.05
357.44	214.83
357.82	214.76
358.20	215.64
358.58	215.40
358.97	215.40
359.35	215.86
359.73	216.21
360.11	216.10
360.49	216.10
360.87	216.14
361.25	216.43
361.63	217.21
362.01	217.55
362.39	217.31
362.77	217.36
363.15	217.29
363.53	217.21
363.91	217.02
364.29	217.00
364.67	215.26
365.05	215.21
365.43	215.48
365.81	215.83
366.19	216.05
366.57	216.88
366.95	216.71
367.33	216.17
367.71	216.00
368.09	216.48
368.47	216.43
368.85	216.33
369.23	216.86
369.61	216.12
369.99	216.76
370.37	217.05
370.75	218.10
371.13	217.67
371.51	217.14
371.89	217.12
372.27	217.38
372.65	217.40
373.03	217.52
373.41	217.31
373.78	217.12
374.16	215.93
374.54	215.21
374.92	214.93
375.30	214.81
375.68	214.52
376.06	214.62
376.44	214.57
376.82	214.48
377.19	214.14
377.57	213.98
377.95	213.19
378.33	212.71
378.71	211.33
379.09	211.67
379.47	212.24
379.84	212.24
380.22	212.05
380.60	211.60
380.98	211.31
381.36	211.17
381.73	210.90
382.11	211.19
382.49	211.55
382.87	211.50
383.25	211.64
383.62	214.19
384.00	213.69
384.38	213.71
384.76	214.43
385.13	215.12
385.51	215.12
385.89	214.81
386.27	215.31
386.64	215.86
387.02	215.67
387.40	215.36
387.78	215.38
388.15	215.57
388.53	215.43
388.91	215.62
389.29	215.57
389.66	215.88
390.04	215.71
390.42	215.79
390.79	216.05
391.17	216.10
391.55	213.69
391.92	213.88
392.30	214.05
392.68	213.40
393.05	213.29
393.43	213.38
393.81	213.62
394.18	213.02
394.56	213.12
394.94	213.79
395.31	213.57
395.69	214.43
396.06	214.62
396.44	214.86
396.82	214.50
397.19	215.88
397.57	215.64
397.95	216.02
398.32	215.62
398.70	215.55
399.07	215.90
399.45	215.83
399.82	215.76
400.20	215.74
400.58	216.02
400.95	215.24
401.33	215.74
401.70	217.26
402.08	217.67
402.45	217.45
402.83	217.69
403.20	218.00
403.58	217.52
403.95	218.05
404.33	218.60
404.71	218.81
405.08	219.90
405.46	220.26
405.83	220.50
406.21	220.79
406.58	221.33
406.96	221.67
407.33	222.40
407.70	223.12
408.08	225.19
408.45	225.83
408.83	227.05
409.20	227.31
409.58	226.83
409.95	227.88
410.33	228.83
410.70	229.05
411.08	230.12
411.45	231.26
411.82	231.64
412.20	233.19
412.57	235.88
412.95	235.26
413.32	237.17
413.69	238.57
414.07	240.31
414.44	242.14
414.82	244.26
415.19	246.45
415.56	248.81
415.94	250.07
416.31	253.02
416.68	255.81
417.06	259.21
417.43	262.74
417.81	266.05
418.18	269.52
418.55	273.21
418.93	277.50
419.30	281.48
419.67	286.17
420.04	290.55
420.42	294.81
420.79	302.05
421.16	307.50
421.54	314.21
421.91	320.38
422.28	326.86
422.66	333.36
423.03	341.36
423.40	348.26
423.77	355.26
424.15	362.43
424.52	370.07
424.89	378.71
425.26	386.14
425.64	393.60
426.01	401.90
426.38	411.00
426.75	420.48
427.13	430.21
427.50	439.71
427.87	449.31
428.24	459.29
428.61	467.45
428.99	478.55
429.36	489.33
429.73	499.90
430.10	510.95
430.47	522.81
430.85	533.07
431.22	545.52
431.59	560.71
431.96	573.17
432.33	586.43
432.70	600.14
433.08	616.69
433.45	632.07
433.82	647.21
434.19	664.71
434.56	681.43
434.93	696.90
435.30	712.60
435.68	730.31
436.05	747.43
436.42	764.57
436.79	781.17
437.16	798.36
437.53	816.79
437.90	834.52
438.27	852.36
438.64	870.24
439.01	887.43
439.38	900.71
439.75	915.76
440.13	933.48
440.50	949.69
440.87	962.64
441.24	975.57
441.61	990.88
441.98	1000.79
442.35	1012.79
442.72	1025.64
443.09	1039.38
443.46	1047.26
443.83	1052.36
444.20	1057.26
444.57	1062.74
444.94	1065.48
445.31	1068.95
445.68	1074.17
446.05	1075.69
446.42	1075.21
446.79	1074.21
447.16	1072.83
447.53	1071.29
447.90	1064.48
448.27	1057.10
448.64	1047.81
449.01	1041.98
449.37	1030.55
449.74	1019.55
450.11	1007.81
450.48	993.02
450.85	977.24
451.22	964.45
451.59	952.64
451.96	940.93
452.33	925.31
452.70	911.38
453.07	893.95
453.43	875.33
453.80	858.79
454.17	842.52
454.54	826.69
454.91	810.45
455.28	794.45
455.65	779.45
456.02	768.19
456.38	755.48
456.75	739.76
457.12	726.40
457.49	713.76
457.86	700.12
458.23	690.00
458.59	678.31
458.96	666.29
459.33	655.57
459.70	645.52
460.07	637.48
460.43	627.93
460.80	619.69
461.17	612.17
461.54	603.40
461.91	595.52
462.27	587.36
462.64	580.31
463.01	572.93
463.38	566.67
463.74	555.98
464.11	549.88
464.48	544.62
464.85	538.52
465.21	534.43
465.58	529.24
465.95	522.90
466.32	517.52
466.68	512.24
467.05	507.43
467.42	502.31
467.78	496.40
468.15	491.19
468.52	487.50
468.88	481.55
469.25	476.88
469.62	473.52
469.98	469.36
470.35	465.69
470.72	462.29
471.08	457.55
471.45	454.52
471.82	451.55
472.18	448.10
472.55	445.29
472.92	441.74
473.28	438.79
473.65	436.19
474.02	434.43
474.38	432.69
474.75	430.69
475.11	427.98
475.48	426.50
475.85	425.10
476.21	423.36
476.58	422.26
476.94	421.24
477.31	419.62
477.67	418.43
478.04	417.43
478.41	416.83
478.77	418.45
479.14	417.52
479.50	416.93
479.87	416.50
480.23	416.36
480.60	415.67
480.96	415.40
481.33	416.00
481.69	415.40
482.06	415.71
482.42	415.98
482.79	416.45
483.15	416.69
483.52	417.45
483.88	417.71
484.25	418.38
484.61	418.93
484.98	419.45
485.34	421.45
485.71	422.83
486.07	423.74
486.44	423.31
486.80	425.00
487.17	426.24
487.53	428.64
487.90	430.52
488.26	433.52
488.62	436.50
488.99	438.40
489.35	441.24
489.72	443.62
490.08	445.98
490.44	448.79
490.81	451.86
491.17	454.55
491.54	458.50
491.90	462.14
492.26	465.81
492.63	470.00
492.99	473.38
493.36	477.40
493.72	482.21
494.08	486.40
494.45	490.81
494.81	496.14
495.17	500.71
495.54	506.19
495.90	511.00
496.26	515.88
496.63	521.24
496.99	526.76
497.35	532.55
497.72	538.76
498.08	544.48
498.44	550.69
498.80	557.57
499.17	563.24
499.53	569.12
499.89	576.29
500.26	583.24
500.62	589.83
500.98	596.74
501.34	603.62
501.71	611.52
502.07	618.55
502.43	625.43
502.79	631.90
503.16	638.90
503.52	646.19
503.88	652.45
504.24	660.12
504.60	667.60
504.97	675.14
505.33	682.62
505.69	691.67
506.05	699.36
506.41	706.95
506.78	715.14
507.14	722.98
507.50	730.40
507.86	737.69
508.22	745.86
508.59	753.26
508.95	760.98
509.31	769.02
509.67	777.38
510.03	785.45
510.39	793.48
510.75	801.45
511.12	809.10
511.48	817.31
511.84	824.67
512.20	832.12
512.56	840.00
512.92	848.02
513.28	853.95
513.64	860.74
514.00	868.40
514.37	875.79
514.73	883.62
515.09	891.29
515.45	898.33
515.81	905.86
516.17	912.93
516.53	919.12
516.89	924.86
517.25	931.64
517.61	938.24
517.97	944.14
518.33	950.24
518.69	956.95
519.05	963.57
519.41	969.86
519.77	977.88
520.13	983.17
520.49	988.33
520.85	995.07
521.21	1002.76
521.57	1008.05
521.93	1012.93
522.29	1018.52
522.65	1022.36
523.01	1028.57
523.37	1033.17
523.73	1038.45
524.09	1044.14
524.45	1049.05
524.81	1052.93
525.17	1057.88
525.53	1062.93
525.89	1067.10
526.25	1071.05
526.61	1074.76
526.97	1078.40
527.33	1081.57
527.68	1088.07
528.04	1092.31
528.40	1096.31
528.76	1099.36
529.12	1103.62
529.48	1108.69
529.84	1112.12
530.20	1117.50
530.56	1121.02
530.91	1125.33
531.27	1129.76
531.63	1134.10
531.99	1138.14
532.35	1142.60
532.71	1146.38
533.07	1150.50
533.42	1157.64
533.78	1162.26
534.14	1167.67
534.50	1172.36
534.86	1176.71
535.21	1178.88
535.57	1183.12
535.93	1186.38
536.29	1190.90
536.65	1195.64
537.00	1199.33
537.36	1203.17
537.72	1206.38
538.08	1210.36
538.44	1213.29
538.79	1216.81
539.15	1220.12
539.51	1223.29
539.87	1226.38
540.22	1229.74
540.58	1233.57
540.94	1234.14
541.29	1236.71
541.65	1238.64
542.01	1241.48
542.37	1243.64
542.72	1246.14
543.08	1248.64
543.44	1252.62
543.79	1254.21
544.15	1256.52
544.51	1258.98
544.87	1262.12
545.22	1265.74
545.58	1268.02
545.94	1271.10
546.29	1273.24
546.65	1275.67
547.01	1278.50
547.36	1281.50
547.72	1282.98
548.07	1285.48
548.43	1287.69
548.79	1290.12
549.14	1293.24
549.50	1296.88
549.86	1298.67
550.21	1301.43
550.57	1304.81
550.92	1306.93
551.28	1310.07
551.64	1313.05
551.99	1316.40
552.35	1318.88
552.70	1321.45
553.06	1325.60
553.41	1328.10
553.77	1332.71
554.13	1336.24
554.48	1339.76
554.84	1343.95
555.19	1348.76
555.55	1353.79
555.90	1358.05
556.26	1361.50
556.61	1364.40
556.97	1367.29
557.32	1371.76
557.68	1375.83
558.03	1378.86
558.39	1381.90
558.74	1386.40
559.10	1389.76
559.45	1393.45
559.81	1398.52
560.16	1402.31
560.52	1405.55
560.87	1410.43
561.23	1413.31
561.58	1418.76
561.94	1423.29
562.29	1427.00
562.64	1431.02
563.00	1433.57
563.35	1437.81
563.71	1443.62
564.06	1449.48
564.42	1454.00
564.77	1459.55
565.12	1465.31
565.48	1472.60
565.83	1479.21
566.19	1484.74
566.54	1490.26
566.89	1495.81
567.25	1501.57
567.60	1508.48
567.96	1516.29
568.31	1523.29
568.66	1529.98
569.02	1534.50
569.37	1539.64
569.72	1545.71
570.08	1551.31
570.43	1557.00
570.78	1563.43
571.14	1569.17
571.49	1574.64
571.84	1580.81
572.20	1585.67
572.55	1590.14
572.90	1593.93
573.26	1598.67
573.61	1602.88
573.96	1607.62
574.31	1611.74
574.67	1615.19
575.02	1618.57
575.37	1621.02
575.72	1623.38
576.08	1626.95
576.43	1631.10
576.78	1635.31
577.13	1638.40
577.49	1642.36
577.84	1647.33
578.19	1650.57
578.54	1654.10
578.90	1657.33
579.25	1660.71
579.60	1663.38
579.95	1666.48
580.30	1669.88
580.66	1673.12
581.01	1675.93
581.36	1679.55
581.71	1683.12
582.06	1687.64
582.42	1691.69
582.77	1694.45
583.12	1698.02
583.47	1701.12
583.82	1703.60
584.17	1706.12
584.53	1710.31
584.88	1712.95
585.23	1716.17
585.58	1717.93
585.93	1720.05
586.28	1722.64
586.63	1725.38
586.98	1728.67
587.34	1732.31
587.69	1734.86
588.04	1737.71
588.39	1741.17
588.74	1742.29
589.09	1744.52
589.44	1744.86
589.79	1745.76
590.14	1748.24
590.49	1750.48
590.84	1751.79
591.19	1754.38
591.54	1756.26
591.89	1756.57
592.25	1760.40
592.60	1760.48
592.95	1762.93
593.30	1765.02
593.65	1766.38
594.00	1766.02
594.35	1773.12
594.70	1773.38
595.05	1774.43
595.40	1775.05
595.75	1774.62
596.10	1776.07
596.45	1776.93
596.80	1779.02
597.15	1780.45
597.50	1780.12
597.85	1781.48
598.19	1782.05
598.54	1782.14
598.89	1783.29
599.24	1784.83
599.59	1783.36
599.94	1784.07
600.29	1784.45
600.64	1783.52
600.99	1784.10
601.34	1785.81
601.69	1779.45
602.04	1779.02
602.39	1779.05
602.74	1779.74
603.08	1779.67
603.43	1780.17
603.78	1779.88
604.13	1778.83
604.48	1777.64
604.83	1778.14
605.18	1776.71
605.53	1776.36
605.87	1775.00
606.22	1774.26
606.57	1772.64
606.92	1771.19
607.27	1770.48
607.62	1769.10
607.96	1769.12
608.31	1768.19
608.66	1767.26
609.01	1766.64
609.36	1766.45
609.70	1763.74
610.05	1760.86
610.40	1759.81
610.75	1757.24
611.10	1755.64
611.44	1752.57
611.79	1750.36
612.14	1747.29
612.49	1744.48
612.83	1742.38
613.18	1739.57
613.53	1736.50
613.88	1733.24
614.22	1730.14
614.57	1725.62
614.92	1722.10
615.27	1718.24
615.61	1713.93
615.96	1709.64
616.31	1706.52
616.65	1702.88
617.00	1700.79
617.35	1697.95
617.70	1694.86
618.04	1690.76
618.39	1687.02
618.74	1684.69
619.08	1681.52
619.43	1678.69
619.78	1674.93
620.12	1671.19
620.47	1667.81
620.82	1662.93
621.16	1657.52
621.51	1654.31
621.85	1650.52
622.20	1646.21
622.55	1642.10
622.89	1638.79
623.24	1636.36
623.59	1632.40
623.93	1628.14
624.28	1623.57
624.62	1620.88
624.97	1617.86
625.32	1614.76
625.66	1610.26
626.01	1605.83
626.35	1601.38
626.70	1597.26
627.04	1594.10
627.39	1589.38
627.73	1586.02
628.08	1583.62
628.43	1581.10
628.77	1576.79
629.12	1574.26
629.46	1571.71
629.81	1567.69
630.15	1562.40
630.50	1556.45
630.84	1551.05
631.19	1545.93
631.53	1541.60
631.88	1534.76
632.22	1528.43
632.57	1524.24
632.91	1519.40
633.26	1515.12
633.60	1510.67
633.95	1505.50
634.29	1499.55
634.64	1495.57
634.98	1490.81
635.32	1485.81
635.67	1482.43
636.01	1478.43
636.36	1472.52
636.70	1468.12
637.05	1463.93
637.39	1460.71
637.73	1457.10
638.08	1452.86
638.42	1448.88
638.77	1444.74
639.11	1440.21
639.45	1435.93
639.80	1430.05
640.14	1425.40
640.49	1420.12
640.83	1414.38
641.17	1409.43
641.52	1405.10
641.86	1399.71
642.20	1395.86
642.55	1389.69
642.89	1383.69
643.23	1377.64
643.58	1373.52
643.92	1366.71
644.26	1360.48
644.61	1354.21
644.95	1347.64
645.29	1342.05
645.64	1336.40
645.98	1330.52
646.32	1325.55
646.66	1318.95
647.01	1312.52
647.35	1307.64
647.69	1301.60
648.04	1296.29
648.38	1290.48
648.72	1284.19
649.06	1278.14
649.41	1270.71
649.75	1264.69
650.09	1258.43
650.43	1252.31
650.78	1245.33
651.12	1239.19
651.46	1232.67
651.80	1226.55
652.14	1220.36
652.49	1214.38
652.83	1207.86
653.17	1200.38
653.51	1192.93
653.85	1186.81
654.20	1181.26
654.54	1173.76
654.88	1166.88
655.22	1161.02
655.56	1153.69
655.90	1147.21
656.25	1140.52
656.59	1134.24
656.93	1128.07
657.27	1122.79
657.61	1116.21
657.95	1110.79
658.29	1104.79
658.64	1099.55
658.98	1092.67
659.32	1085.95
659.66	1079.24
660.00	1072.69
660.34	1066.88
660.68	1061.67
661.02	1055.43
661.36	1048.67
661.70	1042.50
662.05	1036.86
662.39	1030.98
662.73	1026.24
663.07	1021.60
663.41	1015.19
663.75	1008.88
664.09	1003.64
664.43	996.31
664.77	990.07
665.11	983.19
665.45	976.95
665.79	970.33
666.13	964.21
666.47	958.86
666.81	952.88
667.15	947.24
667.49	941.62
667.83	936.02
668.17	930.57
668.51	925.45
668.85	920.33
669.19	915.33
669.53	908.60
669.87	902.12
670.21	895.21
670.55	889.21
670.89	884.17
671.23	878.36
671.57	872.57
671.91	867.52
672.25	862.62
672.58	857.81
672.92	852.38
673.26	847.57
673.60	842.05
673.94	836.86
674.28	831.74
674.62	827.05
674.96	821.14
675.30	816.31
675.64	810.86
675.97	805.48
676.31	799.57
676.65	794.52
676.99	790.98
677.33	785.71
677.67	781.57
678.01	775.69
678.34	770.19
678.68	766.48
679.02	760.95
679.36	754.95
679.70	749.74
680.04	744.93
680.37	740.00
680.71	734.98
681.05	730.67
681.39	725.93
681.73	720.71
682.06	715.95
682.40	710.76
682.74	706.50
683.08	702.31
683.42	697.83
683.75	693.64
684.09	687.71
684.43	683.10
684.77	677.74
685.10	673.50
685.44	668.74
685.78	663.31
686.12	659.17
686.45	655.21
686.79	650.19
687.13	645.83
687.46	641.19
687.80	637.55
688.14	632.86
688.48	628.67
688.81	624.38
689.15	620.83
689.49	616.36
689.82	612.19
690.16	606.79
690.50	602.60
690.83	598.17
691.17	593.50
691.51	589.69
691.84	586.12
692.18	582.31
692.52	579.05
692.85	575.90
693.19	573.12
693.52	569.19
693.86	565.48
694.20	561.76
694.53	557.95
694.87	553.76
695.21	549.60
695.54	545.55
695.88	541.57
696.21	536.55
696.55	532.98
696.88	529.19
697.22	526.26
697.56	523.10
697.89	519.29
698.23	516.24
698.56	512.33
698.90	508.98
699.23	504.88
699.57	501.10
699.90	497.05
700.24	492.40
700.58	488.95
700.91	485.83
701.25	483.81
701.58	481.40
701.92	478.40
702.25	475.45
702.59	472.26
702.92	469.21
703.26	466.50
703.59	463.40
703.93	461.50
704.26	458.50
704.60	455.31
704.93	452.24
705.26	449.50
705.60	447.36
705.93	444.02
706.27	442.10
706.60	439.64
706.94	437.83
707.27	434.93
707.61	432.31
707.94	429.74
708.27	425.48
708.61	421.79
708.94	419.31
709.28	416.90
709.61	414.40
709.94	412.07
710.28	410.07
710.61	407.81
710.95	404.05
711.28	402.71
711.61	400.45
711.95	399.00
712.28	396.43
712.61	393.90
712.95	393.36
713.28	391.81
713.61	389.43
713.95	386.69
714.28	385.19
714.61	383.14
714.95	380.93
715.28	378.98
715.61	377.48
715.95	375.50
716.28	373.26
716.61	371.60
716.95	369.21
717.28	367.00
717.61	364.98
717.94	363.26
718.28	359.86
718.61	357.60
718.94	355.21
719.27	353.57
719.61	351.74
719.94	349.21
720.27	346.45
720.60	344.57
720.94	342.60
721.27	340.69
721.60	339.24
721.93	337.45
722.27	336.52
722.60	334.93
722.93	333.14
723.26	331.93
723.59	329.93
723.93	328.69
724.26	327.62
724.59	326.19
724.92	324.76
725.25	324.07
725.59	323.05
725.92	322.02
726.25	320.79
726.58	319.83
726.91	318.29
727.24	317.33
727.57	316.38
727.91	314.88
728.24	313.74
728.57	312.29
728.90	311.60
729.23	309.79
729.56	309.50
729.89	308.43
730.22	307.00
730.55	306.33
730.89	305.43
731.22	304.24
731.55	303.02
731.88	301.95
732.21	300.74
732.54	299.83
732.87	298.88
733.20	297.98
733.53	296.76
733.86	295.93
734.19	294.67
734.52	293.83
734.85	294.55
735.18	293.52
735.51	293.19
735.84	292.43
736.17	292.17
736.50	290.43
736.83	292.24
737.16	291.76
737.49	290.57
737.82	289.52
738.15	288.79
738.48	288.21
738.81	287.52
739.14	286.36
739.47	285.31
739.80	284.33
740.13	283.74
740.46	282.83
740.79	281.64
741.12	280.95
741.45	279.98
741.78	278.14
742.11	278.07
742.44	277.12
742.77	276.74
743.10	275.55
743.43	274.62
743.75	271.40
744.08	273.05
744.41	272.36
744.74	271.71
745.07	270.71
745.40	270.52
745.73	270.50
746.06	270.02
746.39	269.64
746.71	268.95
747.04	267.95
747.37	267.24
747.70	267.10
748.03	266.45
748.36	266.05
748.68	265.33
749.01	264.02
749.34	263.43
749.67	262.48
750.00	262.10
750.33	263.29
750.65	263.07
750.98	260.12
751.31	259.52
751.64	259.14
751.97	259.98
752.29	258.79
752.62	257.38
752.95	256.95
753.28	256.07
753.60	255.43
753.93	255.43
754.26	255.14
754.59	254.24
754.91	253.62
755.24	252.98
755.57	252.52
755.90	252.05
756.22	251.36
756.55	250.69
756.88	249.90
757.20	247.69
757.53	246.48
757.86	246.07
758.19	246.14
758.51	245.71
758.84	243.90
759.17	243.52
759.49	243.40
759.82	243.98
760.15	243.71
760.47	243.31
760.80	242.33
761.13	242.40
761.45	242.02
761.78	241.62
762.11	241.24
762.43	240.62
762.76	240.24
763.08	240.00
763.41	239.60
763.74	239.60
764.06	239.52
764.39	239.31
764.71	238.50
765.04	237.93
765.37	237.40
765.69	237.31
766.02	237.10
766.34	236.31
766.67	235.17
767.00	235.40
767.32	236.24
767.65	237.45
767.97	236.83
768.30	236.86
768.62	236.50
768.95	236.10
769.27	235.69
769.60	235.52
769.92	234.93
770.25	234.26
770.57	233.64
770.90	233.21
771.22	232.95
771.55	233.10
771.87	232.79
772.20	232.21
772.52	233.48
772.85	235.55
773.17	235.69
773.50	235.07
773.82	234.60
774.15	233.57
774.47	231.83
774.80	231.36
775.12	231.00
775.45	230.69
775.77	230.55
776.09	230.69
776.42	230.67
776.74	231.31
777.07	231.33
777.39	231.36
777.72	231.05
778.04	230.98
778.36	230.64
778.69	230.38
779.01	230.55
779.33	228.76
779.66	226.45
779.98	226.21
780.31	226.36
780.63	226.67
780.95	226.81
781.28	226.60
781.60	226.36
781.92	226.19
782.25	226.43
782.57	226.31
782.89	226.05
783.22	225.90
783.54	225.14
783.86	225.26
784.19	224.71
784.51	225.33
784.83	224.81
785.16	224.33
785.48	224.48
785.80	224.26
786.12	224.43
786.45	224.21
786.77	224.17
787.09	224.05
787.42	223.31
787.74	223.19
788.06	223.24
788.38	222.79
788.71	222.48
789.03	222.33
789.35	222.57
789.67	222.29
789.99	222.14
790.32	221.90
790.64	221.93
790.96	223.67
791.28	222.93
791.61	223.00
791.93	223.62
792.25	223.36
792.57	224.69
792.89	224.14
793.21	224.17
793.54	224.07
793.86	223.60
794.18	223.67
794.50	223.05
794.82	223.02
795.14	223.50
795.47	223.79
795.79	223.83
796.11	223.14
796.43	223.00
796.75	222.93
797.07	223.12
797.39	222.79
797.71	221.17
798.04	221.33
798.36	221.45
798.68	221.02
799.00	220.88
799.32	219.86
799.64	220.05
799.96	220.19
800.28	220.43
800.60	220.33
800.92	220.57
801.24	220.45
801.56	220.50
801.89	220.33
802.21	220.24
802.53	219.69
802.85	220.21
803.17	221.12
803.49	220.86
803.81	220.48
804.13	220.50
804.45	220.36
804.77	220.24
805.09	220.12
805.41	219.79
805.73	219.48
806.05	218.88
806.37	218.69
806.69	218.21
807.01	217.90
807.33	217.95
807.65	217.10
807.97	217.95
808.28	217.67
808.60	217.45
808.92	217.26
809.24	218.64
809.56	218.05
809.88	217.21
810.20	217.31
810.52	217.76
810.84	217.29
811.16	217.00
811.48	216.90
811.80	217.76
812.12	217.95
812.43	218.33
812.75	218.67
813.07	218.55
813.39	218.81
813.71	218.67
814.03	218.62
814.35	218.90
814.67	218.17
814.98	217.98
815.30	217.88
815.62	217.52
815.94	215.98
816.26	216.10
816.58	215.76
816.89	215.74
817.21	215.19
817.53	215.62
817.85	215.67
818.17	215.64
818.48	214.64
818.80	214.88
819.12	214.60
819.44	214.00
819.76	213.79
820.07	213.62
820.39	213.50
820.71	213.50
821.03	213.12
821.34	212.95
821.66	213.12
821.98	213.36
822.30	213.31
822.61	214.74
822.93	214.74
823.25	214.69
823.57	214.57
823.88	215.12
824.20	214.98
824.52	215.50
824.83	215.60
825.15	215.29
825.47	215.12
825.79	215.26
826.10	215.29
826.42	215.29
826.74	215.64
827.05	215.36
827.37	215.62
827.69	215.74
828.00	216.02
828.32	216.17
828.64	215.81
828.95	216.60
829.27	215.95
829.58	215.81
829.90	216.38
830.22	216.48
830.53	215.93
830.85	215.40
831.17	214.98
831.48	214.86
831.80	215.05
832.11	214.71
832.43	214.71
832.75	214.74
833.06	215.95
833.38	215.24
833.69	215.36
834.01	215.05
834.32	214.88
834.64	214.40
834.96	214.36
835.27	214.38
835.59	214.26
835.90	213.69
836.22	213.45
836.53	213.12
836.85	213.10
837.16	215.10
837.48	215.24
837.79	215.81
838.11	215.67
838.42	215.55
838.74	216.02
839.05	215.69
839.37	215.69
839.68	214.38
840.00	214.36
840.31	214.71
840.63	214.88
840.94	214.79
841.26	214.60
841.57	214.71
841.88	214.95
842.20	214.43
842.51	214.26
842.83	214.71
843.14	216.38
843.46	216.24
843.77	215.07
844.08	215.21
844.40	214.33
844.71	214.21
845.03	214.10
845.34	213.86
845.65	213.76
845.97	213.76
846.28	213.81
846.60	213.86
846.91	213.67
847.22	213.64
847.54	214.10
847.85	214.45
848.16	214.12
848.48	213.60
848.79	214.60
849.10	215.02
849.42	214.90
849.73	212.90
850.04	213.00
850.36	212.38
850.67	212.60
850.98	212.90
851.30	213.19
851.61	213.17
851.92	213.10
852.23	213.71
852.55	213.74
852.86	213.93
853.17	214.24
853.49	214.29
853.80	214.52
854.11	214.74
854.42	214.76
854.74	214.45
855.05	215.00
855.36	213.57
855.67	213.62
855.99	213.48
856.30	216.26
856.61	215.93
856.92	215.90
857.23	215.95
857.55	215.81
857.86	215.57
858.17	216.02
858.48	215.64
858.79	215.12
859.11	215.43
859.42	215.40
859.73	214.83
860.04	214.93
860.35	214.38
860.66	213.50
860.98	213.64
861.29	213.90
861.60	213.43
861.91	214.02
862.22	213.69
862.53	213.43
862.84	210.67
863.16	211.24
863.47	210.98
863.78	210.88
864.09	211.10
864.40	211.50
864.71	211.43
865.02	211.83
865.33	211.76
865.64	211.33
865.95	211.24
866.27	212.64
866.58	212.29
866.89	212.60
867.20	212.76
867.51	212.24
867.82	212.29
868.13	213.10
868.44	212.67
868.75	212.90
869.06	213.19
869.37	213.60
869.68	212.93
869.99	213.24
870.30	213.14
870.61	213.02
870.92	212.55
871.23	212.40
871.54	212.52
871.85	213.14
872.16	213.45
872.47	213.36
872.78	212.24
873.09	212.48
873.40	211.95
873.71	211.90
874.02	212.07
874.33	211.90
874.64	211.31
874.95	211.74
875.26	211.40
875.56	211.26
875.87	211.17
876.18	211.19
876.49	212.95
876.80	212.83
877.11	212.76
877.42	212.62
877.73	212.69
878.04	212.50
878.35	212.14
878.66	212.14
878.96	212.07
879.27	212.07
879.58	212.10
879.89	212.48
880.20	213.26
880.51	213.24
880.82	213.31
881.12	213.45
881.43	212.81
881.74	212.64
882.05	212.60
882.36	212.76
882.67	213.10
882.97	211.02
883.28	211.07
883.59	210.76
883.90	211.26
884.21	211.52
884.51	211.36
884.82	211.21
885.13	211.24
885.44	211.24
885.74	211.24
886.05	211.05
886.36	210.90
886.67	210.21
886.98	211.33
887.28	211.55
887.59	211.52
887.90	211.69
888.20	211.67
888.51	211.95
888.82	211.33
889.13	211.48
889.43	213.31
889.74	213.21
890.05	213.36
890.35	212.98
890.66	212.79
890.97	212.69
891.28	212.48
891.58	212.50
891.89	212.57
892.20	212.31
892.50	212.10
892.81	212.05
893.12	211.98
893.42	211.00
893.73	210.90
894.04	210.88
894.34	211.17
894.65	210.95
894.95	210.95
895.26	211.17
895.57	212.05
895.87	210.12
896.18	210.45
896.48	210.64
896.79	210.79
897.10	210.90
897.40	211.19
897.71	211.43
898.01	211.17
898.32	211.33
898.63	211.52
898.93	211.86
899.24	211.74
899.54	211.69
899.85	211.76
900.15	211.74
900.46	211.67
900.76	211.90
901.07	211.98
901.38	211.90
901.68	212.21
901.99	211.14
902.29	211.36
902.60	211.14
902.90	210.90
903.21	211.02
903.51	210.81
903.82	211.14
904.12	211.21
904.43	211.31
904.73	211.24
905.03	211.07
905.34	212.83
905.64	212.76
905.95	212.90
906.25	212.67
906.56	212.62
906.86	212.74
907.17	212.67
907.47	212.93
907.77	212.83
908.08	212.38
908.38	212.43
908.69	212.69
908.99	213.02
909.30	213.10
909.60	212.86
909.90	213.19
910.21	212.57
910.51	212.33
910.81	212.36
911.12	212.48
911.42	212.71
911.73	210.60
912.03	211.12
912.33	211.50
912.64	211.67
912.94	211.57
913.24	211.05
913.55	210.67
913.85	210.33
914.15	210.69
914.46	210.86
914.76	210.76
915.06	210.52
915.37	210.12
915.67	210.10
915.97	210.26
916.27	209.52
916.58	209.55
916.88	209.55
917.18	209.38
917.49	210.86
917.79	210.81
918.09	211.26
918.39	211.50
918.70	211.38
919.00	211.21
919.30	212.14
919.60	212.38
919.91	212.29
920.21	212.69
920.51	212.14
920.81	212.19
921.12	212.57
921.42	212.40
921.72	212.50
922.02	212.50
922.32	212.71
922.63	213.02
922.93	214.21
923.23	214.10
923.53	213.98
923.83	212.60
924.13	212.81
924.44	212.74
924.74	213.31
925.04	213.69
925.34	213.79
925.64	212.83
925.94	212.86
926.24	214.10
926.55	213.69
926.85	214.17
927.15	214.17
927.45	214.00
927.75	213.98
928.05	214.14
928.35	214.19
928.65	214.40
928.95	214.74
929.26	213.88
929.56	214.50
929.86	214.67
930.16	214.45
930.46	214.12
930.76	214.31
931.06	213.10
931.36	212.67
931.66	212.95
931.96	213.24
932.26	213.45
932.56	212.36
932.86	212.67
933.16	212.40
933.46	212.21
933.76	211.79
934.06	212.38
934.36	212.95
934.66	212.93
934.96	212.62
935.26	212.71
935.56	213.07
935.86	212.52
936.16	212.52
936.46	212.48
936.76	212.62
937.06	212.21
937.36	212.38
937.66	212.29
937.96	212.26
938.26	211.76
938.56	211.21
938.86	211.57
939.16	211.93
939.46	212.12
939.76	212.31
940.06	212.64
940.35	212.05
940.65	211.17
940.95	211.33
941.25	210.83
941.55	210.40
941.85	210.40
942.15	210.95
942.45	211.38
942.75	211.43
943.04	211.45
943.34	212.17
943.64	211.98
943.94	211.81
944.24	211.90
944.54	212.17
944.84	212.48
945.13	212.24
945.43	212.00
945.73	211.88
946.03	211.76
946.33	211.12
946.62	211.24
946.92	210.98
947.22	211.07
947.52	211.50
947.82	211.69
948.11	211.19
948.41	210.60
948.71	209.79
949.01	209.69
949.31	209.55
949.60	209.14
949.90	209.57
950.20	209.52
950.50	209.19
950.79	209.24
951.09	209.57
951.39	209.50
951.69	209.29
951.98	210.05
952.28	210.24
952.58	210.55
952.87	210.55
953.17	211.40
953.47	211.14
953.76	210.95
954.06	210.76
954.36	210.50
954.66	210.71
954.95	211.71
955.25	211.88
955.55	212.19
955.84	211.79
956.14	211.93
956.44	212.10
956.73	211.88
957.03	211.90
957.32	211.62
957.62	211.38
957.92	211.74
958.21	211.24
958.51	213.33
958.81	213.67
959.10	213.60
959.40	213.76
959.69	213.90
959.99	214.24
960.29	214.31
960.58	214.55
960.88	215.19
961.17	214.88
961.47	214.95
961.76	214.57
962.06	215.02
962.36	214.83
962.65	214.93
962.95	215.07
963.24	214.83
963.54	215.00
963.83	215.26
964.13	215.29
964.42	214.76
964.72	213.26
965.01	213.24
965.31	213.05
965.60	212.36
965.90	213.52
966.19	213.12
966.49	213.14
966.78	212.93
967.08	212.64
967.37	212.62
967.67	212.40
967.96	212.81
968.26	212.67
968.55	213.00
968.85	213.07
969.14	212.98
969.43	213.00
969.73	212.98
970.02	212.86
970.32	212.55
970.61	212.50
970.91	211.76
971.20	211.31
971.49	211.48
971.79	211.88
972.08	210.64
972.38	210.74
972.67	210.64
972.96	211.05
973.26	210.52
973.55	211.10
973.85	211.00
974.14	210.86
974.43	211.21
974.73	210.60
975.02	210.31
975.31	210.48
975.61	210.52
975.90	210.19
976.19	210.19
976.49	210.52
976.78	210.83
977.07	210.88
977.37	211.24
977.66	211.43
977.95	210.98
978.24	210.95
978.54	211.40
978.83	211.33
979.12	211.19
979.42	211.36
979.71	210.88
980.00	210.74
980.29	210.74
980.59	210.07
980.88	210.88
981.17	210.93
981.46	211.07
981.76	211.10
982.05	211.71
982.34	212.00
982.63	211.93
982.93	211.90
983.22	212.43
983.51	212.36
983.80	212.60
984.09	213.10
984.39	213.12
984.68	212.60
984.97	212.88
985.26	212.71
985.55	212.86
985.85	212.52
986.14	213.00
986.43	213.17
986.72	213.05
987.01	212.17
987.30	212.33
987.59	211.74
987.89	211.74
988.18	211.26
988.47	210.81
988.76	210.52
989.05	210.38
989.34	210.17
989.63	210.81
989.92	210.38
990.22	209.88
990.51	209.83
990.80	209.93
991.09	209.74
991.38	209.90
991.67	209.86
991.96	209.71
992.25	209.69
992.54	209.31
992.83	209.29
993.12	209.45
993.41	209.40
993.70	210.55
993.99	210.79
994.28	211.14
994.58	211.57
994.87	211.43
995.16	211.26
995.45	210.93
995.74	210.21
996.03	210.67
996.32	211.14
996.61	211.50
996.90	211.62
997.19	211.64
997.48	211.60
997.77	211.40
998.06	211.50
998.34	211.29
998.63	211.33
998.92	211.62
999.21	211.90
999.50	212.12
999.79	211.36
1000.08	211.29
1000.37	211.14
1000.66	210.76
1000.95	211.24
1001.24	211.57
1001.53	211.81
1001.82	211.52
1002.11	210.79
1002.40	210.95
1002.68	211.31
1002.97	212.69
1003.26	212.50
1003.55	212.26
1003.84	212.50
1004.13	213.26
1004.42	213.26
1004.71	213.14
1004.99	213.12
1005.28	213.36
1005.57	213.07
1005.86	212.86
1006.15	212.81
1006.44	212.57
1006.72	212.93
1007.01	212.69
1007.30	212.45
1007.59	212.31
1007.88	212.38
1008.17	212.76
1008.45	212.19
1008.74	211.48
1009.03	210.43
1009.32	210.40
1009.60	210.36
1009.89	209.95
1010.18	209.05
1010.47	209.02
1010.76	209.17
1011.04	209.17
1011.33	209.36
1011.62	209.48
1011.91	209.57
1012.19	209.57
1012.48	209.74
1012.77	209.76
1013.05	210.67
1013.34	210.88
1013.63	210.88
1013.92	211.24
1014.20	211.07
1014.49	211.19
1014.78	211.17
1015.06	210.45
1015.35	210.33
1015.64	210.69
1015.92	211.02
1016.21	211.14
1016.50	210.93
1016.78	211.29
1017.07	211.38
1017.36	210.74
1017.64	210.43
1017.93	210.60
1018.22	210.50
1018.50	210.31
1018.79	210.19
1019.08	209.29
1019.36	209.36
1019.65	209.17
1019.93	209.52
1020.22	209.86
1020.51	210.79
1020.79	210.71
1021.08	208.50
1021.36	207.50
1021.65	211.50
1021.94	211.00
1022.22	213.00
1022.51	206.50
1022.79	218.50
1023.08	214.00
1023.36	232.00
1023.65	206.00
>>>>>End Processed Spectral Data<<<<<
