SpectraSuite Data File
++++++++++++++++++++++++++++++++++++
Date: Tue Apr 02 18:46:08 EDT 2013
User: group
Dark Spectrum Present: No
Reference Spectrum Present: No
Number of Sampled Component Spectra: 1
Spectrometers: USB2E7196
Integration Time (usec): 580000 (USB2E7196)
Spectra Averaged: 2 (USB2E7196)
Boxcar Smoothing: 10 (USB2E7196)
Correct for Electrical Dark: No (USB2E7196)
Strobe/Lamp Enabled: No (USB2E7196)
Correct for Detector Non-linearity: No (USB2E7196)
Correct for Stray Light: No (USB2E7196)
Number of Pixels in Processed Spectrum: 2048
>>>>>Begin Processed Spectral Data<<<<<
339.09	0.00
339.48	196.00
339.86	201.00
340.24	197.50
340.63	198.50
341.01	238.00
341.39	197.00
341.78	206.00
342.16	213.50
342.54	206.00
342.93	198.71
343.31	208.60
343.69	209.02
344.07	209.24
344.46	210.07
344.84	210.74
345.22	209.10
345.60	209.67
345.99	209.93
346.37	209.67
346.75	209.64
347.13	209.83
347.52	210.12
347.90	210.52
348.28	210.57
348.66	211.05
349.05	210.36
349.43	210.62
349.81	210.64
350.19	210.52
350.57	210.64
350.96	210.69
351.34	210.74
351.72	211.12
352.10	211.19
352.48	210.95
352.87	210.79
353.25	210.90
353.63	210.69
354.01	210.45
354.39	210.57
354.77	210.83
355.15	211.10
355.54	210.62
355.92	210.24
356.30	210.26
356.68	211.50
357.06	211.71
357.44	211.52
357.82	211.60
358.20	212.60
358.58	212.43
358.97	212.55
359.35	213.05
359.73	213.26
360.11	213.19
360.49	213.17
360.87	213.10
361.25	213.55
361.63	214.40
362.01	214.81
362.39	214.67
362.77	214.71
363.15	214.83
363.53	214.88
363.91	214.86
364.29	214.90
364.67	213.07
365.05	213.05
365.43	213.26
365.81	213.45
366.19	213.69
366.57	214.64
366.95	214.38
367.33	213.86
367.71	213.81
368.09	214.43
368.47	214.52
368.85	214.48
369.23	214.86
369.61	214.02
369.99	214.45
370.37	215.00
370.75	216.10
371.13	215.64
371.51	215.45
371.89	215.71
372.27	215.83
372.65	216.07
373.03	216.14
373.41	216.17
373.78	216.21
374.16	215.29
374.54	214.45
374.92	214.57
375.30	214.81
375.68	214.31
376.06	214.14
376.44	213.95
376.82	214.26
377.19	214.10
377.57	214.36
377.95	213.76
378.33	213.43
378.71	212.24
379.09	212.79
379.47	213.02
379.84	212.98
380.22	212.74
380.60	212.38
380.98	212.38
381.36	212.31
381.73	212.05
382.11	212.38
382.49	212.50
382.87	212.36
383.25	212.21
383.62	214.74
384.00	214.52
384.38	214.69
384.76	215.19
385.13	215.95
385.51	215.83
385.89	215.69
386.27	215.98
386.64	216.14
387.02	215.67
387.40	215.48
387.78	215.55
388.15	215.64
388.53	215.83
388.91	215.76
389.29	215.60
389.66	215.79
390.04	215.31
390.42	215.71
390.79	215.81
391.17	215.79
391.55	213.64
391.92	213.71
392.30	213.98
392.68	213.45
393.05	213.31
393.43	213.31
393.81	213.45
394.18	213.17
394.56	213.26
394.94	213.93
395.31	213.93
395.69	214.40
396.06	214.64
396.44	214.50
396.82	214.21
397.19	215.38
397.57	215.17
397.95	215.71
398.32	215.17
398.70	215.29
399.07	215.83
399.45	215.79
399.82	215.81
400.20	215.55
400.58	215.38
400.95	214.69
401.33	215.50
401.70	216.81
402.08	216.90
402.45	216.95
402.83	217.14
403.20	217.29
403.58	217.17
403.95	217.69
404.33	218.21
404.71	218.81
405.08	220.00
405.46	220.36
405.83	220.71
406.21	221.00
406.58	221.36
406.96	221.71
407.33	222.36
407.70	222.98
408.08	225.10
408.45	226.24
408.83	227.10
409.20	227.24
409.58	226.79
409.95	227.88
410.33	228.88
410.70	229.50
411.08	230.98
411.45	232.17
411.82	232.79
412.20	234.29
412.57	236.67
412.95	236.21
413.32	238.05
413.69	239.31
414.07	241.19
414.44	243.00
414.82	244.71
415.19	247.21
415.56	249.40
415.94	250.69
416.31	253.57
416.68	256.40
417.06	260.10
417.43	263.62
417.81	267.02
418.18	270.57
418.55	273.95
418.93	277.69
419.30	281.67
419.67	286.29
420.04	290.86
420.42	295.05
420.79	302.26
421.16	307.57
421.54	314.40
421.91	320.29
422.28	326.71
422.66	333.45
423.03	340.95
423.40	347.62
423.77	354.29
424.15	361.10
424.52	368.71
424.89	376.93
425.26	384.45
425.64	391.95
426.01	400.07
426.38	409.12
426.75	418.45
427.13	427.45
427.50	437.43
427.87	447.64
428.24	457.45
428.61	465.90
428.99	477.26
429.36	487.48
429.73	498.95
430.10	510.31
430.47	522.00
430.85	532.29
431.22	545.02
431.59	560.05
431.96	572.60
432.33	586.43
432.70	600.24
433.08	616.48
433.45	631.81
433.82	647.10
434.19	663.95
434.56	680.52
434.93	696.17
435.30	711.43
435.68	728.36
436.05	745.48
436.42	762.19
436.79	778.21
437.16	795.88
437.53	813.60
437.90	831.00
438.27	848.40
438.64	866.69
439.01	883.67
439.38	897.31
439.75	912.26
440.13	929.43
440.50	944.33
440.87	957.50
441.24	970.45
441.61	985.55
441.98	996.40
442.35	1008.14
442.72	1020.98
443.09	1034.31
443.46	1042.10
443.83	1047.67
444.20	1052.64
444.57	1058.19
444.94	1061.48
445.31	1064.93
445.68	1070.31
446.05	1072.29
446.42	1070.88
446.79	1069.62
447.16	1067.83
447.53	1066.14
447.90	1059.48
448.27	1053.40
448.64	1044.50
449.01	1038.69
449.37	1027.14
449.74	1015.74
450.11	1004.71
450.48	990.55
450.85	974.86
451.22	962.12
451.59	950.33
451.96	938.43
452.33	923.24
452.70	908.74
453.07	892.00
453.43	873.19
453.80	856.43
454.17	841.00
454.54	825.52
454.91	809.60
455.28	794.43
455.65	779.31
456.02	767.90
456.38	755.10
456.75	739.74
457.12	726.26
457.49	713.36
457.86	699.07
458.23	689.19
458.59	677.26
458.96	665.62
459.33	654.50
459.70	644.12
460.07	635.74
460.43	626.19
460.80	617.36
461.17	609.71
461.54	601.55
461.91	593.48
462.27	585.26
462.64	578.36
463.01	570.90
463.38	564.83
463.74	553.90
464.11	547.60
464.48	541.71
464.85	535.31
465.21	531.60
465.58	527.36
465.95	520.60
466.32	516.19
466.68	510.98
467.05	506.29
467.42	501.21
467.78	495.81
468.15	490.86
468.52	487.57
468.88	481.81
469.25	477.12
469.62	473.93
469.98	470.45
470.35	466.74
470.72	463.10
471.08	458.43
471.45	456.26
471.82	453.38
472.18	449.83
472.55	447.90
472.92	444.00
473.28	440.26
473.65	437.55
474.02	434.45
474.38	432.62
474.75	430.45
475.11	428.48
475.48	426.90
475.85	425.52
476.21	423.05
476.58	422.36
476.94	421.36
477.31	419.81
477.67	418.52
478.04	417.50
478.41	416.71
478.77	418.19
479.14	416.81
479.50	416.17
479.87	416.14
480.23	415.67
480.60	415.48
480.96	415.55
481.33	416.60
481.69	416.88
482.06	416.86
482.42	417.31
482.79	417.79
483.15	418.02
483.52	418.50
483.88	419.05
484.25	419.43
484.61	419.74
484.98	420.40
485.34	421.95
485.71	423.17
486.07	424.21
486.44	423.69
486.80	425.14
487.17	426.57
487.53	428.74
487.90	431.31
488.26	434.36
488.62	437.33
488.99	438.83
489.35	441.43
489.72	444.12
490.08	446.45
490.44	448.90
490.81	452.64
491.17	455.52
491.54	459.50
491.90	462.90
492.26	466.67
492.63	470.76
492.99	474.14
493.36	478.43
493.72	482.98
494.08	487.19
494.45	492.02
494.81	497.14
495.17	501.52
495.54	506.36
495.90	510.83
496.26	516.02
496.63	521.55
496.99	526.83
497.35	532.62
497.72	538.79
498.08	544.55
498.44	550.45
498.80	557.31
499.17	563.00
499.53	569.55
499.89	576.67
500.26	583.29
500.62	590.29
500.98	597.17
501.34	604.14
501.71	611.74
502.07	618.90
502.43	625.55
502.79	632.62
503.16	639.86
503.52	646.62
503.88	653.21
504.24	660.98
504.60	668.45
504.97	675.90
505.33	683.19
505.69	692.07
506.05	699.21
506.41	706.79
506.78	714.71
507.14	722.45
507.50	729.86
507.86	737.79
508.22	746.10
508.59	753.86
508.95	761.69
509.31	769.88
509.67	777.88
510.03	785.93
510.39	793.36
510.75	801.12
511.12	809.05
511.48	817.33
511.84	824.48
512.20	832.40
512.56	840.10
512.92	847.90
513.28	854.98
513.64	862.62
514.00	869.79
514.37	876.93
514.73	884.14
515.09	891.79
515.45	898.33
515.81	904.33
516.17	911.29
516.53	917.62
516.89	923.38
517.25	929.93
517.61	936.60
517.97	943.57
518.33	949.86
518.69	956.57
519.05	962.62
519.41	969.43
519.77	976.67
520.13	981.74
520.49	987.29
520.85	992.67
521.21	999.57
521.57	1005.50
521.93	1010.79
522.29	1016.26
522.65	1021.29
523.01	1027.17
523.37	1032.52
523.73	1037.50
524.09	1043.10
524.45	1048.33
524.81	1052.98
525.17	1058.05
525.53	1063.05
525.89	1067.17
526.25	1072.24
526.61	1076.57
526.97	1079.95
527.33	1083.62
527.68	1089.83
528.04	1094.81
528.40	1098.67
528.76	1102.45
529.12	1106.33
529.48	1110.86
529.84	1114.64
530.20	1118.29
530.56	1122.33
530.91	1126.90
531.27	1131.69
531.63	1135.64
531.99	1139.50
532.35	1142.95
532.71	1146.50
533.07	1150.50
533.42	1157.64
533.78	1161.40
534.14	1165.10
534.50	1169.29
534.86	1173.43
535.21	1176.24
535.57	1180.19
535.93	1184.50
536.29	1188.40
536.65	1192.79
537.00	1195.86
537.36	1199.98
537.72	1203.90
538.08	1207.17
538.44	1209.71
538.79	1212.81
539.15	1215.86
539.51	1219.45
539.87	1222.98
540.22	1226.31
540.58	1229.24
540.94	1229.74
541.29	1232.74
541.65	1235.31
542.01	1238.71
542.37	1241.12
542.72	1243.29
543.08	1245.67
543.44	1248.64
543.79	1249.95
544.15	1252.45
544.51	1255.79
544.87	1258.79
545.22	1261.83
545.58	1264.90
545.94	1268.38
546.29	1271.19
546.65	1273.98
547.01	1276.26
547.36	1278.31
547.72	1281.14
548.07	1283.83
548.43	1285.50
548.79	1286.93
549.14	1289.31
549.50	1292.07
549.86	1294.14
550.21	1297.29
550.57	1300.12
550.92	1301.90
551.28	1305.19
551.64	1308.31
551.99	1311.48
552.35	1313.43
552.70	1315.60
553.06	1318.48
553.41	1320.88
553.77	1324.76
554.13	1328.55
554.48	1332.81
554.84	1337.52
555.19	1340.88
555.55	1345.67
555.90	1350.02
556.26	1354.62
556.61	1358.62
556.97	1361.69
557.32	1366.02
557.68	1369.93
558.03	1373.67
558.39	1377.19
558.74	1381.52
559.10	1384.45
559.45	1388.00
559.81	1392.17
560.16	1396.81
560.52	1400.86
560.87	1406.10
561.23	1409.00
561.58	1414.50
561.94	1418.21
562.29	1421.81
562.64	1426.62
563.00	1429.69
563.35	1434.12
563.71	1438.95
564.06	1444.86
564.42	1449.74
564.77	1455.12
565.12	1460.48
565.48	1467.24
565.83	1474.14
566.19	1479.67
566.54	1485.83
566.89	1491.98
567.25	1498.43
567.60	1504.43
567.96	1512.05
568.31	1518.31
568.66	1524.76
569.02	1528.24
569.37	1533.62
569.72	1540.12
570.08	1544.88
570.43	1550.60
570.78	1556.62
571.14	1561.86
571.49	1567.00
571.84	1573.17
572.20	1578.05
572.55	1583.24
572.90	1586.21
573.26	1590.26
573.61	1594.55
573.96	1599.29
574.31	1603.40
574.67	1607.48
575.02	1611.12
575.37	1613.12
575.72	1615.60
576.08	1619.36
576.43	1624.48
576.78	1627.98
577.13	1631.12
577.49	1634.98
577.84	1639.21
578.19	1642.83
578.54	1646.90
578.90	1651.43
579.25	1655.24
579.60	1658.36
579.95	1661.69
580.30	1666.00
580.66	1669.74
581.01	1672.83
581.36	1675.57
581.71	1679.76
582.06	1684.12
582.42	1687.95
582.77	1690.76
583.12	1694.40
583.47	1697.67
583.82	1700.21
584.17	1703.88
584.53	1708.67
584.88	1711.83
585.23	1715.31
585.58	1717.69
585.93	1720.62
586.28	1723.48
586.63	1726.48
586.98	1729.14
587.34	1732.12
587.69	1734.31
588.04	1737.45
588.39	1740.67
588.74	1742.12
589.09	1744.64
589.44	1744.76
589.79	1747.52
590.14	1750.07
590.49	1752.19
590.84	1753.29
591.19	1755.33
591.54	1757.31
591.89	1757.45
592.25	1761.02
592.60	1761.43
592.95	1763.79
593.30	1764.93
593.65	1765.14
594.00	1764.33
594.35	1771.76
594.70	1771.81
595.05	1773.45
595.40	1773.69
595.75	1774.21
596.10	1776.57
596.45	1776.38
596.80	1778.38
597.15	1779.24
597.50	1779.29
597.85	1781.36
598.19	1782.02
598.54	1782.95
598.89	1783.17
599.24	1784.07
599.59	1783.43
599.94	1783.86
600.29	1784.02
600.64	1784.14
600.99	1783.88
601.34	1786.26
601.69	1780.57
602.04	1780.52
602.39	1779.83
602.74	1780.36
603.08	1780.81
603.43	1781.38
603.78	1781.52
604.13	1780.86
604.48	1780.24
604.83	1781.43
605.18	1779.26
605.53	1779.38
605.87	1778.45
606.22	1777.43
606.57	1776.62
606.92	1775.33
607.27	1775.02
607.62	1773.86
607.96	1773.71
608.31	1772.93
608.66	1770.67
609.01	1769.33
609.36	1769.17
609.70	1767.52
610.05	1765.17
610.40	1763.26
610.75	1760.14
611.10	1758.38
611.44	1756.17
611.79	1753.60
612.14	1751.14
612.49	1749.52
612.83	1746.69
613.18	1744.40
613.53	1742.31
613.88	1738.38
614.22	1735.62
614.57	1731.45
614.92	1727.69
615.27	1723.90
615.61	1720.12
615.96	1716.36
616.31	1713.57
616.65	1711.19
617.00	1708.55
617.35	1706.81
617.70	1702.88
618.04	1700.45
618.39	1697.33
618.74	1694.40
619.08	1690.64
619.43	1686.74
619.78	1682.83
620.12	1679.95
620.47	1676.21
620.82	1672.48
621.16	1669.17
621.51	1665.86
621.85	1663.50
622.20	1660.88
622.55	1656.40
622.89	1653.21
623.24	1650.57
623.59	1646.29
623.93	1641.90
624.28	1637.95
624.62	1634.36
624.97	1632.19
625.32	1627.52
625.66	1623.40
626.01	1620.00
626.35	1616.29
626.70	1613.12
627.04	1609.38
627.39	1604.67
627.73	1601.74
628.08	1597.93
628.43	1594.52
628.77	1589.88
629.12	1585.64
629.46	1581.74
629.81	1578.24
630.15	1573.98
630.50	1569.00
630.84	1564.90
631.19	1560.00
631.53	1555.64
631.88	1549.21
632.22	1542.67
632.57	1538.98
632.91	1533.79
633.26	1529.26
633.60	1524.69
633.95	1519.43
634.29	1514.52
634.64	1510.71
634.98	1504.86
635.32	1501.36
635.67	1498.17
636.01	1493.62
636.36	1488.69
636.70	1483.93
637.05	1479.93
637.39	1475.50
637.73	1472.05
638.08	1467.52
638.42	1462.50
638.77	1458.43
639.11	1453.88
639.45	1449.76
639.80	1443.90
640.14	1439.67
640.49	1433.76
640.83	1428.43
641.17	1424.36
641.52	1419.83
641.86	1414.45
642.20	1410.81
642.55	1404.26
642.89	1397.17
643.23	1392.67
643.58	1387.64
643.92	1381.31
644.26	1375.33
644.61	1370.52
644.95	1364.14
645.29	1358.14
645.64	1353.64
645.98	1347.74
646.32	1343.24
646.66	1337.57
647.01	1331.67
647.35	1326.14
647.69	1320.57
648.04	1315.33
648.38	1309.05
648.72	1302.81
649.06	1297.21
649.41	1290.26
649.75	1284.19
650.09	1278.52
650.43	1270.86
650.78	1264.07
651.12	1258.88
651.46	1252.81
651.80	1246.45
652.14	1240.74
652.49	1235.50
652.83	1229.36
653.17	1222.67
653.51	1215.60
653.85	1209.90
654.20	1204.52
654.54	1197.21
654.88	1191.29
655.22	1185.48
655.56	1178.36
655.90	1172.40
656.25	1165.60
656.59	1159.95
656.93	1154.60
657.27	1149.67
657.61	1144.50
657.95	1139.71
658.29	1132.81
658.64	1126.88
658.98	1120.50
659.32	1113.21
659.66	1106.86
660.00	1100.55
660.34	1095.07
660.68	1089.88
661.02	1082.69
661.36	1076.52
661.70	1071.14
662.05	1065.48
662.39	1059.76
662.73	1055.31
663.07	1050.40
663.41	1045.24
663.75	1038.69
664.09	1032.31
664.43	1025.95
664.77	1020.38
665.11	1013.21
665.45	1007.88
665.79	1002.71
666.13	996.26
666.47	991.24
666.81	985.64
667.15	979.29
667.49	973.69
667.83	968.21
668.17	963.43
668.51	957.83
668.85	952.79
669.19	948.62
669.53	942.90
669.87	936.33
670.21	929.33
670.55	923.33
670.89	919.00
671.23	914.12
671.57	908.83
671.91	903.45
672.25	898.60
672.58	894.24
672.92	888.36
673.26	884.02
673.60	879.07
673.94	873.83
674.28	869.26
674.62	864.24
674.96	859.21
675.30	854.45
675.64	849.60
675.97	844.21
676.31	837.90
676.65	832.57
676.99	829.36
677.33	824.74
677.67	821.05
678.01	815.12
678.34	809.74
678.68	805.07
679.02	799.93
679.36	794.95
679.70	789.24
680.04	784.48
680.37	779.31
680.71	774.12
681.05	769.45
681.39	764.62
681.73	759.55
682.06	753.98
682.40	749.10
682.74	744.71
683.08	740.55
683.42	735.40
683.75	730.64
684.09	724.93
684.43	720.52
684.77	714.57
685.10	710.21
685.44	705.17
685.78	699.81
686.12	695.29
686.45	690.40
686.79	685.88
687.13	681.74
687.46	677.40
687.80	673.76
688.14	669.10
688.48	664.98
688.81	660.52
689.15	656.17
689.49	651.57
689.82	646.69
690.16	641.19
690.50	636.57
690.83	631.79
691.17	626.36
691.51	621.62
691.84	618.00
692.18	613.21
692.52	609.69
692.85	606.07
693.19	602.69
693.52	599.19
693.86	594.98
694.20	590.21
694.53	585.79
694.87	581.17
695.21	576.71
695.54	572.00
695.88	567.48
696.21	563.12
696.55	558.48
696.88	554.90
697.22	551.17
697.56	547.90
697.89	544.26
698.23	541.14
698.56	537.10
698.90	533.17
699.23	529.31
699.57	525.67
699.90	521.52
700.24	517.07
700.58	513.14
700.91	509.79
701.25	508.00
701.58	505.98
701.92	503.00
702.25	499.60
702.59	496.19
702.92	493.02
703.26	489.98
703.59	487.24
703.93	485.57
704.26	483.05
704.60	480.19
704.93	477.21
705.26	474.02
705.60	472.24
705.93	468.79
706.27	466.69
706.60	464.12
706.94	462.21
707.27	459.26
707.61	456.50
707.94	453.19
708.27	448.52
708.61	444.71
708.94	441.95
709.28	439.71
709.61	437.02
709.94	434.86
710.28	432.36
710.61	429.69
710.95	425.19
711.28	423.86
711.61	420.98
711.95	418.76
712.28	416.00
712.61	413.02
712.95	411.98
713.28	410.48
713.61	407.48
713.95	404.86
714.28	402.64
714.61	400.50
714.95	398.57
715.28	396.33
715.61	393.90
715.95	391.43
716.28	388.90
716.61	387.24
716.95	384.48
717.28	382.38
717.61	380.45
717.94	378.21
718.28	374.29
718.61	372.29
718.94	370.17
719.27	368.02
719.61	366.14
719.94	363.40
720.27	360.17
720.60	358.19
720.94	355.71
721.27	354.02
721.60	352.43
721.93	350.81
722.27	350.07
722.60	348.71
722.93	346.71
723.26	345.14
723.59	343.07
723.93	342.05
724.26	340.81
724.59	339.02
724.92	338.02
725.25	337.64
725.59	336.31
725.92	335.38
726.25	334.50
726.58	332.98
726.91	331.40
727.24	330.21
727.57	329.12
727.91	327.76
728.24	326.33
728.57	324.71
728.90	323.57
729.23	321.40
729.56	320.86
729.89	319.79
730.22	318.52
730.55	317.48
730.89	316.21
731.22	314.62
731.55	313.36
731.88	312.19
732.21	310.48
732.54	309.12
732.87	307.62
733.20	306.55
733.53	305.71
733.86	305.14
734.19	303.76
734.52	302.83
734.85	303.40
735.18	302.29
735.51	302.05
735.84	301.07
736.17	300.88
736.50	299.17
736.83	300.76
737.16	299.98
737.49	299.10
737.82	298.05
738.15	297.38
738.48	296.86
738.81	295.81
739.14	294.76
739.47	293.86
739.80	292.93
740.13	292.21
740.46	291.24
740.79	289.74
741.12	288.88
741.45	287.83
741.78	285.38
742.11	285.40
742.44	283.93
742.77	283.36
743.10	281.93
743.43	280.95
743.75	277.93
744.08	279.64
744.41	278.74
744.74	277.50
745.07	276.17
745.40	275.62
745.73	275.64
746.06	274.90
746.39	274.29
746.71	273.43
747.04	272.40
747.37	271.62
747.70	271.29
748.03	270.86
748.36	270.50
748.68	270.07
749.01	268.55
749.34	268.33
749.67	267.60
750.00	267.86
750.33	268.86
750.65	268.60
750.98	265.38
751.31	264.93
751.64	264.81
751.97	265.69
752.29	264.98
752.62	263.50
752.95	262.83
753.28	262.21
753.60	261.62
753.93	261.48
754.26	260.95
754.59	259.93
754.91	259.19
755.24	258.26
755.57	257.57
755.90	256.98
756.22	256.00
756.55	255.31
756.88	254.14
757.20	252.31
757.53	250.98
757.86	250.71
758.19	250.40
758.51	249.88
758.84	248.38
759.17	247.76
759.49	247.67
759.82	248.40
760.15	247.93
760.47	247.57
760.80	246.52
761.13	246.43
761.45	245.86
761.78	245.38
762.11	245.26
762.43	244.88
762.76	244.60
763.08	244.33
763.41	244.05
763.74	243.86
764.06	243.40
764.39	243.21
764.71	242.52
765.04	241.74
765.37	241.05
765.69	240.57
766.02	240.24
766.34	239.57
766.67	238.33
767.00	238.55
767.32	239.26
767.65	240.10
767.97	239.60
768.30	239.45
768.62	239.31
768.95	238.83
769.27	238.36
769.60	238.43
769.92	237.90
770.25	237.14
770.57	236.33
770.90	236.19
771.22	235.60
771.55	235.45
771.87	235.36
772.20	235.40
772.52	236.95
772.85	239.21
773.17	239.07
773.50	238.67
773.82	238.00
774.15	236.76
774.47	235.48
774.80	235.05
775.12	234.95
775.45	234.60
775.77	234.33
776.09	234.45
776.42	234.02
776.74	234.40
777.07	234.12
777.39	233.90
777.72	233.50
778.04	233.50
778.36	233.14
778.69	233.10
779.01	232.90
779.33	231.00
779.66	228.43
779.98	228.12
780.31	228.33
780.63	228.93
780.95	228.90
781.28	228.79
781.60	228.50
781.92	228.31
782.25	228.02
782.57	227.88
782.89	227.69
783.22	227.50
783.54	226.88
783.86	227.17
784.19	226.90
784.51	227.50
784.83	227.12
785.16	226.81
785.48	226.45
785.80	226.50
786.12	226.69
786.45	226.38
786.77	226.38
787.09	225.83
787.42	225.14
787.74	225.19
788.06	225.10
788.38	224.79
788.71	224.55
789.03	224.86
789.35	225.02
789.67	224.48
789.99	224.40
790.32	224.05
790.64	224.17
790.96	225.79
791.28	224.55
791.61	224.57
791.93	224.62
792.25	224.69
792.57	225.86
792.89	225.26
793.21	225.48
793.54	224.98
793.86	224.76
794.18	224.48
794.50	223.93
794.82	223.76
795.14	224.05
795.47	224.31
795.79	223.74
796.11	223.38
796.43	223.21
796.75	223.12
797.07	223.10
797.39	222.86
797.71	221.33
798.04	221.52
798.36	221.67
798.68	221.74
799.00	221.79
799.32	220.64
799.64	221.00
799.96	220.79
800.28	221.14
800.60	221.02
800.92	221.31
801.24	221.17
801.56	221.45
801.89	221.21
802.21	221.33
802.53	221.10
802.85	221.33
803.17	222.45
803.49	222.07
803.81	222.05
804.13	221.86
804.45	221.45
804.77	221.50
805.09	221.24
805.41	220.76
805.73	220.12
806.05	219.74
806.37	219.29
806.69	219.21
807.01	219.00
807.33	219.02
807.65	218.21
807.97	219.19
808.28	218.79
808.60	218.76
808.92	218.36
809.24	219.83
809.56	219.50
809.88	218.43
810.20	218.48
810.52	218.57
810.84	218.05
811.16	218.02
811.48	218.07
811.80	218.90
812.12	219.07
812.43	219.57
812.75	219.38
813.07	219.26
813.39	219.21
813.71	218.86
814.03	218.76
814.35	218.88
814.67	217.95
814.98	217.45
815.30	217.33
815.62	216.93
815.94	215.38
816.26	215.38
816.58	215.19
816.89	215.38
817.21	215.05
817.53	215.19
817.85	215.33
818.17	215.00
818.48	214.24
818.80	214.48
819.12	213.98
819.44	213.81
819.76	213.64
820.07	213.48
820.39	213.67
820.71	213.74
821.03	213.60
821.34	213.43
821.66	214.24
821.98	214.48
822.30	214.38
822.61	215.86
822.93	215.64
823.25	215.52
823.57	215.07
823.88	215.62
824.20	215.55
824.52	215.79
824.83	215.86
825.15	215.48
825.47	215.45
825.79	215.69
826.10	215.67
826.42	215.88
826.74	216.07
827.05	215.88
827.37	215.76
827.69	215.64
828.00	215.88
828.32	215.50
828.64	215.19
828.95	216.36
829.27	215.48
829.58	215.19
829.90	215.76
830.22	216.14
830.53	215.45
830.85	215.43
831.17	215.05
831.48	215.07
831.80	215.21
832.11	215.21
832.43	214.90
832.75	214.74
833.06	215.88
833.38	215.10
833.69	215.26
834.01	215.31
834.32	215.50
834.64	215.07
834.96	215.33
835.27	215.29
835.59	214.57
835.90	214.02
836.22	214.17
836.53	213.64
836.85	213.36
837.16	215.48
837.48	215.86
837.79	216.31
838.11	216.21
838.42	216.36
838.74	216.43
839.05	216.24
839.37	216.48
839.68	215.05
840.00	215.45
840.31	215.74
840.63	215.81
840.94	215.48
841.26	215.48
841.57	215.17
841.88	215.43
842.20	215.26
842.51	215.29
842.83	215.43
843.14	217.12
843.46	217.19
843.77	216.26
844.08	215.71
844.40	215.19
844.71	214.93
845.03	214.60
845.34	214.17
845.65	214.31
845.97	214.21
846.28	214.24
846.60	214.40
846.91	213.86
847.22	213.81
847.54	214.12
847.85	214.26
848.16	214.19
848.48	213.71
848.79	214.45
849.10	214.79
849.42	214.90
849.73	213.10
850.04	213.02
850.36	212.14
850.67	212.55
850.98	212.93
851.30	213.14
851.61	213.31
851.92	213.62
852.23	214.31
852.55	214.10
852.86	214.17
853.17	214.14
853.49	214.67
853.80	214.93
854.11	215.12
854.42	215.26
854.74	215.17
855.05	215.40
855.36	214.21
855.67	214.12
855.99	214.33
856.30	216.90
856.61	216.83
856.92	216.90
857.23	216.88
857.55	216.52
857.86	216.40
858.17	216.60
858.48	215.90
858.79	215.31
859.11	215.48
859.42	215.33
859.73	215.02
860.04	214.86
860.35	214.31
860.66	213.74
860.98	213.71
861.29	214.05
861.60	213.69
861.91	214.21
862.22	213.90
862.53	213.38
862.84	210.81
863.16	211.52
863.47	211.14
863.78	210.98
864.09	210.95
864.40	211.17
864.71	210.88
865.02	211.45
865.33	211.26
865.64	211.29
865.95	211.29
866.27	212.88
866.58	212.48
866.89	212.71
867.20	212.88
867.51	212.55
867.82	212.12
868.13	213.02
868.44	212.76
868.75	213.33
869.06	213.36
869.37	213.74
869.68	212.81
869.99	213.31
870.30	213.60
870.61	213.83
870.92	213.36
871.23	213.48
871.54	213.64
871.85	214.29
872.16	214.26
872.47	214.26
872.78	212.88
873.09	213.38
873.40	213.12
873.71	213.21
874.02	213.36
874.33	213.19
874.64	212.52
874.95	212.90
875.26	212.24
875.56	212.12
875.87	211.69
876.18	211.81
876.49	213.50
876.80	213.12
877.11	212.74
877.42	213.21
877.73	213.36
878.04	213.12
878.35	212.88
878.66	213.07
878.96	213.05
879.27	212.95
879.58	212.90
879.89	213.07
880.20	213.52
880.51	213.38
880.82	213.52
881.12	213.79
881.43	213.24
881.74	213.19
882.05	213.14
882.36	213.62
882.67	213.60
882.97	211.48
883.28	211.40
883.59	211.45
883.90	211.43
884.21	211.62
884.51	211.57
884.82	211.43
885.13	211.05
885.44	210.93
885.74	210.81
886.05	210.55
886.36	210.31
886.67	209.81
886.98	210.98
887.28	211.26
887.59	211.12
887.90	211.14
888.20	211.14
888.51	211.64
888.82	211.21
889.13	211.62
889.43	213.52
889.74	213.45
890.05	213.43
890.35	213.26
890.66	212.88
890.97	212.76
891.28	212.45
891.58	212.57
891.89	212.40
892.20	212.36
892.50	212.05
892.81	212.17
893.12	211.90
893.42	210.81
893.73	210.90
894.04	210.90
894.34	211.19
894.65	211.17
894.95	210.90
895.26	211.02
895.57	211.81
895.87	209.74
896.18	210.10
896.48	210.19
896.79	210.29
897.10	210.79
897.40	210.74
897.71	211.29
898.01	211.29
898.32	211.86
898.63	211.76
898.93	212.24
899.24	212.05
899.54	212.07
899.85	212.17
900.15	211.93
900.46	211.81
900.76	211.79
901.07	211.62
901.38	211.57
901.68	211.64
901.99	210.71
902.29	211.00
902.60	210.81
902.90	210.74
903.21	210.60
903.51	210.05
903.82	210.57
904.12	210.43
904.43	210.52
904.73	210.33
905.03	210.45
905.34	212.38
905.64	212.60
905.95	212.79
906.25	212.64
906.56	212.67
906.86	212.83
907.17	212.71
907.47	213.07
907.77	212.90
908.08	212.50
908.38	212.38
908.69	212.45
908.99	212.76
909.30	212.76
909.60	212.95
909.90	213.29
910.21	212.74
910.51	212.43
910.81	212.52
911.12	212.60
911.42	212.67
911.73	210.48
912.03	210.79
912.33	211.10
912.64	211.29
912.94	210.95
913.24	210.60
913.55	210.50
913.85	210.26
914.15	210.55
914.46	210.81
914.76	210.62
915.06	210.43
915.37	210.19
915.67	210.07
915.97	209.79
916.27	209.36
916.58	209.31
916.88	208.98
917.18	208.76
917.49	210.29
917.79	210.38
918.09	210.55
918.39	210.93
918.70	210.69
919.00	210.64
919.30	211.76
919.60	211.74
919.91	211.69
920.21	211.90
920.51	211.64
920.81	211.69
921.12	212.24
921.42	212.33
921.72	212.40
922.02	212.71
922.32	213.33
922.63	213.33
922.93	214.62
923.23	215.17
923.53	214.98
923.83	213.67
924.13	213.83
924.44	213.95
924.74	214.14
925.04	214.67
925.34	214.57
925.64	213.67
925.94	213.55
926.24	214.57
926.55	214.52
926.85	214.88
927.15	214.98
927.45	214.79
927.75	214.67
928.05	214.79
928.35	214.50
928.65	214.40
928.95	214.76
929.26	213.57
929.56	213.86
929.86	214.19
930.16	213.64
930.46	213.45
930.76	213.50
931.06	212.38
931.36	211.90
931.66	212.12
931.96	212.21
932.26	212.55
932.56	211.86
932.86	211.95
933.16	211.93
933.46	211.69
933.76	211.40
934.06	212.10
934.36	212.67
934.66	212.79
934.96	212.62
935.26	212.33
935.56	212.74
935.86	212.40
936.16	212.17
936.46	212.29
936.76	212.14
937.06	211.69
937.36	211.90
937.66	212.12
937.96	212.10
938.26	212.02
938.56	211.90
938.86	211.98
939.16	212.26
939.46	212.60
939.76	212.69
940.06	212.79
940.35	212.05
940.65	210.95
940.95	211.17
941.25	210.74
941.55	210.76
941.85	210.74
942.15	211.05
942.45	211.45
942.75	211.43
943.04	211.67
943.34	212.14
943.64	211.81
943.94	211.48
944.24	211.40
944.54	211.52
944.84	211.45
945.13	211.05
945.43	210.55
945.73	210.02
946.03	209.95
946.33	209.81
946.62	209.86
946.92	209.83
947.22	209.79
947.52	210.12
947.82	210.19
948.11	209.69
948.41	209.02
948.71	208.64
949.01	208.76
949.31	208.45
949.60	208.50
949.90	209.10
950.20	209.21
950.50	209.40
950.79	209.17
951.09	209.55
951.39	209.76
951.69	209.71
951.98	210.29
952.28	210.43
952.58	210.36
952.87	210.21
953.17	210.76
953.47	210.62
953.76	210.55
954.06	210.21
954.36	210.10
954.66	210.31
954.95	210.79
955.25	210.93
955.55	211.17
955.84	210.93
956.14	211.00
956.44	210.93
956.73	210.64
957.03	210.86
957.32	210.60
957.62	210.64
957.92	211.17
958.21	210.86
958.51	213.26
958.81	213.55
959.10	214.02
959.40	214.40
959.69	214.50
959.99	214.88
960.29	215.31
960.58	215.50
960.88	216.19
961.17	216.17
961.47	216.14
961.76	215.93
962.06	216.21
962.36	216.00
962.65	216.02
962.95	216.10
963.24	215.79
963.54	216.05
963.83	216.31
964.13	216.17
964.42	215.67
964.72	213.83
965.01	213.83
965.31	213.43
965.60	212.76
965.90	213.95
966.19	213.55
966.49	213.60
966.78	213.62
967.08	213.29
967.37	213.12
967.67	212.93
967.96	213.14
968.26	213.02
968.55	213.29
968.85	213.14
969.14	213.05
969.43	213.00
969.73	212.86
970.02	212.45
970.32	212.36
970.61	212.33
970.91	211.67
971.20	211.48
971.49	211.48
971.79	211.86
972.08	210.45
972.38	210.40
972.67	210.21
972.96	210.36
973.26	210.12
973.55	210.64
973.85	210.57
974.14	210.60
974.43	210.76
974.73	210.62
975.02	210.62
975.31	210.45
975.61	210.62
975.90	210.24
976.19	210.05
976.49	210.02
976.78	210.38
977.07	210.40
977.37	210.55
977.66	210.67
977.95	210.24
978.24	210.48
978.54	211.07
978.83	210.86
979.12	210.93
979.42	210.88
979.71	210.43
980.00	210.60
980.29	210.38
980.59	210.05
980.88	210.48
981.17	210.31
981.46	210.52
981.76	210.62
982.05	211.36
982.34	211.64
982.63	211.69
982.93	211.52
983.22	212.19
983.51	212.10
983.80	212.38
984.09	212.74
984.39	212.62
984.68	212.19
984.97	212.50
985.26	212.21
985.55	212.31
985.85	212.21
986.14	212.33
986.43	213.00
986.72	212.71
987.01	211.98
987.30	212.12
987.59	211.95
987.89	211.86
988.18	211.24
988.47	211.02
988.76	210.98
989.05	210.74
989.34	210.36
989.63	210.98
989.92	210.64
990.22	210.29
990.51	210.07
990.80	210.02
991.09	210.00
991.38	210.19
991.67	210.02
991.96	209.71
992.25	209.83
992.54	209.36
992.83	209.24
993.12	209.19
993.41	209.38
993.70	210.21
993.99	210.57
994.28	210.88
994.58	211.36
994.87	210.98
995.16	211.12
995.45	210.98
995.74	210.21
996.03	210.52
996.32	210.76
996.61	211.40
996.90	211.26
997.19	211.21
997.48	211.24
997.77	211.07
998.06	211.14
998.34	210.83
998.63	210.67
998.92	211.07
999.21	211.55
999.50	211.76
999.79	211.10
1000.08	211.07
1000.37	211.10
1000.66	210.62
1000.95	211.48
1001.24	211.64
1001.53	211.71
1001.82	211.88
1002.11	211.45
1002.40	211.79
1002.68	211.95
1002.97	213.62
1003.26	213.31
1003.55	213.05
1003.84	213.29
1004.13	214.12
1004.42	214.02
1004.71	214.19
1004.99	213.86
1005.28	214.24
1005.57	213.95
1005.86	213.86
1006.15	213.69
1006.44	213.55
1006.72	213.93
1007.01	213.60
1007.30	213.52
1007.59	213.43
1007.88	213.24
1008.17	213.45
1008.45	213.02
1008.74	212.26
1009.03	211.33
1009.32	211.31
1009.60	211.31
1009.89	211.12
1010.18	210.36
1010.47	210.33
1010.76	210.10
1011.04	210.26
1011.33	212.57
1011.62	212.57
1011.91	212.69
1012.19	212.86
1012.48	212.83
1012.77	212.60
1013.05	213.36
1013.34	213.38
1013.63	213.31
1013.92	213.26
1014.20	213.07
1014.49	213.07
1014.78	213.40
1015.06	212.71
1015.35	212.88
1015.64	213.17
1015.92	213.52
1016.21	213.45
1016.50	213.40
1016.78	213.90
1017.07	213.83
1017.36	210.98
1017.64	210.74
1017.93	210.95
1018.22	210.83
1018.50	210.76
1018.79	210.88
1019.08	210.00
1019.36	209.98
1019.65	209.83
1019.93	210.57
1020.22	210.98
1020.51	212.05
1020.79	211.67
1021.08	211.50
1021.36	208.00
1021.65	213.50
1021.94	212.00
1022.22	209.50
1022.51	206.50
1022.79	219.50
1023.08	215.00
1023.36	234.00
1023.65	204.50
>>>>>End Processed Spectral Data<<<<<
