SpectraSuite Data File
++++++++++++++++++++++++++++++++++++
Date: Tue Apr 02 18:42:07 EDT 2013
User: group
Dark Spectrum Present: No
Reference Spectrum Present: No
Number of Sampled Component Spectra: 1
Spectrometers: USB2E7196
Integration Time (usec): 580000 (USB2E7196)
Spectra Averaged: 2 (USB2E7196)
Boxcar Smoothing: 10 (USB2E7196)
Correct for Electrical Dark: No (USB2E7196)
Strobe/Lamp Enabled: No (USB2E7196)
Correct for Detector Non-linearity: No (USB2E7196)
Correct for Stray Light: No (USB2E7196)
Number of Pixels in Processed Spectrum: 2048
>>>>>Begin Processed Spectral Data<<<<<
339.09	0.00
339.48	194.00
339.86	197.00
340.24	197.00
340.63	195.00
341.01	234.50
341.39	202.50
341.78	208.50
342.16	211.00
342.54	210.00
342.93	198.90
343.31	208.76
343.69	209.36
344.07	209.76
344.46	210.57
344.84	211.40
345.22	210.19
345.60	210.62
345.99	210.79
346.37	210.71
346.75	210.76
347.13	210.86
347.52	210.81
347.90	211.76
348.28	211.62
348.66	212.00
349.05	211.31
349.43	211.48
349.81	211.62
350.19	211.33
350.57	211.57
350.96	211.90
351.34	212.36
351.72	212.38
352.10	212.31
352.48	212.00
352.87	211.90
353.25	211.71
353.63	211.62
354.01	211.45
354.39	211.50
354.77	211.45
355.15	212.00
355.54	211.79
355.92	210.95
356.30	211.07
356.68	211.88
357.06	212.07
357.44	211.86
357.82	211.62
358.20	212.86
358.58	212.76
358.97	212.67
359.35	212.71
359.73	213.26
360.11	213.48
360.49	213.74
360.87	213.71
361.25	214.24
361.63	214.79
362.01	215.07
362.39	214.79
362.77	214.76
363.15	214.55
363.53	214.71
363.91	215.17
364.29	215.19
364.67	213.79
365.05	213.76
365.43	213.88
365.81	214.43
366.19	214.29
366.57	215.02
366.95	215.02
367.33	214.48
367.71	214.38
368.09	214.60
368.47	214.43
368.85	214.33
369.23	214.64
369.61	213.93
369.99	214.48
370.37	215.00
370.75	216.17
371.13	215.74
371.51	215.48
371.89	215.40
372.27	215.45
372.65	215.31
373.03	215.43
373.41	215.43
373.78	215.19
374.16	214.05
374.54	213.48
374.92	213.17
375.30	213.52
375.68	213.24
376.06	213.52
376.44	213.67
376.82	214.00
377.19	213.83
377.57	213.86
377.95	213.12
378.33	213.17
378.71	211.93
379.09	212.33
379.47	212.88
379.84	212.79
380.22	212.79
380.60	212.95
380.98	212.76
381.36	212.55
381.73	212.45
382.11	213.17
382.49	213.26
382.87	213.26
383.25	213.17
383.62	215.38
384.00	215.17
384.38	215.24
384.76	215.57
385.13	216.36
385.51	216.48
385.89	216.43
386.27	216.19
386.64	216.38
387.02	216.14
387.40	215.52
387.78	215.67
388.15	215.83
388.53	215.50
388.91	215.79
389.29	215.74
389.66	216.05
390.04	215.74
390.42	216.05
390.79	216.29
391.17	216.45
391.55	214.24
391.92	213.98
392.30	213.98
392.68	213.60
393.05	213.48
393.43	213.62
393.81	213.76
394.18	213.71
394.56	213.79
394.94	214.14
395.31	214.07
395.69	214.88
396.06	214.95
396.44	215.21
396.82	214.83
397.19	216.14
397.57	216.07
397.95	216.43
398.32	215.90
398.70	216.14
399.07	216.55
399.45	216.67
399.82	216.74
400.20	216.69
400.58	216.79
400.95	215.71
401.33	216.07
401.70	217.38
402.08	217.62
402.45	217.90
402.83	218.50
403.20	218.79
403.58	218.33
403.95	218.93
404.33	219.29
404.71	219.62
405.08	220.81
405.46	221.12
405.83	221.71
406.21	221.93
406.58	222.38
406.96	222.55
407.33	222.90
407.70	223.74
408.08	226.07
408.45	226.76
408.83	228.02
409.20	228.40
409.58	227.79
409.95	228.64
410.33	229.40
410.70	229.74
411.08	231.12
411.45	232.05
411.82	232.60
412.20	234.26
412.57	236.69
412.95	236.05
413.32	237.62
413.69	238.67
414.07	240.48
414.44	242.19
414.82	243.83
415.19	246.45
415.56	248.79
415.94	249.71
416.31	252.69
416.68	255.29
417.06	258.52
417.43	262.40
417.81	265.95
418.18	269.79
418.55	273.64
418.93	277.69
419.30	282.07
419.67	286.81
420.04	291.26
420.42	295.55
420.79	303.10
421.16	308.64
421.54	315.67
421.91	321.90
422.28	327.95
422.66	335.12
423.03	343.31
423.40	350.02
423.77	357.62
424.15	364.79
424.52	372.57
424.89	381.55
425.26	389.05
425.64	397.00
426.01	405.10
426.38	413.90
426.75	423.50
427.13	433.12
427.50	442.88
427.87	452.93
428.24	463.24
428.61	471.79
428.99	483.36
429.36	494.02
429.73	505.33
430.10	517.26
430.47	528.74
430.85	539.74
431.22	552.26
431.59	567.10
431.96	580.29
432.33	594.60
432.70	608.31
433.08	624.90
433.45	640.88
433.82	656.05
434.19	673.60
434.56	690.14
434.93	705.02
435.30	720.48
435.68	738.21
436.05	755.33
436.42	772.05
436.79	788.40
437.16	806.52
437.53	825.31
437.90	842.79
438.27	861.14
438.64	879.52
439.01	898.17
439.38	912.38
439.75	927.60
440.13	944.81
440.50	961.02
440.87	973.71
441.24	986.98
441.61	1002.57
441.98	1012.95
442.35	1025.31
442.72	1039.00
443.09	1053.31
443.46	1061.45
443.83	1067.33
444.20	1072.64
444.57	1078.48
444.94	1082.10
445.31	1085.00
445.68	1091.14
446.05	1092.48
446.42	1090.62
446.79	1088.62
447.16	1086.43
447.53	1084.93
447.90	1078.38
448.27	1071.38
448.64	1062.71
449.01	1056.17
449.37	1044.64
449.74	1033.86
450.11	1022.14
450.48	1007.74
450.85	991.45
451.22	978.29
451.59	966.33
451.96	954.43
452.33	938.40
452.70	922.81
453.07	906.00
453.43	886.43
453.80	869.90
454.17	853.83
454.54	837.98
454.91	820.95
455.28	804.62
455.65	789.45
456.02	777.55
456.38	764.79
456.75	748.88
457.12	735.26
457.49	722.38
457.86	708.21
458.23	697.93
458.59	686.40
458.96	674.31
459.33	662.90
459.70	652.10
460.07	643.71
460.43	633.74
460.80	625.10
461.17	617.19
461.54	608.31
461.91	600.33
462.27	591.90
462.64	585.60
463.01	578.05
463.38	571.38
463.74	561.24
464.11	554.45
464.48	548.50
464.85	542.29
465.21	537.57
465.58	532.93
465.95	525.64
466.32	520.45
466.68	515.43
467.05	510.45
467.42	505.31
467.78	499.98
468.15	495.19
468.52	490.57
468.88	484.95
469.25	480.26
469.62	477.00
469.98	473.19
470.35	469.45
470.72	465.83
471.08	461.29
471.45	458.38
471.82	455.90
472.18	452.40
472.55	450.14
472.92	446.74
473.28	443.45
473.65	441.02
474.02	437.76
474.38	435.36
474.75	433.64
475.11	431.43
475.48	429.57
475.85	428.00
476.21	426.33
476.58	425.55
476.94	424.52
477.31	422.83
477.67	421.43
478.04	420.36
478.41	419.43
478.77	420.93
479.14	419.38
479.50	418.52
479.87	418.40
480.23	417.64
480.60	416.88
480.96	416.64
481.33	417.45
481.69	417.69
482.06	418.10
482.42	418.10
482.79	418.43
483.15	418.74
483.52	419.88
483.88	420.38
484.25	420.60
484.61	421.43
484.98	422.21
485.34	424.19
485.71	425.79
486.07	427.36
486.44	427.07
486.80	428.83
487.17	430.19
487.53	432.76
487.90	435.14
488.26	438.33
488.62	441.14
488.99	443.14
489.35	446.26
489.72	448.98
490.08	451.88
490.44	454.52
490.81	458.07
491.17	460.86
491.54	464.19
491.90	468.10
492.26	471.79
492.63	475.83
492.99	479.00
493.36	482.64
493.72	486.81
494.08	491.24
494.45	496.74
494.81	501.71
495.17	505.64
495.54	510.79
495.90	515.67
496.26	520.67
496.63	525.86
496.99	530.98
497.35	536.52
497.72	542.67
498.08	548.88
498.44	554.69
498.80	561.17
499.17	567.83
499.53	573.74
499.89	580.79
500.26	587.57
500.62	594.29
500.98	601.67
501.34	608.93
501.71	616.38
502.07	623.02
502.43	630.29
502.79	637.81
503.16	645.45
503.52	652.86
503.88	660.05
504.24	667.33
504.60	675.10
504.97	683.48
505.33	690.26
505.69	698.74
506.05	706.55
506.41	713.93
506.78	721.76
507.14	729.60
507.50	736.79
507.86	744.67
508.22	752.57
508.59	760.12
508.95	767.79
509.31	776.55
509.67	784.52
510.03	791.76
510.39	799.31
510.75	806.50
511.12	813.88
511.48	821.19
511.84	829.21
512.20	837.33
512.56	844.43
512.92	852.95
513.28	860.38
513.64	868.45
514.00	876.19
514.37	883.69
514.73	891.40
515.09	899.40
515.45	906.14
515.81	913.57
516.17	920.79
516.53	927.19
516.89	933.02
517.25	939.36
517.61	947.52
517.97	953.86
518.33	960.88
518.69	968.17
519.05	975.05
519.41	981.83
519.77	988.45
520.13	993.88
520.49	999.10
520.85	1004.93
521.21	1010.62
521.57	1017.17
521.93	1022.14
522.29	1027.98
522.65	1033.19
523.01	1039.43
523.37	1044.60
523.73	1049.40
524.09	1055.36
524.45	1060.36
524.81	1065.98
525.17	1070.81
525.53	1075.98
525.89	1080.10
526.25	1084.62
526.61	1089.14
526.97	1093.21
527.33	1097.93
527.68	1105.07
528.04	1109.76
528.40	1114.55
528.76	1119.21
529.12	1123.83
529.48	1129.40
529.84	1134.29
530.20	1138.36
530.56	1142.62
530.91	1146.69
531.27	1151.10
531.63	1155.10
531.99	1158.69
532.35	1163.12
532.71	1166.43
533.07	1170.90
533.42	1177.31
533.78	1181.40
534.14	1186.07
534.50	1190.38
534.86	1194.60
535.21	1197.10
535.57	1202.12
535.93	1205.19
536.29	1209.93
536.65	1213.43
537.00	1216.76
537.36	1219.88
537.72	1223.98
538.08	1227.55
538.44	1230.90
538.79	1234.14
539.15	1237.50
539.51	1242.00
539.87	1245.50
540.22	1249.83
540.58	1253.43
540.94	1255.33
541.29	1258.38
541.65	1260.86
542.01	1264.10
542.37	1266.71
542.72	1269.02
543.08	1270.93
543.44	1274.90
543.79	1275.83
544.15	1278.24
544.51	1281.29
544.87	1284.14
545.22	1286.52
545.58	1289.10
545.94	1292.14
546.29	1295.43
546.65	1298.67
547.01	1300.64
547.36	1302.95
547.72	1305.14
548.07	1307.88
548.43	1310.07
548.79	1312.31
549.14	1315.40
549.50	1318.90
549.86	1321.12
550.21	1323.93
550.57	1327.64
550.92	1330.05
551.28	1334.52
551.64	1337.45
551.99	1340.69
552.35	1343.31
552.70	1347.26
553.06	1350.93
553.41	1354.57
553.77	1359.69
554.13	1363.24
554.48	1368.76
554.84	1373.43
555.19	1377.67
555.55	1383.12
555.90	1387.24
556.26	1391.19
556.61	1394.88
556.97	1398.36
557.32	1402.88
557.68	1406.10
558.03	1410.17
558.39	1414.24
558.74	1417.71
559.10	1421.48
559.45	1425.52
559.81	1430.26
560.16	1434.52
560.52	1438.43
560.87	1443.33
561.23	1445.79
561.58	1452.24
561.94	1455.10
562.29	1458.40
562.64	1463.24
563.00	1467.24
563.35	1471.64
563.71	1477.83
564.06	1484.07
564.42	1488.76
564.77	1493.88
565.12	1501.55
565.48	1508.81
565.83	1515.14
566.19	1521.60
566.54	1527.93
566.89	1533.33
567.25	1539.64
567.60	1545.45
567.96	1553.60
568.31	1559.83
568.66	1567.07
569.02	1569.95
569.37	1575.98
569.72	1582.19
570.08	1586.64
570.43	1591.26
570.78	1597.79
571.14	1602.38
571.49	1607.21
571.84	1612.26
572.20	1617.52
572.55	1621.05
572.90	1623.14
573.26	1627.00
573.61	1630.00
573.96	1634.95
574.31	1638.88
574.67	1643.14
575.02	1646.57
575.37	1647.57
575.72	1650.52
576.08	1653.26
576.43	1657.38
576.78	1660.43
577.13	1664.19
577.49	1668.26
577.84	1672.14
578.19	1675.64
578.54	1679.26
578.90	1682.33
579.25	1685.93
579.60	1689.40
579.95	1692.29
580.30	1695.74
580.66	1699.74
581.01	1703.55
581.36	1705.50
581.71	1709.98
582.06	1713.67
582.42	1717.86
582.77	1721.90
583.12	1725.21
583.47	1728.19
583.82	1731.36
584.17	1734.29
584.53	1737.10
584.88	1739.14
585.23	1741.31
585.58	1743.00
585.93	1744.31
586.28	1746.98
586.63	1749.62
586.98	1751.83
587.34	1755.14
587.69	1757.21
588.04	1758.43
588.39	1760.31
588.74	1761.83
589.09	1762.40
589.44	1761.62
589.79	1762.98
590.14	1763.52
590.49	1764.26
590.84	1764.67
591.19	1766.45
591.54	1767.50
591.89	1767.40
592.25	1770.71
592.60	1771.57
592.95	1772.62
593.30	1774.33
593.65	1774.19
594.00	1773.95
594.35	1779.90
594.70	1780.05
595.05	1781.38
595.40	1781.14
595.75	1781.55
596.10	1782.90
596.45	1784.24
596.80	1785.69
597.15	1785.57
597.50	1786.10
597.85	1787.48
598.19	1788.62
598.54	1787.95
598.89	1788.57
599.24	1789.43
599.59	1788.14
599.94	1787.31
600.29	1787.33
600.64	1787.64
600.99	1787.95
601.34	1788.48
601.69	1782.69
602.04	1782.17
602.39	1780.10
602.74	1780.86
603.08	1780.07
603.43	1780.67
603.78	1779.24
604.13	1779.07
604.48	1778.14
604.83	1777.67
605.18	1777.17
605.53	1776.12
605.87	1774.76
606.22	1772.81
606.57	1772.05
606.92	1770.10
607.27	1769.38
607.62	1768.05
607.96	1766.31
608.31	1764.95
608.66	1763.38
609.01	1761.24
609.36	1759.12
609.70	1757.90
610.05	1754.62
610.40	1752.05
610.75	1748.12
611.10	1745.60
611.44	1742.10
611.79	1738.83
612.14	1735.64
612.49	1730.60
612.83	1727.64
613.18	1724.43
613.53	1721.50
613.88	1716.64
614.22	1713.14
614.57	1709.57
614.92	1705.31
615.27	1700.81
615.61	1696.07
615.96	1691.83
616.31	1687.43
616.65	1684.12
617.00	1680.24
617.35	1677.24
617.70	1672.83
618.04	1667.88
618.39	1664.12
618.74	1660.98
619.08	1656.93
619.43	1652.29
619.78	1648.12
620.12	1643.76
620.47	1639.93
620.82	1634.62
621.16	1629.45
621.51	1626.26
621.85	1621.05
622.20	1615.95
622.55	1611.10
622.89	1607.12
623.24	1603.40
623.59	1598.81
623.93	1593.83
624.28	1589.24
624.62	1587.19
624.97	1584.90
625.32	1581.33
625.66	1576.52
626.01	1570.79
626.35	1567.07
626.70	1564.36
627.04	1561.71
627.39	1557.07
627.73	1553.19
628.08	1549.74
628.43	1546.83
628.77	1541.76
629.12	1538.69
629.46	1535.45
629.81	1531.12
630.15	1526.21
630.50	1520.69
630.84	1516.14
631.19	1510.86
631.53	1505.98
631.88	1497.24
632.22	1490.00
632.57	1485.55
632.91	1480.12
633.26	1475.88
633.60	1470.10
633.95	1463.02
634.29	1456.64
634.64	1451.79
634.98	1446.12
635.32	1441.83
635.67	1437.29
636.01	1431.98
636.36	1426.40
636.70	1421.81
637.05	1416.93
637.39	1412.19
637.73	1407.86
638.08	1404.26
638.42	1399.31
638.77	1395.07
639.11	1390.55
639.45	1385.95
639.80	1379.31
640.14	1374.38
640.49	1368.90
640.83	1363.07
641.17	1358.43
641.52	1352.71
641.86	1346.88
642.20	1342.86
642.55	1335.95
642.89	1329.10
643.23	1322.60
643.58	1317.31
643.92	1310.07
644.26	1303.81
644.61	1298.95
644.95	1291.76
645.29	1283.55
645.64	1277.76
645.98	1270.81
646.32	1265.21
646.66	1258.48
647.01	1253.07
647.35	1246.98
647.69	1240.90
648.04	1236.10
648.38	1230.14
648.72	1223.67
649.06	1217.38
649.41	1209.50
649.75	1202.83
650.09	1196.55
650.43	1190.45
650.78	1182.52
651.12	1176.10
651.46	1169.81
651.80	1161.98
652.14	1156.17
652.49	1150.69
652.83	1143.88
653.17	1136.52
653.51	1129.05
653.85	1123.12
654.20	1116.90
654.54	1109.57
654.88	1101.83
655.22	1095.19
655.56	1087.62
655.90	1081.43
656.25	1074.17
656.59	1068.52
656.93	1062.55
657.27	1057.12
657.61	1050.40
657.95	1045.02
658.29	1039.12
658.64	1033.74
658.98	1026.74
659.32	1020.07
659.66	1013.60
660.00	1007.57
660.34	1002.12
660.68	995.93
661.02	989.38
661.36	982.60
661.70	976.43
662.05	970.57
662.39	964.02
662.73	959.48
663.07	954.14
663.41	949.14
663.75	942.07
664.09	936.33
664.43	929.62
664.77	923.79
665.11	917.60
665.45	911.45
665.79	905.29
666.13	900.14
666.47	894.36
666.81	888.50
667.15	882.24
667.49	876.79
667.83	872.12
668.17	866.52
668.51	861.26
668.85	857.17
669.19	852.48
669.53	846.17
669.87	839.98
670.21	834.10
670.55	828.14
670.89	823.83
671.23	818.38
671.57	813.19
671.91	808.02
672.25	802.81
672.58	798.38
672.92	792.64
673.26	787.43
673.60	782.29
673.94	777.10
674.28	772.50
674.62	767.98
674.96	762.81
675.30	758.45
675.64	753.62
675.97	747.71
676.31	742.98
676.65	738.26
676.99	734.50
677.33	729.86
677.67	725.88
678.01	720.38
678.34	716.14
678.68	711.69
679.02	706.55
679.36	701.83
679.70	696.10
680.04	691.57
680.37	687.00
680.71	682.33
681.05	678.24
681.39	673.74
681.73	668.57
682.06	663.76
682.40	659.14
682.74	654.57
683.08	650.83
683.42	645.93
683.75	641.67
684.09	636.14
684.43	631.50
684.77	626.29
685.10	622.29
685.44	617.62
685.78	612.55
686.12	608.67
686.45	604.07
686.79	600.14
687.13	596.76
687.46	592.31
687.80	588.83
688.14	584.40
688.48	580.50
688.81	576.43
689.15	573.29
689.49	568.76
689.82	564.83
690.16	560.36
690.50	556.33
690.83	552.74
691.17	548.43
691.51	544.17
691.84	540.83
692.18	536.74
692.52	533.00
692.85	530.14
693.19	527.19
693.52	523.83
693.86	520.17
694.20	515.86
694.53	512.67
694.87	508.79
695.21	505.36
695.54	501.69
695.88	497.88
696.21	493.07
696.55	490.21
696.88	486.57
697.22	483.19
697.56	480.31
697.89	476.69
698.23	474.07
698.56	471.21
698.90	467.98
699.23	464.19
699.57	460.93
699.90	457.40
700.24	453.83
700.58	450.74
700.91	448.14
701.25	446.93
701.58	444.86
701.92	442.36
702.25	439.48
702.59	436.62
702.92	434.10
703.26	431.69
703.59	428.69
703.93	427.76
704.26	425.43
704.60	422.74
704.93	420.10
705.26	417.43
705.60	415.36
705.93	412.31
706.27	410.69
706.60	408.86
706.94	407.02
707.27	404.60
707.61	402.48
707.94	400.00
708.27	396.26
708.61	392.93
708.94	390.26
709.28	388.12
709.61	385.95
709.94	384.05
710.28	382.14
710.61	380.14
710.95	376.33
711.28	375.55
711.61	373.60
711.95	371.98
712.28	369.71
712.61	367.64
712.95	367.48
713.28	366.26
713.61	364.02
713.95	361.67
714.28	359.83
714.61	357.81
714.95	355.86
715.28	353.52
715.61	351.83
715.95	350.62
716.28	348.57
716.61	347.33
716.95	345.29
717.28	343.62
717.61	341.98
717.94	340.21
718.28	336.93
718.61	335.29
718.94	333.60
719.27	332.19
719.61	330.67
719.94	328.02
720.27	325.57
720.60	323.74
720.94	322.33
721.27	320.90
721.60	319.76
721.93	318.40
722.27	318.05
722.60	317.00
722.93	315.17
723.26	314.21
723.59	312.48
723.93	311.60
724.26	310.40
724.59	309.00
724.92	308.12
725.25	307.50
725.59	306.14
725.92	305.14
726.25	303.81
726.58	302.62
726.91	301.60
727.24	300.86
727.57	299.95
727.91	298.52
728.24	297.71
728.57	296.64
728.90	295.79
729.23	294.02
729.56	294.10
729.89	293.19
730.22	291.81
730.55	290.71
730.89	289.88
731.22	289.02
731.55	288.17
731.88	287.31
732.21	285.93
732.54	284.86
732.87	284.10
733.20	283.45
733.53	282.60
733.86	281.88
734.19	280.67
734.52	280.02
734.85	280.76
735.18	279.60
735.51	279.33
735.84	278.81
736.17	278.74
736.50	276.81
736.83	278.26
737.16	277.76
737.49	277.52
737.82	276.43
738.15	275.64
738.48	274.95
738.81	274.60
739.14	273.86
739.47	273.24
739.80	272.43
740.13	271.95
740.46	271.12
740.79	270.07
741.12	269.24
741.45	268.21
741.78	266.38
742.11	266.43
742.44	265.36
742.77	265.02
743.10	263.86
743.43	263.02
743.75	260.43
744.08	262.55
744.41	261.43
744.74	260.81
745.07	260.12
745.40	260.00
745.73	260.19
746.06	260.05
746.39	259.81
746.71	258.86
747.04	258.02
747.37	257.45
747.70	257.31
748.03	257.10
748.36	257.02
748.68	256.69
749.01	255.40
749.34	254.79
749.67	254.14
750.00	254.14
750.33	255.19
750.65	254.95
750.98	251.93
751.31	251.67
751.64	251.33
751.97	251.90
752.29	251.31
752.62	249.79
752.95	249.17
753.28	248.40
753.60	248.21
753.93	248.36
754.26	248.14
754.59	247.24
754.91	246.74
755.24	246.48
755.57	246.07
755.90	245.93
756.22	245.55
756.55	244.74
756.88	243.93
757.20	242.31
757.53	241.33
757.86	241.00
758.19	240.81
758.51	240.50
758.84	239.12
759.17	238.76
759.49	238.31
759.82	238.93
760.15	238.98
760.47	238.57
760.80	237.60
761.13	237.74
761.45	237.45
761.78	237.21
762.11	236.64
762.43	236.26
762.76	235.86
763.08	235.88
763.41	235.69
763.74	235.95
764.06	235.88
764.39	235.67
764.71	235.21
765.04	234.71
765.37	234.26
765.69	233.90
766.02	233.64
766.34	233.48
766.67	232.62
767.00	232.57
767.32	233.26
767.65	234.36
767.97	233.83
768.30	233.86
768.62	233.62
768.95	233.26
769.27	233.07
769.60	233.33
769.92	232.64
770.25	232.14
770.57	231.40
770.90	231.07
771.22	230.60
771.55	230.67
771.87	230.67
772.20	230.33
772.52	231.86
772.85	234.07
773.17	233.83
773.50	233.43
773.82	232.88
774.15	231.86
774.47	230.69
774.80	230.24
775.12	229.88
775.45	229.40
775.77	229.38
776.09	229.19
776.42	228.71
776.74	229.21
777.07	229.36
777.39	229.17
777.72	228.88
778.04	229.07
778.36	228.57
778.69	228.62
779.01	228.79
779.33	226.98
779.66	224.31
779.98	224.21
780.31	224.12
780.63	224.90
780.95	225.31
781.28	225.12
781.60	225.21
781.92	225.19
782.25	225.29
782.57	225.10
782.89	224.79
783.22	224.62
783.54	224.24
783.86	223.95
784.19	223.64
784.51	224.24
784.83	223.79
785.16	223.95
785.48	223.71
785.80	223.71
786.12	224.00
786.45	223.76
786.77	223.67
787.09	223.31
787.42	222.52
787.74	222.33
788.06	222.12
788.38	221.64
788.71	221.21
789.03	221.38
789.35	221.60
789.67	221.36
789.99	221.50
790.32	221.12
790.64	221.29
790.96	223.00
791.28	222.14
791.61	222.12
791.93	222.07
792.25	222.02
792.57	223.60
792.89	222.98
793.21	223.29
793.54	223.10
793.86	223.02
794.18	223.00
794.50	222.55
794.82	222.48
795.14	222.79
795.47	223.31
795.79	222.98
796.11	222.36
796.43	222.31
796.75	222.29
797.07	222.26
797.39	221.93
797.71	220.31
798.04	220.40
798.36	220.43
798.68	220.26
799.00	220.14
799.32	218.64
799.64	218.90
799.96	218.67
800.28	219.14
800.60	218.90
800.92	218.81
801.24	218.76
801.56	218.86
801.89	218.50
802.21	218.45
802.53	218.21
802.85	218.81
803.17	219.64
803.49	219.05
803.81	218.83
804.13	218.95
804.45	218.76
804.77	218.86
805.09	219.02
805.41	218.86
805.73	218.62
806.05	218.10
806.37	217.88
806.69	217.90
807.01	217.62
807.33	217.90
807.65	217.57
807.97	218.62
808.28	218.12
808.60	217.95
808.92	217.71
809.24	218.83
809.56	218.29
809.88	217.48
810.20	217.69
810.52	217.98
810.84	217.64
811.16	217.52
811.48	217.40
811.80	218.02
812.12	217.93
812.43	218.31
812.75	218.76
813.07	218.62
813.39	218.52
813.71	218.21
814.03	217.88
814.35	217.69
814.67	216.86
814.98	216.83
815.30	217.12
815.62	216.74
815.94	215.45
816.26	215.50
816.58	215.17
816.89	215.33
817.21	214.86
817.53	215.12
817.85	215.24
818.17	215.10
818.48	214.26
818.80	214.62
819.12	214.33
819.44	213.76
819.76	213.52
820.07	213.76
820.39	213.76
820.71	214.19
821.03	214.26
821.34	213.86
821.66	214.62
821.98	214.62
822.30	214.55
822.61	215.95
822.93	215.86
823.25	216.26
823.57	216.00
823.88	216.55
824.20	216.45
824.52	216.50
824.83	216.48
825.15	216.21
825.47	216.24
825.79	216.43
826.10	216.36
826.42	216.52
826.74	216.69
827.05	216.55
827.37	216.38
827.69	216.31
828.00	216.50
828.32	216.05
828.64	215.74
828.95	216.93
829.27	216.26
829.58	216.36
829.90	216.38
830.22	216.36
830.53	215.90
830.85	215.69
831.17	215.50
831.48	215.40
831.80	215.40
832.11	214.93
832.43	214.52
832.75	214.57
833.06	215.86
833.38	215.19
833.69	215.31
834.01	215.24
834.32	215.07
834.64	214.98
834.96	215.17
835.27	215.26
835.59	214.57
835.90	214.07
836.22	213.95
836.53	213.55
836.85	213.45
837.16	215.31
837.48	215.36
837.79	215.76
838.11	215.83
838.42	215.88
838.74	216.33
839.05	216.19
839.37	216.19
839.68	214.69
840.00	214.38
840.31	214.43
840.63	214.33
840.94	214.29
841.26	213.95
841.57	213.83
841.88	214.10
842.20	213.79
842.51	213.45
842.83	213.31
843.14	215.10
843.46	215.43
843.77	214.33
844.08	214.38
844.40	213.93
844.71	213.76
845.03	213.64
845.34	213.40
845.65	213.33
845.97	213.33
846.28	213.50
846.60	213.74
846.91	213.55
847.22	213.62
847.54	214.12
847.85	214.62
848.16	214.40
848.48	213.86
848.79	214.50
849.10	214.76
849.42	214.93
849.73	213.21
850.04	212.81
850.36	212.21
850.67	212.38
850.98	212.17
851.30	212.33
851.61	212.29
851.92	212.33
852.23	213.26
852.55	213.40
852.86	213.50
853.17	213.90
853.49	214.17
853.80	214.50
854.11	214.57
854.42	214.50
854.74	214.50
855.05	214.57
855.36	213.69
855.67	213.98
855.99	214.07
856.30	216.52
856.61	216.45
856.92	216.43
857.23	216.31
857.55	216.40
857.86	216.33
858.17	216.81
858.48	216.57
858.79	215.79
859.11	216.00
859.42	215.69
859.73	215.14
860.04	215.14
860.35	214.36
860.66	213.76
860.98	213.74
861.29	213.88
861.60	213.83
861.91	214.38
862.22	213.90
862.53	213.62
862.84	211.21
863.16	211.81
863.47	211.71
863.78	211.43
864.09	211.50
864.40	211.76
864.71	211.62
865.02	211.83
865.33	211.64
865.64	211.10
865.95	211.33
866.27	212.81
866.58	212.48
866.89	212.95
867.20	213.10
867.51	212.83
867.82	212.60
868.13	213.10
868.44	212.71
868.75	213.07
869.06	213.29
869.37	213.50
869.68	212.64
869.99	212.98
870.30	213.29
870.61	213.52
870.92	213.14
871.23	213.00
871.54	213.21
871.85	213.83
872.16	214.14
872.47	213.90
872.78	212.69
873.09	213.10
873.40	212.90
873.71	212.90
874.02	213.10
874.33	212.88
874.64	212.52
874.95	212.76
875.26	212.45
875.56	212.31
875.87	212.07
876.18	212.19
876.49	213.98
876.80	214.00
877.11	213.71
877.42	213.86
877.73	213.95
878.04	213.55
878.35	213.43
878.66	213.50
878.96	213.64
879.27	213.71
879.58	213.50
879.89	213.33
880.20	214.05
880.51	213.62
880.82	213.93
881.12	213.83
881.43	213.33
881.74	213.21
882.05	213.17
882.36	213.36
882.67	213.57
882.97	211.40
883.28	211.17
883.59	211.05
883.90	211.36
884.21	211.69
884.51	211.55
884.82	211.29
885.13	211.14
885.44	210.93
885.74	210.71
886.05	210.74
886.36	210.83
886.67	210.05
886.98	211.33
887.28	211.38
887.59	211.62
887.90	211.69
888.20	211.79
888.51	212.19
888.82	211.81
889.13	212.17
889.43	214.07
889.74	213.86
890.05	213.88
890.35	213.48
890.66	213.17
890.97	213.10
891.28	212.79
891.58	213.07
891.89	213.31
892.20	213.38
892.50	213.29
892.81	213.24
893.12	213.38
893.42	212.50
893.73	212.64
894.04	212.50
894.34	212.79
894.65	212.29
894.95	212.07
895.26	212.31
895.57	213.02
895.87	210.86
896.18	211.21
896.48	211.45
896.79	211.48
897.10	211.86
897.40	211.95
897.71	212.21
898.01	211.93
898.32	212.07
898.63	212.12
898.93	212.43
899.24	212.67
899.54	212.45
899.85	212.12
900.15	211.93
900.46	212.02
900.76	212.24
901.07	212.52
901.38	212.40
901.68	212.52
901.99	211.60
902.29	211.67
902.60	211.69
902.90	211.52
903.21	211.40
903.51	211.05
903.82	211.52
904.12	211.83
904.43	212.29
904.73	212.17
905.03	212.12
905.34	213.62
905.64	213.38
905.95	213.40
906.25	213.50
906.56	213.48
906.86	213.60
907.17	213.38
907.47	213.45
907.77	213.33
908.08	212.93
908.38	213.00
908.69	213.48
908.99	213.90
909.30	214.02
909.60	214.24
909.90	214.17
910.21	213.74
910.51	213.36
910.81	212.98
911.12	213.26
911.42	213.43
911.73	211.45
912.03	211.64
912.33	212.10
912.64	212.12
912.94	212.07
913.24	211.76
913.55	211.62
913.85	211.74
914.15	212.05
914.46	212.38
914.76	212.17
915.06	211.83
915.37	211.21
915.67	211.05
915.97	210.95
916.27	210.67
916.58	210.69
916.88	210.52
917.18	210.57
917.49	211.71
917.79	211.74
918.09	212.10
918.39	212.33
918.70	212.12
919.00	212.05
919.30	212.81
919.60	212.62
919.91	212.40
920.21	212.26
920.51	211.79
920.81	211.60
921.12	211.88
921.42	212.00
921.72	212.29
922.02	212.31
922.32	212.88
922.63	213.05
922.93	213.90
923.23	214.12
923.53	214.02
923.83	212.64
924.13	212.60
924.44	212.60
924.74	213.05
925.04	213.69
925.34	213.98
925.64	213.21
925.94	213.55
926.24	214.62
926.55	214.48
926.85	215.02
927.15	215.21
927.45	215.21
927.75	215.10
928.05	215.10
928.35	214.88
928.65	215.02
928.95	215.10
929.26	214.21
929.56	214.52
929.86	214.81
930.16	214.79
930.46	214.71
930.76	214.79
931.06	213.74
931.36	213.14
931.66	213.40
931.96	213.67
932.26	213.67
932.56	213.02
932.86	213.43
933.16	213.12
933.46	212.67
933.76	212.69
934.06	213.10
934.36	213.93
934.66	214.26
934.96	213.83
935.26	213.95
935.56	214.55
935.86	214.19
936.16	213.79
936.46	213.76
936.76	213.52
937.06	213.14
937.36	213.48
937.66	213.52
937.96	213.29
938.26	212.95
938.56	212.88
938.86	212.79
939.16	213.12
939.46	213.40
939.76	213.74
940.06	213.52
940.35	213.05
940.65	211.79
940.95	211.52
941.25	211.19
941.55	210.76
941.85	210.43
942.15	210.95
942.45	211.45
942.75	211.21
943.04	211.26
943.34	211.57
943.64	211.26
943.94	210.79
944.24	210.67
944.54	210.88
944.84	210.57
945.13	210.38
945.43	209.86
945.73	209.90
946.03	209.86
946.33	209.52
946.62	209.33
946.92	209.38
947.22	209.81
947.52	209.81
947.82	210.17
948.11	209.74
948.41	209.12
948.71	208.55
949.01	208.79
949.31	208.62
949.60	208.43
949.90	208.81
950.20	208.79
950.50	208.83
950.79	208.36
951.09	208.81
951.39	208.74
951.69	208.64
951.98	208.81
952.28	208.71
952.58	208.88
952.87	209.17
953.17	209.45
953.47	209.24
953.76	209.26
954.06	209.05
954.36	209.10
954.66	209.17
954.95	209.90
955.25	209.93
955.55	210.24
955.84	210.19
956.14	210.45
956.44	210.60
956.73	210.36
957.03	210.81
957.32	210.60
957.62	210.71
957.92	211.19
958.21	211.05
958.51	213.29
958.81	213.52
959.10	213.71
959.40	214.19
959.69	214.17
959.99	214.24
960.29	214.64
960.58	214.57
960.88	215.33
961.17	214.88
961.47	215.17
961.76	215.10
962.06	215.43
962.36	215.00
962.65	215.24
962.95	215.33
963.24	215.24
963.54	215.55
963.83	215.71
964.13	215.43
964.42	214.90
964.72	213.29
965.01	213.21
965.31	212.95
965.60	212.21
965.90	213.52
966.19	213.14
966.49	212.86
966.78	212.79
967.08	212.74
967.37	212.90
967.67	212.50
967.96	212.95
968.26	213.05
968.55	213.36
968.85	213.33
969.14	213.33
969.43	213.24
969.73	212.95
970.02	212.88
970.32	212.83
970.61	212.86
970.91	212.45
971.20	212.43
971.49	212.24
971.79	212.62
972.08	211.07
972.38	211.26
972.67	211.36
972.96	211.71
973.26	211.24
973.55	211.69
973.85	211.79
974.14	211.38
974.43	211.36
974.73	211.00
975.02	210.71
975.31	210.81
975.61	210.69
975.90	210.52
976.19	210.43
976.49	210.48
976.78	210.62
977.07	210.64
977.37	210.60
977.66	211.02
977.95	210.81
978.24	211.17
978.54	211.86
978.83	211.50
979.12	211.33
979.42	211.12
979.71	210.90
980.00	210.79
980.29	210.93
980.59	210.45
980.88	210.98
981.17	211.12
981.46	211.12
981.76	211.07
982.05	211.71
982.34	211.81
982.63	211.98
982.93	212.02
983.22	212.57
983.51	212.62
983.80	212.79
984.09	213.00
984.39	212.74
984.68	212.00
984.97	212.19
985.26	212.29
985.55	212.60
985.85	212.05
986.14	212.52
986.43	212.76
986.72	212.67
987.01	211.95
987.30	211.79
987.59	211.31
987.89	211.36
988.18	210.79
988.47	210.52
988.76	210.48
989.05	210.21
989.34	209.86
989.63	210.48
989.92	209.98
990.22	209.79
990.51	209.95
990.80	210.07
991.09	210.12
991.38	210.17
991.67	209.93
991.96	209.81
992.25	209.57
992.54	209.31
992.83	209.48
993.12	209.67
993.41	209.95
993.70	210.98
993.99	211.33
994.28	211.55
994.58	211.71
994.87	211.29
995.16	211.36
995.45	211.26
995.74	210.24
996.03	210.95
996.32	211.14
996.61	211.33
996.90	211.14
997.19	211.21
997.48	211.43
997.77	211.36
998.06	211.29
998.34	211.24
998.63	211.02
998.92	211.00
999.21	210.86
999.50	211.10
999.79	210.57
1000.08	210.52
1000.37	210.57
1000.66	210.43
1000.95	210.86
1001.24	210.79
1001.53	210.71
1001.82	210.74
1002.11	209.93
1002.40	210.33
1002.68	210.69
1002.97	212.33
1003.26	211.90
1003.55	211.43
1003.84	211.67
1004.13	212.74
1004.42	212.38
1004.71	212.36
1004.99	212.29
1005.28	213.12
1005.57	212.64
1005.86	212.43
1006.15	212.43
1006.44	212.24
1006.72	212.55
1007.01	212.43
1007.30	212.64
1007.59	212.48
1007.88	212.62
1008.17	213.02
1008.45	212.26
1008.74	211.55
1009.03	210.64
1009.32	211.05
1009.60	211.14
1009.89	210.79
1010.18	209.83
1010.47	210.10
1010.76	210.29
1011.04	210.10
1011.33	209.93
1011.62	210.05
1011.91	210.02
1012.19	210.12
1012.48	210.07
1012.77	210.02
1013.05	210.83
1013.34	211.02
1013.63	211.00
1013.92	211.12
1014.20	211.05
1014.49	211.40
1014.78	211.88
1015.06	211.12
1015.35	210.86
1015.64	211.19
1015.92	211.50
1016.21	211.45
1016.50	211.55
1016.78	211.60
1017.07	211.88
1017.36	211.64
1017.64	211.57
1017.93	211.95
1018.22	211.81
1018.50	211.98
1018.79	211.90
1019.08	210.88
1019.36	210.79
1019.65	210.60
1019.93	211.31
1020.22	211.36
1020.51	212.36
1020.79	211.62
1021.08	211.50
1021.36	211.00
1021.65	211.50
1021.94	206.00
1022.22	212.00
1022.51	205.00
1022.79	224.00
1023.08	212.00
1023.36	236.50
1023.65	201.00
>>>>>End Processed Spectral Data<<<<<
