SpectraSuite Data File
++++++++++++++++++++++++++++++++++++
Date: Tue Apr 02 18:44:08 EDT 2013
User: group
Dark Spectrum Present: No
Reference Spectrum Present: No
Number of Sampled Component Spectra: 1
Spectrometers: USB2E7196
Integration Time (usec): 580000 (USB2E7196)
Spectra Averaged: 2 (USB2E7196)
Boxcar Smoothing: 10 (USB2E7196)
Correct for Electrical Dark: No (USB2E7196)
Strobe/Lamp Enabled: No (USB2E7196)
Correct for Detector Non-linearity: No (USB2E7196)
Correct for Stray Light: No (USB2E7196)
Number of Pixels in Processed Spectrum: 2048
>>>>>Begin Processed Spectral Data<<<<<
339.09	0.00
339.48	190.50
339.86	199.00
340.24	196.50
340.63	194.50
341.01	229.50
341.39	201.00
341.78	206.00
342.16	210.50
342.54	205.50
342.93	196.52
343.31	206.02
343.69	206.62
344.07	206.86
344.46	207.50
344.84	208.21
345.22	207.00
345.60	207.33
345.99	207.60
346.37	207.43
346.75	207.43
347.13	207.62
347.52	207.71
347.90	208.38
348.28	208.26
348.66	208.76
349.05	208.12
349.43	208.48
349.81	208.81
350.19	208.76
350.57	208.71
350.96	208.93
351.34	209.57
351.72	209.76
352.10	210.10
352.48	210.00
352.87	210.02
353.25	210.40
353.63	210.21
354.01	210.14
354.39	210.40
354.77	210.52
355.15	211.33
355.54	211.24
355.92	210.64
356.30	211.14
356.68	212.40
357.06	212.67
357.44	212.36
357.82	212.40
358.20	213.36
358.58	213.57
358.97	213.86
359.35	214.12
359.73	214.71
360.11	214.64
360.49	214.83
360.87	214.93
361.25	215.14
361.63	216.17
362.01	216.57
362.39	216.43
362.77	216.83
363.15	216.62
363.53	216.71
363.91	217.17
364.29	217.29
364.67	215.31
365.05	215.29
365.43	215.64
365.81	215.98
366.19	216.21
366.57	217.33
366.95	217.36
367.33	217.12
367.71	216.90
368.09	217.40
368.47	217.52
368.85	217.45
369.23	217.98
369.61	217.26
369.99	217.76
370.37	218.12
370.75	218.81
371.13	218.57
371.51	218.60
371.89	218.71
372.27	218.60
372.65	219.10
373.03	219.38
373.41	219.31
373.78	219.24
374.16	217.95
374.54	217.17
374.92	217.05
375.30	217.19
375.68	217.05
376.06	217.10
376.44	217.02
376.82	217.14
377.19	217.02
377.57	217.05
377.95	216.12
378.33	216.10
378.71	215.07
379.09	215.12
379.47	215.24
379.84	214.88
380.22	214.76
380.60	214.17
380.98	214.02
381.36	213.76
381.73	213.38
382.11	213.98
382.49	214.05
382.87	213.83
383.25	213.64
383.62	215.93
384.00	215.57
384.38	215.60
384.76	216.26
385.13	217.02
385.51	217.02
385.89	217.10
386.27	216.98
386.64	217.29
387.02	217.10
387.40	216.93
387.78	217.31
388.15	217.48
388.53	217.60
388.91	217.52
389.29	217.43
389.66	217.79
390.04	217.33
390.42	217.55
390.79	217.69
391.17	217.45
391.55	215.02
391.92	214.90
392.30	215.14
392.68	214.36
393.05	213.79
393.43	213.74
393.81	213.69
394.18	213.40
394.56	213.50
394.94	214.14
395.31	213.90
395.69	214.17
396.06	214.38
396.44	214.38
396.82	214.14
397.19	215.24
397.57	215.02
397.95	215.48
398.32	215.02
398.70	215.29
399.07	216.00
399.45	216.05
399.82	216.24
400.20	215.98
400.58	216.10
400.95	215.48
401.33	216.07
401.70	217.74
402.08	217.90
402.45	217.90
402.83	218.17
403.20	218.57
403.58	218.64
403.95	218.90
404.33	219.29
404.71	219.71
405.08	220.86
405.46	221.21
405.83	221.50
406.21	221.88
406.58	222.26
406.96	222.40
407.33	223.02
407.70	223.55
408.08	225.55
408.45	226.29
408.83	227.40
409.20	227.69
409.58	227.05
409.95	228.19
410.33	228.90
410.70	229.26
411.08	230.43
411.45	231.57
411.82	232.33
412.20	234.10
412.57	236.36
412.95	236.21
413.32	237.81
413.69	239.12
414.07	240.76
414.44	242.36
414.82	244.48
415.19	246.83
415.56	248.81
415.94	250.12
416.31	252.81
416.68	255.60
417.06	258.71
417.43	262.40
417.81	265.60
418.18	269.62
418.55	273.24
418.93	277.40
419.30	281.69
419.67	286.29
420.04	290.83
420.42	295.10
420.79	302.17
421.16	307.76
421.54	314.95
421.91	320.95
422.28	326.93
422.66	333.71
423.03	341.79
423.40	348.90
423.77	356.07
424.15	363.21
424.52	370.67
424.89	379.33
425.26	386.79
425.64	394.74
426.01	402.93
426.38	411.57
426.75	420.50
427.13	429.26
427.50	438.79
427.87	448.71
428.24	458.81
428.61	467.05
428.99	478.31
429.36	488.40
429.73	499.48
430.10	511.14
430.47	522.19
430.85	532.67
431.22	545.19
431.59	560.14
431.96	573.07
432.33	587.26
432.70	600.79
433.08	616.67
433.45	631.90
433.82	646.98
434.19	664.14
434.56	681.14
434.93	696.93
435.30	713.26
435.68	730.71
436.05	748.21
436.42	765.24
436.79	781.21
437.16	798.29
437.53	816.81
437.90	834.02
438.27	852.52
438.64	870.93
439.01	887.52
439.38	901.14
439.75	915.52
440.13	932.02
440.50	948.07
440.87	961.17
441.24	974.48
441.61	988.90
441.98	999.83
442.35	1011.62
442.72	1024.74
443.09	1037.62
443.46	1045.12
443.83	1050.19
444.20	1054.36
444.57	1059.83
444.94	1063.14
445.31	1066.43
445.68	1072.62
446.05	1073.31
446.42	1071.69
446.79	1071.50
447.16	1069.50
447.53	1068.62
447.90	1062.07
448.27	1055.57
448.64	1046.62
449.01	1040.36
449.37	1029.74
449.74	1018.64
450.11	1007.57
450.48	992.88
450.85	977.36
451.22	964.83
451.59	952.83
451.96	941.98
452.33	926.67
452.70	913.24
453.07	896.10
453.43	876.95
453.80	860.79
454.17	845.02
454.54	829.19
454.91	812.95
455.28	797.02
455.65	782.48
456.02	771.00
456.38	758.83
456.75	743.43
457.12	729.90
457.49	717.07
457.86	702.86
458.23	692.74
458.59	681.38
458.96	669.26
459.33	658.17
459.70	647.38
460.07	639.24
460.43	628.50
460.80	619.95
461.17	612.52
461.54	604.26
461.91	596.55
462.27	588.43
462.64	581.12
463.01	573.71
463.38	567.64
463.74	556.57
464.11	549.48
464.48	543.62
464.85	537.31
465.21	533.02
465.58	527.81
465.95	521.00
466.32	515.36
466.68	510.26
467.05	505.64
467.42	500.67
467.78	495.55
468.15	490.98
468.52	487.21
468.88	481.31
469.25	476.79
469.62	473.33
469.98	469.29
470.35	466.40
470.72	462.93
471.08	457.86
471.45	455.50
471.82	453.02
472.18	449.76
472.55	447.40
472.92	443.60
473.28	440.76
473.65	438.24
474.02	435.60
474.38	433.57
474.75	431.43
475.11	429.24
475.48	427.17
475.85	425.52
476.21	423.43
476.58	422.31
476.94	420.71
477.31	419.19
477.67	417.83
478.04	416.45
478.41	415.76
478.77	417.31
479.14	416.14
479.50	415.60
479.87	415.36
480.23	414.60
480.60	414.48
480.96	414.60
481.33	415.52
481.69	415.55
482.06	415.52
482.42	416.02
482.79	416.19
483.15	416.74
483.52	417.55
483.88	417.88
484.25	418.79
484.61	420.19
484.98	420.95
485.34	422.93
485.71	424.40
486.07	425.74
486.44	424.93
486.80	426.19
487.17	427.31
487.53	429.45
487.90	432.10
488.26	434.98
488.62	437.64
488.99	439.45
489.35	442.00
489.72	444.45
490.08	447.17
490.44	450.07
490.81	453.21
491.17	456.29
491.54	460.40
491.90	464.05
492.26	467.36
492.63	470.76
492.99	473.88
493.36	478.02
493.72	482.86
494.08	487.67
494.45	492.57
494.81	498.14
495.17	502.38
495.54	507.31
495.90	512.10
496.26	517.02
496.63	522.05
496.99	527.43
497.35	533.43
497.72	538.93
498.08	545.02
498.44	550.76
498.80	557.45
499.17	563.17
499.53	569.38
499.89	576.24
500.26	583.19
500.62	590.07
500.98	597.19
501.34	603.29
501.71	610.57
502.07	617.76
502.43	624.40
502.79	631.69
503.16	638.50
503.52	645.64
503.88	652.57
504.24	660.38
504.60	668.40
504.97	675.93
505.33	683.74
505.69	692.29
506.05	699.81
506.41	707.17
506.78	714.83
507.14	721.67
507.50	729.31
507.86	737.55
508.22	745.57
508.59	752.43
508.95	760.50
509.31	769.00
509.67	777.36
510.03	785.14
510.39	792.90
510.75	801.17
511.12	808.76
511.48	816.88
511.84	824.55
512.20	832.02
512.56	839.93
512.92	847.81
513.28	855.21
513.64	862.79
514.00	869.98
514.37	878.43
514.73	886.48
515.09	894.02
515.45	900.86
515.81	907.88
516.17	915.12
516.53	921.98
516.89	927.83
517.25	933.98
517.61	941.07
517.97	947.17
518.33	952.93
518.69	959.40
519.05	966.21
519.41	972.48
519.77	979.14
520.13	984.33
520.49	989.52
520.85	995.17
521.21	1001.69
521.57	1007.81
521.93	1012.14
522.29	1017.81
522.65	1022.62
523.01	1028.05
523.37	1033.00
523.73	1039.02
524.09	1044.50
524.45	1049.40
524.81	1053.50
525.17	1057.88
525.53	1062.88
525.89	1067.67
526.25	1072.17
526.61	1076.12
526.97	1079.76
527.33	1084.14
527.68	1091.19
528.04	1095.81
528.40	1099.14
528.76	1102.74
529.12	1106.79
529.48	1111.88
529.84	1115.93
530.20	1120.26
530.56	1124.36
530.91	1128.52
531.27	1131.98
531.63	1135.79
531.99	1139.95
532.35	1144.64
532.71	1148.12
533.07	1152.52
533.42	1159.21
533.78	1164.10
534.14	1168.38
534.50	1172.55
534.86	1177.12
535.21	1179.19
535.57	1183.17
535.93	1187.60
536.29	1193.07
536.65	1197.17
537.00	1200.74
537.36	1204.38
537.72	1207.55
538.08	1211.02
538.44	1214.40
538.79	1218.26
539.15	1220.88
539.51	1224.12
539.87	1227.38
540.22	1230.93
540.58	1233.71
540.94	1233.93
541.29	1236.36
541.65	1238.43
542.01	1242.50
542.37	1244.14
542.72	1246.14
543.08	1248.10
543.44	1250.05
543.79	1250.95
544.15	1253.10
544.51	1256.17
544.87	1259.40
545.22	1262.38
545.58	1265.52
545.94	1267.69
546.29	1270.19
546.65	1273.38
547.01	1275.48
547.36	1277.90
547.72	1280.67
548.07	1283.57
548.43	1286.50
548.79	1288.50
549.14	1291.74
549.50	1293.64
549.86	1296.38
550.21	1299.86
550.57	1303.29
550.92	1306.74
551.28	1310.55
551.64	1313.71
551.99	1315.88
552.35	1317.67
552.70	1321.02
553.06	1324.19
553.41	1327.60
553.77	1330.69
554.13	1334.10
554.48	1338.36
554.84	1342.88
555.19	1346.57
555.55	1351.48
555.90	1355.55
556.26	1359.81
556.61	1362.93
556.97	1366.52
557.32	1369.86
557.68	1373.40
558.03	1377.48
558.39	1381.02
558.74	1385.00
559.10	1388.40
559.45	1392.57
559.81	1397.81
560.16	1401.95
560.52	1405.90
560.87	1410.69
561.23	1414.52
561.58	1420.33
561.94	1423.83
562.29	1427.02
562.64	1431.86
563.00	1435.88
563.35	1440.17
563.71	1444.83
564.06	1450.12
564.42	1455.38
564.77	1461.69
565.12	1467.57
565.48	1474.90
565.83	1481.50
566.19	1487.33
566.54	1493.19
566.89	1498.52
567.25	1504.76
567.60	1511.90
567.96	1519.60
568.31	1527.05
568.66	1533.76
569.02	1538.45
569.37	1543.98
569.72	1550.00
570.08	1554.81
570.43	1560.02
570.78	1566.88
571.14	1572.52
571.49	1577.60
571.84	1583.55
572.20	1588.12
572.55	1593.19
572.90	1596.24
573.26	1599.55
573.61	1603.12
573.96	1607.95
574.31	1612.76
574.67	1615.57
575.02	1618.71
575.37	1620.98
575.72	1623.67
576.08	1627.74
576.43	1631.36
576.78	1634.55
577.13	1638.31
577.49	1642.45
577.84	1645.64
578.19	1648.64
578.54	1653.17
578.90	1657.10
579.25	1659.93
579.60	1663.64
579.95	1666.48
580.30	1670.19
580.66	1674.79
581.01	1678.64
581.36	1680.95
581.71	1683.71
582.06	1688.69
582.42	1692.02
582.77	1694.43
583.12	1697.10
583.47	1699.83
583.82	1703.10
584.17	1707.76
584.53	1712.07
584.88	1714.69
585.23	1718.88
585.58	1721.52
585.93	1722.83
586.28	1725.71
586.63	1729.31
586.98	1731.71
587.34	1736.17
587.69	1738.21
588.04	1740.07
588.39	1743.07
588.74	1745.48
589.09	1748.60
589.44	1749.36
589.79	1751.57
590.14	1754.07
590.49	1755.64
590.84	1757.21
591.19	1758.60
591.54	1759.74
591.89	1760.40
592.25	1763.83
592.60	1764.26
592.95	1765.93
593.30	1768.64
593.65	1768.98
594.00	1768.74
594.35	1775.60
594.70	1775.12
595.05	1776.14
595.40	1776.88
595.75	1777.05
596.10	1778.88
596.45	1779.29
596.80	1781.17
597.15	1782.19
597.50	1781.98
597.85	1783.64
598.19	1784.64
598.54	1785.26
598.89	1786.43
599.24	1787.29
599.59	1785.98
599.94	1785.88
600.29	1785.81
600.64	1785.07
600.99	1785.67
601.34	1786.55
601.69	1780.29
602.04	1778.83
602.39	1778.81
602.74	1779.48
603.08	1778.83
603.43	1778.43
603.78	1777.81
604.13	1776.76
604.48	1775.00
604.83	1775.45
605.18	1774.90
605.53	1774.19
605.87	1773.50
606.22	1771.38
606.57	1770.14
606.92	1769.07
607.27	1768.74
607.62	1767.33
607.96	1766.90
608.31	1766.74
608.66	1765.31
609.01	1764.86
609.36	1764.76
609.70	1763.12
610.05	1760.55
610.40	1759.38
610.75	1757.43
611.10	1756.10
611.44	1752.21
611.79	1750.62
612.14	1748.55
612.49	1744.57
612.83	1741.19
613.18	1737.50
613.53	1735.21
613.88	1731.14
614.22	1728.57
614.57	1724.52
614.92	1721.71
615.27	1718.10
615.61	1712.81
615.96	1709.60
616.31	1705.79
616.65	1703.29
617.00	1700.38
617.35	1696.93
617.70	1693.26
618.04	1689.50
618.39	1684.74
618.74	1682.29
619.08	1677.95
619.43	1673.90
619.78	1670.98
620.12	1667.60
620.47	1664.31
620.82	1660.43
621.16	1656.67
621.51	1653.86
621.85	1650.60
622.20	1646.62
622.55	1642.19
622.89	1639.43
623.24	1635.62
623.59	1631.88
623.93	1627.26
624.28	1623.24
624.62	1621.71
624.97	1619.00
625.32	1614.93
625.66	1611.95
626.01	1608.45
626.35	1605.02
626.70	1600.98
627.04	1596.81
627.39	1592.88
627.73	1590.43
628.08	1586.81
628.43	1583.05
628.77	1578.88
629.12	1575.19
629.46	1571.71
629.81	1568.14
630.15	1563.26
630.50	1558.62
630.84	1553.57
631.19	1548.02
631.53	1542.86
631.88	1534.67
632.22	1527.40
632.57	1523.69
632.91	1518.31
633.26	1513.79
633.60	1508.26
633.95	1502.81
634.29	1498.02
634.64	1494.19
634.98	1488.10
635.32	1484.74
635.67	1481.38
636.01	1476.31
636.36	1471.24
636.70	1466.52
637.05	1461.14
637.39	1457.57
637.73	1452.71
638.08	1449.21
638.42	1445.38
638.77	1441.64
639.11	1438.02
639.45	1434.43
639.80	1429.67
640.14	1424.74
640.49	1418.98
640.83	1413.88
641.17	1410.36
641.52	1405.55
641.86	1399.60
642.20	1395.67
642.55	1388.60
642.89	1382.38
643.23	1376.71
643.58	1371.93
643.92	1365.21
644.26	1360.38
644.61	1354.88
644.95	1349.17
645.29	1342.60
645.64	1337.24
645.98	1330.60
646.32	1325.60
646.66	1318.64
647.01	1312.19
647.35	1306.69
647.69	1301.21
648.04	1297.10
648.38	1290.81
648.72	1284.83
649.06	1278.93
649.41	1271.40
649.75	1266.07
650.09	1260.17
650.43	1253.76
650.78	1247.14
651.12	1241.90
651.46	1235.45
651.80	1228.29
652.14	1222.17
652.49	1216.07
652.83	1209.21
653.17	1202.40
653.51	1195.98
653.85	1190.98
654.20	1184.29
654.54	1176.95
654.88	1169.83
655.22	1162.74
655.56	1155.21
655.90	1149.05
656.25	1142.45
656.59	1137.07
656.93	1130.33
657.27	1124.57
657.61	1118.24
657.95	1112.36
658.29	1105.31
658.64	1098.69
658.98	1092.55
659.32	1085.52
659.66	1079.45
660.00	1072.93
660.34	1067.05
660.68	1060.90
661.02	1054.14
661.36	1047.55
661.70	1041.93
662.05	1036.21
662.39	1029.93
662.73	1025.00
663.07	1019.31
663.41	1013.10
663.75	1006.33
664.09	1000.60
664.43	993.86
664.77	987.69
665.11	980.57
665.45	974.90
665.79	969.60
666.13	963.69
666.47	958.90
666.81	953.12
667.15	947.88
667.49	942.36
667.83	937.02
668.17	931.29
668.51	925.81
668.85	921.17
669.19	917.12
669.53	910.95
669.87	904.93
670.21	898.07
670.55	892.64
670.89	888.79
671.23	883.60
671.57	878.07
671.91	872.21
672.25	867.24
672.58	862.12
672.92	856.29
673.26	851.24
673.60	845.31
673.94	839.71
674.28	834.26
674.62	829.98
674.96	824.17
675.30	818.95
675.64	814.50
675.97	808.67
676.31	802.10
676.65	796.69
676.99	792.60
677.33	787.93
677.67	783.14
678.01	776.05
678.34	770.88
678.68	766.55
679.02	761.79
679.36	756.86
679.70	751.69
680.04	746.67
680.37	741.43
680.71	736.88
681.05	732.40
681.39	727.64
681.73	721.79
682.06	716.98
682.40	712.55
682.74	707.98
683.08	703.98
683.42	699.17
683.75	695.02
684.09	688.90
684.43	684.55
684.77	679.40
685.10	675.14
685.44	670.31
685.78	665.10
686.12	660.69
686.45	655.69
686.79	650.88
687.13	646.90
687.46	642.67
687.80	638.48
688.14	633.48
688.48	629.17
688.81	625.05
689.15	621.43
689.49	616.81
689.82	612.14
690.16	607.12
690.50	602.69
690.83	598.33
691.17	594.29
691.51	590.00
691.84	586.31
692.18	582.52
692.52	578.38
692.85	575.19
693.19	571.98
693.52	568.36
693.86	564.31
694.20	560.14
694.53	556.40
694.87	552.19
695.21	548.33
695.54	544.31
695.88	539.86
696.21	534.71
696.55	530.93
696.88	527.05
697.22	523.31
697.56	519.90
697.89	516.33
698.23	512.83
698.56	509.05
698.90	505.60
699.23	501.69
699.57	498.81
699.90	494.81
700.24	490.88
700.58	487.05
700.91	484.17
701.25	482.62
701.58	479.69
701.92	476.90
702.25	473.79
702.59	470.52
702.92	467.88
703.26	465.36
703.59	462.50
703.93	461.52
704.26	458.81
704.60	456.14
704.93	452.83
705.26	449.98
705.60	447.60
705.93	444.26
706.27	441.98
706.60	439.02
706.94	437.14
707.27	434.10
707.61	432.07
707.94	429.19
708.27	424.64
708.61	421.21
708.94	418.57
709.28	416.38
709.61	414.07
709.94	411.79
710.28	409.07
710.61	406.64
710.95	402.10
711.28	401.38
711.61	399.05
711.95	397.52
712.28	395.10
712.61	392.79
712.95	391.76
713.28	390.31
713.61	387.88
713.95	385.02
714.28	383.12
714.61	380.88
714.95	379.07
715.28	376.90
715.61	375.05
715.95	373.10
716.28	370.52
716.61	368.62
716.95	366.43
717.28	364.52
717.61	362.24
717.94	360.36
718.28	356.52
718.61	354.64
718.94	352.38
719.27	350.60
719.61	348.93
719.94	346.69
720.27	344.02
720.60	342.19
720.94	340.10
721.27	338.55
721.60	337.14
721.93	335.31
722.27	334.67
722.60	333.38
722.93	331.62
723.26	330.60
723.59	328.83
723.93	327.60
724.26	326.83
724.59	325.86
724.92	324.86
725.25	324.29
725.59	322.88
725.92	321.98
726.25	320.74
726.58	319.48
726.91	318.02
727.24	317.36
727.57	315.95
727.91	314.57
728.24	313.60
728.57	312.29
728.90	311.43
729.23	309.52
729.56	309.24
729.89	308.02
730.22	306.79
730.55	305.60
730.89	304.43
731.22	302.71
731.55	301.50
731.88	300.76
732.21	299.48
732.54	298.33
732.87	297.19
733.20	296.33
733.53	295.55
733.86	294.98
734.19	293.69
734.52	293.07
734.85	293.74
735.18	292.40
735.51	292.10
735.84	291.07
736.17	290.69
736.50	289.00
736.83	290.55
737.16	289.57
737.49	288.76
737.82	288.00
738.15	287.76
738.48	286.93
738.81	285.64
739.14	284.62
739.47	283.81
739.80	283.07
740.13	282.55
740.46	281.00
740.79	279.86
741.12	278.95
741.45	277.98
741.78	276.00
742.11	275.95
742.44	274.76
742.77	274.60
743.10	273.48
743.43	272.55
743.75	269.79
744.08	272.00
744.41	271.21
744.74	270.38
745.07	269.07
745.40	268.83
745.73	269.12
746.06	268.62
746.39	268.38
746.71	267.60
747.04	266.81
747.37	266.62
747.70	266.10
748.03	265.64
748.36	265.45
748.68	265.07
749.01	264.05
749.34	263.43
749.67	262.60
750.00	262.33
750.33	263.55
750.65	263.24
750.98	260.17
751.31	259.74
751.64	259.26
751.97	260.10
752.29	259.52
752.62	258.12
752.95	257.43
753.28	256.31
753.60	255.55
753.93	255.62
754.26	254.98
754.59	254.12
754.91	253.29
755.24	252.57
755.57	252.05
755.90	251.29
756.22	250.48
756.55	249.95
756.88	249.21
757.20	247.31
757.53	246.07
757.86	245.74
758.19	245.45
758.51	245.29
758.84	243.60
759.17	242.90
759.49	242.57
759.82	243.36
760.15	243.29
760.47	242.93
760.80	241.86
761.13	242.12
761.45	241.62
761.78	241.38
762.11	241.12
762.43	240.55
762.76	240.24
763.08	240.29
763.41	240.14
763.74	239.90
764.06	239.69
764.39	239.62
764.71	239.17
765.04	238.71
765.37	237.88
765.69	237.86
766.02	237.45
766.34	237.07
766.67	235.90
767.00	235.88
767.32	236.86
767.65	237.62
767.97	237.10
768.30	237.10
768.62	236.93
768.95	236.38
769.27	236.19
769.60	236.29
769.92	235.81
770.25	235.10
770.57	234.62
770.90	234.36
771.22	233.98
771.55	233.64
771.87	233.40
772.20	233.33
772.52	234.74
772.85	237.07
773.17	236.95
773.50	236.88
773.82	236.71
774.15	235.45
774.47	234.14
774.80	233.69
775.12	233.40
775.45	233.12
775.77	232.98
776.09	232.98
776.42	232.62
776.74	232.95
777.07	232.76
777.39	232.43
777.72	231.90
778.04	232.14
778.36	231.90
778.69	231.90
779.01	231.83
779.33	229.98
779.66	227.62
779.98	227.38
780.31	226.95
780.63	227.33
780.95	227.45
781.28	227.57
781.60	227.55
781.92	227.38
782.25	227.33
782.57	227.19
782.89	226.62
783.22	226.55
783.54	226.00
783.86	225.71
784.19	225.60
784.51	226.33
784.83	225.69
785.16	225.52
785.48	225.36
785.80	224.93
786.12	224.90
786.45	224.57
786.77	224.60
787.09	224.31
787.42	223.60
787.74	223.76
788.06	223.40
788.38	223.02
788.71	223.00
789.03	222.90
789.35	223.29
789.67	223.07
789.99	222.95
790.32	222.69
790.64	223.12
790.96	224.90
791.28	223.95
791.61	223.88
791.93	224.05
792.25	223.76
792.57	225.50
792.89	225.07
793.21	225.05
793.54	224.60
793.86	224.29
794.18	224.60
794.50	223.93
794.82	223.95
795.14	224.19
795.47	224.31
795.79	224.21
796.11	223.45
796.43	223.33
796.75	223.45
797.07	223.43
797.39	223.02
797.71	221.50
798.04	221.43
798.36	221.52
798.68	221.19
799.00	221.40
799.32	220.12
799.64	220.52
799.96	220.57
800.28	220.95
800.60	221.14
800.92	220.83
801.24	220.93
801.56	221.07
801.89	220.79
802.21	220.76
802.53	220.48
802.85	220.90
803.17	222.02
803.49	221.55
803.81	221.38
804.13	221.52
804.45	221.21
804.77	221.57
805.09	221.60
805.41	221.48
805.73	221.17
806.05	220.71
806.37	220.48
806.69	220.10
807.01	219.93
807.33	219.79
807.65	218.95
807.97	219.86
808.28	219.50
808.60	219.43
808.92	218.98
809.24	220.26
809.56	219.90
809.88	218.98
810.20	218.81
810.52	219.31
810.84	218.83
811.16	218.52
811.48	218.12
811.80	218.71
812.12	218.76
812.43	219.12
812.75	219.48
813.07	219.21
813.39	219.43
813.71	219.07
814.03	218.90
814.35	219.05
814.67	218.07
814.98	217.79
815.30	217.88
815.62	217.79
815.94	216.45
816.26	216.60
816.58	216.40
816.89	216.69
817.21	216.05
817.53	216.17
817.85	216.26
818.17	216.29
818.48	215.50
818.80	215.71
819.12	215.26
819.44	214.79
819.76	214.48
820.07	214.43
820.39	214.24
820.71	214.33
821.03	214.45
821.34	214.29
821.66	214.69
821.98	214.76
822.30	214.62
822.61	215.86
822.93	215.48
823.25	215.33
823.57	215.07
823.88	215.79
824.20	215.71
824.52	216.07
824.83	215.79
825.15	215.40
825.47	215.48
825.79	215.60
826.10	215.40
826.42	215.45
826.74	215.67
827.05	215.62
827.37	215.74
827.69	215.55
828.00	215.60
828.32	215.55
828.64	215.21
828.95	216.33
829.27	216.02
829.58	216.05
829.90	216.31
830.22	216.31
830.53	215.45
830.85	215.24
831.17	214.62
831.48	214.71
831.80	215.00
832.11	214.69
832.43	214.60
832.75	214.76
833.06	216.05
833.38	215.31
833.69	215.48
834.01	215.52
834.32	215.43
834.64	215.36
834.96	215.19
835.27	215.10
835.59	214.40
835.90	213.50
836.22	213.60
836.53	213.38
836.85	213.31
837.16	215.38
837.48	215.64
837.79	216.50
838.11	216.60
838.42	216.67
838.74	216.95
839.05	216.79
839.37	216.60
839.68	215.21
840.00	215.40
840.31	215.62
840.63	215.33
840.94	215.17
841.26	214.79
841.57	214.90
841.88	215.12
842.20	214.76
842.51	214.62
842.83	214.40
843.14	216.29
843.46	216.36
843.77	215.43
844.08	215.29
844.40	214.64
844.71	214.67
845.03	214.55
845.34	214.29
845.65	214.07
845.97	213.90
846.28	214.14
846.60	214.31
846.91	214.31
847.22	214.36
847.54	214.86
847.85	215.12
848.16	214.90
848.48	214.52
848.79	215.55
849.10	215.71
849.42	215.98
849.73	214.07
850.04	213.98
850.36	212.98
850.67	213.38
850.98	213.36
851.30	213.38
851.61	213.36
851.92	213.26
852.23	213.93
852.55	214.14
852.86	214.24
853.17	214.17
853.49	214.38
853.80	214.74
854.11	215.02
854.42	215.10
854.74	214.95
855.05	215.07
855.36	213.83
855.67	213.98
855.99	214.02
856.30	216.43
856.61	216.26
856.92	216.43
857.23	216.21
857.55	216.31
857.86	216.14
858.17	216.43
858.48	216.07
858.79	215.90
859.11	216.17
859.42	215.93
859.73	215.86
860.04	215.60
860.35	215.02
860.66	214.26
860.98	214.19
861.29	214.48
861.60	214.36
861.91	215.00
862.22	214.60
862.53	214.14
862.84	211.71
863.16	212.60
863.47	212.31
863.78	212.19
864.09	212.17
864.40	212.40
864.71	212.31
865.02	212.83
865.33	212.38
865.64	212.07
865.95	212.05
866.27	213.02
866.58	213.10
866.89	213.19
867.20	212.98
867.51	212.50
867.82	212.07
868.13	212.71
868.44	212.17
868.75	212.79
869.06	213.14
869.37	213.31
869.68	212.36
869.99	212.60
870.30	212.67
870.61	212.81
870.92	212.29
871.23	211.86
871.54	212.14
871.85	212.62
872.16	212.81
872.47	212.90
872.78	212.12
873.09	212.26
873.40	212.14
873.71	212.52
874.02	212.71
874.33	212.69
874.64	212.05
874.95	212.38
875.26	211.95
875.56	211.67
875.87	211.50
876.18	211.43
876.49	213.50
876.80	213.48
877.11	213.05
877.42	213.21
877.73	213.36
878.04	212.76
878.35	212.88
878.66	212.81
878.96	212.76
879.27	212.43
879.58	212.31
879.89	212.50
880.20	213.14
880.51	213.57
880.82	213.74
881.12	214.12
881.43	214.02
881.74	213.67
882.05	213.79
882.36	214.10
882.67	214.21
882.97	212.10
883.28	211.74
883.59	211.67
883.90	211.98
884.21	212.50
884.51	212.67
884.82	212.29
885.13	212.26
885.44	212.07
885.74	212.17
886.05	212.10
886.36	211.88
886.67	211.07
886.98	211.98
887.28	212.24
887.59	212.07
887.90	211.90
888.20	211.98
888.51	212.57
888.82	212.19
889.13	212.60
889.43	214.21
889.74	214.24
890.05	214.21
890.35	214.17
890.66	213.69
890.97	213.38
891.28	213.12
891.58	213.38
891.89	213.40
892.20	213.31
892.50	212.69
892.81	212.64
893.12	212.74
893.42	211.86
893.73	211.74
894.04	211.88
894.34	211.90
894.65	211.81
894.95	211.38
895.26	211.55
895.57	212.45
895.87	210.64
896.18	211.02
896.48	211.17
896.79	210.81
897.10	211.19
897.40	211.45
897.71	211.74
898.01	211.48
898.32	211.76
898.63	211.71
898.93	212.24
899.24	212.26
899.54	212.31
899.85	212.10
900.15	212.07
900.46	211.88
900.76	212.33
901.07	212.43
901.38	212.48
901.68	212.67
901.99	211.62
902.29	211.76
902.60	211.67
902.90	211.74
903.21	211.79
903.51	211.67
903.82	212.00
904.12	212.21
904.43	212.43
904.73	212.33
905.03	212.45
905.34	214.48
905.64	214.38
905.95	214.14
906.25	213.98
906.56	214.14
906.86	214.14
907.17	213.79
907.47	213.98
907.77	213.62
908.08	213.10
908.38	213.00
908.69	213.14
908.99	213.48
909.30	213.40
909.60	213.64
909.90	213.67
910.21	213.12
910.51	212.90
910.81	212.52
911.12	212.57
911.42	212.69
911.73	210.52
912.03	210.74
912.33	211.07
912.64	211.33
912.94	210.93
913.24	210.55
913.55	210.36
913.85	210.29
914.15	210.76
914.46	211.07
914.76	210.95
915.06	210.93
915.37	210.45
915.67	210.21
915.97	210.29
916.27	209.69
916.58	209.71
916.88	209.38
917.18	209.40
917.49	210.95
917.79	210.74
918.09	211.12
918.39	211.64
918.70	211.71
919.00	211.57
919.30	212.76
919.60	212.86
919.91	212.67
920.21	212.67
920.51	212.26
920.81	212.36
921.12	212.67
921.42	212.38
921.72	212.74
922.02	212.90
922.32	213.10
922.63	213.38
922.93	214.45
923.23	214.67
923.53	214.71
923.83	213.07
924.13	213.29
924.44	213.17
924.74	213.45
925.04	214.10
925.34	214.19
925.64	213.02
925.94	213.21
926.24	214.67
926.55	214.67
926.85	214.90
927.15	214.86
927.45	215.02
927.75	215.12
928.05	214.71
928.35	214.79
928.65	214.98
928.95	214.98
929.26	214.10
929.56	214.64
929.86	214.86
930.16	214.71
930.46	214.55
930.76	214.62
931.06	213.71
931.36	212.81
931.66	212.98
931.96	213.14
932.26	213.26
932.56	212.26
932.86	212.07
933.16	212.05
933.46	211.79
933.76	211.43
934.06	211.95
934.36	213.02
934.66	213.14
934.96	213.17
935.26	213.48
935.56	213.86
935.86	213.38
936.16	213.05
936.46	213.05
936.76	212.95
937.06	212.74
937.36	212.95
937.66	213.14
937.96	212.98
938.26	212.76
938.56	212.52
938.86	212.50
939.16	212.76
939.46	213.14
939.76	213.14
940.06	213.12
940.35	212.48
940.65	211.31
940.95	211.26
941.25	210.57
941.55	210.19
941.85	210.00
942.15	210.19
942.45	210.86
942.75	211.05
943.04	211.12
943.34	211.45
943.64	211.19
943.94	211.00
944.24	210.93
944.54	211.10
944.84	211.12
945.13	210.95
945.43	210.95
945.73	210.55
946.03	210.36
946.33	210.17
946.62	210.12
946.92	210.02
947.22	210.02
947.52	209.93
947.82	210.14
948.11	209.76
948.41	209.40
948.71	208.64
949.01	208.52
949.31	208.48
949.60	208.26
949.90	208.64
950.20	208.81
950.50	209.05
950.79	208.98
951.09	209.07
951.39	209.14
951.69	208.93
951.98	209.52
952.28	209.76
952.58	209.81
952.87	210.02
953.17	210.29
953.47	210.21
953.76	210.62
954.06	210.38
954.36	210.36
954.66	210.26
954.95	210.67
955.25	210.95
955.55	211.02
955.84	210.71
956.14	210.76
956.44	210.79
956.73	210.40
957.03	210.33
957.32	210.48
957.62	210.26
957.92	210.60
958.21	210.19
958.51	212.60
958.81	213.00
959.10	213.19
959.40	213.71
959.69	213.62
959.99	213.71
960.29	213.88
960.58	213.67
960.88	214.43
961.17	214.40
961.47	214.83
961.76	214.67
962.06	215.10
962.36	214.90
962.65	214.86
962.95	214.90
963.24	214.88
963.54	214.81
963.83	214.90
964.13	214.81
964.42	214.48
964.72	212.69
965.01	212.62
965.31	212.45
965.60	212.00
965.90	213.26
966.19	212.76
966.49	212.79
966.78	212.93
967.08	212.69
967.37	212.76
967.67	211.93
967.96	212.36
968.26	212.24
968.55	212.67
968.85	212.69
969.14	212.79
969.43	212.81
969.73	212.83
970.02	212.86
970.32	212.62
970.61	212.40
970.91	211.98
971.20	211.71
971.49	211.57
971.79	211.74
972.08	210.48
972.38	210.60
972.67	210.43
972.96	210.64
973.26	210.50
973.55	211.29
973.85	211.36
974.14	211.17
974.43	211.38
974.73	210.93
975.02	210.71
975.31	210.62
975.61	210.55
975.90	210.45
976.19	210.31
976.49	210.67
976.78	210.88
977.07	210.67
977.37	210.79
977.66	210.81
977.95	210.57
978.24	210.67
978.54	211.24
978.83	211.12
979.12	210.95
979.42	210.79
979.71	210.10
980.00	210.07
980.29	210.24
980.59	209.71
980.88	210.21
981.17	210.36
981.46	210.43
981.76	210.40
982.05	210.86
982.34	211.12
982.63	211.02
982.93	211.02
983.22	211.71
983.51	211.69
983.80	211.83
984.09	212.00
984.39	211.90
984.68	211.52
984.97	211.64
985.26	211.57
985.55	211.67
985.85	211.21
986.14	211.38
986.43	211.45
986.72	211.55
987.01	210.95
987.30	210.76
987.59	210.71
987.89	210.95
988.18	210.29
988.47	210.00
988.76	209.90
989.05	209.83
989.34	209.60
989.63	209.93
989.92	209.86
990.22	209.69
990.51	209.38
990.80	209.19
991.09	209.60
991.38	209.93
991.67	209.48
991.96	209.50
992.25	209.50
992.54	209.14
992.83	209.02
993.12	208.88
993.41	209.14
993.70	209.76
993.99	210.05
994.28	210.45
994.58	210.74
994.87	210.43
995.16	210.33
995.45	209.95
995.74	209.38
996.03	209.86
996.32	210.14
996.61	210.81
996.90	210.76
997.19	210.26
997.48	210.40
997.77	210.64
998.06	210.88
998.34	210.90
998.63	210.88
998.92	211.26
999.21	211.60
999.50	211.69
999.79	211.21
1000.08	211.10
1000.37	211.05
1000.66	210.88
1000.95	211.45
1001.24	211.62
1001.53	212.00
1001.82	212.02
1002.11	211.36
1002.40	211.62
1002.68	212.02
1002.97	213.69
1003.26	213.64
1003.55	213.02
1003.84	213.21
1004.13	213.60
1004.42	213.45
1004.71	213.69
1004.99	213.36
1005.28	213.79
1005.57	213.71
1005.86	213.60
1006.15	213.33
1006.44	213.12
1006.72	213.31
1007.01	213.10
1007.30	213.17
1007.59	212.86
1007.88	212.88
1008.17	213.33
1008.45	212.81
1008.74	212.07
1009.03	211.05
1009.32	211.29
1009.60	211.36
1009.89	211.19
1010.18	210.57
1010.47	210.62
1010.76	210.43
1011.04	210.52
1011.33	210.60
1011.62	210.67
1011.91	210.76
1012.19	210.88
1012.48	211.05
1012.77	211.12
1013.05	212.10
1013.34	212.17
1013.63	212.17
1013.92	212.14
1014.20	211.60
1014.49	211.81
1014.78	211.88
1015.06	211.10
1015.35	210.86
1015.64	211.21
1015.92	211.57
1016.21	211.79
1016.50	211.79
1016.78	212.24
1017.07	212.26
1017.36	211.76
1017.64	211.45
1017.93	211.48
1018.22	211.36
1018.50	211.24
1018.79	211.17
1019.08	210.02
1019.36	209.95
1019.65	209.76
1019.93	210.45
1020.22	210.74
1020.51	211.62
1020.79	211.45
1021.08	207.50
1021.36	209.00
1021.65	212.00
1021.94	208.00
1022.22	210.50
1022.51	207.00
1022.79	221.00
1023.08	210.50
1023.36	233.00
1023.65	205.50
>>>>>End Processed Spectral Data<<<<<
