SpectraSuite Data File
++++++++++++++++++++++++++++++++++++
Date: Tue Apr 02 18:43:45 EDT 2013
User: group
Dark Spectrum Present: No
Reference Spectrum Present: No
Number of Sampled Component Spectra: 1
Spectrometers: USB2E7196
Integration Time (usec): 580000 (USB2E7196)
Spectra Averaged: 2 (USB2E7196)
Boxcar Smoothing: 10 (USB2E7196)
Correct for Electrical Dark: No (USB2E7196)
Strobe/Lamp Enabled: No (USB2E7196)
Correct for Detector Non-linearity: No (USB2E7196)
Correct for Stray Light: No (USB2E7196)
Number of Pixels in Processed Spectrum: 2048
>>>>>Begin Processed Spectral Data<<<<<
339.09	0.00
339.48	193.00
339.86	198.00
340.24	192.50
340.63	200.50
341.01	231.50
341.39	204.50
341.78	205.00
342.16	210.50
342.54	202.00
342.93	198.05
343.31	207.86
343.69	208.55
344.07	208.81
344.46	209.76
344.84	210.31
345.22	209.07
345.60	209.55
345.99	209.81
346.37	209.90
346.75	210.29
347.13	210.50
347.52	210.90
347.90	211.74
348.28	211.90
348.66	212.31
349.05	211.57
349.43	212.07
349.81	212.10
350.19	212.07
350.57	212.05
350.96	212.62
351.34	213.05
351.72	213.17
352.10	213.36
352.48	213.12
352.87	213.00
353.25	213.31
353.63	213.05
354.01	213.00
354.39	213.17
354.77	213.26
355.15	213.55
355.54	213.05
355.92	212.38
356.30	212.31
356.68	213.67
357.06	213.90
357.44	213.40
357.82	213.62
358.20	214.57
358.58	214.57
358.97	214.52
359.35	214.83
359.73	215.29
360.11	215.45
360.49	215.64
360.87	215.79
361.25	216.12
361.63	216.90
362.01	217.19
362.39	217.12
362.77	217.31
363.15	217.33
363.53	217.29
363.91	217.55
364.29	217.45
364.67	215.33
365.05	215.38
365.43	216.00
365.81	215.88
366.19	216.10
366.57	216.81
366.95	216.52
367.33	216.12
367.71	215.95
368.09	216.26
368.47	216.10
368.85	215.98
369.23	216.14
369.61	215.21
369.99	215.76
370.37	215.90
370.75	216.64
371.13	216.17
371.51	216.05
371.89	216.36
372.27	216.64
372.65	216.86
373.03	217.00
373.41	216.76
373.78	216.64
374.16	215.57
374.54	215.10
374.92	215.02
375.30	215.02
375.68	214.60
376.06	214.60
376.44	214.40
376.82	214.50
377.19	214.29
377.57	214.24
377.95	213.48
378.33	213.17
378.71	212.00
379.09	212.21
379.47	212.50
379.84	211.95
380.22	211.83
380.60	211.67
380.98	211.48
381.36	211.21
381.73	211.00
382.11	211.50
382.49	211.43
382.87	211.19
383.25	211.00
383.62	213.48
384.00	213.07
384.38	213.50
384.76	213.74
385.13	214.67
385.51	214.79
385.89	214.57
386.27	214.62
386.64	215.17
387.02	215.10
387.40	214.93
387.78	215.05
388.15	215.02
388.53	214.90
388.91	214.98
389.29	214.93
389.66	215.33
390.04	214.83
390.42	215.43
390.79	215.60
391.17	215.79
391.55	213.50
391.92	213.55
392.30	213.69
392.68	213.40
393.05	213.14
393.43	213.26
393.81	213.50
394.18	213.29
394.56	213.31
394.94	213.79
395.31	213.67
395.69	214.67
396.06	214.76
396.44	215.07
396.82	214.71
397.19	215.60
397.57	215.38
397.95	216.00
398.32	215.21
398.70	215.45
399.07	215.88
399.45	215.93
399.82	215.93
400.20	215.76
400.58	215.81
400.95	215.26
401.33	215.69
401.70	217.33
402.08	217.69
402.45	217.57
402.83	217.95
403.20	218.17
403.58	217.67
403.95	218.10
404.33	218.52
404.71	218.79
405.08	220.12
405.46	220.40
405.83	220.71
406.21	221.21
406.58	221.40
406.96	221.50
407.33	222.26
407.70	223.10
408.08	225.05
408.45	225.90
408.83	226.93
409.20	227.48
409.58	226.98
409.95	228.14
410.33	229.24
410.70	229.45
411.08	230.86
411.45	232.17
411.82	233.05
412.20	234.52
412.57	237.00
412.95	236.60
413.32	238.48
413.69	239.76
414.07	241.29
414.44	243.38
414.82	245.33
415.19	247.45
415.56	249.64
415.94	250.90
416.31	253.88
416.68	256.40
417.06	259.48
417.43	262.83
417.81	266.02
418.18	269.83
418.55	273.79
418.93	277.52
419.30	281.64
419.67	286.19
420.04	290.55
420.42	294.71
420.79	301.83
421.16	307.36
421.54	314.07
421.91	320.26
422.28	326.55
422.66	333.29
423.03	341.12
423.40	348.29
423.77	355.36
424.15	362.26
424.52	369.79
424.89	378.62
425.26	385.98
425.64	393.40
426.01	401.05
426.38	409.52
426.75	418.98
427.13	427.76
427.50	437.05
427.87	446.83
428.24	457.24
428.61	465.38
428.99	477.00
429.36	487.95
429.73	499.14
430.10	510.60
430.47	522.24
430.85	533.00
431.22	545.26
431.59	560.50
431.96	573.40
432.33	587.55
432.70	600.74
433.08	617.29
433.45	632.64
433.82	648.43
434.19	665.74
434.56	682.36
434.93	698.36
435.30	714.88
435.68	732.98
436.05	750.14
436.42	767.17
436.79	782.36
437.16	799.52
437.53	817.38
437.90	834.31
438.27	852.57
438.64	870.98
439.01	888.19
439.38	901.33
439.75	916.31
440.13	933.26
440.50	949.12
440.87	961.45
441.24	974.83
441.61	989.50
441.98	1000.21
442.35	1012.50
442.72	1025.12
443.09	1037.74
443.46	1044.71
443.83	1050.05
444.20	1055.62
444.57	1062.40
444.94	1065.81
445.31	1069.64
445.68	1076.07
446.05	1076.76
446.42	1075.36
446.79	1073.83
447.16	1072.26
447.53	1070.95
447.90	1064.60
448.27	1057.74
448.64	1049.21
449.01	1043.24
449.37	1031.55
449.74	1020.71
450.11	1009.19
450.48	994.55
450.85	979.67
451.22	967.26
451.59	954.86
451.96	942.60
452.33	926.57
452.70	911.67
453.07	894.52
453.43	875.00
453.80	858.74
454.17	842.69
454.54	827.57
454.91	811.45
455.28	795.19
455.65	780.17
456.02	768.95
456.38	756.81
456.75	741.19
457.12	728.05
457.49	714.83
457.86	700.50
458.23	690.74
458.59	678.83
458.96	667.05
459.33	656.38
459.70	646.02
460.07	637.52
460.43	628.17
460.80	619.71
461.17	612.40
461.54	604.05
461.91	596.21
462.27	587.83
462.64	580.71
463.01	573.67
463.38	567.26
463.74	556.74
464.11	549.60
464.48	544.26
464.85	538.21
465.21	533.95
465.58	529.40
465.95	522.60
466.32	517.64
466.68	512.17
467.05	507.52
467.42	502.48
467.78	497.31
468.15	492.19
468.52	488.45
468.88	482.45
469.25	477.69
469.62	474.10
469.98	470.19
470.35	466.38
470.72	462.43
471.08	457.83
471.45	455.29
471.82	453.00
472.18	449.36
472.55	446.90
472.92	443.38
473.28	440.26
473.65	437.62
474.02	434.36
474.38	432.55
474.75	430.48
475.11	428.31
475.48	426.55
475.85	424.98
476.21	422.62
476.58	421.76
476.94	421.02
477.31	419.52
477.67	418.40
478.04	417.50
478.41	416.81
478.77	417.88
479.14	416.48
479.50	415.71
479.87	415.26
480.23	414.86
480.60	414.57
480.96	414.43
481.33	415.55
481.69	415.62
482.06	415.81
482.42	416.02
482.79	416.69
483.15	416.90
483.52	417.40
483.88	418.21
484.25	418.71
484.61	418.98
484.98	419.95
485.34	421.62
485.71	423.43
486.07	424.55
486.44	424.24
486.80	425.76
487.17	427.05
487.53	429.29
487.90	431.26
488.26	433.90
488.62	436.86
488.99	438.69
489.35	441.31
489.72	443.71
490.08	446.02
490.44	448.26
490.81	451.67
491.17	454.88
491.54	457.86
491.90	461.88
492.26	466.00
492.63	469.62
492.99	472.62
493.36	476.50
493.72	481.36
494.08	485.71
494.45	490.74
494.81	495.67
495.17	500.38
495.54	505.76
495.90	510.67
496.26	515.43
496.63	521.02
496.99	526.81
497.35	532.71
497.72	538.93
498.08	544.67
498.44	550.50
498.80	557.21
499.17	563.60
499.53	569.48
499.89	576.48
500.26	583.19
500.62	589.98
500.98	597.10
501.34	603.76
501.71	611.26
502.07	618.57
502.43	625.57
502.79	632.05
503.16	638.98
503.52	646.00
503.88	652.98
504.24	660.43
504.60	668.00
504.97	675.60
505.33	682.79
505.69	692.10
506.05	699.69
506.41	707.02
506.78	714.57
507.14	722.40
507.50	730.00
507.86	738.10
508.22	746.02
508.59	753.45
508.95	761.93
509.31	770.74
509.67	778.33
510.03	785.81
510.39	794.17
510.75	801.64
511.12	809.36
511.48	817.36
511.84	824.40
512.20	831.71
512.56	839.86
512.92	847.52
513.28	854.19
513.64	862.05
514.00	869.45
514.37	876.90
514.73	884.10
515.09	891.74
515.45	898.79
515.81	906.24
516.17	912.98
516.53	918.95
516.89	923.83
517.25	930.33
517.61	937.26
517.97	942.90
518.33	949.98
518.69	955.90
519.05	962.40
519.41	968.45
519.77	975.93
520.13	981.36
520.49	987.67
520.85	993.02
521.21	999.79
521.57	1005.40
521.93	1010.29
522.29	1015.50
522.65	1019.45
523.01	1025.19
523.37	1029.81
523.73	1035.43
524.09	1039.86
524.45	1045.90
524.81	1050.76
525.17	1056.19
525.53	1061.12
525.89	1064.81
526.25	1070.71
526.61	1074.29
526.97	1078.83
527.33	1082.50
527.68	1088.38
528.04	1092.36
528.40	1096.93
528.76	1099.76
529.12	1104.74
529.48	1110.43
529.84	1114.83
530.20	1120.00
530.56	1123.74
530.91	1128.14
531.27	1132.21
531.63	1137.67
531.99	1139.81
532.35	1143.38
532.71	1146.98
533.07	1151.95
533.42	1159.31
533.78	1162.57
534.14	1167.26
534.50	1171.36
534.86	1176.17
535.21	1178.33
535.57	1183.07
535.93	1186.48
536.29	1191.67
536.65	1195.29
537.00	1198.07
537.36	1201.86
537.72	1204.64
538.08	1208.29
538.44	1211.62
538.79	1215.24
539.15	1218.12
539.51	1222.95
539.87	1226.93
540.22	1229.83
540.58	1232.95
540.94	1233.67
541.29	1237.14
541.65	1239.76
542.01	1243.71
542.37	1246.10
542.72	1248.17
543.08	1249.71
543.44	1253.50
543.79	1254.48
544.15	1256.98
544.51	1260.31
544.87	1262.95
545.22	1265.88
545.58	1268.45
545.94	1271.52
546.29	1274.26
546.65	1276.48
547.01	1278.88
547.36	1281.17
547.72	1283.83
548.07	1286.05
548.43	1288.62
548.79	1290.64
549.14	1292.83
549.50	1294.98
549.86	1296.69
550.21	1300.71
550.57	1305.10
550.92	1306.74
551.28	1311.38
551.64	1314.21
551.99	1317.19
552.35	1319.93
552.70	1322.81
553.06	1325.76
553.41	1328.74
553.77	1333.33
554.13	1337.21
554.48	1341.12
554.84	1345.50
555.19	1349.83
555.55	1355.31
555.90	1358.98
556.26	1363.00
556.61	1367.05
556.97	1369.69
557.32	1373.45
557.68	1377.00
558.03	1379.26
558.39	1383.24
558.74	1386.45
559.10	1391.07
559.45	1395.90
559.81	1400.64
560.16	1404.67
560.52	1409.29
560.87	1414.33
561.23	1417.05
561.58	1422.79
561.94	1427.07
562.29	1431.17
562.64	1435.50
563.00	1439.50
563.35	1443.81
563.71	1448.69
564.06	1453.71
564.42	1459.43
564.77	1465.26
565.12	1470.55
565.48	1478.29
565.83	1484.83
566.19	1490.00
566.54	1494.55
566.89	1499.00
567.25	1505.33
567.60	1513.12
567.96	1520.38
568.31	1526.67
568.66	1533.02
569.02	1537.07
569.37	1542.40
569.72	1548.33
570.08	1553.76
570.43	1558.60
570.78	1564.36
571.14	1570.24
571.49	1575.95
571.84	1581.10
572.20	1586.00
572.55	1591.67
572.90	1594.19
573.26	1598.62
573.61	1602.81
573.96	1607.69
574.31	1612.69
574.67	1615.86
575.02	1618.19
575.37	1620.55
575.72	1623.14
576.08	1626.50
576.43	1630.26
576.78	1634.38
577.13	1637.33
577.49	1640.57
577.84	1644.21
578.19	1647.31
578.54	1651.29
578.90	1656.05
579.25	1660.14
579.60	1662.98
579.95	1665.19
580.30	1670.00
580.66	1673.88
581.01	1677.83
581.36	1681.62
581.71	1684.57
582.06	1689.50
582.42	1693.90
582.77	1696.93
583.12	1699.88
583.47	1703.52
583.82	1706.69
584.17	1709.79
584.53	1713.55
584.88	1718.10
585.23	1721.43
585.58	1725.29
585.93	1727.00
586.28	1728.38
586.63	1730.12
586.98	1733.74
587.34	1738.02
587.69	1740.55
588.04	1742.95
588.39	1745.98
588.74	1746.76
589.09	1749.71
589.44	1750.14
589.79	1752.02
590.14	1754.29
590.49	1756.40
590.84	1756.93
591.19	1759.64
591.54	1760.26
591.89	1761.38
592.25	1763.31
592.60	1763.93
592.95	1764.17
593.30	1766.00
593.65	1766.90
594.00	1767.57
594.35	1773.60
594.70	1773.00
595.05	1772.60
595.40	1772.60
595.75	1771.88
596.10	1773.07
596.45	1773.38
596.80	1774.43
597.15	1774.79
597.50	1775.45
597.85	1776.60
598.19	1778.29
598.54	1777.43
598.89	1778.26
599.24	1779.45
599.59	1778.79
599.94	1778.98
600.29	1779.81
600.64	1779.17
600.99	1779.83
601.34	1780.93
601.69	1775.10
602.04	1774.50
602.39	1774.81
602.74	1775.07
603.08	1775.33
603.43	1776.36
603.78	1775.57
604.13	1774.95
604.48	1773.52
604.83	1772.67
605.18	1771.95
605.53	1771.24
605.87	1770.55
606.22	1768.90
606.57	1767.21
606.92	1765.19
607.27	1764.26
607.62	1763.40
607.96	1762.67
608.31	1761.64
608.66	1760.31
609.01	1758.83
609.36	1759.05
609.70	1757.93
610.05	1755.24
610.40	1753.14
610.75	1750.71
611.10	1748.88
611.44	1746.33
611.79	1744.81
612.14	1742.88
612.49	1739.69
612.83	1736.48
613.18	1733.98
613.53	1731.14
613.88	1727.98
614.22	1723.98
614.57	1719.95
614.92	1716.00
615.27	1712.24
615.61	1707.83
615.96	1704.74
616.31	1701.50
616.65	1698.24
617.00	1695.50
617.35	1692.50
617.70	1690.05
618.04	1685.57
618.39	1681.00
618.74	1678.19
619.08	1674.10
619.43	1670.88
619.78	1667.21
620.12	1663.52
620.47	1660.45
620.82	1656.79
621.16	1652.83
621.51	1650.29
621.85	1646.88
622.20	1643.45
622.55	1639.31
622.89	1636.12
623.24	1632.64
623.59	1628.79
623.93	1624.60
624.28	1618.88
624.62	1616.93
624.97	1612.93
625.32	1609.60
625.66	1606.67
626.01	1601.60
626.35	1598.19
626.70	1592.93
627.04	1590.12
627.39	1586.07
627.73	1582.90
628.08	1580.45
628.43	1576.14
628.77	1572.21
629.12	1569.02
629.46	1565.36
629.81	1561.64
630.15	1556.43
630.50	1550.95
630.84	1545.36
631.19	1539.98
631.53	1536.33
631.88	1529.00
632.22	1522.88
632.57	1518.88
632.91	1513.81
633.26	1509.98
633.60	1504.36
633.95	1500.24
634.29	1494.29
634.64	1490.26
634.98	1484.76
635.32	1480.05
635.67	1476.62
636.01	1472.10
636.36	1466.93
636.70	1463.02
637.05	1459.31
637.39	1455.76
637.73	1451.52
638.08	1448.81
638.42	1444.43
638.77	1440.07
639.11	1436.40
639.45	1432.29
639.80	1425.95
640.14	1421.17
640.49	1415.71
640.83	1411.33
641.17	1405.88
641.52	1400.62
641.86	1394.79
642.20	1390.00
642.55	1384.05
642.89	1378.02
643.23	1372.21
643.58	1367.21
643.92	1360.17
644.26	1353.93
644.61	1347.81
644.95	1342.50
645.29	1336.05
645.64	1330.12
645.98	1324.19
646.32	1318.24
646.66	1311.48
647.01	1305.95
647.35	1300.19
647.69	1294.43
648.04	1288.55
648.38	1283.76
648.72	1278.02
649.06	1272.36
649.41	1266.00
649.75	1259.38
650.09	1253.19
650.43	1247.05
650.78	1239.76
651.12	1233.48
651.46	1226.45
651.80	1220.14
652.14	1213.19
652.49	1207.12
652.83	1200.62
653.17	1193.24
653.51	1186.38
653.85	1180.62
654.20	1174.21
654.54	1167.14
654.88	1160.76
655.22	1154.81
655.56	1147.07
655.90	1140.36
656.25	1133.38
656.59	1126.02
656.93	1120.26
657.27	1113.93
657.61	1107.21
657.95	1101.67
658.29	1095.62
658.64	1090.24
658.98	1083.55
659.32	1076.93
659.66	1070.52
660.00	1064.36
660.34	1058.07
660.68	1051.57
661.02	1045.17
661.36	1038.55
661.70	1032.83
662.05	1026.33
662.39	1020.00
662.73	1015.14
663.07	1010.69
663.41	1004.81
663.75	999.45
664.09	993.79
664.43	987.48
664.77	981.88
665.11	974.69
665.45	969.05
665.79	962.90
666.13	957.29
666.47	951.29
666.81	944.62
667.15	938.90
667.49	934.33
667.83	929.69
668.17	924.38
668.51	919.17
668.85	913.12
669.19	908.38
669.53	901.98
669.87	895.21
670.21	888.62
670.55	882.86
670.89	878.14
671.23	872.24
671.57	866.48
671.91	860.38
672.25	855.64
672.58	850.05
672.92	843.95
673.26	838.14
673.60	833.31
673.94	828.69
674.28	823.45
674.62	817.90
674.96	812.48
675.30	807.33
675.64	802.00
675.97	797.55
676.31	791.76
676.65	786.98
676.99	782.50
677.33	777.43
677.67	772.90
678.01	766.43
678.34	761.52
678.68	757.88
679.02	753.62
679.36	748.55
679.70	743.21
680.04	738.86
680.37	734.55
680.71	730.45
681.05	726.10
681.39	721.43
681.73	716.62
682.06	711.76
682.40	706.86
682.74	702.88
683.08	698.48
683.42	693.62
683.75	689.21
684.09	684.31
684.43	679.26
684.77	673.98
685.10	670.05
685.44	665.38
685.78	659.76
686.12	655.02
686.45	650.55
686.79	645.95
687.13	641.76
687.46	637.36
687.80	632.79
688.14	627.95
688.48	624.07
688.81	619.71
689.15	615.86
689.49	611.64
689.82	607.26
690.16	602.36
690.50	598.24
690.83	594.05
691.17	589.60
691.51	585.55
691.84	581.64
692.18	577.12
692.52	573.07
692.85	569.79
693.19	566.83
693.52	562.98
693.86	559.48
694.20	555.57
694.53	552.00
694.87	547.48
695.21	543.31
695.54	539.00
695.88	534.88
696.21	530.31
696.55	526.57
696.88	522.98
697.22	519.67
697.56	516.60
697.89	512.98
698.23	509.60
698.56	505.71
698.90	502.57
699.23	499.12
699.57	495.88
699.90	492.21
700.24	487.98
700.58	484.57
700.91	481.64
701.25	480.10
701.58	477.55
701.92	475.21
702.25	472.45
702.59	469.29
702.92	466.38
703.26	463.95
703.59	461.07
703.93	459.52
704.26	456.50
704.60	453.36
704.93	450.12
705.26	447.36
705.60	445.64
705.93	442.33
706.27	440.17
706.60	437.79
706.94	435.88
707.27	433.19
707.61	431.05
707.94	427.86
708.27	423.57
708.61	420.05
708.94	417.52
709.28	415.21
709.61	412.76
709.94	410.40
710.28	407.55
710.61	405.21
710.95	400.88
711.28	399.90
711.61	397.69
711.95	395.98
712.28	393.52
712.61	390.79
712.95	389.93
713.28	388.67
713.61	385.95
713.95	383.38
714.28	381.60
714.61	379.05
714.95	377.45
715.28	375.26
715.61	373.45
715.95	371.43
716.28	369.19
716.61	367.64
716.95	365.40
717.28	363.40
717.61	361.55
717.94	360.17
718.28	356.74
718.61	354.71
718.94	352.36
719.27	350.50
719.61	349.00
719.94	346.64
720.27	343.67
720.60	341.90
720.94	339.98
721.27	338.05
721.60	336.88
721.93	335.24
722.27	334.43
722.60	332.83
722.93	330.98
723.26	329.60
723.59	327.74
723.93	326.83
724.26	325.74
724.59	324.21
724.92	322.69
725.25	321.88
725.59	320.52
725.92	319.95
726.25	318.71
726.58	317.43
726.91	316.14
727.24	315.19
727.57	314.24
727.91	312.55
728.24	311.74
728.57	310.24
728.90	308.90
729.23	307.05
729.56	306.74
729.89	305.76
730.22	304.69
730.55	303.33
730.89	301.93
731.22	300.64
731.55	299.62
731.88	298.86
732.21	297.98
732.54	296.90
732.87	295.33
733.20	294.26
733.53	293.52
733.86	292.55
734.19	291.36
734.52	290.43
734.85	291.17
735.18	289.64
735.51	289.69
735.84	289.12
736.17	288.83
736.50	286.93
736.83	288.14
737.16	287.36
737.49	286.57
737.82	285.74
738.15	285.31
738.48	284.64
738.81	283.76
739.14	282.45
739.47	281.76
739.80	281.07
740.13	280.60
740.46	279.31
740.79	278.38
741.12	277.79
741.45	277.02
741.78	275.07
742.11	275.26
742.44	273.64
742.77	272.98
743.10	271.86
743.43	271.24
743.75	268.55
744.08	270.83
744.41	269.98
744.74	269.10
745.07	268.02
745.40	267.45
745.73	267.48
746.06	266.74
746.39	266.43
746.71	265.64
747.04	264.98
747.37	264.24
747.70	263.83
748.03	263.07
748.36	262.81
748.68	262.07
749.01	260.76
749.34	260.33
749.67	259.86
750.00	259.79
750.33	260.93
750.65	260.71
750.98	257.00
751.31	256.93
751.64	256.64
751.97	257.62
752.29	257.07
752.62	255.81
752.95	255.45
753.28	254.45
753.60	253.98
753.93	253.98
754.26	254.14
754.59	253.24
754.91	252.60
755.24	251.88
755.57	251.55
755.90	251.00
756.22	250.40
756.55	249.76
756.88	248.76
757.20	246.86
757.53	245.71
757.86	245.62
758.19	245.14
758.51	244.62
758.84	242.62
759.17	241.76
759.49	241.40
759.82	242.10
760.15	242.17
760.47	241.60
760.80	240.76
761.13	240.26
761.45	240.07
761.78	239.62
762.11	239.26
762.43	238.79
762.76	238.57
763.08	238.69
763.41	238.55
763.74	238.38
764.06	238.07
764.39	237.88
764.71	237.36
765.04	236.79
765.37	236.36
765.69	236.26
766.02	236.12
766.34	235.64
766.67	234.36
767.00	234.40
767.32	235.17
767.65	235.98
767.97	235.52
768.30	235.31
768.62	235.19
768.95	234.90
769.27	234.64
769.60	234.79
769.92	234.12
770.25	233.45
770.57	232.86
770.90	232.43
771.22	231.98
771.55	231.88
771.87	231.98
772.20	231.95
772.52	233.31
772.85	235.62
773.17	235.55
773.50	235.45
773.82	234.67
774.15	233.83
774.47	232.45
774.80	231.95
775.12	231.79
775.45	231.71
775.77	231.36
776.09	231.33
776.42	230.90
776.74	231.31
777.07	230.95
777.39	231.02
777.72	231.05
778.04	231.24
778.36	230.95
778.69	230.83
779.01	230.48
779.33	228.69
779.66	226.40
779.98	226.12
780.31	225.90
780.63	226.62
780.95	226.71
781.28	226.36
781.60	226.38
781.92	225.90
782.25	225.57
782.57	225.48
782.89	225.38
783.22	225.40
783.54	224.83
783.86	225.17
784.19	224.79
784.51	225.17
784.83	224.76
785.16	224.52
785.48	224.24
785.80	224.45
786.12	224.52
786.45	224.33
786.77	224.29
787.09	223.88
787.42	223.12
787.74	223.17
788.06	223.31
788.38	222.81
788.71	222.55
789.03	222.74
789.35	223.00
789.67	222.52
789.99	222.60
790.32	222.33
790.64	222.31
790.96	223.76
791.28	222.81
791.61	222.79
791.93	222.93
792.25	222.86
792.57	224.10
792.89	223.55
793.21	223.52
793.54	223.38
793.86	223.38
794.18	223.48
794.50	223.07
794.82	222.93
795.14	223.31
795.47	224.00
795.79	223.81
796.11	223.31
796.43	223.29
796.75	223.07
797.07	223.17
797.39	222.79
797.71	221.64
798.04	221.88
798.36	221.86
798.68	221.81
799.00	221.98
799.32	220.76
799.64	221.19
799.96	220.83
800.28	221.17
800.60	220.88
800.92	221.07
801.24	220.74
801.56	220.83
801.89	220.76
802.21	220.60
802.53	220.24
802.85	220.33
803.17	221.24
803.49	220.62
803.81	220.55
804.13	220.64
804.45	220.43
804.77	220.57
805.09	220.48
805.41	220.21
805.73	219.62
806.05	219.31
806.37	219.21
806.69	219.19
807.01	218.81
807.33	219.17
807.65	218.38
807.97	219.19
808.28	218.86
808.60	218.74
808.92	218.48
809.24	219.79
809.56	219.43
809.88	218.55
810.20	218.57
810.52	218.83
810.84	218.38
811.16	217.93
811.48	217.52
811.80	218.12
812.12	217.93
812.43	218.24
812.75	218.26
813.07	217.98
813.39	218.07
813.71	217.90
814.03	217.74
814.35	217.57
814.67	216.64
814.98	216.79
815.30	216.76
815.62	216.38
815.94	214.98
816.26	215.12
816.58	214.86
816.89	214.93
817.21	214.33
817.53	214.55
817.85	214.55
818.17	214.69
818.48	213.86
818.80	214.29
819.12	213.98
819.44	213.57
819.76	213.36
820.07	213.38
820.39	213.43
820.71	213.48
821.03	213.74
821.34	213.71
821.66	214.00
821.98	214.21
822.30	214.21
822.61	215.43
822.93	215.26
823.25	215.33
823.57	215.38
823.88	215.71
824.20	215.74
824.52	216.19
824.83	216.14
825.15	216.17
825.47	216.17
825.79	216.40
826.10	216.55
826.42	216.40
826.74	216.81
827.05	216.57
827.37	216.36
827.69	215.93
828.00	216.14
828.32	215.88
828.64	215.52
828.95	216.55
829.27	215.90
829.58	216.19
829.90	216.45
830.22	216.64
830.53	216.38
830.85	216.05
831.17	215.76
831.48	215.64
831.80	215.74
832.11	215.52
832.43	215.31
832.75	214.95
833.06	216.31
833.38	215.48
833.69	215.36
834.01	215.64
834.32	215.81
834.64	215.40
834.96	215.36
835.27	215.31
835.59	214.64
835.90	214.31
836.22	214.05
836.53	213.50
836.85	213.21
837.16	214.98
837.48	215.02
837.79	215.40
838.11	215.62
838.42	215.43
838.74	215.74
839.05	215.67
839.37	215.69
839.68	214.05
840.00	214.07
840.31	214.45
840.63	214.36
840.94	214.12
841.26	213.95
841.57	213.98
841.88	214.21
842.20	213.95
842.51	213.57
842.83	213.38
843.14	215.17
843.46	214.93
843.77	214.05
844.08	213.95
844.40	213.38
844.71	212.83
845.03	212.52
845.34	212.12
845.65	211.98
845.97	212.40
846.28	212.81
846.60	212.81
846.91	212.71
847.22	212.40
847.54	213.02
847.85	213.17
848.16	213.00
848.48	212.48
848.79	213.40
849.10	213.88
849.42	214.07
849.73	212.24
850.04	212.31
850.36	211.45
850.67	211.90
850.98	212.00
851.30	212.48
851.61	212.48
851.92	212.52
852.23	213.12
852.55	213.00
852.86	212.98
853.17	213.26
853.49	213.55
853.80	214.14
854.11	214.14
854.42	214.55
854.74	214.31
855.05	214.67
855.36	213.26
855.67	213.17
855.99	213.14
856.30	215.88
856.61	216.00
856.92	216.12
857.23	216.02
857.55	215.76
857.86	215.57
858.17	216.10
858.48	215.88
858.79	215.52
859.11	215.60
859.42	215.57
859.73	215.14
860.04	215.02
860.35	214.31
860.66	213.67
860.98	213.48
861.29	213.64
861.60	213.40
861.91	214.05
862.22	213.45
862.53	213.21
862.84	210.55
863.16	210.86
863.47	210.57
863.78	210.36
864.09	210.55
864.40	210.67
864.71	210.55
865.02	210.60
865.33	210.43
865.64	210.19
865.95	210.26
866.27	211.71
866.58	211.43
866.89	211.64
867.20	211.71
867.51	211.48
867.82	211.52
868.13	212.17
868.44	211.71
868.75	212.50
869.06	212.83
869.37	212.98
869.68	212.48
869.99	212.74
870.30	212.79
870.61	212.86
870.92	212.69
871.23	212.60
871.54	212.95
871.85	213.48
872.16	213.62
872.47	213.52
872.78	212.07
873.09	212.24
873.40	212.19
873.71	212.31
874.02	212.62
874.33	212.48
874.64	211.90
874.95	212.38
875.26	211.95
875.56	211.83
875.87	211.81
876.18	211.76
876.49	213.81
876.80	214.00
877.11	213.74
877.42	213.81
877.73	213.88
878.04	213.52
878.35	213.50
878.66	213.50
878.96	213.52
879.27	213.90
879.58	213.86
879.89	213.81
880.20	214.38
880.51	214.12
880.82	214.10
881.12	214.43
881.43	214.05
881.74	213.67
882.05	213.38
882.36	213.64
882.67	213.62
882.97	211.40
883.28	211.07
883.59	211.12
883.90	211.00
884.21	211.33
884.51	211.50
884.82	211.12
885.13	211.24
885.44	211.19
885.74	211.00
886.05	211.00
886.36	210.93
886.67	210.21
886.98	211.33
887.28	211.52
887.59	211.40
887.90	211.50
888.20	211.60
888.51	212.10
888.82	211.67
889.13	212.10
889.43	213.67
889.74	213.71
890.05	213.60
890.35	213.52
890.66	213.05
890.97	212.88
891.28	212.69
891.58	212.60
891.89	212.45
892.20	212.14
892.50	212.00
892.81	211.88
893.12	211.93
893.42	210.86
893.73	210.88
894.04	210.74
894.34	210.88
894.65	210.81
894.95	210.76
895.26	211.14
895.57	211.79
895.87	210.21
896.18	210.45
896.48	210.71
896.79	210.88
897.10	211.45
897.40	211.48
897.71	211.86
898.01	211.86
898.32	212.26
898.63	212.45
898.93	212.43
899.24	212.79
899.54	212.79
899.85	212.76
900.15	212.83
900.46	213.00
900.76	213.07
901.07	213.17
901.38	213.12
901.68	213.10
901.99	212.14
902.29	212.17
902.60	211.90
902.90	211.60
903.21	211.64
903.51	211.38
903.82	211.81
904.12	211.67
904.43	211.81
904.73	211.81
905.03	212.02
905.34	214.00
905.64	213.50
905.95	213.36
906.25	213.31
906.56	213.19
906.86	213.05
907.17	212.93
907.47	213.26
907.77	213.02
908.08	212.79
908.38	213.00
908.69	213.21
908.99	213.60
909.30	213.79
909.60	213.86
909.90	213.93
910.21	213.24
910.51	213.07
910.81	213.10
911.12	213.00
911.42	212.81
911.73	210.79
912.03	211.12
912.33	211.83
912.64	211.74
912.94	211.57
913.24	211.12
913.55	210.88
913.85	210.55
914.15	210.93
914.46	211.07
914.76	210.88
915.06	210.69
915.37	210.36
915.67	210.14
915.97	210.02
916.27	209.62
916.58	209.81
916.88	209.76
917.18	209.67
917.49	210.95
917.79	210.93
918.09	211.36
918.39	211.95
918.70	211.57
919.00	211.69
919.30	212.50
919.60	212.67
919.91	212.69
920.21	212.81
920.51	212.38
920.81	212.33
921.12	212.60
921.42	212.64
921.72	212.67
922.02	212.95
922.32	213.12
922.63	213.12
922.93	214.21
923.23	214.33
923.53	213.83
923.83	212.71
924.13	213.00
924.44	212.67
924.74	212.90
925.04	213.55
925.34	213.57
925.64	212.79
925.94	212.83
926.24	213.86
926.55	213.81
926.85	214.17
927.15	214.12
927.45	213.93
927.75	214.12
928.05	214.05
928.35	213.95
928.65	214.36
928.95	214.31
929.26	213.57
929.56	214.05
929.86	214.60
930.16	214.26
930.46	214.05
930.76	214.29
931.06	213.17
931.36	212.52
931.66	212.86
931.96	213.29
932.26	213.33
932.56	212.69
932.86	212.76
933.16	212.67
933.46	212.62
933.76	212.50
934.06	212.43
934.36	213.45
934.66	213.48
934.96	213.12
935.26	213.57
935.56	213.71
935.86	213.21
936.16	212.90
936.46	212.74
936.76	212.64
937.06	212.48
937.36	212.62
937.66	212.81
937.96	212.57
938.26	212.05
938.56	211.88
938.86	211.95
939.16	212.36
939.46	212.50
939.76	212.43
940.06	212.52
940.35	212.12
940.65	210.88
940.95	210.93
941.25	210.57
941.55	210.26
941.85	210.19
942.15	210.60
942.45	211.21
942.75	211.05
943.04	211.12
943.34	211.48
943.64	211.50
943.94	211.07
944.24	211.31
944.54	211.50
944.84	211.69
945.13	211.21
945.43	210.74
945.73	210.69
946.03	210.55
946.33	210.43
946.62	210.40
946.92	210.57
947.22	210.64
947.52	210.69
947.82	210.62
948.11	210.31
948.41	209.74
948.71	209.17
949.01	209.43
949.31	209.21
949.60	209.07
949.90	209.43
950.20	209.38
950.50	209.26
950.79	209.02
951.09	209.17
951.39	209.36
951.69	209.10
951.98	209.52
952.28	209.69
952.58	209.79
952.87	209.95
953.17	210.19
953.47	210.02
953.76	209.93
954.06	209.86
954.36	209.71
954.66	209.74
954.95	210.07
955.25	210.24
955.55	210.74
955.84	210.24
956.14	210.64
956.44	210.74
956.73	210.45
957.03	210.62
957.32	210.55
957.62	210.36
957.92	210.95
958.21	210.57
958.51	213.21
958.81	213.07
959.10	213.21
959.40	213.48
959.69	213.62
959.99	214.10
960.29	214.21
960.58	214.31
960.88	215.02
961.17	214.98
961.47	215.29
961.76	214.79
962.06	215.48
962.36	214.71
962.65	215.02
962.95	215.12
963.24	214.93
963.54	215.14
963.83	215.26
964.13	215.10
964.42	214.71
964.72	212.88
965.01	213.10
965.31	213.07
965.60	212.79
965.90	214.00
966.19	213.62
966.49	213.79
966.78	213.60
967.08	213.36
967.37	213.19
967.67	212.60
967.96	213.12
968.26	212.69
968.55	213.19
968.85	212.95
969.14	212.81
969.43	212.81
969.73	212.62
970.02	212.55
970.32	212.52
970.61	212.26
970.91	211.50
971.20	211.10
971.49	210.81
971.79	211.12
972.08	209.71
972.38	209.71
972.67	209.48
972.96	210.05
973.26	209.71
973.55	210.45
973.85	210.43
974.14	210.10
974.43	210.40
974.73	209.98
975.02	209.81
975.31	209.88
975.61	209.86
975.90	209.76
976.19	209.71
976.49	209.81
976.78	210.21
977.07	210.24
977.37	210.67
977.66	210.90
977.95	210.48
978.24	210.62
978.54	211.10
978.83	211.00
979.12	210.71
979.42	210.71
979.71	210.14
980.00	210.31
980.29	210.33
980.59	209.86
980.88	210.36
981.17	210.52
981.46	210.74
981.76	210.79
982.05	211.36
982.34	211.31
982.63	211.48
982.93	211.50
983.22	211.93
983.51	211.83
983.80	212.07
984.09	212.21
984.39	211.98
984.68	211.71
984.97	211.86
985.26	211.64
985.55	211.83
985.85	211.67
986.14	211.93
986.43	212.21
986.72	212.10
987.01	211.40
987.30	211.17
987.59	210.64
987.89	210.74
988.18	210.19
988.47	210.29
988.76	209.88
989.05	209.90
989.34	209.64
989.63	210.24
989.92	210.02
990.22	209.90
990.51	210.10
990.80	209.90
991.09	209.93
991.38	209.88
991.67	209.64
991.96	209.50
992.25	209.52
992.54	209.29
992.83	209.26
993.12	209.38
993.41	209.79
993.70	210.79
993.99	211.05
994.28	211.24
994.58	211.26
994.87	211.05
995.16	210.90
995.45	210.76
995.74	209.98
996.03	210.21
996.32	210.50
996.61	210.62
996.90	210.62
997.19	210.31
997.48	210.40
997.77	210.48
998.06	210.48
998.34	210.26
998.63	210.21
998.92	210.29
999.21	210.57
999.50	210.50
999.79	209.79
1000.08	209.71
1000.37	209.76
1000.66	209.81
1000.95	210.55
1001.24	210.31
1001.53	210.50
1001.82	210.45
1002.11	210.10
1002.40	210.50
1002.68	211.12
1002.97	212.62
1003.26	212.81
1003.55	212.83
1003.84	212.83
1004.13	213.60
1004.42	213.48
1004.71	213.38
1004.99	213.33
1005.28	213.83
1005.57	213.40
1005.86	213.40
1006.15	212.98
1006.44	212.62
1006.72	212.69
1007.01	212.14
1007.30	212.43
1007.59	212.45
1007.88	212.43
1008.17	212.55
1008.45	211.74
1008.74	211.02
1009.03	210.00
1009.32	209.76
1009.60	209.57
1009.89	209.29
1010.18	208.38
1010.47	208.31
1010.76	208.36
1011.04	208.69
1011.33	208.55
1011.62	209.07
1011.91	209.26
1012.19	209.43
1012.48	209.38
1012.77	209.29
1013.05	210.36
1013.34	210.24
1013.63	209.98
1013.92	209.88
1014.20	209.60
1014.49	209.83
1014.78	209.90
1015.06	209.21
1015.35	209.45
1015.64	209.81
1015.92	210.19
1016.21	210.36
1016.50	210.38
1016.78	210.57
1017.07	210.50
1017.36	209.93
1017.64	209.48
1017.93	209.38
1018.22	209.55
1018.50	209.45
1018.79	209.43
1019.08	208.52
1019.36	208.62
1019.65	208.45
1019.93	209.31
1020.22	209.71
1020.51	210.62
1020.79	210.29
1021.08	210.50
1021.36	203.00
1021.65	209.50
1021.94	211.50
1022.22	209.00
1022.51	206.00
1022.79	220.50
1023.08	213.50
1023.36	231.50
1023.65	204.00
>>>>>End Processed Spectral Data<<<<<
