SpectraSuite Data File
++++++++++++++++++++++++++++++++++++
Date: Tue Apr 02 18:44:58 EDT 2013
User: group
Dark Spectrum Present: No
Reference Spectrum Present: No
Number of Sampled Component Spectra: 1
Spectrometers: USB2E7196
Integration Time (usec): 580000 (USB2E7196)
Spectra Averaged: 2 (USB2E7196)
Boxcar Smoothing: 10 (USB2E7196)
Correct for Electrical Dark: No (USB2E7196)
Strobe/Lamp Enabled: No (USB2E7196)
Correct for Detector Non-linearity: No (USB2E7196)
Correct for Stray Light: No (USB2E7196)
Number of Pixels in Processed Spectrum: 2048
>>>>>Begin Processed Spectral Data<<<<<
339.09	0.00
339.48	195.00
339.86	195.50
340.24	199.00
340.63	198.00
341.01	230.00
341.39	198.00
341.78	209.00
342.16	212.00
342.54	205.50
342.93	197.21
343.31	206.98
343.69	207.40
344.07	207.90
344.46	208.62
344.84	209.24
345.22	208.21
345.60	208.83
345.99	208.83
346.37	208.69
346.75	208.86
347.13	209.12
347.52	209.19
347.90	209.90
348.28	209.79
348.66	210.40
349.05	209.69
349.43	209.88
349.81	210.33
350.19	210.50
350.57	210.57
350.96	210.79
351.34	211.00
351.72	211.21
352.10	211.48
352.48	211.21
352.87	211.00
353.25	211.14
353.63	211.05
354.01	211.21
354.39	211.38
354.77	211.40
355.15	212.19
355.54	212.17
355.92	211.76
356.30	212.12
356.68	213.31
357.06	213.71
357.44	213.40
357.82	213.10
358.20	214.10
358.58	213.95
358.97	213.86
359.35	214.38
359.73	214.60
360.11	214.55
360.49	214.71
360.87	214.83
361.25	215.00
361.63	215.86
362.01	216.05
362.39	215.95
362.77	216.33
363.15	215.93
363.53	216.05
363.91	216.38
364.29	216.38
364.67	214.64
365.05	214.52
365.43	214.83
365.81	215.43
366.19	215.60
366.57	216.55
366.95	216.64
367.33	216.10
367.71	216.31
368.09	216.64
368.47	216.60
368.85	216.60
369.23	217.05
369.61	216.17
369.99	216.76
370.37	217.12
370.75	217.98
371.13	217.79
371.51	217.33
371.89	217.21
372.27	217.31
372.65	217.26
373.03	217.26
373.41	217.12
373.78	216.95
374.16	215.69
374.54	214.74
374.92	214.79
375.30	214.93
375.68	214.79
376.06	214.76
376.44	214.79
376.82	214.81
377.19	214.64
377.57	214.67
377.95	213.64
378.33	213.21
378.71	212.05
379.09	212.07
379.47	212.52
379.84	212.50
380.22	212.40
380.60	212.26
380.98	212.24
381.36	212.05
381.73	211.69
382.11	212.26
382.49	212.38
382.87	212.12
383.25	212.17
383.62	214.38
384.00	213.90
384.38	213.88
384.76	214.38
385.13	215.07
385.51	215.24
385.89	215.33
386.27	215.74
386.64	215.83
387.02	215.74
387.40	215.57
387.78	215.62
388.15	215.60
388.53	215.40
388.91	215.36
389.29	215.29
389.66	215.50
390.04	215.14
390.42	215.64
390.79	215.43
391.17	215.43
391.55	213.05
391.92	213.38
392.30	213.48
392.68	213.24
393.05	213.05
393.43	213.00
393.81	213.10
394.18	212.74
394.56	212.81
394.94	213.17
395.31	213.14
395.69	213.60
396.06	213.74
396.44	214.12
396.82	214.07
397.19	215.24
397.57	215.14
397.95	215.48
398.32	215.00
398.70	215.40
399.07	215.62
399.45	215.48
399.82	215.19
400.20	215.17
400.58	215.00
400.95	214.14
401.33	214.52
401.70	216.12
402.08	215.93
402.45	215.88
402.83	216.43
403.20	216.52
403.58	216.31
403.95	216.74
404.33	217.00
404.71	217.31
405.08	218.60
405.46	218.90
405.83	219.38
406.21	219.55
406.58	220.17
406.96	220.40
407.33	221.24
407.70	222.12
408.08	224.36
408.45	225.24
408.83	226.40
409.20	226.79
409.58	226.14
409.95	227.62
410.33	228.62
410.70	229.05
411.08	230.38
411.45	231.81
411.82	232.62
412.20	234.19
412.57	236.43
412.95	235.86
413.32	237.74
413.69	239.26
414.07	241.05
414.44	242.67
414.82	244.52
415.19	247.05
415.56	249.17
415.94	250.52
416.31	253.31
416.68	255.98
417.06	259.24
417.43	262.62
417.81	265.71
418.18	269.57
418.55	273.12
418.93	277.14
419.30	280.98
419.67	285.48
420.04	289.90
420.42	294.36
420.79	301.43
421.16	306.71
421.54	313.36
421.91	319.71
422.28	325.88
422.66	332.69
423.03	340.40
423.40	347.55
423.77	354.05
424.15	361.14
424.52	368.98
424.89	377.74
425.26	385.33
425.64	393.10
426.01	401.10
426.38	409.90
426.75	419.21
427.13	428.40
427.50	438.19
427.87	448.02
428.24	457.45
428.61	466.05
428.99	477.83
429.36	488.17
429.73	499.00
430.10	510.10
430.47	521.71
430.85	532.29
431.22	544.50
431.59	559.79
431.96	572.21
432.33	586.26
432.70	599.74
433.08	616.14
433.45	631.57
433.82	647.17
434.19	664.64
434.56	681.38
434.93	697.05
435.30	713.14
435.68	730.90
436.05	748.55
436.42	765.40
436.79	780.60
437.16	797.69
437.53	815.93
437.90	834.10
438.27	851.88
438.64	870.00
439.01	887.00
439.38	900.07
439.75	915.02
440.13	931.36
440.50	946.60
440.87	959.31
441.24	972.12
441.61	986.60
441.98	997.24
442.35	1009.21
442.72	1022.57
443.09	1035.67
443.46	1042.69
443.83	1047.43
444.20	1051.90
444.57	1057.55
444.94	1060.67
445.31	1063.95
445.68	1068.81
446.05	1070.05
446.42	1068.48
446.79	1067.79
447.16	1066.55
447.53	1065.52
447.90	1059.19
448.27	1052.83
448.64	1044.29
449.01	1038.19
449.37	1026.90
449.74	1015.62
450.11	1004.45
450.48	989.29
450.85	973.69
451.22	961.50
451.59	950.26
451.96	939.00
452.33	924.05
452.70	909.88
453.07	892.71
453.43	873.98
453.80	857.71
454.17	841.81
454.54	825.76
454.91	809.26
455.28	793.55
455.65	778.95
456.02	767.74
456.38	754.79
456.75	739.60
457.12	726.19
457.49	713.50
457.86	699.33
458.23	689.40
458.59	677.38
458.96	664.95
459.33	654.24
459.70	643.88
460.07	635.48
460.43	626.07
460.80	618.00
461.17	610.98
461.54	602.55
461.91	595.05
462.27	587.02
462.64	580.12
463.01	572.24
463.38	565.88
463.74	555.31
464.11	548.93
464.48	543.26
464.85	537.21
465.21	533.02
465.58	527.74
465.95	521.50
466.32	516.52
466.68	512.07
467.05	506.81
467.42	501.74
467.78	496.74
468.15	492.00
468.52	487.98
468.88	481.64
469.25	477.69
469.62	473.86
469.98	470.40
470.35	467.21
470.72	463.86
471.08	459.19
471.45	456.29
471.82	453.40
472.18	449.74
472.55	447.48
472.92	443.43
473.28	440.57
473.65	437.62
474.02	434.81
474.38	432.36
474.75	430.64
475.11	427.98
475.48	425.95
475.85	424.21
476.21	422.14
476.58	421.38
476.94	420.02
477.31	418.67
477.67	417.12
478.04	416.05
478.41	415.50
478.77	416.93
479.14	415.64
479.50	414.83
479.87	414.76
480.23	413.88
480.60	413.33
480.96	413.24
481.33	413.90
481.69	414.05
482.06	414.26
482.42	414.50
482.79	415.48
483.15	416.05
483.52	416.90
483.88	417.38
484.25	417.86
484.61	418.48
484.98	419.38
485.34	421.50
485.71	422.83
486.07	423.88
486.44	423.31
486.80	425.19
487.17	427.05
487.53	429.40
487.90	431.86
488.26	435.33
488.62	438.07
488.99	439.95
489.35	442.57
489.72	445.33
490.08	447.90
490.44	450.50
490.81	453.86
491.17	456.64
491.54	460.55
491.90	464.60
492.26	468.17
492.63	472.12
492.99	475.19
493.36	479.12
493.72	483.83
494.08	488.02
494.45	492.79
494.81	497.67
495.17	501.81
495.54	507.57
495.90	511.88
496.26	517.29
496.63	522.79
496.99	528.14
497.35	533.57
497.72	539.26
498.08	544.74
498.44	550.38
498.80	556.69
499.17	562.52
499.53	568.90
499.89	575.71
500.26	582.57
500.62	589.19
500.98	596.45
501.34	602.93
501.71	610.43
502.07	617.31
502.43	624.02
502.79	630.83
503.16	636.93
503.52	644.40
503.88	651.02
504.24	658.69
504.60	666.05
504.97	673.67
505.33	681.55
505.69	690.33
506.05	697.81
506.41	705.76
506.78	713.76
507.14	720.76
507.50	728.21
507.86	735.71
508.22	743.69
508.59	750.67
508.95	758.69
509.31	767.31
509.67	774.74
510.03	782.83
510.39	790.45
510.75	798.67
511.12	805.98
511.48	813.26
511.84	820.21
512.20	828.31
512.56	836.31
512.92	843.67
513.28	850.69
513.64	858.31
514.00	865.76
514.37	872.62
514.73	880.60
515.09	888.45
515.45	895.21
515.81	901.81
516.17	908.81
516.53	915.19
516.89	921.00
517.25	927.95
517.61	934.93
517.97	942.19
518.33	948.19
518.69	954.98
519.05	962.26
519.41	969.00
519.77	975.69
520.13	981.02
520.49	986.95
520.85	992.67
521.21	999.62
521.57	1005.00
521.93	1010.95
522.29	1015.67
522.65	1020.38
523.01	1025.74
523.37	1030.98
523.73	1037.02
524.09	1042.43
524.45	1047.50
524.81	1052.29
525.17	1056.33
525.53	1060.71
525.89	1065.60
526.25	1070.07
526.61	1073.62
526.97	1077.14
527.33	1080.93
527.68	1087.93
528.04	1092.02
528.40	1096.07
528.76	1098.95
529.12	1102.45
529.48	1107.21
529.84	1111.67
530.20	1115.57
530.56	1119.98
530.91	1124.31
531.27	1127.74
531.63	1131.88
531.99	1135.00
532.35	1139.31
532.71	1143.79
533.07	1148.02
533.42	1154.50
533.78	1159.07
534.14	1163.64
534.50	1167.43
534.86	1172.17
535.21	1173.79
535.57	1178.69
535.93	1182.17
536.29	1187.50
536.65	1192.21
537.00	1195.33
537.36	1198.64
537.72	1202.21
538.08	1206.76
538.44	1209.60
538.79	1213.57
539.15	1216.45
539.51	1220.86
539.87	1223.83
540.22	1227.14
540.58	1230.50
540.94	1231.86
541.29	1234.57
541.65	1236.29
542.01	1240.07
542.37	1242.88
542.72	1244.52
543.08	1245.98
543.44	1249.57
543.79	1250.31
544.15	1253.21
544.51	1256.24
544.87	1259.71
545.22	1263.17
545.58	1264.88
545.94	1267.88
546.29	1269.76
546.65	1272.45
547.01	1274.12
547.36	1276.55
547.72	1278.64
548.07	1281.07
548.43	1282.45
548.79	1284.02
549.14	1287.14
549.50	1290.31
549.86	1291.90
550.21	1295.69
550.57	1299.60
550.92	1301.48
551.28	1306.07
551.64	1308.57
551.99	1311.07
552.35	1313.67
552.70	1315.86
553.06	1319.40
553.41	1322.74
553.77	1327.17
554.13	1330.98
554.48	1335.43
554.84	1340.07
555.19	1343.31
555.55	1348.79
555.90	1352.98
556.26	1357.43
556.61	1361.40
556.97	1364.38
557.32	1368.17
557.68	1371.67
558.03	1375.00
558.39	1379.12
558.74	1382.14
559.10	1385.67
559.45	1389.76
559.81	1394.07
560.16	1398.67
560.52	1401.79
560.87	1406.45
561.23	1409.29
561.58	1414.98
561.94	1418.62
562.29	1422.86
562.64	1427.21
563.00	1430.17
563.35	1435.26
563.71	1440.69
564.06	1445.79
564.42	1451.17
564.77	1457.24
565.12	1463.55
565.48	1470.90
565.83	1477.48
566.19	1483.64
566.54	1489.86
566.89	1495.02
567.25	1500.40
567.60	1507.64
567.96	1516.14
568.31	1523.43
568.66	1530.38
569.02	1533.71
569.37	1539.38
569.72	1544.90
570.08	1551.26
570.43	1555.98
570.78	1561.48
571.14	1566.71
571.49	1571.52
571.84	1576.98
572.20	1581.86
572.55	1587.07
572.90	1589.79
573.26	1593.26
573.61	1596.36
573.96	1601.26
574.31	1605.52
574.67	1610.19
575.02	1612.90
575.37	1615.31
575.72	1617.83
576.08	1620.93
576.43	1625.17
576.78	1628.71
577.13	1631.50
577.49	1635.07
577.84	1640.48
578.19	1643.62
578.54	1647.71
578.90	1652.57
579.25	1655.93
579.60	1658.95
579.95	1660.93
580.30	1665.12
580.66	1670.12
581.01	1674.60
581.36	1676.95
581.71	1681.00
582.06	1685.14
582.42	1688.71
582.77	1691.43
583.12	1694.43
583.47	1699.19
583.82	1703.43
584.17	1707.02
584.53	1712.07
584.88	1714.69
585.23	1717.38
585.58	1720.33
585.93	1721.83
586.28	1724.62
586.63	1727.98
586.98	1730.64
587.34	1735.12
587.69	1737.02
588.04	1738.67
588.39	1741.10
588.74	1743.17
589.09	1745.26
589.44	1746.38
589.79	1748.45
590.14	1750.95
590.49	1752.02
590.84	1751.69
591.19	1753.26
591.54	1754.62
591.89	1754.52
592.25	1758.95
592.60	1760.24
592.95	1762.07
593.30	1764.31
593.65	1763.98
594.00	1763.86
594.35	1770.74
594.70	1770.50
595.05	1771.90
595.40	1771.93
595.75	1772.26
596.10	1773.62
596.45	1775.64
596.80	1777.17
597.15	1778.71
597.50	1778.45
597.85	1780.45
598.19	1780.67
598.54	1781.29
598.89	1781.95
599.24	1783.93
599.59	1782.52
599.94	1782.24
600.29	1782.98
600.64	1782.74
600.99	1783.24
601.34	1784.45
601.69	1778.55
602.04	1778.05
602.39	1777.76
602.74	1779.12
603.08	1779.33
603.43	1780.21
603.78	1778.29
604.13	1777.02
604.48	1775.14
604.83	1775.90
605.18	1775.07
605.53	1775.26
605.87	1773.81
606.22	1772.76
606.57	1770.26
606.92	1768.90
607.27	1768.19
607.62	1766.33
607.96	1765.45
608.31	1765.69
608.66	1763.83
609.01	1762.88
609.36	1762.95
609.70	1761.10
610.05	1757.45
610.40	1755.69
610.75	1752.38
611.10	1751.55
611.44	1749.21
611.79	1746.45
612.14	1743.95
612.49	1740.26
612.83	1737.26
613.18	1734.43
613.53	1731.64
613.88	1728.86
614.22	1725.48
614.57	1721.60
614.92	1718.17
615.27	1714.93
615.61	1710.52
615.96	1707.05
616.31	1703.50
616.65	1700.14
617.00	1697.26
617.35	1695.98
617.70	1692.43
618.04	1688.90
618.39	1684.71
618.74	1682.07
619.08	1679.74
619.43	1675.86
619.78	1672.88
620.12	1669.62
620.47	1666.17
620.82	1661.26
621.16	1657.33
621.51	1654.69
621.85	1651.10
622.20	1647.33
622.55	1642.62
622.89	1639.45
623.24	1636.36
623.59	1633.43
623.93	1629.90
624.28	1626.24
624.62	1623.24
624.97	1620.62
625.32	1617.17
625.66	1613.02
626.01	1608.90
626.35	1605.19
626.70	1601.48
627.04	1597.90
627.39	1594.69
627.73	1591.76
628.08	1590.62
628.43	1586.76
628.77	1583.07
629.12	1579.43
629.46	1575.81
629.81	1572.45
630.15	1567.19
630.50	1562.64
630.84	1557.29
631.19	1551.07
631.53	1545.98
631.88	1539.26
632.22	1533.02
632.57	1529.26
632.91	1524.55
633.26	1520.29
633.60	1514.60
633.95	1509.07
634.29	1504.43
634.64	1499.93
634.98	1494.81
635.32	1489.45
635.67	1486.02
636.01	1480.76
636.36	1475.86
636.70	1472.12
637.05	1467.69
637.39	1463.50
637.73	1459.88
638.08	1456.19
638.42	1452.31
638.77	1448.33
639.11	1444.21
639.45	1439.57
639.80	1433.90
640.14	1429.43
640.49	1423.79
640.83	1418.79
641.17	1414.45
641.52	1410.10
641.86	1404.24
642.20	1400.83
642.55	1395.31
642.89	1389.45
643.23	1383.55
643.58	1379.40
643.92	1372.71
644.26	1367.33
644.61	1363.14
644.95	1357.00
645.29	1350.74
645.64	1345.86
645.98	1340.48
646.32	1335.62
646.66	1329.43
647.01	1323.00
647.35	1317.40
647.69	1311.50
648.04	1306.36
648.38	1300.90
648.72	1294.71
649.06	1289.76
649.41	1282.21
649.75	1276.21
650.09	1269.74
650.43	1263.62
650.78	1256.29
651.12	1250.31
651.46	1244.45
651.80	1237.62
652.14	1231.48
652.49	1225.98
652.83	1219.17
653.17	1211.79
653.51	1204.40
653.85	1199.38
654.20	1194.62
654.54	1187.76
654.88	1181.02
655.22	1175.05
655.56	1167.69
655.90	1160.95
656.25	1154.05
656.59	1148.10
656.93	1141.52
657.27	1136.40
657.61	1130.60
657.95	1124.93
658.29	1118.81
658.64	1112.33
658.98	1105.88
659.32	1098.67
659.66	1091.50
660.00	1085.10
660.34	1078.90
660.68	1072.33
661.02	1065.00
661.36	1058.45
661.70	1052.62
662.05	1046.86
662.39	1040.31
662.73	1035.02
663.07	1030.19
663.41	1023.79
663.75	1017.24
664.09	1011.60
664.43	1005.12
664.77	998.93
665.11	992.83
665.45	987.29
665.79	981.40
666.13	975.67
666.47	970.29
666.81	964.74
667.15	958.95
667.49	953.88
667.83	949.45
668.17	944.55
668.51	938.71
668.85	933.26
669.19	928.71
669.53	923.29
669.87	917.67
670.21	911.14
670.55	906.19
670.89	901.48
671.23	896.00
671.57	890.64
671.91	885.48
672.25	880.29
672.58	875.43
672.92	869.62
673.26	863.88
673.60	858.83
673.94	852.93
674.28	847.55
674.62	842.40
674.96	836.55
675.30	830.98
675.64	825.43
675.97	820.55
676.31	814.81
676.65	809.17
676.99	804.81
677.33	799.76
677.67	795.17
678.01	789.14
678.34	784.21
678.68	779.07
679.02	773.83
679.36	768.40
679.70	762.74
680.04	757.62
680.37	752.76
680.71	747.74
681.05	744.05
681.39	739.57
681.73	734.12
682.06	729.24
682.40	724.83
682.74	720.71
683.08	716.33
683.42	711.50
683.75	707.48
684.09	702.43
684.43	697.79
684.77	692.10
685.10	687.81
685.44	683.14
685.78	678.40
686.12	673.74
686.45	669.38
686.79	664.62
687.13	660.86
687.46	656.64
687.80	652.67
688.14	647.76
688.48	643.50
688.81	640.00
689.15	636.29
689.49	631.90
689.82	627.38
690.16	622.17
690.50	617.90
690.83	613.57
691.17	608.71
691.51	604.19
691.84	600.93
692.18	596.81
692.52	592.83
692.85	589.10
693.19	586.26
693.52	582.17
693.86	578.00
694.20	573.81
694.53	569.74
694.87	565.19
695.21	560.81
695.54	556.93
695.88	552.02
696.21	547.45
696.55	543.48
696.88	539.83
697.22	536.26
697.56	532.88
697.89	528.71
698.23	525.31
698.56	521.69
698.90	518.07
699.23	514.43
699.57	510.62
699.90	506.48
700.24	502.10
700.58	498.50
700.91	495.67
701.25	494.10
701.58	491.79
701.92	489.29
702.25	486.67
702.59	482.95
702.92	480.10
703.26	477.29
703.59	474.33
703.93	472.81
704.26	470.26
704.60	467.33
704.93	464.40
705.26	461.31
705.60	458.76
705.93	455.36
706.27	453.17
706.60	450.69
706.94	449.48
707.27	446.48
707.61	443.98
707.94	441.02
708.27	436.57
708.61	432.71
708.94	429.40
709.28	426.62
709.61	424.14
709.94	422.02
710.28	419.62
710.61	417.31
710.95	412.83
711.28	411.57
711.61	408.98
711.95	407.36
712.28	404.93
712.61	402.71
712.95	401.45
713.28	399.71
713.61	397.07
713.95	394.05
714.28	392.07
714.61	389.86
714.95	387.52
715.28	385.00
715.61	383.12
715.95	381.40
716.28	379.40
716.61	377.74
716.95	374.88
717.28	372.52
717.61	370.33
717.94	368.74
718.28	365.36
718.61	363.57
718.94	361.14
719.27	359.29
719.61	357.36
719.94	354.67
720.27	351.69
720.60	349.64
720.94	347.60
721.27	346.00
721.60	344.67
721.93	343.24
722.27	342.62
722.60	341.00
722.93	339.36
723.26	337.67
723.59	335.64
723.93	334.64
724.26	333.43
724.59	332.02
724.92	330.55
725.25	329.48
725.59	327.86
725.92	326.69
726.25	325.62
726.58	324.33
726.91	323.33
727.24	322.29
727.57	321.38
727.91	319.86
728.24	318.74
728.57	317.36
728.90	316.33
729.23	314.05
729.56	313.95
729.89	312.62
730.22	311.62
730.55	310.55
730.89	309.55
731.22	308.50
731.55	307.48
731.88	306.81
732.21	305.62
732.54	304.52
732.87	303.43
733.20	302.26
733.53	301.24
733.86	300.40
734.19	299.21
734.52	298.38
734.85	299.07
735.18	297.71
735.51	297.21
735.84	296.43
736.17	296.57
736.50	294.76
736.83	296.17
737.16	295.45
737.49	294.79
737.82	294.00
738.15	293.38
738.48	292.21
738.81	290.90
739.14	289.93
739.47	288.83
739.80	287.98
740.13	287.17
740.46	286.07
740.79	284.74
741.12	283.93
741.45	282.93
741.78	280.86
742.11	280.55
742.44	279.45
742.77	278.90
743.10	277.57
743.43	276.57
743.75	273.67
744.08	275.19
744.41	274.19
744.74	273.17
745.07	271.98
745.40	271.74
745.73	271.90
746.06	271.17
746.39	270.83
746.71	270.02
747.04	268.93
747.37	268.00
747.70	267.52
748.03	266.93
748.36	266.81
748.68	266.45
749.01	265.48
749.34	264.83
749.67	264.07
750.00	264.07
750.33	265.00
750.65	264.60
750.98	261.81
751.31	261.26
751.64	260.76
751.97	261.60
752.29	260.83
752.62	259.36
752.95	258.60
753.28	257.71
753.60	257.14
753.93	257.43
754.26	257.50
754.59	256.86
754.91	256.07
755.24	255.02
755.57	254.12
755.90	253.50
756.22	252.67
756.55	251.81
756.88	250.69
757.20	248.88
757.53	247.67
757.86	246.95
758.19	246.98
758.51	246.40
758.84	244.64
759.17	244.05
759.49	243.69
759.82	244.45
760.15	244.26
760.47	243.76
760.80	242.81
761.13	242.57
761.45	242.05
761.78	241.79
762.11	241.69
762.43	241.40
762.76	240.93
763.08	241.10
763.41	240.95
763.74	240.71
764.06	240.36
764.39	240.36
764.71	239.93
765.04	239.10
765.37	238.88
765.69	238.33
766.02	237.90
766.34	237.40
766.67	236.02
767.00	236.19
767.32	236.95
767.65	237.81
767.97	237.31
768.30	237.17
768.62	236.60
768.95	236.02
769.27	235.60
769.60	235.90
769.92	235.12
770.25	234.38
770.57	233.90
770.90	233.24
771.22	232.69
771.55	232.74
771.87	232.52
772.20	232.21
772.52	234.05
772.85	236.14
773.17	236.07
773.50	235.93
773.82	235.24
774.15	234.38
774.47	233.12
774.80	232.79
775.12	232.57
775.45	232.50
775.77	232.52
776.09	232.48
776.42	231.93
776.74	232.33
777.07	232.21
777.39	232.07
777.72	232.10
778.04	232.14
778.36	231.48
778.69	231.52
779.01	231.48
779.33	229.43
779.66	227.19
779.98	226.90
780.31	226.79
780.63	227.60
780.95	227.38
781.28	227.26
781.60	226.98
781.92	226.79
782.25	226.81
782.57	226.57
782.89	226.26
783.22	225.95
783.54	225.40
783.86	225.67
784.19	225.48
784.51	226.00
784.83	225.55
785.16	225.69
785.48	225.55
785.80	225.36
786.12	225.50
786.45	225.14
786.77	225.40
787.09	225.36
787.42	224.40
787.74	224.45
788.06	223.88
788.38	223.64
788.71	223.14
789.03	223.02
789.35	223.17
789.67	222.95
789.99	223.10
790.32	222.74
790.64	222.81
790.96	224.48
791.28	223.57
791.61	223.69
791.93	223.55
792.25	223.40
792.57	224.86
792.89	224.12
793.21	224.45
793.54	224.10
793.86	223.62
794.18	223.55
794.50	223.02
794.82	223.29
795.14	223.36
795.47	223.83
795.79	223.90
796.11	223.36
796.43	223.12
796.75	222.90
797.07	223.07
797.39	222.79
797.71	221.00
798.04	221.26
798.36	221.12
798.68	221.14
799.00	221.43
799.32	220.07
799.64	220.43
799.96	220.33
800.28	220.55
800.60	220.52
800.92	220.76
801.24	220.67
801.56	220.67
801.89	220.40
802.21	220.71
802.53	220.31
802.85	220.76
803.17	221.60
803.49	221.29
803.81	221.05
804.13	220.76
804.45	220.60
804.77	220.62
805.09	220.57
805.41	220.36
805.73	219.60
806.05	219.10
806.37	219.07
806.69	218.62
807.01	218.33
807.33	218.29
807.65	217.52
807.97	218.45
808.28	218.33
808.60	218.36
808.92	217.62
809.24	218.71
809.56	218.33
809.88	217.71
810.20	217.79
810.52	218.38
810.84	217.98
811.16	217.88
811.48	217.64
811.80	218.38
812.12	218.14
812.43	218.64
812.75	218.90
813.07	218.74
813.39	218.93
813.71	218.69
814.03	218.62
814.35	218.64
814.67	217.67
814.98	217.43
815.30	217.36
815.62	216.88
815.94	215.45
816.26	215.43
816.58	215.12
816.89	215.19
817.21	214.45
817.53	214.74
817.85	214.74
818.17	214.74
818.48	213.81
818.80	214.29
819.12	214.02
819.44	213.69
819.76	213.43
820.07	213.24
820.39	213.17
820.71	213.31
821.03	213.26
821.34	213.31
821.66	213.57
821.98	213.86
822.30	214.05
822.61	215.43
822.93	215.21
823.25	214.98
823.57	214.64
823.88	214.98
824.20	215.14
824.52	215.50
824.83	215.26
825.15	215.17
825.47	215.17
825.79	215.14
826.10	215.12
826.42	215.00
826.74	215.38
827.05	215.40
827.37	215.52
827.69	215.36
828.00	215.29
828.32	215.17
828.64	214.64
828.95	215.81
829.27	215.21
829.58	215.36
829.90	215.76
830.22	216.17
830.53	215.69
830.85	215.31
831.17	214.71
831.48	214.90
831.80	214.95
832.11	214.62
832.43	214.40
832.75	214.36
833.06	215.67
833.38	214.93
833.69	214.83
834.01	214.86
834.32	215.00
834.64	214.90
834.96	215.31
835.27	215.55
835.59	214.90
835.90	214.43
836.22	214.21
836.53	213.93
836.85	213.69
837.16	215.67
837.48	215.74
837.79	216.55
838.11	216.74
838.42	217.02
838.74	217.29
839.05	217.29
839.37	217.14
839.68	215.95
840.00	216.12
840.31	216.48
840.63	216.29
840.94	216.10
841.26	215.95
841.57	215.69
841.88	216.10
842.20	215.71
842.51	215.67
842.83	215.81
843.14	217.50
843.46	217.29
843.77	216.31
844.08	216.14
844.40	215.45
844.71	215.21
845.03	214.67
845.34	214.60
845.65	214.40
845.97	214.50
846.28	214.69
846.60	214.64
846.91	214.17
847.22	214.21
847.54	214.62
847.85	214.76
848.16	214.71
848.48	214.05
848.79	214.69
849.10	214.88
849.42	214.93
849.73	213.14
850.04	213.29
850.36	212.43
850.67	212.79
850.98	212.90
851.30	212.95
851.61	213.19
851.92	212.90
852.23	213.60
852.55	213.81
852.86	213.93
853.17	214.07
853.49	214.79
853.80	214.98
854.11	215.19
854.42	215.29
854.74	215.05
855.05	215.21
855.36	214.26
855.67	214.33
855.99	214.24
856.30	216.64
856.61	216.67
856.92	217.00
857.23	217.19
857.55	217.02
857.86	216.88
858.17	217.29
858.48	217.19
858.79	216.86
859.11	216.90
859.42	216.67
859.73	216.33
860.04	216.07
860.35	215.52
860.66	214.95
860.98	215.00
861.29	215.10
861.60	214.90
861.91	215.43
862.22	215.24
862.53	214.76
862.84	212.21
863.16	212.71
863.47	212.07
863.78	211.60
864.09	211.67
864.40	211.79
864.71	211.57
865.02	211.81
865.33	211.55
865.64	211.17
865.95	211.14
866.27	212.67
866.58	212.55
866.89	212.79
867.20	212.64
867.51	212.14
867.82	212.00
868.13	212.57
868.44	212.24
868.75	212.57
869.06	213.10
869.37	213.50
869.68	212.69
869.99	213.02
870.30	213.14
870.61	213.19
870.92	212.88
871.23	212.43
871.54	212.71
871.85	213.17
872.16	213.48
872.47	213.33
872.78	211.95
873.09	211.98
873.40	211.88
873.71	212.05
874.02	212.36
874.33	212.40
874.64	211.81
874.95	212.10
875.26	211.55
875.56	211.40
875.87	211.24
876.18	211.31
876.49	213.31
876.80	213.21
877.11	212.88
877.42	212.93
877.73	213.17
878.04	212.88
878.35	213.02
878.66	212.93
878.96	212.74
879.27	212.71
879.58	212.50
879.89	212.48
880.20	213.17
880.51	213.10
880.82	212.90
881.12	213.14
881.43	212.64
881.74	212.62
882.05	212.50
882.36	212.60
882.67	212.81
882.97	210.76
883.28	210.76
883.59	210.71
883.90	211.07
884.21	211.33
884.51	211.17
884.82	210.40
885.13	210.52
885.44	210.43
885.74	210.50
886.05	210.55
886.36	210.62
886.67	209.81
886.98	210.86
887.28	211.36
887.59	211.43
887.90	211.81
888.20	211.74
888.51	212.29
888.82	211.93
889.13	211.95
889.43	213.57
889.74	213.62
890.05	213.67
890.35	213.33
890.66	213.05
890.97	213.02
891.28	213.19
891.58	213.05
891.89	213.31
892.20	213.14
892.50	212.95
892.81	212.76
893.12	212.74
893.42	211.64
893.73	211.50
894.04	211.50
894.34	211.52
894.65	211.40
894.95	210.93
895.26	210.93
895.57	211.86
895.87	210.21
896.18	210.55
896.48	210.74
896.79	210.79
897.10	211.14
897.40	211.14
897.71	211.29
898.01	211.26
898.32	211.43
898.63	211.36
898.93	211.64
899.24	211.81
899.54	211.62
899.85	211.81
900.15	211.55
900.46	211.50
900.76	211.40
901.07	211.36
901.38	211.38
901.68	211.90
901.99	210.79
902.29	210.90
902.60	210.57
902.90	210.21
903.21	210.21
903.51	210.14
903.82	210.67
904.12	210.81
904.43	211.12
904.73	211.19
905.03	211.38
905.34	213.10
905.64	212.86
905.95	213.19
906.25	213.00
906.56	213.00
906.86	213.05
907.17	213.02
907.47	213.24
907.77	213.36
908.08	212.93
908.38	213.19
908.69	213.29
908.99	213.62
909.30	214.00
909.60	214.17
909.90	214.43
910.21	213.71
910.51	213.45
910.81	213.36
911.12	213.45
911.42	213.43
911.73	211.43
912.03	211.76
912.33	211.98
912.64	212.10
912.94	211.83
913.24	211.64
913.55	211.62
913.85	211.38
914.15	211.62
914.46	211.86
914.76	211.93
915.06	211.81
915.37	211.48
915.67	211.45
915.97	211.26
916.27	210.57
916.58	210.86
916.88	210.86
917.18	210.52
917.49	211.57
917.79	211.60
918.09	212.10
918.39	212.45
918.70	212.38
919.00	212.33
919.30	213.43
919.60	213.29
919.91	213.14
920.21	213.52
920.51	212.93
920.81	212.79
921.12	212.71
921.42	212.45
921.72	212.45
922.02	212.50
922.32	212.64
922.63	213.07
922.93	214.00
923.23	213.98
923.53	213.83
923.83	212.60
924.13	212.62
924.44	212.40
924.74	212.81
925.04	213.29
925.34	213.38
925.64	212.67
925.94	212.88
926.24	213.95
926.55	213.67
926.85	214.00
927.15	214.05
927.45	214.36
927.75	214.62
928.05	214.86
928.35	214.79
928.65	215.19
928.95	215.17
929.26	214.29
929.56	214.74
929.86	215.24
930.16	214.90
930.46	215.19
930.76	215.48
931.06	214.29
931.36	213.83
931.66	214.19
931.96	214.21
932.26	214.10
932.56	213.48
932.86	213.69
933.16	213.76
933.46	213.64
933.76	213.26
934.06	213.76
934.36	214.31
934.66	214.38
934.96	214.26
935.26	214.31
935.56	214.52
935.86	214.02
936.16	213.79
936.46	214.05
936.76	213.64
937.06	213.17
937.36	213.60
937.66	213.64
937.96	213.36
938.26	213.00
938.56	212.93
938.86	212.79
939.16	213.05
939.46	213.17
939.76	213.19
940.06	213.02
940.35	212.50
940.65	211.67
940.95	211.74
941.25	211.26
941.55	211.14
941.85	210.95
942.15	211.29
942.45	211.71
942.75	211.62
943.04	211.62
943.34	212.00
943.64	211.60
943.94	211.14
944.24	211.26
944.54	211.31
944.84	211.19
945.13	211.14
945.43	210.79
945.73	210.74
946.03	210.76
946.33	210.71
946.62	210.71
946.92	210.38
947.22	210.36
947.52	210.31
947.82	210.36
948.11	210.36
948.41	209.81
948.71	209.38
949.01	209.52
949.31	209.50
949.60	209.33
949.90	209.90
950.20	209.88
950.50	209.88
950.79	210.07
951.09	210.33
951.39	210.31
951.69	210.10
951.98	210.55
952.28	210.55
952.58	210.60
952.87	210.57
953.17	211.31
953.47	211.05
953.76	211.31
954.06	211.02
954.36	210.71
954.66	210.93
954.95	211.36
955.25	211.67
955.55	211.71
955.84	211.62
956.14	211.64
956.44	211.79
956.73	211.17
957.03	211.24
957.32	211.24
957.62	210.98
957.92	211.60
958.21	211.26
958.51	213.69
958.81	213.98
959.10	214.31
959.40	214.40
959.69	214.67
959.99	214.83
960.29	214.93
960.58	215.14
960.88	215.88
961.17	215.52
961.47	215.43
961.76	215.45
962.06	215.79
962.36	215.57
962.65	215.50
962.95	215.79
963.24	215.52
963.54	215.76
963.83	216.05
964.13	215.71
964.42	215.17
964.72	213.33
965.01	213.36
965.31	212.93
965.60	212.38
965.90	213.57
966.19	213.05
966.49	212.88
966.78	212.57
967.08	212.40
967.37	212.55
967.67	212.21
967.96	212.69
968.26	212.38
968.55	212.45
968.85	212.33
969.14	212.31
969.43	212.52
969.73	212.36
970.02	212.05
970.32	212.10
970.61	212.17
970.91	211.57
971.20	211.17
971.49	210.98
971.79	211.02
972.08	209.64
972.38	209.90
972.67	209.95
972.96	210.43
973.26	209.71
973.55	210.26
973.85	210.26
974.14	209.71
974.43	210.07
974.73	209.74
975.02	209.74
975.31	209.64
975.61	209.40
975.90	209.19
976.19	209.10
976.49	209.10
976.78	209.21
977.07	209.21
977.37	209.50
977.66	209.95
977.95	209.93
978.24	209.95
978.54	210.24
978.83	210.31
979.12	210.12
979.42	210.36
979.71	210.14
980.00	209.98
980.29	210.17
980.59	209.81
980.88	210.62
981.17	210.64
981.46	210.79
981.76	210.93
982.05	211.50
982.34	211.64
982.63	211.64
982.93	211.55
983.22	212.19
983.51	211.95
983.80	211.98
984.09	212.45
984.39	212.40
984.68	212.07
984.97	212.10
985.26	211.88
985.55	212.05
985.85	211.33
986.14	211.62
986.43	211.90
986.72	211.67
987.01	210.88
987.30	210.83
987.59	210.52
987.89	210.43
988.18	209.79
988.47	209.76
988.76	209.62
989.05	209.60
989.34	209.26
989.63	210.14
989.92	209.71
990.22	209.19
990.51	209.26
990.80	209.29
991.09	209.40
991.38	209.67
991.67	209.38
991.96	209.31
992.25	209.50
992.54	209.19
992.83	209.26
993.12	209.38
993.41	209.93
993.70	211.12
993.99	211.62
994.28	211.90
994.58	212.12
994.87	211.90
995.16	211.64
995.45	211.43
995.74	210.57
996.03	211.07
996.32	211.62
996.61	211.86
996.90	211.79
997.19	211.81
997.48	211.83
997.77	211.98
998.06	212.31
998.34	211.93
998.63	212.05
998.92	212.19
999.21	212.50
999.50	212.36
999.79	211.57
1000.08	211.52
1000.37	211.52
1000.66	211.12
1000.95	211.69
1001.24	211.90
1001.53	212.07
1001.82	212.24
1002.11	211.79
1002.40	211.90
1002.68	212.40
1002.97	213.79
1003.26	213.52
1003.55	213.24
1003.84	213.21
1004.13	213.69
1004.42	213.67
1004.71	213.31
1004.99	213.07
1005.28	213.57
1005.57	213.45
1005.86	213.12
1006.15	212.86
1006.44	212.52
1006.72	212.86
1007.01	212.52
1007.30	212.90
1007.59	212.93
1007.88	212.69
1008.17	212.79
1008.45	212.12
1008.74	211.05
1009.03	210.17
1009.32	210.26
1009.60	210.31
1009.89	210.14
1010.18	209.40
1010.47	209.19
1010.76	209.48
1011.04	209.57
1011.33	209.45
1011.62	209.48
1011.91	209.71
1012.19	209.71
1012.48	209.90
1012.77	210.02
1013.05	211.19
1013.34	211.07
1013.63	211.00
1013.92	211.02
1014.20	210.98
1014.49	211.31
1014.78	211.71
1015.06	211.21
1015.35	211.12
1015.64	211.38
1015.92	211.48
1016.21	211.71
1016.50	211.79
1016.78	212.00
1017.07	211.95
1017.36	211.48
1017.64	211.24
1017.93	211.31
1018.22	211.21
1018.50	211.12
1018.79	211.05
1019.08	209.98
1019.36	209.86
1019.65	209.50
1019.93	210.24
1020.22	210.50
1020.51	211.48
1020.79	211.33
1021.08	208.50
1021.36	207.00
1021.65	211.50
1021.94	211.50
1022.22	209.00
1022.51	205.50
1022.79	222.50
1023.08	213.50
1023.36	236.00
1023.65	207.50
>>>>>End Processed Spectral Data<<<<<
