SpectraSuite Data File
++++++++++++++++++++++++++++++++++++
Date: Tue Apr 02 18:43:43 EDT 2013
User: group
Dark Spectrum Present: No
Reference Spectrum Present: No
Number of Sampled Component Spectra: 1
Spectrometers: USB2E7196
Integration Time (usec): 580000 (USB2E7196)
Spectra Averaged: 2 (USB2E7196)
Boxcar Smoothing: 10 (USB2E7196)
Correct for Electrical Dark: No (USB2E7196)
Strobe/Lamp Enabled: No (USB2E7196)
Correct for Detector Non-linearity: No (USB2E7196)
Correct for Stray Light: No (USB2E7196)
Number of Pixels in Processed Spectrum: 2048
>>>>>Begin Processed Spectral Data<<<<<
339.09	0.00
339.48	196.00
339.86	195.50
340.24	198.00
340.63	197.50
341.01	233.00
341.39	203.00
341.78	205.50
342.16	210.50
342.54	204.00
342.93	198.83
343.31	208.69
343.69	209.12
344.07	209.71
344.46	210.45
344.84	211.02
345.22	209.67
345.60	210.10
345.99	210.40
346.37	210.52
346.75	210.69
347.13	210.57
347.52	210.29
347.90	210.86
348.28	211.00
348.66	211.38
349.05	210.95
349.43	211.10
349.81	211.38
350.19	211.48
350.57	211.64
350.96	211.64
351.34	211.83
351.72	212.07
352.10	211.95
352.48	211.71
352.87	211.69
353.25	212.00
353.63	212.05
354.01	211.93
354.39	212.17
354.77	212.21
355.15	212.74
355.54	212.86
355.92	212.19
356.30	212.07
356.68	213.31
357.06	213.29
357.44	212.98
357.82	212.71
358.20	213.50
358.58	213.38
358.97	213.38
359.35	213.67
359.73	214.07
360.11	214.12
360.49	214.24
360.87	214.36
361.25	214.40
361.63	214.93
362.01	215.02
362.39	214.81
362.77	215.14
363.15	215.17
363.53	215.00
363.91	215.40
364.29	215.38
364.67	213.38
365.05	213.55
365.43	213.79
365.81	214.24
366.19	214.33
366.57	215.38
366.95	215.33
367.33	214.98
367.71	214.88
368.09	215.57
368.47	215.57
368.85	215.45
369.23	215.93
369.61	215.26
369.99	215.83
370.37	216.07
370.75	216.86
371.13	216.45
371.51	216.31
371.89	216.38
372.27	216.38
372.65	216.76
373.03	216.79
373.41	216.81
373.78	216.57
374.16	215.57
374.54	214.64
374.92	214.64
375.30	214.67
375.68	214.33
376.06	214.24
376.44	214.07
376.82	214.17
377.19	214.26
377.57	214.21
377.95	213.74
378.33	213.55
378.71	212.45
379.09	212.98
379.47	213.12
379.84	212.64
380.22	212.71
380.60	212.33
380.98	212.48
381.36	212.40
381.73	212.31
382.11	212.74
382.49	212.81
382.87	212.45
383.25	212.50
383.62	214.83
384.00	214.48
384.38	214.67
384.76	215.29
385.13	216.00
385.51	216.07
385.89	215.67
386.27	215.52
386.64	215.81
387.02	215.52
387.40	215.50
387.78	215.90
388.15	215.98
388.53	216.02
388.91	215.86
389.29	215.69
389.66	215.98
390.04	215.86
390.42	216.21
390.79	216.50
391.17	216.36
391.55	214.19
391.92	214.31
392.30	214.67
392.68	214.00
393.05	213.60
393.43	213.62
393.81	213.98
394.18	213.60
394.56	213.74
394.94	214.05
395.31	213.71
395.69	214.19
396.06	214.33
396.44	214.62
396.82	214.60
397.19	215.69
397.57	215.38
397.95	215.74
398.32	215.05
398.70	215.17
399.07	215.81
399.45	215.79
399.82	215.55
400.20	215.26
400.58	215.33
400.95	214.60
401.33	214.95
401.70	216.38
402.08	216.67
402.45	216.57
402.83	216.90
403.20	217.31
403.58	217.26
403.95	217.98
404.33	218.31
404.71	218.60
405.08	219.86
405.46	220.29
405.83	220.52
406.21	221.12
406.58	221.83
406.96	222.14
407.33	222.57
407.70	223.38
408.08	225.57
408.45	226.50
408.83	227.48
409.20	228.00
409.58	227.55
409.95	228.83
410.33	229.76
410.70	230.38
411.08	231.62
411.45	232.71
411.82	233.26
412.20	234.74
412.57	237.10
412.95	236.76
413.32	238.50
413.69	239.74
414.07	241.48
414.44	243.14
414.82	245.14
415.19	247.74
415.56	250.12
415.94	251.17
416.31	254.29
416.68	257.12
417.06	260.26
417.43	263.88
417.81	267.31
418.18	271.17
418.55	274.90
418.93	279.21
419.30	283.38
419.67	287.93
420.04	292.10
420.42	296.26
420.79	303.19
421.16	308.76
421.54	316.14
421.91	322.17
422.28	328.36
422.66	334.79
423.03	342.71
423.40	349.36
423.77	356.12
424.15	362.74
424.52	370.19
424.89	378.88
425.26	386.24
425.64	393.60
426.01	401.62
426.38	410.31
426.75	419.67
427.13	428.76
427.50	438.33
427.87	448.21
428.24	458.31
428.61	466.57
428.99	477.90
429.36	488.00
429.73	499.02
430.10	510.60
430.47	522.43
430.85	532.81
431.22	545.74
431.59	560.83
431.96	573.26
432.33	587.48
432.70	600.98
433.08	617.26
433.45	632.50
433.82	647.74
434.19	664.74
434.56	681.31
434.93	697.10
435.30	712.95
435.68	730.48
436.05	746.88
436.42	763.83
436.79	779.45
437.16	797.14
437.53	815.19
437.90	832.83
438.27	850.76
438.64	869.12
439.01	886.00
439.38	899.31
439.75	914.74
440.13	931.83
440.50	948.14
440.87	960.40
441.24	974.12
441.61	989.31
441.98	1000.98
442.35	1012.71
442.72	1025.64
443.09	1039.24
443.46	1047.29
443.83	1053.31
444.20	1058.69
444.57	1064.38
444.94	1067.33
445.31	1070.95
445.68	1077.17
446.05	1078.17
446.42	1076.86
446.79	1075.45
447.16	1074.24
447.53	1072.95
447.90	1066.43
448.27	1059.21
448.64	1051.33
449.01	1045.07
449.37	1033.86
449.74	1022.21
450.11	1011.29
450.48	996.43
450.85	980.45
451.22	968.26
451.59	956.33
451.96	944.29
452.33	929.33
452.70	915.17
453.07	897.71
453.43	877.50
453.80	861.69
454.17	846.05
454.54	830.93
454.91	814.74
455.28	799.29
455.65	784.31
456.02	773.38
456.38	760.50
456.75	744.93
457.12	731.21
457.49	718.29
457.86	703.79
458.23	693.93
458.59	682.17
458.96	669.76
459.33	659.05
459.70	648.83
460.07	640.19
460.43	630.38
460.80	622.62
461.17	615.83
461.54	607.07
461.91	598.50
462.27	590.38
462.64	583.45
463.01	575.74
463.38	569.33
463.74	558.05
464.11	551.33
464.48	545.71
464.85	539.19
465.21	534.60
465.58	529.88
465.95	523.19
466.32	518.24
466.68	512.64
467.05	507.29
467.42	502.02
467.78	496.29
468.15	491.31
468.52	486.88
468.88	480.67
469.25	475.76
469.62	472.69
469.98	468.33
470.35	464.83
470.72	461.00
471.08	456.31
471.45	454.05
471.82	451.50
472.18	447.95
472.55	445.93
472.92	442.57
473.28	439.52
473.65	436.57
474.02	433.86
474.38	432.26
474.75	430.50
475.11	428.31
475.48	427.17
475.85	425.64
476.21	423.76
476.58	422.24
476.94	421.19
477.31	419.71
477.67	418.48
478.04	417.12
478.41	416.48
478.77	417.88
479.14	416.69
479.50	416.02
479.87	415.74
480.23	415.17
480.60	414.83
480.96	414.57
481.33	416.10
481.69	416.21
482.06	416.57
482.42	417.10
482.79	417.62
483.15	417.98
483.52	418.71
483.88	419.40
484.25	420.10
484.61	421.21
484.98	421.60
485.34	423.83
485.71	425.29
486.07	426.60
486.44	426.50
486.80	427.93
487.17	429.33
487.53	431.55
487.90	433.67
488.26	436.48
488.62	439.21
488.99	440.81
489.35	443.60
489.72	446.19
490.08	448.50
490.44	450.81
490.81	454.05
491.17	456.90
491.54	460.31
491.90	464.57
492.26	467.79
492.63	471.83
492.99	474.98
493.36	478.98
493.72	483.31
494.08	487.26
494.45	492.07
494.81	497.07
495.17	501.43
495.54	506.31
495.90	510.86
496.26	516.17
496.63	521.50
496.99	526.67
497.35	531.90
497.72	538.12
498.08	544.14
498.44	549.62
498.80	556.02
499.17	561.76
499.53	567.64
499.89	574.43
500.26	581.38
500.62	587.86
500.98	595.07
501.34	601.81
501.71	609.00
502.07	616.29
502.43	623.40
502.79	630.79
503.16	638.71
503.52	645.83
503.88	652.90
504.24	659.90
504.60	668.02
504.97	675.93
505.33	683.10
505.69	691.90
506.05	699.88
506.41	707.76
506.78	715.93
507.14	723.45
507.50	730.86
507.86	738.98
508.22	747.17
508.59	754.21
508.95	761.81
509.31	770.55
509.67	778.55
510.03	785.67
510.39	792.88
510.75	800.24
511.12	807.71
511.48	815.14
511.84	822.93
512.20	830.21
512.56	837.93
512.92	846.07
513.28	853.12
513.64	859.90
514.00	867.26
514.37	874.57
514.73	882.45
515.09	890.55
515.45	896.95
515.81	903.40
516.17	910.43
516.53	916.90
516.89	922.60
517.25	929.19
517.61	936.79
517.97	943.38
518.33	950.05
518.69	955.98
519.05	962.98
519.41	969.48
519.77	976.26
520.13	981.93
520.49	987.52
520.85	993.33
521.21	1000.81
521.57	1006.55
521.93	1011.98
522.29	1017.10
522.65	1021.74
523.01	1027.48
523.37	1032.95
523.73	1038.26
524.09	1043.79
524.45	1048.24
524.81	1052.62
525.17	1057.10
525.53	1062.00
525.89	1066.02
526.25	1072.02
526.61	1075.02
526.97	1078.52
527.33	1081.90
527.68	1088.00
528.04	1091.86
528.40	1095.64
528.76	1099.05
529.12	1103.24
529.48	1108.31
529.84	1112.52
530.20	1117.05
530.56	1120.81
530.91	1125.26
531.27	1129.83
531.63	1134.55
531.99	1138.95
532.35	1142.88
532.71	1146.38
533.07	1151.57
533.42	1157.90
533.78	1161.79
534.14	1167.33
534.50	1171.95
534.86	1177.17
535.21	1180.07
535.57	1185.00
535.93	1189.36
536.29	1194.40
536.65	1198.57
537.00	1202.10
537.36	1206.05
537.72	1209.40
538.08	1213.79
538.44	1216.48
538.79	1219.74
539.15	1222.55
539.51	1225.90
539.87	1229.88
540.22	1232.95
540.58	1235.21
540.94	1236.71
541.29	1239.98
541.65	1240.69
542.01	1244.19
542.37	1245.86
542.72	1247.38
543.08	1249.43
543.44	1252.12
543.79	1252.74
544.15	1255.74
544.51	1258.81
544.87	1261.31
545.22	1264.55
545.58	1267.21
545.94	1270.81
546.29	1273.48
546.65	1275.93
547.01	1279.00
547.36	1281.57
547.72	1285.10
548.07	1288.12
548.43	1290.62
548.79	1293.12
549.14	1296.64
549.50	1299.19
549.86	1300.90
550.21	1303.81
550.57	1306.83
550.92	1309.17
551.28	1313.14
551.64	1315.12
551.99	1317.19
552.35	1320.00
552.70	1323.05
553.06	1326.02
553.41	1328.74
553.77	1333.48
554.13	1337.76
554.48	1341.31
554.84	1345.24
555.19	1348.71
555.55	1353.40
555.90	1356.69
556.26	1360.12
556.61	1364.57
556.97	1367.40
557.32	1372.10
557.68	1376.07
558.03	1380.17
558.39	1384.10
558.74	1387.60
559.10	1391.52
559.45	1396.12
559.81	1400.93
560.16	1405.02
560.52	1408.48
560.87	1413.79
561.23	1416.79
561.58	1421.71
561.94	1425.93
562.29	1429.12
562.64	1433.88
563.00	1436.69
563.35	1441.71
563.71	1446.57
564.06	1451.38
564.42	1457.02
564.77	1464.12
565.12	1470.55
565.48	1477.74
565.83	1483.69
566.19	1489.21
566.54	1494.24
566.89	1499.98
567.25	1506.21
567.60	1513.21
567.96	1521.90
568.31	1527.62
568.66	1534.10
569.02	1538.62
569.37	1543.90
569.72	1550.60
570.08	1555.19
570.43	1561.36
570.78	1567.07
571.14	1572.33
571.49	1577.93
571.84	1584.14
572.20	1587.86
572.55	1592.86
572.90	1595.71
573.26	1600.55
573.61	1605.19
573.96	1610.79
574.31	1614.26
574.67	1618.00
575.02	1620.71
575.37	1622.38
575.72	1625.33
576.08	1629.19
576.43	1633.43
576.78	1637.52
577.13	1640.10
577.49	1644.43
577.84	1648.81
578.19	1652.79
578.54	1656.79
578.90	1660.57
579.25	1663.33
579.60	1666.07
579.95	1668.24
580.30	1672.05
580.66	1675.93
581.01	1679.62
581.36	1681.98
581.71	1686.00
582.06	1689.48
582.42	1692.81
582.77	1695.62
583.12	1699.19
583.47	1702.05
583.82	1705.12
584.17	1708.10
584.53	1712.71
584.88	1715.64
585.23	1718.14
585.58	1719.57
585.93	1721.76
586.28	1724.31
586.63	1726.71
586.98	1729.93
587.34	1734.12
587.69	1736.55
588.04	1738.38
588.39	1739.95
588.74	1742.52
589.09	1744.88
589.44	1746.10
589.79	1747.90
590.14	1750.79
590.49	1752.69
590.84	1753.71
591.19	1754.95
591.54	1756.12
591.89	1756.74
592.25	1759.40
592.60	1760.17
592.95	1762.86
593.30	1764.40
593.65	1765.17
594.00	1765.67
594.35	1773.40
594.70	1773.43
595.05	1773.60
595.40	1774.52
595.75	1775.88
596.10	1777.64
596.45	1778.45
596.80	1779.14
597.15	1780.14
597.50	1779.00
597.85	1780.69
598.19	1781.33
598.54	1781.79
598.89	1782.14
599.24	1783.45
599.59	1782.71
599.94	1783.29
600.29	1783.33
600.64	1782.86
600.99	1783.64
601.34	1784.81
601.69	1778.19
602.04	1777.76
602.39	1778.14
602.74	1778.29
603.08	1777.57
603.43	1777.24
603.78	1776.50
604.13	1776.38
604.48	1774.52
604.83	1775.33
605.18	1774.19
605.53	1773.60
605.87	1772.57
606.22	1772.50
606.57	1770.76
606.92	1769.38
607.27	1769.43
607.62	1768.26
607.96	1768.02
608.31	1767.14
608.66	1765.76
609.01	1763.88
609.36	1762.86
609.70	1761.64
610.05	1758.79
610.40	1757.69
610.75	1755.17
611.10	1754.31
611.44	1751.55
611.79	1750.21
612.14	1747.50
612.49	1743.12
612.83	1740.55
613.18	1738.21
613.53	1734.71
613.88	1731.02
614.22	1728.24
614.57	1722.98
614.92	1719.02
615.27	1715.64
615.61	1710.36
615.96	1707.12
616.31	1704.24
616.65	1700.98
617.00	1697.02
617.35	1694.95
617.70	1690.57
618.04	1687.07
618.39	1682.36
618.74	1679.45
619.08	1675.57
619.43	1672.19
619.78	1669.86
620.12	1667.05
620.47	1663.43
620.82	1659.74
621.16	1655.43
621.51	1652.50
621.85	1649.29
622.20	1644.81
622.55	1640.83
622.89	1638.64
623.24	1634.67
623.59	1630.17
623.93	1626.05
624.28	1622.38
624.62	1619.40
624.97	1617.31
625.32	1613.45
625.66	1609.14
626.01	1604.14
626.35	1601.07
626.70	1597.05
627.04	1593.57
627.39	1588.60
627.73	1584.98
628.08	1581.62
628.43	1578.12
628.77	1573.14
629.12	1569.36
629.46	1566.52
629.81	1562.33
630.15	1556.64
630.50	1551.38
630.84	1546.90
631.19	1541.69
631.53	1536.71
631.88	1529.57
632.22	1523.67
632.57	1519.14
632.91	1514.26
633.26	1510.71
633.60	1505.33
633.95	1499.69
634.29	1493.45
634.64	1488.98
634.98	1483.29
635.32	1479.12
635.67	1475.52
636.01	1471.86
636.36	1466.50
636.70	1462.12
637.05	1456.60
637.39	1452.93
637.73	1449.26
638.08	1446.19
638.42	1442.50
638.77	1438.38
639.11	1434.33
639.45	1429.38
639.80	1423.21
640.14	1418.26
640.49	1412.93
640.83	1407.69
641.17	1403.45
641.52	1397.98
641.86	1392.38
642.20	1388.40
642.55	1381.74
642.89	1375.50
643.23	1369.10
643.58	1364.00
643.92	1357.81
644.26	1353.10
644.61	1347.79
644.95	1342.33
645.29	1335.05
645.64	1328.62
645.98	1322.43
646.32	1316.55
646.66	1309.69
647.01	1303.50
647.35	1298.02
647.69	1291.60
648.04	1286.24
648.38	1280.31
648.72	1275.14
649.06	1269.64
649.41	1262.64
649.75	1255.95
650.09	1249.36
650.43	1242.74
650.78	1236.40
651.12	1229.69
651.46	1222.33
651.80	1215.60
652.14	1208.00
652.49	1202.57
652.83	1196.26
653.17	1189.14
653.51	1182.69
653.85	1177.57
654.20	1171.93
654.54	1164.81
654.88	1158.33
655.22	1151.90
655.56	1144.83
655.90	1138.62
656.25	1131.57
656.59	1125.71
656.93	1119.79
657.27	1115.05
657.61	1108.79
657.95	1102.88
658.29	1096.21
658.64	1090.83
658.98	1084.79
659.32	1078.57
659.66	1071.98
660.00	1065.29
660.34	1059.29
660.68	1052.24
661.02	1045.38
661.36	1039.24
661.70	1033.93
662.05	1027.79
662.39	1021.71
662.73	1016.02
663.07	1010.83
663.41	1005.21
663.75	998.14
664.09	992.76
664.43	985.74
664.77	979.88
665.11	973.24
665.45	968.29
665.79	962.05
666.13	954.93
666.47	948.93
666.81	943.00
667.15	937.05
667.49	931.74
667.83	927.62
668.17	921.81
668.51	916.45
668.85	910.60
669.19	905.81
669.53	899.67
669.87	893.50
670.21	886.90
670.55	880.79
670.89	876.86
671.23	871.02
671.57	865.36
671.91	860.12
672.25	855.33
672.58	849.55
672.92	844.19
673.26	839.40
673.60	834.67
673.94	829.19
674.28	824.64
674.62	820.02
674.96	814.12
675.30	809.33
675.64	804.00
675.97	798.55
676.31	793.07
676.65	787.40
676.99	783.83
677.33	779.02
677.67	774.50
678.01	768.48
678.34	763.81
678.68	759.10
679.02	753.93
679.36	748.52
679.70	743.90
680.04	738.74
680.37	733.93
680.71	728.38
681.05	723.83
681.39	718.71
681.73	713.05
682.06	708.02
682.40	703.64
682.74	699.10
683.08	695.40
683.42	690.17
683.75	686.21
684.09	680.38
684.43	675.60
684.77	670.62
685.10	666.31
685.44	661.67
685.78	657.07
686.12	652.31
686.45	647.76
686.79	643.14
687.13	639.52
687.46	635.07
687.80	631.69
688.14	627.48
688.48	623.48
688.81	619.48
689.15	616.52
689.49	611.71
689.82	607.26
690.16	601.95
690.50	598.40
690.83	594.29
691.17	590.17
691.51	586.21
691.84	582.31
692.18	578.24
692.52	574.17
692.85	570.55
693.19	567.76
693.52	564.29
693.86	560.05
694.20	555.93
694.53	552.50
694.87	548.36
695.21	543.67
695.54	540.17
695.88	535.67
696.21	530.26
696.55	526.67
696.88	522.98
697.22	519.29
697.56	515.69
697.89	511.67
698.23	508.69
698.56	504.67
698.90	501.50
699.23	497.29
699.57	494.02
699.90	490.43
700.24	486.02
700.58	482.36
700.91	479.38
701.25	477.79
701.58	475.38
701.92	472.69
702.25	470.26
702.59	466.40
702.92	464.14
703.26	461.55
703.59	458.67
703.93	457.67
704.26	455.33
704.60	452.29
704.93	449.69
705.26	446.76
705.60	444.62
705.93	441.67
706.27	440.33
706.60	437.95
706.94	435.88
707.27	433.07
707.61	430.48
707.94	427.71
708.27	423.55
708.61	420.24
708.94	417.33
709.28	414.83
709.61	412.76
709.94	410.45
710.28	408.21
710.61	405.79
710.95	401.43
711.28	400.36
711.61	398.14
711.95	396.29
712.28	393.64
712.61	391.14
712.95	389.60
713.28	387.79
713.61	385.05
713.95	382.67
714.28	380.95
714.61	379.05
714.95	377.05
715.28	374.57
715.61	372.12
715.95	370.31
716.28	368.07
716.61	366.36
716.95	363.90
717.28	361.86
717.61	359.95
717.94	358.52
718.28	355.10
718.61	353.00
718.94	350.83
719.27	349.12
719.61	347.31
719.94	344.76
720.27	341.62
720.60	339.98
720.94	338.07
721.27	336.40
721.60	335.14
721.93	333.43
722.27	332.76
722.60	331.50
722.93	329.93
723.26	328.62
723.59	326.57
723.93	325.55
724.26	324.36
724.59	323.05
724.92	321.40
725.25	320.67
725.59	319.76
725.92	319.00
726.25	317.69
726.58	316.55
726.91	315.60
727.24	315.12
727.57	313.86
727.91	312.26
728.24	311.29
728.57	309.98
728.90	309.38
729.23	307.71
729.56	307.43
729.89	306.24
730.22	305.26
730.55	304.21
730.89	303.10
731.22	301.79
731.55	300.60
731.88	299.88
732.21	298.43
732.54	297.17
732.87	295.95
733.20	294.98
733.53	294.00
733.86	293.31
734.19	291.95
734.52	291.48
734.85	292.31
735.18	291.17
735.51	290.69
735.84	289.98
736.17	289.50
736.50	287.60
736.83	289.10
737.16	288.21
737.49	287.90
737.82	287.05
738.15	286.55
738.48	285.88
738.81	285.00
739.14	284.24
739.47	283.02
739.80	282.07
740.13	281.76
740.46	280.88
740.79	279.86
741.12	278.93
741.45	277.86
741.78	275.83
742.11	275.57
742.44	274.50
742.77	273.60
743.10	272.62
743.43	272.05
743.75	269.07
744.08	270.67
744.41	269.79
744.74	269.07
745.07	268.14
745.40	267.60
745.73	267.93
746.06	267.31
746.39	267.36
746.71	266.50
747.04	265.31
747.37	264.62
747.70	264.10
748.03	263.81
748.36	263.52
748.68	262.76
749.01	261.50
749.34	260.86
749.67	260.31
750.00	260.00
750.33	260.79
750.65	260.64
750.98	257.83
751.31	257.21
751.64	256.52
751.97	257.24
752.29	256.64
752.62	255.00
752.95	254.40
753.28	253.50
753.60	253.33
753.93	253.45
754.26	253.00
754.59	252.24
754.91	251.38
755.24	250.86
755.57	250.60
755.90	250.26
756.22	249.55
756.55	248.83
756.88	247.93
757.20	246.14
757.53	245.17
757.86	244.60
758.19	244.24
758.51	244.17
758.84	242.50
759.17	241.95
759.49	241.76
759.82	242.24
760.15	242.00
760.47	241.19
760.80	240.48
761.13	240.55
761.45	240.05
761.78	239.81
762.11	239.45
762.43	238.88
762.76	238.76
763.08	238.79
763.41	238.74
763.74	238.52
764.06	238.36
764.39	237.98
764.71	237.45
765.04	236.93
765.37	236.43
765.69	236.24
766.02	236.17
766.34	235.86
766.67	234.93
767.00	235.02
767.32	235.83
767.65	236.52
767.97	235.86
768.30	235.64
768.62	235.19
768.95	234.90
769.27	234.67
769.60	234.50
769.92	233.98
770.25	233.62
770.57	233.10
770.90	232.79
771.22	232.36
771.55	232.43
771.87	232.50
772.20	232.12
772.52	233.67
772.85	235.93
773.17	235.52
773.50	235.31
773.82	234.74
774.15	233.86
774.47	232.38
774.80	232.36
775.12	232.19
775.45	232.21
775.77	231.88
776.09	232.12
776.42	231.90
776.74	232.26
777.07	231.83
777.39	231.95
777.72	231.57
778.04	231.81
778.36	231.50
778.69	231.52
779.01	231.60
779.33	229.55
779.66	226.93
779.98	226.93
780.31	226.95
780.63	227.74
780.95	227.62
781.28	227.67
781.60	227.24
781.92	227.19
782.25	226.90
782.57	226.76
782.89	226.05
783.22	225.69
783.54	225.17
783.86	225.29
784.19	224.90
784.51	225.48
784.83	224.95
785.16	224.93
785.48	224.55
785.80	224.31
786.12	224.48
786.45	224.19
786.77	224.00
787.09	223.62
787.42	222.71
787.74	222.67
788.06	222.52
788.38	222.19
788.71	221.95
789.03	222.07
789.35	222.17
789.67	222.12
789.99	222.24
790.32	221.88
790.64	221.98
790.96	223.69
791.28	222.71
791.61	222.57
791.93	222.52
792.25	222.33
792.57	223.67
792.89	223.12
793.21	223.40
793.54	223.05
793.86	222.79
794.18	222.98
794.50	222.62
794.82	222.71
795.14	222.98
795.47	223.14
795.79	223.14
796.11	222.69
796.43	222.43
796.75	222.40
797.07	222.55
797.39	222.38
797.71	220.83
798.04	220.93
798.36	221.07
798.68	220.93
799.00	221.14
799.32	219.98
799.64	220.31
799.96	220.12
800.28	220.69
800.60	220.45
800.92	220.38
801.24	220.38
801.56	220.36
801.89	220.33
802.21	220.67
802.53	220.24
802.85	220.64
803.17	221.62
803.49	221.29
803.81	220.90
804.13	220.76
804.45	220.29
804.77	220.40
805.09	220.38
805.41	220.10
805.73	219.38
806.05	218.69
806.37	218.67
806.69	218.43
807.01	218.29
807.33	218.43
807.65	217.81
807.97	218.45
808.28	218.19
808.60	218.26
808.92	217.64
809.24	219.12
809.56	218.62
809.88	217.71
810.20	217.79
810.52	218.24
810.84	217.76
811.16	217.71
811.48	217.45
811.80	218.05
812.12	217.79
812.43	218.36
812.75	218.76
813.07	218.57
813.39	218.74
813.71	218.29
814.03	218.17
814.35	218.21
814.67	217.52
814.98	217.29
815.30	216.88
815.62	216.52
815.94	214.93
816.26	215.07
816.58	214.69
816.89	214.67
817.21	213.98
817.53	214.36
817.85	214.40
818.17	214.69
818.48	213.95
818.80	214.52
819.12	214.29
819.44	213.88
819.76	213.64
820.07	213.40
820.39	213.43
820.71	213.38
821.03	213.31
821.34	213.07
821.66	213.62
821.98	213.93
822.30	214.00
822.61	215.12
822.93	214.95
823.25	214.98
823.57	214.93
823.88	215.57
824.20	215.26
824.52	215.45
824.83	215.29
825.15	215.00
825.47	214.98
825.79	214.86
826.10	214.79
826.42	214.71
826.74	215.00
827.05	214.74
827.37	214.74
827.69	214.74
828.00	214.93
828.32	214.64
828.64	214.31
828.95	215.40
829.27	215.05
829.58	214.95
829.90	215.21
830.22	215.29
830.53	214.71
830.85	214.55
831.17	214.33
831.48	214.05
831.80	214.24
832.11	214.10
832.43	213.90
832.75	213.86
833.06	214.95
833.38	214.24
833.69	214.36
834.01	214.45
834.32	214.33
834.64	214.00
834.96	214.14
835.27	214.12
835.59	213.24
835.90	212.57
836.22	212.48
836.53	212.31
836.85	212.00
837.16	214.26
837.48	214.36
837.79	214.98
838.11	215.26
838.42	215.17
838.74	215.10
839.05	215.02
839.37	215.07
839.68	213.62
840.00	213.71
840.31	213.90
840.63	213.83
840.94	213.76
841.26	213.69
841.57	213.62
841.88	213.81
842.20	213.71
842.51	213.57
842.83	213.67
843.14	215.43
843.46	215.74
843.77	214.45
844.08	214.45
844.40	213.74
844.71	213.48
845.03	213.33
845.34	213.24
845.65	213.12
845.97	213.33
846.28	214.07
846.60	214.26
846.91	213.98
847.22	214.00
847.54	214.43
847.85	214.55
848.16	214.26
848.48	213.86
848.79	214.74
849.10	215.00
849.42	215.31
849.73	213.52
850.04	213.45
850.36	212.79
850.67	213.12
850.98	213.12
851.30	213.29
851.61	213.38
851.92	213.38
852.23	214.02
852.55	214.07
852.86	213.88
853.17	213.95
853.49	214.50
853.80	214.90
854.11	215.07
854.42	215.26
854.74	215.12
855.05	215.36
855.36	214.17
855.67	214.26
855.99	214.14
856.30	216.55
856.61	216.19
856.92	216.00
857.23	215.71
857.55	215.45
857.86	215.40
858.17	215.57
858.48	215.29
858.79	214.98
859.11	215.00
859.42	214.74
859.73	214.48
860.04	214.24
860.35	213.45
860.66	212.86
860.98	212.79
861.29	212.95
861.60	212.81
861.91	213.38
862.22	213.02
862.53	212.86
862.84	210.45
863.16	211.12
863.47	210.93
863.78	210.83
864.09	211.17
864.40	211.36
864.71	211.31
865.02	211.71
865.33	211.60
865.64	211.31
865.95	211.38
866.27	212.88
866.58	212.67
866.89	213.14
867.20	213.14
867.51	212.86
867.82	212.98
868.13	213.67
868.44	213.26
868.75	213.83
869.06	213.88
869.37	213.86
869.68	213.21
869.99	213.57
870.30	213.86
870.61	214.02
870.92	213.67
871.23	213.62
871.54	213.79
871.85	214.05
872.16	214.19
872.47	213.93
872.78	212.57
873.09	212.67
873.40	212.45
873.71	212.45
874.02	212.79
874.33	212.45
874.64	212.00
874.95	212.26
875.26	211.55
875.56	211.48
875.87	211.62
876.18	211.67
876.49	213.67
876.80	213.17
877.11	212.60
877.42	212.86
877.73	212.64
878.04	212.48
878.35	212.57
878.66	212.81
878.96	213.02
879.27	213.10
879.58	212.98
879.89	212.98
880.20	213.86
880.51	213.69
880.82	213.88
881.12	214.17
881.43	213.81
881.74	213.95
882.05	213.83
882.36	213.95
882.67	214.02
882.97	211.83
883.28	211.90
883.59	212.12
883.90	212.26
884.21	212.60
884.51	212.45
884.82	212.17
885.13	211.95
885.44	212.00
885.74	211.86
886.05	211.95
886.36	211.81
886.67	210.74
886.98	211.83
887.28	211.90
887.59	211.67
887.90	211.83
888.20	211.74
888.51	212.10
888.82	211.69
889.13	211.95
889.43	213.76
889.74	213.74
890.05	213.69
890.35	213.62
890.66	213.40
890.97	213.21
891.28	212.88
891.58	212.90
891.89	212.83
892.20	212.71
892.50	212.38
892.81	212.36
893.12	212.48
893.42	211.26
893.73	211.24
894.04	211.26
894.34	211.43
894.65	211.43
894.95	211.17
895.26	211.36
895.57	212.14
895.87	210.17
896.18	210.50
896.48	210.69
896.79	210.43
897.10	210.90
897.40	211.07
897.71	211.57
898.01	211.24
898.32	211.31
898.63	211.48
898.93	211.95
899.24	211.93
899.54	211.83
899.85	211.79
900.15	211.71
900.46	211.62
900.76	211.62
901.07	211.45
901.38	211.50
901.68	211.76
901.99	210.48
902.29	210.86
902.60	210.69
902.90	210.31
903.21	210.29
903.51	210.14
903.82	210.55
904.12	210.38
904.43	210.62
904.73	210.62
905.03	210.62
905.34	212.48
905.64	212.33
905.95	212.52
906.25	212.64
906.56	212.76
906.86	212.90
907.17	212.67
907.47	212.74
907.77	212.64
908.08	212.17
908.38	212.38
908.69	212.43
908.99	212.90
909.30	213.21
909.60	213.33
909.90	213.14
910.21	212.36
910.51	212.31
910.81	212.67
911.12	212.74
911.42	212.76
911.73	210.48
912.03	210.69
912.33	210.98
912.64	211.05
912.94	210.74
913.24	210.40
913.55	210.33
913.85	210.33
914.15	210.69
914.46	210.93
914.76	210.98
915.06	210.67
915.37	210.10
915.67	210.00
915.97	209.88
916.27	209.62
916.58	209.83
916.88	209.69
917.18	209.43
917.49	210.83
917.79	210.62
918.09	210.93
918.39	211.60
918.70	211.45
919.00	211.62
919.30	212.81
919.60	212.67
919.91	212.60
920.21	212.76
920.51	212.21
920.81	212.00
921.12	212.40
921.42	212.43
921.72	212.67
922.02	212.83
922.32	213.26
922.63	213.64
922.93	214.69
923.23	214.95
923.53	214.74
923.83	213.24
924.13	213.62
924.44	213.69
924.74	213.81
925.04	214.02
925.34	213.95
925.64	213.05
925.94	213.21
926.24	214.33
926.55	214.07
926.85	214.48
927.15	214.52
927.45	214.43
927.75	214.55
928.05	214.67
928.35	214.50
928.65	214.83
928.95	214.83
929.26	214.14
929.56	214.40
929.86	214.71
930.16	214.90
930.46	214.57
930.76	214.79
931.06	213.69
931.36	213.38
931.66	213.36
931.96	213.40
932.26	213.31
932.56	212.55
932.86	212.81
933.16	212.88
933.46	212.88
933.76	212.31
934.06	212.64
934.36	213.31
934.66	213.29
934.96	212.83
935.26	212.90
935.56	213.07
935.86	212.62
936.16	212.26
936.46	211.93
936.76	212.17
937.06	211.83
937.36	212.36
937.66	212.43
937.96	212.36
938.26	212.26
938.56	212.24
938.86	212.33
939.16	212.93
939.46	213.10
939.76	213.19
940.06	213.55
940.35	212.83
940.65	211.71
940.95	211.88
941.25	211.57
941.55	211.29
941.85	211.12
942.15	211.60
942.45	212.12
942.75	212.00
943.04	211.86
943.34	212.24
943.64	212.07
943.94	211.79
944.24	211.88
944.54	211.79
944.84	211.83
945.13	211.60
945.43	211.02
945.73	210.79
946.03	210.83
946.33	210.57
946.62	210.79
946.92	210.71
947.22	210.67
947.52	210.69
947.82	211.07
948.11	211.02
948.41	210.55
948.71	210.10
949.01	210.52
949.31	210.26
949.60	209.93
949.90	210.26
950.20	210.36
950.50	210.43
950.79	210.40
951.09	210.62
951.39	210.50
951.69	210.38
951.98	210.93
952.28	210.98
952.58	211.14
952.87	211.00
953.17	211.50
953.47	211.45
953.76	211.52
954.06	211.10
954.36	210.86
954.66	211.12
954.95	211.52
955.25	211.48
955.55	211.83
955.84	211.69
956.14	211.64
956.44	211.55
956.73	211.07
957.03	210.98
957.32	210.90
957.62	210.76
957.92	211.14
958.21	210.62
958.51	212.93
958.81	213.07
959.10	213.36
959.40	213.60
959.69	213.69
959.99	214.05
960.29	214.12
960.58	214.00
960.88	214.43
961.17	214.26
961.47	214.52
961.76	214.43
962.06	215.02
962.36	214.74
962.65	215.14
962.95	215.48
963.24	215.55
963.54	215.48
963.83	215.57
964.13	215.67
964.42	215.29
964.72	213.60
965.01	213.48
965.31	213.36
965.60	213.02
965.90	214.26
966.19	213.81
966.49	213.86
966.78	213.95
967.08	213.71
967.37	213.76
967.67	213.29
967.96	213.60
968.26	213.38
968.55	213.71
968.85	213.55
969.14	213.62
969.43	213.52
969.73	213.50
970.02	213.50
970.32	213.17
970.61	213.40
970.91	212.48
971.20	212.33
971.49	212.29
971.79	212.38
972.08	210.76
972.38	210.81
972.67	210.67
972.96	211.05
973.26	210.62
973.55	211.29
973.85	211.26
974.14	210.90
974.43	210.93
974.73	210.69
975.02	210.52
975.31	210.29
975.61	210.29
975.90	210.14
976.19	210.19
976.49	210.24
976.78	210.19
977.07	210.21
977.37	210.36
977.66	210.50
977.95	210.43
978.24	210.62
978.54	211.14
978.83	211.05
979.12	210.71
979.42	210.60
979.71	210.17
980.00	210.14
980.29	210.43
980.59	209.86
980.88	210.26
981.17	210.14
981.46	210.19
981.76	210.05
982.05	210.57
982.34	210.52
982.63	210.64
982.93	210.69
983.22	211.40
983.51	211.29
983.80	211.60
984.09	211.62
984.39	211.64
984.68	211.29
984.97	211.36
985.26	211.14
985.55	211.52
985.85	211.17
986.14	211.60
986.43	211.83
986.72	212.07
987.01	211.29
987.30	211.36
987.59	211.29
987.89	211.52
988.18	210.98
988.47	211.05
988.76	211.07
989.05	211.07
989.34	210.81
989.63	211.26
989.92	211.00
990.22	210.81
990.51	211.02
990.80	210.83
991.09	211.02
991.38	211.43
991.67	211.24
991.96	211.21
992.25	211.07
992.54	210.52
992.83	210.43
993.12	210.69
993.41	210.98
993.70	211.83
993.99	212.24
994.28	212.52
994.58	212.76
994.87	212.62
995.16	212.31
995.45	212.19
995.74	211.64
996.03	211.83
996.32	212.10
996.61	212.05
996.90	212.19
997.19	212.19
997.48	212.12
997.77	211.98
998.06	211.71
998.34	211.50
998.63	211.40
998.92	211.26
999.21	211.43
999.50	211.45
999.79	210.67
1000.08	210.48
1000.37	210.48
1000.66	210.36
1000.95	210.71
1001.24	210.88
1001.53	210.83
1001.82	210.57
1002.11	210.21
1002.40	210.64
1002.68	211.38
1002.97	212.74
1003.26	212.26
1003.55	211.95
1003.84	212.17
1004.13	212.98
1004.42	213.14
1004.71	213.55
1004.99	213.64
1005.28	214.29
1005.57	214.21
1005.86	214.05
1006.15	214.14
1006.44	213.95
1006.72	213.98
1007.01	213.62
1007.30	213.69
1007.59	213.62
1007.88	213.93
1008.17	214.00
1008.45	213.29
1008.74	212.31
1009.03	211.26
1009.32	211.52
1009.60	211.81
1009.89	211.69
1010.18	210.86
1010.47	210.62
1010.76	210.24
1011.04	210.29
1011.33	210.10
1011.62	210.19
1011.91	210.29
1012.19	210.19
1012.48	210.31
1012.77	210.36
1013.05	211.17
1013.34	211.12
1013.63	211.21
1013.92	211.21
1014.20	211.10
1014.49	211.19
1014.78	211.48
1015.06	210.79
1015.35	210.74
1015.64	210.90
1015.92	211.21
1016.21	211.29
1016.50	211.36
1016.78	211.93
1017.07	211.95
1017.36	211.52
1017.64	211.17
1017.93	211.38
1018.22	211.24
1018.50	210.98
1018.79	210.98
1019.08	209.93
1019.36	210.10
1019.65	209.95
1019.93	210.29
1020.22	210.55
1020.51	211.52
1020.79	211.17
1021.08	210.00
1021.36	204.00
1021.65	214.00
1021.94	206.50
1022.22	212.00
1022.51	209.00
1022.79	215.50
1023.08	213.00
1023.36	231.50
1023.65	204.00
>>>>>End Processed Spectral Data<<<<<
