SpectraSuite Data File
++++++++++++++++++++++++++++++++++++
Date: Tue Apr 02 18:44:46 EDT 2013
User: group
Dark Spectrum Present: No
Reference Spectrum Present: No
Number of Sampled Component Spectra: 1
Spectrometers: USB2E7196
Integration Time (usec): 580000 (USB2E7196)
Spectra Averaged: 2 (USB2E7196)
Boxcar Smoothing: 10 (USB2E7196)
Correct for Electrical Dark: No (USB2E7196)
Strobe/Lamp Enabled: No (USB2E7196)
Correct for Detector Non-linearity: No (USB2E7196)
Correct for Stray Light: No (USB2E7196)
Number of Pixels in Processed Spectrum: 2048
>>>>>Begin Processed Spectral Data<<<<<
339.09	0.00
339.48	190.00
339.86	190.00
340.24	196.50
340.63	197.00
341.01	230.00
341.39	195.00
341.78	203.50
342.16	209.00
342.54	201.50
342.93	196.12
343.31	206.10
343.69	206.86
344.07	207.48
344.46	208.07
344.84	208.83
345.22	207.60
345.60	208.29
345.99	208.43
346.37	208.45
346.75	208.69
347.13	208.69
347.52	208.67
347.90	209.55
348.28	209.43
348.66	210.02
349.05	209.40
349.43	209.88
349.81	209.79
350.19	210.29
350.57	210.36
350.96	210.76
351.34	210.98
351.72	211.07
352.10	211.31
352.48	211.40
352.87	211.24
353.25	211.43
353.63	211.38
354.01	211.45
354.39	211.71
354.77	211.64
355.15	212.12
355.54	212.14
355.92	211.52
356.30	211.81
356.68	213.05
357.06	213.29
357.44	212.88
357.82	212.86
358.20	213.52
358.58	213.52
358.97	213.36
359.35	213.60
359.73	214.02
360.11	214.21
360.49	214.12
360.87	214.12
361.25	214.33
361.63	215.19
362.01	215.33
362.39	215.14
362.77	215.62
363.15	215.74
363.53	215.67
363.91	215.95
364.29	215.79
364.67	213.86
365.05	213.81
365.43	214.17
365.81	214.55
366.19	214.69
366.57	215.57
366.95	215.86
367.33	215.24
367.71	215.36
368.09	215.67
368.47	216.05
368.85	216.05
369.23	216.79
369.61	215.93
369.99	216.69
370.37	216.86
370.75	217.71
371.13	217.14
371.51	216.76
371.89	216.90
372.27	217.26
372.65	217.40
373.03	217.52
373.41	217.21
373.78	217.26
374.16	216.10
374.54	215.40
374.92	215.21
375.30	215.50
375.68	215.05
376.06	214.90
376.44	214.67
376.82	214.83
377.19	214.26
377.57	214.36
377.95	213.76
378.33	213.81
378.71	212.74
379.09	213.10
379.47	213.40
379.84	213.10
380.22	212.71
380.60	212.24
380.98	212.14
381.36	212.43
381.73	212.02
382.11	212.55
382.49	212.62
382.87	212.45
383.25	212.55
383.62	214.79
384.00	214.62
384.38	214.76
384.76	215.26
385.13	216.29
385.51	216.36
385.89	216.10
386.27	216.07
386.64	216.33
387.02	216.17
387.40	216.02
387.78	216.38
388.15	216.71
388.53	216.88
388.91	216.95
389.29	216.60
389.66	216.79
390.04	216.64
390.42	216.93
390.79	217.02
391.17	216.98
391.55	214.86
391.92	214.88
392.30	214.95
392.68	214.36
393.05	214.05
393.43	214.07
393.81	214.29
394.18	214.02
394.56	214.21
394.94	214.74
395.31	214.81
395.69	215.05
396.06	215.36
396.44	215.38
396.82	215.14
397.19	216.36
397.57	216.43
397.95	216.50
398.32	215.88
398.70	216.17
399.07	216.36
399.45	216.33
399.82	216.29
400.20	216.14
400.58	216.19
400.95	215.43
401.33	215.86
401.70	217.31
402.08	217.40
402.45	217.33
402.83	217.43
403.20	217.64
403.58	217.74
403.95	218.19
404.33	218.67
404.71	219.14
405.08	220.24
405.46	220.38
405.83	220.76
406.21	221.14
406.58	221.45
406.96	221.86
407.33	222.52
407.70	223.29
408.08	225.14
408.45	225.95
408.83	227.02
409.20	227.38
409.58	227.05
409.95	228.31
410.33	229.29
410.70	229.52
411.08	230.88
411.45	231.90
411.82	232.45
412.20	234.36
412.57	236.69
412.95	236.19
413.32	238.12
413.69	239.62
414.07	241.60
414.44	243.43
414.82	245.45
415.19	247.55
415.56	250.10
415.94	251.55
416.31	254.43
416.68	257.26
417.06	260.62
417.43	264.02
417.81	267.02
418.18	270.69
418.55	274.90
418.93	278.62
419.30	282.74
419.67	287.19
420.04	291.19
420.42	295.00
420.79	302.00
421.16	307.64
421.54	314.55
421.91	320.55
422.28	326.74
422.66	333.14
423.03	340.98
423.40	347.67
423.77	355.12
424.15	362.07
424.52	369.86
424.89	378.38
425.26	385.98
425.64	393.88
426.01	402.24
426.38	410.98
426.75	420.31
427.13	429.48
427.50	439.02
427.87	448.86
428.24	458.83
428.61	467.12
428.99	477.79
429.36	488.17
429.73	499.24
430.10	510.43
430.47	522.29
430.85	533.00
431.22	545.57
431.59	560.10
431.96	573.29
432.33	586.81
432.70	600.43
433.08	616.64
433.45	631.81
433.82	646.48
434.19	663.60
434.56	680.62
434.93	696.36
435.30	712.24
435.68	729.50
436.05	747.17
436.42	764.81
436.79	781.00
437.16	798.00
437.53	815.50
437.90	833.12
438.27	851.02
438.64	869.71
439.01	886.81
439.38	899.93
439.75	914.02
440.13	931.07
440.50	946.24
440.87	958.69
441.24	972.02
441.61	987.02
441.98	997.45
442.35	1009.24
442.72	1022.05
443.09	1035.50
443.46	1043.64
443.83	1048.62
444.20	1052.69
444.57	1058.50
444.94	1061.90
445.31	1065.79
445.68	1071.79
446.05	1072.93
446.42	1070.83
446.79	1069.05
447.16	1067.36
447.53	1066.64
447.90	1059.93
448.27	1053.71
448.64	1045.31
449.01	1039.31
449.37	1027.74
449.74	1016.88
450.11	1005.95
450.48	990.71
450.85	974.74
451.22	962.00
451.59	950.33
451.96	939.38
452.33	924.07
452.70	909.79
453.07	892.67
453.43	872.81
453.80	856.07
454.17	840.74
454.54	825.40
454.91	809.33
455.28	793.40
455.65	778.76
456.02	766.93
456.38	754.21
456.75	738.50
457.12	725.79
457.49	713.07
457.86	698.60
458.23	689.29
458.59	677.67
458.96	666.02
459.33	655.52
459.70	644.93
460.07	636.62
460.43	627.14
460.80	618.64
461.17	611.67
461.54	603.83
461.91	595.50
462.27	587.31
462.64	580.64
463.01	573.26
463.38	567.17
463.74	557.21
464.11	550.57
464.48	545.05
464.85	538.76
465.21	534.69
465.58	529.74
465.95	522.71
466.32	517.60
466.68	511.88
467.05	506.74
467.42	501.55
467.78	495.86
468.15	490.90
468.52	487.19
468.88	481.81
469.25	476.81
469.62	473.52
469.98	469.74
470.35	466.43
470.72	462.79
471.08	457.76
471.45	454.98
471.82	452.38
472.18	448.64
472.55	446.21
472.92	442.05
473.28	439.05
473.65	437.02
474.02	434.52
474.38	432.81
474.75	430.64
475.11	428.19
475.48	427.00
475.85	425.05
476.21	423.29
476.58	421.69
476.94	420.83
477.31	419.45
477.67	418.55
478.04	417.24
478.41	416.14
478.77	417.67
479.14	416.19
479.50	415.19
479.87	415.05
480.23	414.67
480.60	414.45
480.96	414.60
481.33	415.26
481.69	415.38
482.06	415.38
482.42	415.86
482.79	416.19
483.15	415.95
483.52	417.21
483.88	417.67
484.25	418.50
484.61	419.21
484.98	420.29
485.34	422.02
485.71	423.40
486.07	425.19
486.44	424.64
486.80	426.67
487.17	428.21
487.53	430.62
487.90	432.79
488.26	435.81
488.62	437.95
488.99	439.62
489.35	442.10
489.72	444.86
490.08	447.07
490.44	449.74
490.81	453.43
491.17	456.21
491.54	459.57
491.90	463.26
492.26	466.60
492.63	470.40
492.99	473.81
493.36	477.71
493.72	481.93
494.08	486.45
494.45	491.19
494.81	496.38
495.17	500.79
495.54	505.62
495.90	510.24
496.26	515.76
496.63	521.10
496.99	526.76
497.35	532.45
497.72	538.67
498.08	544.93
498.44	550.79
498.80	557.33
499.17	563.48
499.53	569.69
499.89	577.02
500.26	583.57
500.62	590.31
500.98	597.90
501.34	605.50
501.71	612.76
502.07	619.36
502.43	626.05
502.79	633.02
503.16	640.26
503.52	647.64
503.88	654.52
504.24	662.02
504.60	669.24
504.97	677.17
505.33	684.40
505.69	692.95
506.05	700.79
506.41	708.17
506.78	715.98
507.14	723.38
507.50	730.83
507.86	738.76
508.22	746.36
508.59	753.10
508.95	760.17
509.31	768.90
509.67	776.98
510.03	784.36
510.39	792.31
510.75	800.50
511.12	807.98
511.48	815.64
511.84	823.07
512.20	830.12
512.56	837.33
512.92	845.19
513.28	852.12
513.64	859.55
514.00	866.74
514.37	874.10
514.73	881.76
515.09	889.19
515.45	895.79
515.81	903.00
516.17	910.05
516.53	916.50
516.89	921.62
517.25	928.14
517.61	935.33
517.97	941.60
518.33	946.98
518.69	953.40
519.05	959.36
519.41	965.69
519.77	973.76
520.13	979.62
520.49	985.62
520.85	991.33
521.21	997.71
521.57	1004.24
521.93	1009.26
522.29	1014.81
522.65	1019.88
523.01	1025.55
523.37	1030.19
523.73	1035.60
524.09	1040.29
524.45	1045.86
524.81	1050.57
525.17	1055.00
525.53	1059.62
525.89	1064.71
526.25	1070.02
526.61	1074.40
526.97	1078.71
527.33	1082.10
527.68	1088.17
528.04	1092.40
528.40	1096.98
528.76	1100.60
529.12	1104.10
529.48	1109.19
529.84	1113.05
530.20	1117.24
530.56	1120.95
530.91	1125.90
531.27	1129.74
531.63	1134.40
531.99	1138.17
532.35	1142.40
532.71	1146.19
533.07	1150.57
533.42	1157.48
533.78	1161.29
534.14	1165.98
534.50	1169.98
534.86	1174.38
535.21	1176.88
535.57	1180.98
535.93	1184.07
536.29	1189.05
536.65	1193.12
537.00	1196.24
537.36	1199.79
537.72	1203.07
538.08	1206.88
538.44	1209.52
538.79	1212.71
539.15	1215.69
539.51	1219.98
539.87	1222.98
540.22	1226.81
540.58	1229.98
540.94	1230.26
541.29	1232.69
541.65	1234.36
542.01	1237.45
542.37	1239.55
542.72	1241.40
543.08	1243.76
543.44	1246.95
543.79	1247.43
544.15	1250.36
544.51	1253.57
544.87	1256.31
545.22	1259.05
545.58	1262.00
545.94	1264.24
546.29	1267.76
546.65	1270.33
547.01	1271.62
547.36	1274.36
547.72	1277.00
548.07	1280.07
548.43	1282.57
548.79	1285.10
549.14	1288.31
549.50	1291.17
549.86	1293.83
550.21	1297.05
550.57	1299.83
550.92	1302.14
551.28	1306.45
551.64	1309.21
551.99	1312.07
552.35	1315.19
552.70	1318.83
553.06	1322.02
553.41	1325.48
553.77	1329.24
554.13	1332.95
554.48	1337.33
554.84	1341.74
555.19	1344.93
555.55	1349.67
555.90	1353.74
556.26	1357.83
556.61	1361.67
556.97	1364.88
557.32	1368.69
557.68	1372.93
558.03	1377.31
558.39	1381.43
558.74	1384.29
559.10	1388.33
559.45	1392.98
559.81	1397.26
560.16	1400.69
560.52	1404.02
560.87	1408.98
561.23	1412.26
561.58	1418.57
561.94	1422.38
562.29	1425.60
562.64	1430.88
563.00	1433.45
563.35	1437.62
563.71	1442.10
564.06	1447.48
564.42	1452.74
564.77	1458.71
565.12	1464.55
565.48	1471.98
565.83	1478.21
566.19	1484.45
566.54	1489.93
566.89	1494.12
567.25	1501.29
567.60	1508.52
567.96	1517.00
568.31	1523.40
568.66	1530.36
569.02	1534.40
569.37	1540.57
569.72	1546.50
570.08	1551.31
570.43	1557.19
570.78	1563.64
571.14	1569.67
571.49	1575.21
571.84	1580.67
572.20	1584.95
572.55	1590.00
572.90	1592.74
573.26	1597.14
573.61	1601.55
573.96	1606.26
574.31	1611.88
574.67	1615.02
575.02	1617.95
575.37	1620.57
575.72	1623.79
576.08	1628.45
576.43	1632.29
576.78	1635.40
577.13	1639.52
577.49	1643.26
577.84	1647.76
578.19	1650.62
578.54	1654.74
578.90	1658.93
579.25	1662.31
579.60	1665.79
579.95	1668.48
580.30	1672.29
580.66	1676.33
581.01	1679.45
581.36	1682.02
581.71	1684.71
582.06	1689.38
582.42	1693.81
582.77	1696.60
583.12	1699.79
583.47	1701.00
583.82	1704.67
584.17	1708.14
584.53	1712.05
584.88	1715.57
585.23	1719.86
585.58	1723.36
585.93	1724.88
586.28	1727.00
586.63	1730.10
586.98	1734.48
587.34	1738.83
587.69	1740.86
588.04	1742.76
588.39	1745.81
588.74	1747.93
589.09	1750.57
589.44	1750.67
589.79	1752.67
590.14	1754.83
590.49	1755.93
590.84	1758.17
591.19	1759.88
591.54	1762.19
591.89	1763.07
592.25	1766.62
592.60	1765.81
592.95	1768.07
593.30	1770.14
593.65	1771.50
594.00	1772.12
594.35	1777.31
594.70	1776.45
595.05	1777.67
595.40	1778.33
595.75	1779.33
596.10	1781.31
596.45	1782.05
596.80	1783.43
597.15	1783.31
597.50	1781.95
597.85	1783.95
598.19	1784.31
598.54	1784.21
598.89	1783.93
599.24	1784.98
599.59	1783.05
599.94	1784.10
600.29	1783.83
600.64	1783.24
600.99	1782.62
601.34	1782.90
601.69	1777.24
602.04	1776.95
602.39	1776.81
602.74	1777.29
603.08	1776.67
603.43	1777.36
603.78	1776.71
604.13	1776.31
604.48	1776.00
604.83	1778.05
605.18	1777.69
605.53	1777.21
605.87	1776.07
606.22	1775.40
606.57	1773.31
606.92	1772.90
607.27	1772.12
607.62	1770.64
607.96	1771.17
608.31	1770.93
608.66	1770.26
609.01	1768.90
609.36	1767.88
609.70	1766.43
610.05	1762.86
610.40	1761.14
610.75	1758.50
611.10	1757.17
611.44	1754.55
611.79	1752.05
612.14	1748.64
612.49	1744.95
612.83	1742.57
613.18	1739.88
613.53	1736.60
613.88	1734.05
614.22	1730.26
614.57	1725.76
614.92	1722.45
615.27	1718.12
615.61	1713.21
615.96	1708.93
616.31	1705.19
616.65	1702.88
617.00	1699.86
617.35	1698.19
617.70	1694.12
618.04	1689.81
618.39	1685.29
618.74	1681.79
619.08	1677.81
619.43	1674.69
619.78	1671.79
620.12	1668.17
620.47	1664.74
620.82	1660.36
621.16	1656.12
621.51	1653.38
621.85	1650.02
622.20	1645.98
622.55	1642.07
622.89	1639.60
623.24	1636.76
623.59	1633.24
623.93	1629.50
624.28	1625.26
624.62	1623.14
624.97	1620.90
625.32	1617.02
625.66	1613.79
626.01	1609.24
626.35	1606.69
626.70	1602.79
627.04	1598.67
627.39	1594.33
627.73	1591.48
628.08	1588.86
628.43	1584.50
628.77	1580.02
629.12	1576.33
629.46	1573.17
629.81	1568.76
630.15	1563.79
630.50	1559.29
630.84	1555.45
631.19	1549.45
631.53	1544.55
631.88	1536.64
632.22	1530.98
632.57	1527.52
632.91	1522.55
633.26	1518.45
633.60	1513.14
633.95	1507.14
634.29	1502.21
634.64	1498.31
634.98	1492.33
635.32	1488.36
635.67	1485.48
636.01	1481.40
636.36	1476.45
636.70	1472.05
637.05	1468.19
637.39	1464.67
637.73	1459.88
638.08	1456.12
638.42	1452.05
638.77	1448.45
639.11	1444.69
639.45	1439.45
639.80	1433.24
640.14	1428.55
640.49	1423.90
640.83	1418.00
641.17	1414.69
641.52	1409.43
641.86	1404.19
642.20	1400.43
642.55	1394.36
642.89	1387.76
643.23	1382.33
643.58	1377.50
643.92	1370.79
644.26	1364.48
644.61	1358.40
644.95	1353.00
645.29	1345.98
645.64	1340.98
645.98	1334.74
646.32	1329.69
646.66	1323.95
647.01	1317.93
647.35	1312.67
647.69	1306.60
648.04	1301.64
648.38	1296.17
648.72	1290.45
649.06	1283.74
649.41	1276.88
649.75	1270.86
650.09	1265.26
650.43	1258.60
650.78	1252.57
651.12	1246.38
651.46	1240.14
651.80	1234.40
652.14	1228.52
652.49	1222.79
652.83	1215.76
653.17	1209.31
653.51	1202.60
653.85	1196.79
654.20	1190.57
654.54	1182.88
654.88	1176.38
655.22	1170.64
655.56	1163.17
655.90	1157.05
656.25	1151.10
656.59	1145.12
656.93	1138.50
657.27	1133.62
657.61	1127.26
657.95	1121.12
658.29	1115.36
658.64	1109.76
658.98	1102.81
659.32	1095.69
659.66	1089.62
660.00	1083.90
660.34	1077.19
660.68	1071.43
661.02	1065.33
661.36	1059.38
661.70	1054.62
662.05	1048.29
662.39	1042.38
662.73	1036.57
663.07	1031.29
663.41	1025.12
663.75	1018.83
664.09	1013.62
664.43	1006.50
664.77	1000.83
665.11	994.05
665.45	988.29
665.79	982.36
666.13	976.57
666.47	970.95
666.81	964.90
667.15	958.79
667.49	953.74
667.83	948.26
668.17	942.40
668.51	936.71
668.85	930.38
669.19	925.93
669.53	919.21
669.87	913.02
670.21	906.69
670.55	900.88
670.89	896.19
671.23	890.79
671.57	885.83
671.91	880.29
672.25	875.60
672.58	870.40
672.92	864.45
673.26	859.48
673.60	853.88
673.94	848.48
674.28	843.33
674.62	837.95
674.96	832.43
675.30	827.36
675.64	822.69
675.97	817.57
676.31	812.31
676.65	807.19
676.99	803.57
677.33	798.31
677.67	793.71
678.01	787.93
678.34	782.74
678.68	777.71
679.02	772.55
679.36	767.79
679.70	761.93
680.04	757.38
680.37	752.07
680.71	747.26
681.05	743.07
681.39	738.36
681.73	733.29
682.06	728.62
682.40	724.29
682.74	720.14
683.08	716.24
683.42	710.98
683.75	706.86
684.09	701.00
684.43	696.64
684.77	691.67
685.10	687.00
685.44	682.31
685.78	677.40
686.12	673.17
686.45	668.10
686.79	663.52
687.13	659.33
687.46	654.79
687.80	651.00
688.14	646.26
688.48	642.12
688.81	637.62
689.15	633.69
689.49	628.98
689.82	623.98
690.16	618.60
690.50	614.07
690.83	609.40
691.17	605.36
691.51	601.07
691.84	597.40
692.18	593.17
692.52	588.86
692.85	584.83
693.19	581.52
693.52	577.60
693.86	573.60
694.20	569.17
694.53	565.40
694.87	560.71
695.21	556.07
695.54	551.55
695.88	547.43
696.21	542.38
696.55	538.67
696.88	534.69
697.22	531.26
697.56	528.12
697.89	524.17
698.23	521.14
698.56	517.50
698.90	513.74
699.23	510.05
699.57	506.52
699.90	502.40
700.24	497.98
700.58	494.26
700.91	491.40
701.25	490.17
701.58	487.95
701.92	485.74
702.25	483.33
702.59	480.10
702.92	477.29
703.26	474.33
703.59	470.98
703.93	469.64
704.26	466.95
704.60	464.00
704.93	461.10
705.26	457.43
705.60	454.90
705.93	451.83
706.27	449.71
706.60	447.24
706.94	445.95
707.27	443.33
707.61	440.90
707.94	438.05
708.27	433.40
708.61	429.76
708.94	426.62
709.28	423.88
709.61	421.43
709.94	419.07
710.28	416.83
710.61	414.52
710.95	410.26
711.28	409.26
711.61	406.83
711.95	404.62
712.28	402.17
712.61	399.62
712.95	398.21
713.28	396.60
713.61	393.95
713.95	390.74
714.28	388.71
714.61	386.33
714.95	384.38
715.28	382.33
715.61	379.79
715.95	377.95
716.28	375.71
716.61	374.12
716.95	372.21
717.28	370.02
717.61	367.86
717.94	366.05
718.28	362.33
718.61	360.52
718.94	358.50
719.27	356.88
719.61	354.79
719.94	352.33
720.27	349.43
720.60	347.62
720.94	345.74
721.27	343.86
721.60	342.62
721.93	340.88
722.27	340.24
722.60	339.05
722.93	337.19
723.26	335.81
723.59	333.81
723.93	332.29
724.26	330.90
724.59	329.33
724.92	328.45
725.25	327.79
725.59	326.29
725.92	325.29
726.25	324.05
726.58	323.17
726.91	322.05
727.24	321.14
727.57	320.00
727.91	318.50
728.24	317.71
728.57	316.02
728.90	315.12
729.23	312.98
729.56	312.60
729.89	311.60
730.22	310.21
730.55	309.02
730.89	307.90
731.22	306.64
731.55	305.62
731.88	304.38
732.21	302.86
732.54	301.45
732.87	300.60
733.20	299.62
733.53	298.86
733.86	297.79
734.19	296.43
734.52	295.90
734.85	296.62
735.18	295.05
735.51	295.12
735.84	294.24
736.17	293.76
736.50	292.02
736.83	293.29
737.16	292.71
737.49	292.19
737.82	291.19
738.15	290.83
738.48	290.21
738.81	289.12
739.14	288.33
739.47	287.57
739.80	286.62
740.13	285.71
740.46	284.50
740.79	283.36
741.12	282.86
741.45	281.52
741.78	279.57
742.11	279.67
742.44	278.29
742.77	277.62
743.10	276.88
743.43	276.17
743.75	273.19
744.08	274.76
744.41	273.76
744.74	272.86
745.07	271.60
745.40	271.10
745.73	271.21
746.06	270.74
746.39	270.21
746.71	269.45
747.04	268.79
747.37	267.86
747.70	267.81
748.03	267.21
748.36	267.19
748.68	266.55
749.01	265.24
749.34	264.74
749.67	264.29
750.00	263.79
750.33	264.62
750.65	264.21
750.98	261.21
751.31	261.10
751.64	260.88
751.97	261.93
752.29	261.10
752.62	259.74
752.95	258.98
753.28	258.38
753.60	257.88
753.93	257.98
754.26	257.67
754.59	256.52
754.91	255.76
755.24	254.81
755.57	254.19
755.90	253.62
756.22	252.69
756.55	251.76
756.88	250.93
757.20	248.88
757.53	247.74
757.86	247.52
758.19	246.81
758.51	246.26
758.84	244.55
759.17	244.07
759.49	243.79
759.82	244.26
760.15	243.83
760.47	243.38
760.80	242.21
761.13	242.24
761.45	241.88
761.78	241.52
762.11	241.02
762.43	240.71
762.76	240.38
763.08	240.62
763.41	240.45
763.74	239.98
764.06	240.05
764.39	240.02
764.71	239.40
765.04	238.95
765.37	238.48
765.69	238.02
766.02	237.62
766.34	237.40
766.67	236.33
767.00	236.48
767.32	237.02
767.65	237.98
767.97	237.21
768.30	236.95
768.62	236.69
768.95	236.31
769.27	235.98
769.60	235.83
769.92	235.07
770.25	234.07
770.57	233.67
770.90	233.21
771.22	232.71
771.55	232.74
771.87	232.48
772.20	232.14
772.52	233.69
772.85	236.02
773.17	235.60
773.50	235.19
773.82	234.74
774.15	233.60
774.47	232.10
774.80	232.00
775.12	232.00
775.45	231.88
775.77	231.83
776.09	231.79
776.42	231.67
776.74	232.05
777.07	232.26
777.39	232.21
777.72	231.76
778.04	231.86
778.36	231.19
778.69	231.17
779.01	231.24
779.33	229.21
779.66	226.62
779.98	226.17
780.31	225.93
780.63	226.31
780.95	226.55
781.28	226.50
781.60	226.31
781.92	226.00
782.25	225.74
782.57	225.69
782.89	225.36
783.22	224.98
783.54	224.43
783.86	224.45
784.19	224.36
784.51	225.12
784.83	224.69
785.16	224.67
785.48	224.64
785.80	224.48
786.12	224.64
786.45	224.52
786.77	224.64
787.09	224.57
787.42	223.98
787.74	224.02
788.06	223.95
788.38	223.62
788.71	223.36
789.03	223.29
789.35	223.21
789.67	222.74
789.99	222.90
790.32	222.50
790.64	222.45
790.96	223.88
791.28	222.90
791.61	222.93
791.93	222.81
792.25	222.57
792.57	224.02
792.89	223.67
793.21	223.98
793.54	223.79
793.86	223.48
794.18	223.52
794.50	222.90
794.82	223.02
795.14	223.40
795.47	223.67
795.79	223.55
796.11	223.33
796.43	223.29
796.75	223.07
797.07	223.19
797.39	223.05
797.71	221.50
798.04	221.52
798.36	221.69
798.68	221.83
799.00	221.90
799.32	220.38
799.64	220.67
799.96	220.29
800.28	220.67
800.60	220.62
800.92	220.69
801.24	220.55
801.56	220.36
801.89	220.10
802.21	220.43
802.53	220.12
802.85	220.31
803.17	221.21
803.49	220.69
803.81	220.55
804.13	220.45
804.45	220.14
804.77	220.55
805.09	220.50
805.41	220.19
805.73	219.71
806.05	219.62
806.37	219.31
806.69	219.07
807.01	218.79
807.33	218.90
807.65	217.98
807.97	218.90
808.28	218.71
808.60	218.50
808.92	218.02
809.24	219.48
809.56	219.17
809.88	218.64
810.20	218.90
810.52	219.29
810.84	219.00
811.16	218.90
811.48	218.60
811.80	219.07
812.12	218.95
812.43	219.14
812.75	219.14
813.07	218.95
813.39	219.19
813.71	218.98
814.03	218.62
814.35	218.86
814.67	217.93
814.98	217.76
815.30	217.79
815.62	217.21
815.94	215.57
816.26	215.81
816.58	215.14
816.89	215.12
817.21	214.36
817.53	214.50
817.85	214.64
818.17	214.69
818.48	213.88
818.80	214.33
819.12	214.21
819.44	213.95
819.76	213.74
820.07	213.50
820.39	213.24
820.71	213.33
821.03	213.43
821.34	213.36
821.66	213.83
821.98	213.88
822.30	213.90
822.61	215.29
822.93	214.86
823.25	214.98
823.57	215.00
823.88	215.55
824.20	215.57
824.52	215.76
824.83	215.64
825.15	215.60
825.47	215.60
825.79	215.79
826.10	215.64
826.42	215.52
826.74	216.07
827.05	216.12
827.37	216.45
827.69	216.50
828.00	216.57
828.32	216.43
828.64	216.21
828.95	217.33
829.27	216.62
829.58	216.62
829.90	216.90
830.22	216.81
830.53	216.33
830.85	215.95
831.17	215.60
831.48	215.62
831.80	215.57
832.11	215.17
832.43	214.76
832.75	214.81
833.06	216.05
833.38	215.10
833.69	215.12
834.01	215.26
834.32	215.05
834.64	214.71
834.96	214.71
835.27	214.83
835.59	213.88
835.90	213.50
836.22	213.57
836.53	213.14
836.85	213.00
837.16	215.05
837.48	215.10
837.79	215.48
838.11	215.29
838.42	215.36
838.74	215.62
839.05	215.52
839.37	215.33
839.68	214.33
840.00	214.29
840.31	214.50
840.63	214.31
840.94	213.95
841.26	213.71
841.57	213.57
841.88	213.33
842.20	213.45
842.51	213.36
842.83	213.55
843.14	215.71
843.46	215.93
843.77	214.69
844.08	214.71
844.40	214.40
844.71	214.40
845.03	214.10
845.34	213.79
845.65	213.62
845.97	213.55
846.28	213.57
846.60	213.79
846.91	213.55
847.22	213.29
847.54	213.76
847.85	214.14
848.16	214.05
848.48	214.02
848.79	214.69
849.10	214.79
849.42	214.64
849.73	212.62
850.04	212.50
850.36	211.83
850.67	212.17
850.98	212.19
851.30	212.50
851.61	212.62
851.92	212.83
852.23	213.67
852.55	214.00
852.86	213.93
853.17	214.10
853.49	214.45
853.80	215.12
854.11	215.24
854.42	215.38
854.74	214.88
855.05	215.07
855.36	214.05
855.67	214.12
855.99	214.07
856.30	216.69
856.61	216.55
856.92	216.60
857.23	216.43
857.55	216.17
857.86	215.86
858.17	216.19
858.48	215.93
858.79	215.43
859.11	215.36
859.42	215.31
859.73	215.05
860.04	214.95
860.35	214.29
860.66	213.88
860.98	213.76
861.29	214.24
861.60	214.10
861.91	214.57
862.22	214.02
862.53	213.74
862.84	211.05
863.16	211.69
863.47	211.33
863.78	211.31
864.09	211.45
864.40	211.81
864.71	211.79
865.02	212.00
865.33	211.88
865.64	211.62
865.95	211.55
866.27	212.88
866.58	212.64
866.89	212.83
867.20	212.71
867.51	212.43
867.82	212.24
868.13	212.71
868.44	212.17
868.75	212.93
869.06	212.93
869.37	213.02
869.68	212.26
869.99	212.81
870.30	212.79
870.61	213.00
870.92	212.26
871.23	211.98
871.54	212.07
871.85	212.55
872.16	212.98
872.47	213.02
872.78	211.79
873.09	212.10
873.40	211.93
873.71	212.02
874.02	212.26
874.33	212.17
874.64	211.81
874.95	212.45
875.26	212.10
875.56	212.19
875.87	212.29
876.18	212.48
876.49	214.29
876.80	214.17
877.11	213.95
877.42	214.36
877.73	214.29
878.04	214.07
878.35	214.14
878.66	214.26
878.96	214.10
879.27	214.07
879.58	213.81
879.89	213.52
880.20	214.12
880.51	214.14
880.82	214.24
881.12	214.52
881.43	213.93
881.74	213.62
882.05	213.45
882.36	213.33
882.67	213.33
882.97	211.02
883.28	210.90
883.59	210.64
883.90	210.64
884.21	211.00
884.51	210.88
884.82	210.50
885.13	210.40
885.44	210.33
885.74	210.19
886.05	210.21
886.36	210.31
886.67	209.69
886.98	210.36
887.28	210.79
887.59	210.40
887.90	210.52
888.20	210.62
888.51	211.36
888.82	211.14
889.13	211.40
889.43	213.31
889.74	213.12
890.05	213.29
890.35	213.19
890.66	212.86
890.97	212.76
891.28	212.57
891.58	212.43
891.89	212.52
892.20	212.40
892.50	212.24
892.81	212.19
893.12	212.02
893.42	211.60
893.73	211.40
894.04	211.67
894.34	211.86
894.65	211.83
894.95	211.26
895.26	211.60
895.57	212.31
895.87	210.33
896.18	210.93
896.48	211.05
896.79	210.81
897.10	211.12
897.40	211.29
897.71	211.50
898.01	211.29
898.32	211.62
898.63	211.76
898.93	211.81
899.24	211.90
899.54	211.90
899.85	211.71
900.15	211.69
900.46	211.45
900.76	211.69
901.07	211.60
901.38	211.79
901.68	211.95
901.99	210.98
902.29	211.26
902.60	210.90
902.90	210.69
903.21	211.00
903.51	210.95
903.82	211.52
904.12	211.69
904.43	211.95
904.73	211.60
905.03	212.12
905.34	214.21
905.64	214.21
905.95	214.38
906.25	214.31
906.56	214.26
906.86	214.38
907.17	214.14
907.47	214.43
907.77	214.26
908.08	213.81
908.38	213.90
908.69	214.19
908.99	214.64
909.30	214.76
909.60	214.71
909.90	214.79
910.21	213.81
910.51	213.60
910.81	213.57
911.12	213.81
911.42	213.55
911.73	211.33
912.03	211.40
912.33	211.79
912.64	211.90
912.94	211.62
913.24	211.24
913.55	211.14
913.85	210.93
914.15	211.36
914.46	211.76
914.76	211.76
915.06	211.48
915.37	211.14
915.67	211.10
915.97	210.95
916.27	210.71
916.58	211.12
916.88	210.95
917.18	211.05
917.49	212.71
917.79	212.67
918.09	213.02
918.39	213.69
918.70	213.40
919.00	213.29
919.30	214.31
919.60	214.38
919.91	214.26
920.21	214.31
920.51	213.88
920.81	213.43
921.12	213.67
921.42	213.74
921.72	213.76
922.02	213.76
922.32	214.17
922.63	214.38
922.93	215.29
923.23	215.43
923.53	215.12
923.83	213.60
924.13	213.74
924.44	213.81
924.74	213.98
925.04	214.48
925.34	214.17
925.64	213.19
925.94	213.33
926.24	214.31
926.55	214.00
926.85	214.17
927.15	214.31
927.45	214.24
927.75	214.14
928.05	214.31
928.35	214.14
928.65	214.36
928.95	214.36
929.26	213.62
929.56	214.00
929.86	214.29
930.16	214.24
930.46	213.90
930.76	213.98
931.06	213.02
931.36	212.45
931.66	212.81
931.96	213.14
932.26	213.19
932.56	212.50
932.86	212.76
933.16	212.74
933.46	212.71
933.76	212.33
934.06	213.02
934.36	213.62
934.66	213.64
934.96	213.48
935.26	213.38
935.56	213.45
935.86	212.98
936.16	212.60
936.46	212.10
936.76	212.10
937.06	211.83
937.36	212.17
937.66	212.45
937.96	212.50
938.26	212.07
938.56	211.90
938.86	211.71
939.16	212.10
939.46	212.10
939.76	212.10
940.06	212.17
940.35	211.33
940.65	210.26
940.95	210.33
941.25	209.81
941.55	209.71
941.85	209.67
942.15	210.19
942.45	210.83
942.75	211.14
943.04	211.29
943.34	211.38
943.64	210.93
943.94	210.55
944.24	210.74
944.54	210.83
944.84	210.71
945.13	210.67
945.43	210.45
945.73	210.33
946.03	210.36
946.33	210.12
946.62	210.24
946.92	210.26
947.22	210.38
947.52	210.29
947.82	210.40
948.11	210.31
948.41	209.60
948.71	209.02
949.01	208.83
949.31	208.69
949.60	208.50
949.90	208.71
950.20	208.79
950.50	208.52
950.79	208.36
951.09	208.83
951.39	208.74
951.69	208.64
951.98	209.05
952.28	209.26
952.58	209.36
952.87	209.31
953.17	209.55
953.47	209.48
953.76	209.64
954.06	209.36
954.36	209.07
954.66	208.98
954.95	209.57
955.25	209.74
955.55	209.88
955.84	209.71
956.14	210.17
956.44	210.19
956.73	209.86
957.03	210.12
957.32	210.02
957.62	209.79
957.92	210.17
958.21	209.95
958.51	212.31
958.81	212.71
959.10	212.86
959.40	213.40
959.69	213.43
959.99	213.69
960.29	213.69
960.58	213.52
960.88	214.64
961.17	214.21
961.47	214.60
961.76	214.33
962.06	214.74
962.36	214.38
962.65	214.26
962.95	214.40
963.24	214.05
963.54	214.17
963.83	214.71
964.13	214.40
964.42	213.86
964.72	211.98
965.01	211.76
965.31	211.81
965.60	211.38
965.90	212.60
966.19	212.24
966.49	212.50
966.78	212.38
967.08	212.00
967.37	212.19
967.67	211.90
967.96	212.36
968.26	212.19
968.55	212.52
968.85	212.90
969.14	213.05
969.43	213.21
969.73	212.95
970.02	212.83
970.32	212.81
970.61	213.12
970.91	212.50
971.20	212.40
971.49	212.00
971.79	212.38
972.08	211.07
972.38	211.26
972.67	211.00
972.96	211.48
973.26	211.14
973.55	211.83
973.85	211.64
974.14	211.50
974.43	211.88
974.73	211.69
975.02	211.19
975.31	211.07
975.61	210.95
975.90	210.83
976.19	210.57
976.49	210.76
976.78	210.86
977.07	211.00
977.37	211.21
977.66	211.64
977.95	211.12
978.24	211.33
978.54	211.81
978.83	211.81
979.12	211.48
979.42	211.43
979.71	210.76
980.00	210.74
980.29	210.79
980.59	210.29
980.88	210.81
981.17	210.64
981.46	210.74
981.76	210.86
982.05	211.62
982.34	211.88
982.63	211.86
982.93	211.79
983.22	212.19
983.51	212.19
983.80	212.33
984.09	212.64
984.39	212.50
984.68	212.17
984.97	212.24
985.26	212.40
985.55	212.62
985.85	212.05
986.14	212.17
986.43	212.40
986.72	212.17
987.01	211.07
987.30	211.24
987.59	210.98
987.89	211.12
988.18	210.26
988.47	209.86
988.76	209.74
989.05	209.48
989.34	209.10
989.63	209.50
989.92	209.26
990.22	209.14
990.51	209.14
990.80	209.19
991.09	209.50
991.38	209.67
991.67	209.31
991.96	209.52
992.25	209.86
992.54	209.31
992.83	209.40
993.12	209.74
993.41	210.07
993.70	210.86
993.99	211.36
994.28	211.81
994.58	212.12
994.87	211.81
995.16	211.81
995.45	211.48
995.74	210.81
996.03	211.14
996.32	211.21
996.61	211.57
996.90	211.40
997.19	211.31
997.48	211.38
997.77	211.38
998.06	211.45
998.34	211.17
998.63	211.36
998.92	211.55
999.21	211.62
999.50	211.76
999.79	211.33
1000.08	211.14
1000.37	211.12
1000.66	211.10
1000.95	211.62
1001.24	211.88
1001.53	212.14
1001.82	212.17
1002.11	211.48
1002.40	211.88
1002.68	212.10
1002.97	213.43
1003.26	212.98
1003.55	212.83
1003.84	212.90
1004.13	213.57
1004.42	213.45
1004.71	213.36
1004.99	213.21
1005.28	214.12
1005.57	213.88
1005.86	213.48
1006.15	213.07
1006.44	212.69
1006.72	212.83
1007.01	212.64
1007.30	212.71
1007.59	212.76
1007.88	212.81
1008.17	213.07
1008.45	212.33
1008.74	211.43
1009.03	210.50
1009.32	210.69
1009.60	210.55
1009.89	210.21
1010.18	209.17
1010.47	209.24
1010.76	209.17
1011.04	209.02
1011.33	208.76
1011.62	208.83
1011.91	208.95
1012.19	208.76
1012.48	208.79
1012.77	208.67
1013.05	209.36
1013.34	209.31
1013.63	209.10
1013.92	209.10
1014.20	208.90
1014.49	209.33
1014.78	209.69
1015.06	209.26
1015.35	209.07
1015.64	209.31
1015.92	209.98
1016.21	210.43
1016.50	210.24
1016.78	210.64
1017.07	210.88
1017.36	210.48
1017.64	210.05
1017.93	210.38
1018.22	210.55
1018.50	210.38
1018.79	210.40
1019.08	209.71
1019.36	209.83
1019.65	209.79
1019.93	210.26
1020.22	210.55
1020.51	211.48
1020.79	211.24
1021.08	206.50
1021.36	203.50
1021.65	210.50
1021.94	212.50
1022.22	212.50
1022.51	208.00
1022.79	218.50
1023.08	211.00
1023.36	237.00
1023.65	204.00
>>>>>End Processed Spectral Data<<<<<
