SpectraSuite Data File
++++++++++++++++++++++++++++++++++++
Date: Tue Apr 02 18:44:06 EDT 2013
User: group
Dark Spectrum Present: No
Reference Spectrum Present: No
Number of Sampled Component Spectra: 1
Spectrometers: USB2E7196
Integration Time (usec): 580000 (USB2E7196)
Spectra Averaged: 2 (USB2E7196)
Boxcar Smoothing: 10 (USB2E7196)
Correct for Electrical Dark: No (USB2E7196)
Strobe/Lamp Enabled: No (USB2E7196)
Correct for Detector Non-linearity: No (USB2E7196)
Correct for Stray Light: No (USB2E7196)
Number of Pixels in Processed Spectrum: 2048
>>>>>Begin Processed Spectral Data<<<<<
339.09	0.00
339.48	194.50
339.86	195.50
340.24	196.00
340.63	197.00
341.01	231.00
341.39	203.00
341.78	207.00
342.16	210.50
342.54	204.50
342.93	197.79
343.31	207.45
343.69	208.17
344.07	208.57
344.46	209.31
344.84	209.76
345.22	208.57
345.60	208.93
345.99	209.19
346.37	209.31
346.75	209.67
347.13	209.62
347.52	209.57
347.90	210.38
348.28	210.48
348.66	210.90
349.05	210.24
349.43	210.33
349.81	210.67
350.19	210.67
350.57	210.71
350.96	210.64
351.34	211.07
351.72	211.10
352.10	211.14
352.48	211.00
352.87	210.98
353.25	211.24
353.63	210.93
354.01	210.64
354.39	210.62
354.77	210.48
355.15	210.90
355.54	210.52
355.92	209.93
356.30	209.71
356.68	211.12
357.06	211.31
357.44	211.33
357.82	211.24
358.20	212.10
358.58	212.24
358.97	212.52
359.35	212.71
359.73	213.21
360.11	213.24
360.49	213.45
360.87	213.57
361.25	213.69
361.63	214.57
362.01	214.83
362.39	214.81
362.77	215.10
363.15	214.90
363.53	215.14
363.91	215.21
364.29	215.38
364.67	213.33
365.05	213.26
365.43	213.71
365.81	214.00
366.19	214.19
366.57	214.90
366.95	214.86
367.33	214.50
367.71	214.17
368.09	214.62
368.47	214.67
368.85	214.74
369.23	215.26
369.61	214.62
369.99	215.33
370.37	215.55
370.75	216.36
371.13	216.24
371.51	216.17
371.89	216.31
372.27	216.60
372.65	216.86
373.03	217.19
373.41	216.74
373.78	216.83
374.16	215.81
374.54	215.24
374.92	215.07
375.30	215.31
375.68	214.86
376.06	215.02
376.44	214.83
376.82	214.93
377.19	214.57
377.57	214.36
377.95	213.57
378.33	213.24
378.71	212.02
379.09	212.31
379.47	212.29
379.84	212.12
380.22	211.88
380.60	211.62
380.98	211.38
381.36	211.38
381.73	210.79
382.11	211.07
382.49	211.21
382.87	210.98
383.25	210.83
383.62	213.48
384.00	213.12
384.38	213.26
384.76	213.69
385.13	214.50
385.51	214.79
385.89	214.55
386.27	214.71
386.64	214.90
387.02	214.79
387.40	214.81
387.78	214.90
388.15	214.95
388.53	215.05
388.91	215.07
389.29	214.90
389.66	215.33
390.04	215.17
390.42	215.57
390.79	215.95
391.17	216.05
391.55	213.57
391.92	213.67
392.30	213.55
392.68	213.14
393.05	212.95
393.43	212.93
393.81	213.02
394.18	212.90
394.56	213.14
394.94	213.71
395.31	213.48
395.69	214.29
396.06	214.45
396.44	214.38
396.82	214.26
397.19	215.36
397.57	214.88
397.95	215.40
398.32	214.62
398.70	214.88
399.07	215.45
399.45	215.52
399.82	215.45
400.20	215.38
400.58	215.29
400.95	214.64
401.33	215.19
401.70	217.12
402.08	217.17
402.45	217.19
402.83	217.52
403.20	217.86
403.58	217.48
403.95	218.12
404.33	218.60
404.71	219.19
405.08	220.31
405.46	220.90
405.83	221.17
406.21	221.50
406.58	221.90
406.96	221.93
407.33	222.74
407.70	223.48
408.08	225.98
408.45	227.10
408.83	228.00
409.20	228.21
409.58	227.52
409.95	228.71
410.33	229.81
410.70	230.07
411.08	231.24
411.45	232.36
411.82	232.86
412.20	234.83
412.57	237.00
412.95	236.71
413.32	238.50
413.69	239.76
414.07	241.57
414.44	243.21
414.82	245.05
415.19	247.36
415.56	249.57
415.94	250.48
416.31	253.00
416.68	255.79
417.06	259.29
417.43	262.81
417.81	266.14
418.18	269.67
418.55	273.52
418.93	277.62
419.30	282.00
419.67	286.81
420.04	290.88
420.42	295.07
420.79	302.05
421.16	307.60
421.54	314.93
421.91	321.31
422.28	327.38
422.66	334.12
423.03	341.76
423.40	348.74
423.77	355.88
424.15	363.12
424.52	371.00
424.89	379.26
425.26	387.00
425.64	394.14
426.01	402.40
426.38	411.26
426.75	420.60
427.13	429.29
427.50	438.40
427.87	448.40
428.24	457.86
428.61	466.40
428.99	477.71
429.36	487.38
429.73	498.14
430.10	509.86
430.47	521.52
430.85	532.62
431.22	545.31
431.59	560.31
431.96	573.02
432.33	586.81
432.70	600.57
433.08	616.12
433.45	631.48
433.82	646.64
434.19	663.71
434.56	680.45
434.93	696.45
435.30	712.55
435.68	729.62
436.05	747.50
436.42	764.38
436.79	780.26
437.16	797.81
437.53	815.95
437.90	833.43
438.27	851.07
438.64	868.88
439.01	885.95
439.38	899.57
439.75	914.48
440.13	931.12
440.50	946.90
440.87	959.86
441.24	973.00
441.61	988.21
441.98	998.43
442.35	1011.00
442.72	1023.95
443.09	1036.98
443.46	1045.10
443.83	1050.33
444.20	1055.10
444.57	1060.79
444.94	1063.93
445.31	1066.83
445.68	1072.43
446.05	1074.29
446.42	1073.26
446.79	1072.71
447.16	1070.45
447.53	1069.74
447.90	1063.31
448.27	1056.40
448.64	1047.76
449.01	1041.90
449.37	1030.40
449.74	1019.67
450.11	1007.93
450.48	993.29
450.85	977.64
451.22	964.98
451.59	953.33
451.96	941.88
452.33	926.48
452.70	912.50
453.07	896.45
453.43	877.43
453.80	860.79
454.17	845.02
454.54	828.24
454.91	812.57
455.28	796.33
455.65	782.12
456.02	771.07
456.38	758.79
456.75	743.64
457.12	730.24
457.49	717.79
457.86	703.31
458.23	693.45
458.59	682.24
458.96	670.19
459.33	659.29
459.70	648.79
460.07	640.40
460.43	630.79
460.80	621.81
461.17	614.19
461.54	605.74
461.91	597.31
462.27	589.40
462.64	582.40
463.01	574.95
463.38	567.76
463.74	557.00
464.11	550.21
464.48	544.40
464.85	538.40
465.21	533.76
465.58	528.64
465.95	521.38
466.32	516.57
466.68	511.02
467.05	505.90
467.42	500.55
467.78	494.90
468.15	489.81
468.52	486.17
468.88	480.64
469.25	476.19
469.62	473.24
469.98	469.52
470.35	466.00
470.72	462.29
471.08	457.86
471.45	455.21
471.82	452.52
472.18	449.14
472.55	446.19
472.92	442.90
473.28	440.05
473.65	437.79
474.02	434.90
474.38	433.38
474.75	431.36
475.11	429.05
475.48	427.93
475.85	426.26
476.21	424.43
476.58	423.24
476.94	422.31
477.31	420.45
477.67	419.12
478.04	417.83
478.41	417.02
478.77	418.52
479.14	417.26
479.50	416.45
479.87	415.88
480.23	415.76
480.60	415.07
480.96	415.14
481.33	416.02
481.69	415.86
482.06	415.81
482.42	416.48
482.79	417.26
483.15	417.55
483.52	418.60
483.88	418.69
484.25	418.95
484.61	419.40
484.98	420.45
485.34	422.19
485.71	423.67
486.07	424.76
486.44	424.36
486.80	426.26
487.17	428.17
487.53	430.60
487.90	432.64
488.26	435.55
488.62	438.19
488.99	439.62
489.35	442.21
489.72	444.88
490.08	447.40
490.44	450.33
490.81	453.50
491.17	456.19
491.54	459.88
491.90	463.98
492.26	467.67
492.63	471.45
492.99	474.83
493.36	479.05
493.72	483.55
494.08	487.74
494.45	492.26
494.81	496.81
495.17	501.26
495.54	506.50
495.90	510.88
496.26	516.05
496.63	521.74
496.99	527.19
497.35	532.57
497.72	538.40
498.08	544.02
498.44	550.10
498.80	557.07
499.17	563.43
499.53	569.48
499.89	576.50
500.26	582.48
500.62	589.29
500.98	596.24
501.34	603.60
501.71	611.02
502.07	617.69
502.43	624.86
502.79	631.93
503.16	639.24
503.52	646.43
503.88	653.10
504.24	660.55
504.60	668.24
504.97	676.52
505.33	683.62
505.69	692.33
506.05	700.00
506.41	706.71
506.78	714.02
507.14	721.83
507.50	729.00
507.86	737.48
508.22	745.19
508.59	752.52
508.95	760.55
509.31	769.40
509.67	778.14
510.03	785.79
510.39	793.45
510.75	801.48
511.12	809.52
511.48	817.52
511.84	825.02
512.20	832.93
512.56	840.55
512.92	848.45
513.28	855.60
513.64	863.24
514.00	870.55
514.37	878.19
514.73	885.05
515.09	892.57
515.45	899.31
515.81	906.71
516.17	913.60
516.53	919.31
516.89	924.50
517.25	930.57
517.61	937.90
517.97	943.93
518.33	949.67
518.69	956.60
519.05	963.26
519.41	969.69
519.77	976.57
520.13	981.76
520.49	987.31
520.85	993.19
521.21	999.31
521.57	1005.90
521.93	1010.93
522.29	1016.50
522.65	1021.79
523.01	1027.10
523.37	1032.33
523.73	1037.36
524.09	1042.60
524.45	1047.83
524.81	1052.67
525.17	1056.81
525.53	1062.67
525.89	1067.62
526.25	1072.17
526.61	1075.86
526.97	1079.64
527.33	1083.52
527.68	1090.36
528.04	1094.81
528.40	1098.38
528.76	1102.21
529.12	1106.10
529.48	1111.62
529.84	1116.12
530.20	1120.52
530.56	1125.40
530.91	1129.48
531.27	1133.98
531.63	1138.50
531.99	1142.29
532.35	1146.38
532.71	1150.55
533.07	1154.31
533.42	1160.64
533.78	1164.67
534.14	1169.69
534.50	1174.64
534.86	1178.76
535.21	1180.67
535.57	1184.76
535.93	1187.83
536.29	1192.26
536.65	1196.43
537.00	1199.31
537.36	1202.79
537.72	1206.57
538.08	1209.76
538.44	1212.31
538.79	1216.21
539.15	1218.79
539.51	1222.74
539.87	1226.40
540.22	1229.64
540.58	1232.62
540.94	1234.05
541.29	1236.74
541.65	1238.79
542.01	1241.55
542.37	1243.62
542.72	1245.43
543.08	1247.67
543.44	1251.07
543.79	1252.76
544.15	1254.81
544.51	1258.79
544.87	1261.95
545.22	1264.79
545.58	1267.95
545.94	1271.40
546.29	1273.86
546.65	1277.26
547.01	1279.55
547.36	1282.26
547.72	1284.33
548.07	1287.05
548.43	1288.71
548.79	1290.12
549.14	1293.26
549.50	1296.83
549.86	1299.79
550.21	1302.95
550.57	1306.45
550.92	1309.02
551.28	1312.17
551.64	1315.79
551.99	1318.07
552.35	1320.43
552.70	1322.12
553.06	1325.10
553.41	1327.83
553.77	1331.86
554.13	1335.26
554.48	1339.12
554.84	1342.71
555.19	1346.52
555.55	1351.98
555.90	1355.86
556.26	1361.21
556.61	1364.21
556.97	1366.36
557.32	1369.79
557.68	1373.90
558.03	1377.40
558.39	1381.57
558.74	1385.57
559.10	1388.95
559.45	1392.98
559.81	1397.57
560.16	1402.05
560.52	1405.81
560.87	1410.52
561.23	1414.10
561.58	1419.83
561.94	1424.36
562.29	1427.74
562.64	1432.64
563.00	1435.57
563.35	1440.33
563.71	1444.83
564.06	1450.38
564.42	1456.79
564.77	1462.76
565.12	1469.07
565.48	1476.60
565.83	1482.26
566.19	1487.76
566.54	1493.93
566.89	1498.45
567.25	1504.83
567.60	1512.10
567.96	1519.88
568.31	1527.33
568.66	1533.52
569.02	1536.93
569.37	1541.02
569.72	1546.67
570.08	1551.71
570.43	1556.90
570.78	1562.55
571.14	1569.29
571.49	1574.40
571.84	1579.24
572.20	1584.05
572.55	1588.45
572.90	1592.07
573.26	1597.02
573.61	1601.62
573.96	1606.12
574.31	1611.31
574.67	1614.31
575.02	1617.31
575.37	1619.60
575.72	1622.45
576.08	1626.33
576.43	1630.29
576.78	1635.36
577.13	1640.12
577.49	1644.33
577.84	1649.12
578.19	1653.98
578.54	1657.02
578.90	1661.19
579.25	1664.64
579.60	1667.64
579.95	1670.29
580.30	1673.38
580.66	1677.29
581.01	1680.69
581.36	1683.57
581.71	1686.48
582.06	1691.62
582.42	1695.93
582.77	1699.14
583.12	1701.69
583.47	1704.90
583.82	1709.95
584.17	1712.93
584.53	1715.55
584.88	1718.88
585.23	1721.45
585.58	1722.60
585.93	1724.76
586.28	1727.33
586.63	1730.64
586.98	1733.69
587.34	1737.67
587.69	1739.74
588.04	1742.19
588.39	1743.81
588.74	1744.76
589.09	1748.12
589.44	1748.31
589.79	1749.93
590.14	1751.40
590.49	1752.69
590.84	1753.90
591.19	1755.38
591.54	1756.64
591.89	1757.69
592.25	1761.00
592.60	1762.45
592.95	1763.71
593.30	1765.24
593.65	1766.10
594.00	1765.26
594.35	1772.17
594.70	1772.60
595.05	1774.36
595.40	1774.33
595.75	1775.36
596.10	1778.02
596.45	1778.26
596.80	1780.79
597.15	1782.07
597.50	1783.17
597.85	1785.21
598.19	1785.86
598.54	1785.19
598.89	1785.17
599.24	1786.52
599.59	1785.07
599.94	1784.12
600.29	1785.26
600.64	1785.10
600.99	1785.07
601.34	1786.76
601.69	1780.83
602.04	1780.29
602.39	1778.95
602.74	1779.31
603.08	1779.71
603.43	1780.21
603.78	1779.14
604.13	1778.02
604.48	1776.88
604.83	1777.60
605.18	1776.00
605.53	1774.88
605.87	1774.40
606.22	1774.31
606.57	1772.67
606.92	1771.62
607.27	1771.12
607.62	1770.21
607.96	1770.52
608.31	1770.71
608.66	1769.12
609.01	1767.43
609.36	1767.43
609.70	1766.90
610.05	1765.02
610.40	1763.36
610.75	1759.50
611.10	1757.76
611.44	1754.21
611.79	1751.05
612.14	1746.64
612.49	1743.00
612.83	1740.50
613.18	1737.55
613.53	1734.57
613.88	1731.48
614.22	1727.45
614.57	1724.24
614.92	1719.83
615.27	1715.55
615.61	1710.93
615.96	1707.38
616.31	1704.02
616.65	1700.57
617.00	1697.36
617.35	1693.79
617.70	1691.36
618.04	1688.69
618.39	1686.29
618.74	1684.07
619.08	1680.90
619.43	1678.24
619.78	1676.67
620.12	1674.17
620.47	1670.33
620.82	1666.24
621.16	1662.55
621.51	1660.07
621.85	1655.98
622.20	1652.33
622.55	1647.50
622.89	1644.90
623.24	1641.64
623.59	1638.05
623.93	1633.67
624.28	1628.81
624.62	1626.64
624.97	1622.74
625.32	1618.81
625.66	1613.86
626.01	1609.12
626.35	1605.79
626.70	1601.55
627.04	1597.26
627.39	1591.98
627.73	1589.83
628.08	1586.55
628.43	1582.26
628.77	1577.76
629.12	1575.05
629.46	1571.88
629.81	1568.88
630.15	1562.57
630.50	1558.07
630.84	1553.48
631.19	1548.64
631.53	1543.93
631.88	1536.93
632.22	1530.71
632.57	1526.74
632.91	1522.50
633.26	1518.93
633.60	1513.26
633.95	1508.26
634.29	1502.81
634.64	1499.10
634.98	1493.00
635.32	1488.88
635.67	1485.33
636.01	1481.40
636.36	1475.98
636.70	1472.31
637.05	1466.86
637.39	1463.45
637.73	1458.88
638.08	1455.40
638.42	1450.62
638.77	1447.07
639.11	1444.02
639.45	1439.57
639.80	1433.48
640.14	1428.24
640.49	1422.50
640.83	1417.48
641.17	1412.12
641.52	1407.10
641.86	1401.60
642.20	1397.40
642.55	1391.17
642.89	1385.50
643.23	1379.45
643.58	1375.17
643.92	1367.43
644.26	1361.64
644.61	1356.10
644.95	1350.31
645.29	1343.17
645.64	1338.10
645.98	1331.57
646.32	1325.29
646.66	1318.55
647.01	1312.83
647.35	1307.55
647.69	1301.60
648.04	1296.31
648.38	1290.86
648.72	1285.14
649.06	1278.86
649.41	1271.93
649.75	1265.98
650.09	1259.88
650.43	1253.36
650.78	1246.12
651.12	1240.14
651.46	1233.86
651.80	1227.05
652.14	1220.71
652.49	1215.57
652.83	1208.43
653.17	1202.12
653.51	1195.26
653.85	1189.90
654.20	1183.60
654.54	1175.57
654.88	1168.36
655.22	1162.79
655.56	1156.21
655.90	1149.55
656.25	1142.93
656.59	1136.07
656.93	1129.62
657.27	1123.55
657.61	1116.86
657.95	1110.79
658.29	1104.64
658.64	1098.45
658.98	1091.98
659.32	1084.57
659.66	1078.07
660.00	1072.33
660.34	1065.95
660.68	1059.64
661.02	1052.71
661.36	1045.79
661.70	1040.14
662.05	1034.36
662.39	1027.45
662.73	1022.00
663.07	1017.43
663.41	1011.29
663.75	1005.36
664.09	999.71
664.43	993.33
664.77	987.57
665.11	980.71
665.45	974.57
665.79	969.19
666.13	963.40
666.47	957.76
666.81	951.36
667.15	944.69
667.49	938.95
667.83	934.00
668.17	928.19
668.51	923.02
668.85	917.93
669.19	913.50
669.53	906.88
669.87	901.19
670.21	894.24
670.55	888.12
670.89	883.50
671.23	878.26
671.57	872.69
671.91	867.29
672.25	862.21
672.58	858.02
672.92	852.24
673.26	847.60
673.60	842.74
673.94	837.50
674.28	832.98
674.62	828.43
674.96	822.57
675.30	817.76
675.64	812.38
675.97	807.07
676.31	801.33
676.65	796.52
676.99	791.88
677.33	787.00
677.67	782.67
678.01	776.83
678.34	771.43
678.68	766.98
679.02	761.55
679.36	756.17
679.70	749.79
680.04	744.40
680.37	738.67
680.71	733.81
681.05	729.26
681.39	724.50
681.73	718.93
682.06	714.31
682.40	709.79
682.74	706.26
683.08	702.26
683.42	697.12
683.75	692.62
684.09	687.43
684.43	682.90
684.77	677.93
685.10	673.71
685.44	668.81
685.78	663.57
686.12	659.52
686.45	655.36
686.79	651.24
687.13	647.76
687.46	643.57
687.80	639.50
688.14	634.83
688.48	630.14
688.81	625.90
689.15	622.31
689.49	617.69
689.82	613.07
690.16	607.67
690.50	603.62
690.83	599.62
691.17	594.86
691.51	590.02
691.84	586.38
692.18	581.95
692.52	578.12
692.85	574.90
693.19	571.90
693.52	568.43
693.86	564.50
694.20	559.90
694.53	555.81
694.87	551.10
695.21	547.19
695.54	543.50
695.88	539.60
696.21	534.71
696.55	531.33
696.88	527.48
697.22	524.29
697.56	521.05
697.89	517.45
698.23	514.36
698.56	510.93
698.90	507.71
699.23	503.83
699.57	500.36
699.90	496.52
700.24	492.33
700.58	488.76
700.91	486.00
701.25	484.74
701.58	482.60
701.92	480.36
702.25	477.43
702.59	473.79
702.92	470.83
703.26	468.24
703.59	465.26
703.93	463.86
704.26	460.83
704.60	457.55
704.93	454.10
705.26	451.02
705.60	449.05
705.93	445.64
706.27	443.52
706.60	441.17
706.94	439.21
707.27	436.12
707.61	433.21
707.94	430.43
708.27	426.00
708.61	422.45
708.94	419.48
709.28	417.02
709.61	414.81
709.94	412.29
710.28	409.71
710.61	407.05
710.95	402.60
711.28	401.69
711.61	399.55
711.95	398.19
712.28	395.62
712.61	393.05
712.95	392.00
713.28	390.74
713.61	388.10
713.95	385.36
714.28	383.45
714.61	381.64
714.95	379.29
715.28	377.19
715.61	375.36
715.95	373.57
716.28	371.17
716.61	369.43
716.95	367.12
717.28	365.26
717.61	363.14
717.94	361.50
718.28	358.07
718.61	356.10
718.94	353.62
719.27	352.14
719.61	350.31
719.94	347.81
720.27	344.71
720.60	342.90
720.94	341.00
721.27	339.48
721.60	337.86
721.93	336.36
722.27	335.33
722.60	333.81
722.93	331.86
723.26	330.60
723.59	328.64
723.93	327.79
724.26	326.45
724.59	324.93
724.92	323.93
725.25	323.21
725.59	321.71
725.92	320.90
726.25	319.74
726.58	318.50
726.91	317.26
727.24	316.45
727.57	315.60
727.91	314.10
728.24	312.98
728.57	311.67
728.90	310.62
729.23	308.90
729.56	308.74
729.89	307.86
730.22	306.43
730.55	305.29
730.89	304.19
731.22	302.90
731.55	302.10
731.88	300.79
732.21	299.31
732.54	298.57
732.87	297.38
733.20	296.10
733.53	295.33
733.86	294.52
734.19	293.38
734.52	292.76
734.85	293.07
735.18	291.79
735.51	291.67
735.84	291.05
736.17	290.67
736.50	288.60
736.83	290.10
737.16	289.29
737.49	288.81
737.82	287.88
738.15	287.33
738.48	286.33
738.81	285.52
739.14	284.45
739.47	283.33
739.80	282.60
740.13	282.14
740.46	280.81
740.79	279.81
741.12	279.17
741.45	277.83
741.78	276.45
742.11	276.62
742.44	275.26
742.77	274.67
743.10	273.55
743.43	272.93
743.75	270.05
744.08	272.14
744.41	271.38
744.74	270.50
745.07	269.21
745.40	269.02
745.73	269.14
746.06	268.57
746.39	267.95
746.71	267.07
747.04	266.02
747.37	265.62
747.70	265.02
748.03	264.36
748.36	264.12
748.68	263.21
749.01	262.00
749.34	261.50
749.67	260.74
750.00	260.57
750.33	261.57
750.65	261.33
750.98	258.40
751.31	257.83
751.64	257.36
751.97	258.07
752.29	257.45
752.62	255.95
752.95	255.38
753.28	255.07
753.60	254.48
753.93	254.81
754.26	254.40
754.59	253.57
754.91	252.79
755.24	252.12
755.57	251.81
755.90	251.19
756.22	250.40
756.55	249.86
756.88	249.02
757.20	247.14
757.53	245.81
757.86	245.31
758.19	245.07
758.51	244.74
758.84	243.45
759.17	242.98
759.49	242.95
759.82	243.86
760.15	243.38
760.47	243.07
760.80	242.17
761.13	242.17
761.45	241.67
761.78	241.40
762.11	241.10
762.43	240.40
762.76	240.14
763.08	240.05
763.41	239.81
763.74	239.52
764.06	239.12
764.39	239.05
764.71	238.74
765.04	238.12
765.37	237.60
765.69	237.29
766.02	236.76
766.34	236.48
766.67	235.43
767.00	235.74
767.32	236.40
767.65	237.14
767.97	236.60
768.30	236.81
768.62	236.74
768.95	236.24
769.27	236.10
769.60	236.24
769.92	235.57
770.25	234.90
770.57	234.60
770.90	234.33
771.22	233.86
771.55	233.62
771.87	233.48
772.20	233.33
772.52	234.83
772.85	237.07
773.17	236.52
773.50	235.95
773.82	235.33
774.15	234.10
774.47	232.74
774.80	232.40
775.12	232.10
775.45	231.60
775.77	231.60
776.09	231.64
776.42	231.38
776.74	232.07
777.07	231.95
777.39	231.69
777.72	231.43
778.04	231.52
778.36	231.07
778.69	231.17
779.01	231.14
779.33	229.05
779.66	226.64
779.98	226.45
780.31	226.38
780.63	227.12
780.95	227.50
781.28	227.45
781.60	227.19
781.92	227.10
782.25	227.14
782.57	227.12
782.89	226.64
783.22	226.43
783.54	225.79
783.86	226.10
784.19	225.93
784.51	226.64
784.83	226.33
785.16	226.12
785.48	225.83
785.80	225.57
786.12	225.90
786.45	225.71
786.77	225.81
787.09	225.74
787.42	224.74
787.74	224.60
788.06	224.52
788.38	224.31
788.71	223.95
789.03	223.74
789.35	223.69
789.67	223.43
789.99	223.48
790.32	223.14
790.64	223.07
790.96	224.50
791.28	223.50
791.61	223.67
791.93	223.83
792.25	223.69
792.57	225.05
792.89	224.60
793.21	224.90
793.54	224.71
793.86	224.33
794.18	224.43
794.50	224.19
794.82	224.05
795.14	224.31
795.47	224.57
795.79	224.64
796.11	224.00
796.43	223.88
796.75	223.71
797.07	223.83
797.39	223.48
797.71	221.88
798.04	222.24
798.36	222.26
798.68	222.14
799.00	221.95
799.32	220.86
799.64	221.26
799.96	220.71
800.28	221.07
800.60	220.74
800.92	220.69
801.24	220.55
801.56	220.52
801.89	220.29
802.21	220.55
802.53	220.14
802.85	220.76
803.17	221.83
803.49	221.36
803.81	220.98
804.13	220.86
804.45	220.76
804.77	220.60
805.09	220.36
805.41	220.31
805.73	219.95
806.05	219.60
806.37	219.17
806.69	219.24
807.01	218.81
807.33	219.40
807.65	218.60
807.97	219.55
808.28	219.36
808.60	219.21
808.92	218.52
809.24	220.05
809.56	219.74
809.88	218.76
810.20	218.88
810.52	219.43
810.84	219.33
811.16	219.50
811.48	219.38
811.80	220.02
812.12	219.90
812.43	220.55
812.75	220.64
813.07	220.43
813.39	220.64
813.71	220.52
814.03	220.07
814.35	220.36
814.67	219.24
814.98	218.93
815.30	218.79
815.62	218.67
815.94	216.93
816.26	216.98
816.58	216.67
816.89	216.69
817.21	216.33
817.53	216.40
817.85	216.26
818.17	215.95
818.48	215.24
818.80	215.57
819.12	214.90
819.44	214.43
819.76	214.29
820.07	214.43
820.39	214.31
820.71	214.50
821.03	214.52
821.34	214.36
821.66	214.98
821.98	215.14
822.30	215.00
822.61	216.52
822.93	216.02
823.25	216.07
823.57	215.86
823.88	216.05
824.20	216.02
824.52	216.24
824.83	216.38
825.15	216.00
825.47	215.95
825.79	216.45
826.10	216.36
826.42	216.38
826.74	216.29
827.05	216.19
827.37	216.12
827.69	216.12
828.00	216.14
828.32	216.02
828.64	215.86
828.95	217.00
829.27	216.00
829.58	216.24
829.90	216.88
830.22	217.10
830.53	216.64
830.85	216.33
831.17	215.67
831.48	215.79
831.80	216.07
832.11	215.90
832.43	215.62
832.75	215.52
833.06	216.55
833.38	215.74
833.69	215.76
834.01	216.05
834.32	215.88
834.64	215.74
834.96	215.62
835.27	215.71
835.59	215.02
835.90	214.86
836.22	214.71
836.53	213.95
836.85	213.69
837.16	215.57
837.48	215.76
837.79	216.48
838.11	216.31
838.42	216.24
838.74	216.21
839.05	216.00
839.37	216.12
839.68	214.98
840.00	215.07
840.31	215.07
840.63	214.86
840.94	214.64
841.26	214.62
841.57	214.69
841.88	214.81
842.20	214.52
842.51	214.38
842.83	214.43
843.14	216.52
843.46	216.57
843.77	215.43
844.08	215.12
844.40	214.67
844.71	214.67
845.03	214.36
845.34	214.24
845.65	214.19
845.97	214.26
846.28	214.45
846.60	214.62
846.91	214.55
847.22	214.29
847.54	214.90
847.85	214.95
848.16	214.64
848.48	214.19
848.79	215.10
849.10	215.21
849.42	215.33
849.73	213.17
850.04	213.14
850.36	212.60
850.67	212.93
850.98	213.05
851.30	213.02
851.61	213.02
851.92	213.05
852.23	213.76
852.55	213.90
852.86	214.02
853.17	214.19
853.49	214.67
853.80	214.98
854.11	214.90
854.42	215.17
854.74	214.90
855.05	215.07
855.36	213.71
855.67	213.74
855.99	213.76
856.30	216.38
856.61	216.24
856.92	216.43
857.23	216.45
857.55	216.07
857.86	216.05
858.17	216.43
858.48	216.05
858.79	215.57
859.11	215.62
859.42	215.21
859.73	214.86
860.04	214.76
860.35	214.31
860.66	213.79
860.98	213.74
861.29	214.26
861.60	214.02
861.91	214.67
862.22	214.29
862.53	214.10
862.84	211.60
863.16	212.19
863.47	211.69
863.78	211.43
864.09	211.62
864.40	211.76
864.71	211.76
865.02	212.12
865.33	211.86
865.64	211.36
865.95	211.33
866.27	212.57
866.58	212.14
866.89	212.43
867.20	212.43
867.51	212.07
867.82	211.71
868.13	212.38
868.44	211.93
868.75	212.45
869.06	212.43
869.37	212.57
869.68	211.88
869.99	212.26
870.30	212.36
870.61	212.40
870.92	212.07
871.23	211.83
871.54	212.14
871.85	212.74
872.16	213.24
872.47	213.29
872.78	212.26
873.09	212.67
873.40	212.60
873.71	212.71
874.02	212.98
874.33	213.05
874.64	212.52
874.95	213.21
875.26	212.90
875.56	212.88
875.87	212.67
876.18	212.69
876.49	214.55
876.80	214.45
877.11	214.33
877.42	214.33
877.73	214.45
878.04	213.74
878.35	213.74
878.66	213.45
878.96	213.48
879.27	213.33
879.58	213.31
879.89	213.26
880.20	214.00
880.51	213.88
880.82	213.83
881.12	213.98
881.43	213.19
881.74	212.93
882.05	212.83
882.36	213.19
882.67	213.38
882.97	211.33
883.28	211.57
883.59	211.38
883.90	212.05
884.21	212.38
884.51	212.60
884.82	212.24
885.13	212.29
885.44	212.17
885.74	212.31
886.05	212.17
886.36	212.07
886.67	211.12
886.98	212.17
887.28	212.33
887.59	212.36
887.90	212.67
888.20	212.76
888.51	213.24
888.82	212.69
889.13	212.83
889.43	214.33
889.74	213.93
890.05	213.98
890.35	213.33
890.66	212.86
890.97	212.83
891.28	212.43
891.58	212.60
891.89	212.79
892.20	212.62
892.50	212.29
892.81	212.29
893.12	212.43
893.42	211.21
893.73	211.45
894.04	211.36
894.34	211.50
894.65	211.36
894.95	211.14
895.26	211.48
895.57	212.24
895.87	210.55
896.18	211.07
896.48	211.26
896.79	211.36
897.10	211.64
897.40	211.76
897.71	212.26
898.01	212.36
898.32	212.38
898.63	212.45
898.93	212.67
899.24	212.64
899.54	212.74
899.85	212.67
900.15	212.26
900.46	212.36
900.76	212.31
901.07	212.40
901.38	212.36
901.68	212.50
901.99	211.48
902.29	211.40
902.60	211.05
902.90	210.76
903.21	210.71
903.51	210.57
903.82	211.05
904.12	210.98
904.43	210.83
904.73	210.76
905.03	210.83
905.34	212.71
905.64	212.86
905.95	212.69
906.25	212.86
906.56	212.79
906.86	212.83
907.17	212.79
907.47	212.79
907.77	212.55
908.08	212.00
908.38	212.14
908.69	212.52
908.99	212.98
909.30	213.14
909.60	213.36
909.90	213.71
910.21	213.12
910.51	212.79
910.81	212.90
911.12	213.14
911.42	213.07
911.73	211.07
912.03	211.05
912.33	211.60
912.64	211.62
912.94	211.60
913.24	211.17
913.55	211.00
913.85	210.88
914.15	211.38
914.46	211.88
914.76	212.05
915.06	211.86
915.37	211.24
915.67	211.14
915.97	210.95
916.27	210.21
916.58	210.05
916.88	210.21
917.18	209.90
917.49	211.17
917.79	211.00
918.09	211.14
918.39	211.71
918.70	211.52
919.00	211.55
919.30	212.36
919.60	212.33
919.91	212.17
920.21	212.26
920.51	211.88
920.81	211.62
921.12	211.64
921.42	211.83
921.72	212.29
922.02	212.50
922.32	212.90
922.63	213.12
922.93	214.33
923.23	214.45
923.53	214.45
923.83	213.19
924.13	213.38
924.44	213.48
924.74	213.71
925.04	213.83
925.34	213.79
925.64	213.02
925.94	213.19
926.24	214.45
926.55	214.31
926.85	214.45
927.15	214.57
927.45	214.50
927.75	214.40
928.05	214.29
928.35	214.00
928.65	214.60
928.95	214.64
929.26	213.81
929.56	213.98
929.86	214.29
930.16	214.21
930.46	214.26
930.76	214.38
931.06	213.33
931.36	213.21
931.66	213.52
931.96	213.67
932.26	214.00
932.56	213.10
932.86	213.48
933.16	213.57
933.46	213.33
933.76	213.14
934.06	213.52
934.36	214.29
934.66	214.38
934.96	213.88
935.26	214.00
935.56	214.12
935.86	213.81
936.16	213.43
936.46	213.17
936.76	213.07
937.06	212.76
937.36	212.98
937.66	212.88
937.96	212.86
938.26	212.55
938.56	212.07
938.86	212.33
939.16	212.71
939.46	212.64
939.76	212.79
940.06	212.81
940.35	212.17
940.65	211.17
940.95	211.38
941.25	210.74
941.55	210.64
941.85	210.79
942.15	211.21
942.45	211.74
942.75	211.90
943.04	212.02
943.34	212.52
943.64	212.45
943.94	212.10
944.24	212.00
944.54	212.17
944.84	212.12
945.13	211.74
945.43	211.26
945.73	211.36
946.03	211.29
946.33	211.31
946.62	211.40
946.92	211.50
947.22	211.74
947.52	212.00
947.82	212.31
948.11	211.90
948.41	211.43
948.71	210.79
949.01	210.62
949.31	210.40
949.60	210.02
949.90	210.02
950.20	210.07
950.50	210.17
950.79	210.12
951.09	210.29
951.39	210.07
951.69	209.86
951.98	210.31
952.28	210.43
952.58	210.31
952.87	210.36
953.17	210.52
953.47	209.90
953.76	210.00
954.06	209.52
954.36	209.29
954.66	209.19
954.95	209.95
955.25	210.26
955.55	210.36
955.84	210.07
956.14	210.43
956.44	210.40
956.73	210.07
957.03	210.14
957.32	210.33
957.62	210.60
957.92	211.00
958.21	210.57
958.51	213.12
958.81	213.31
959.10	213.52
959.40	214.02
959.69	214.24
959.99	214.48
960.29	214.57
960.58	214.55
960.88	215.48
961.17	215.07
961.47	215.17
961.76	215.12
962.06	215.69
962.36	215.45
962.65	215.62
962.95	215.71
963.24	215.71
963.54	215.81
963.83	215.93
964.13	215.90
964.42	215.52
964.72	213.57
965.01	213.62
965.31	213.48
965.60	212.71
965.90	214.17
966.19	213.69
966.49	214.12
966.78	214.12
967.08	213.93
967.37	214.14
967.67	213.88
967.96	214.19
968.26	214.00
968.55	214.21
968.85	214.24
969.14	214.12
969.43	213.83
969.73	213.52
970.02	213.17
970.32	213.12
970.61	212.95
970.91	212.43
971.20	212.14
971.49	211.88
971.79	212.10
972.08	210.55
972.38	210.81
972.67	210.48
972.96	210.88
973.26	210.33
973.55	210.81
973.85	210.83
974.14	210.69
974.43	210.79
974.73	210.57
975.02	210.33
975.31	210.52
975.61	210.88
975.90	210.69
976.19	210.60
976.49	210.83
976.78	211.05
977.07	211.05
977.37	210.93
977.66	211.19
977.95	210.98
978.24	211.33
978.54	211.76
978.83	211.50
979.12	211.17
979.42	211.29
979.71	210.74
980.00	210.55
980.29	210.55
980.59	210.19
980.88	210.71
981.17	210.83
981.46	210.76
981.76	210.60
982.05	211.36
982.34	211.76
982.63	211.52
982.93	211.67
983.22	212.14
983.51	212.45
983.80	212.74
984.09	213.10
984.39	212.79
984.68	212.17
984.97	212.31
985.26	212.26
985.55	212.36
985.85	212.00
986.14	212.31
986.43	212.57
986.72	212.48
987.01	211.74
987.30	211.76
987.59	211.40
987.89	211.45
988.18	210.83
988.47	210.26
988.76	210.14
989.05	209.95
989.34	209.50
989.63	210.07
989.92	209.71
990.22	209.57
990.51	209.43
990.80	209.50
991.09	209.60
991.38	209.95
991.67	209.69
991.96	209.67
992.25	209.74
992.54	209.19
992.83	209.31
993.12	209.38
993.41	209.71
993.70	210.67
993.99	211.00
994.28	211.31
994.58	212.00
994.87	211.79
995.16	211.67
995.45	211.60
995.74	210.95
996.03	211.38
996.32	211.67
996.61	212.33
996.90	212.17
997.19	212.26
997.48	212.43
997.77	212.36
998.06	212.40
998.34	212.29
998.63	212.50
998.92	212.52
999.21	212.83
999.50	212.57
999.79	212.05
1000.08	212.02
1000.37	211.90
1000.66	211.48
1000.95	212.19
1001.24	212.45
1001.53	212.76
1001.82	212.36
1002.11	211.93
1002.40	211.98
1002.68	212.31
1002.97	213.79
1003.26	213.45
1003.55	212.88
1003.84	212.93
1004.13	213.93
1004.42	213.83
1004.71	213.86
1004.99	213.81
1005.28	214.33
1005.57	214.29
1005.86	214.05
1006.15	213.88
1006.44	213.64
1006.72	213.93
1007.01	213.33
1007.30	213.19
1007.59	212.93
1007.88	213.10
1008.17	213.36
1008.45	212.90
1008.74	211.90
1009.03	210.79
1009.32	210.93
1009.60	210.79
1009.89	210.74
1010.18	209.67
1010.47	209.67
1010.76	209.40
1011.04	209.24
1011.33	209.14
1011.62	209.38
1011.91	209.40
1012.19	209.40
1012.48	209.50
1012.77	209.29
1013.05	210.10
1013.34	210.14
1013.63	210.19
1013.92	210.26
1014.20	209.88
1014.49	209.95
1014.78	210.24
1015.06	209.74
1015.35	209.57
1015.64	210.12
1015.92	210.43
1016.21	210.57
1016.50	210.48
1016.78	210.74
1017.07	210.98
1017.36	210.52
1017.64	210.02
1017.93	210.43
1018.22	210.12
1018.50	210.14
1018.79	210.24
1019.08	209.36
1019.36	209.55
1019.65	209.05
1019.93	209.74
1020.22	209.93
1020.51	210.86
1020.79	210.76
1021.08	204.50
1021.36	208.50
1021.65	211.00
1021.94	207.00
1022.22	213.00
1022.51	202.00
1022.79	221.50
1023.08	211.00
1023.36	231.00
1023.65	208.00
>>>>>End Processed Spectral Data<<<<<
