SpectraSuite Data File
++++++++++++++++++++++++++++++++++++
Date: Tue Apr 02 18:41:34 EDT 2013
User: group
Dark Spectrum Present: No
Reference Spectrum Present: No
Number of Sampled Component Spectra: 1
Spectrometers: USB2E7196
Integration Time (usec): 580000 (USB2E7196)
Spectra Averaged: 2 (USB2E7196)
Boxcar Smoothing: 10 (USB2E7196)
Correct for Electrical Dark: No (USB2E7196)
Strobe/Lamp Enabled: No (USB2E7196)
Correct for Detector Non-linearity: No (USB2E7196)
Correct for Stray Light: No (USB2E7196)
Number of Pixels in Processed Spectrum: 2048
>>>>>Begin Processed Spectral Data<<<<<
339.09	0.00
339.48	193.00
339.86	194.50
340.24	194.50
340.63	197.00
341.01	232.00
341.39	197.00
341.78	205.00
342.16	211.00
342.54	208.00
342.93	197.33
343.31	207.17
343.69	207.88
344.07	208.48
344.46	209.29
344.84	210.00
345.22	208.69
345.60	209.40
345.99	209.74
346.37	209.74
346.75	209.69
347.13	209.67
347.52	209.64
347.90	210.62
348.28	210.60
348.66	211.00
349.05	210.38
349.43	210.74
349.81	211.02
350.19	211.12
350.57	211.05
350.96	211.48
351.34	211.71
351.72	212.00
352.10	212.26
352.48	211.93
352.87	211.98
353.25	212.19
353.63	212.10
354.01	211.98
354.39	211.93
354.77	212.12
355.15	212.74
355.54	212.74
355.92	212.02
356.30	211.90
356.68	213.40
357.06	213.45
357.44	213.07
357.82	212.81
358.20	213.74
358.58	213.95
358.97	214.24
359.35	214.86
359.73	215.02
360.11	214.93
360.49	215.17
360.87	214.93
361.25	215.24
361.63	215.95
362.01	216.36
362.39	216.26
362.77	216.52
363.15	216.45
363.53	216.45
363.91	216.62
364.29	216.81
364.67	214.57
365.05	214.67
365.43	214.93
365.81	215.40
366.19	215.71
366.57	216.45
366.95	216.43
367.33	215.93
367.71	215.90
368.09	216.29
368.47	216.36
368.85	216.31
369.23	216.45
369.61	215.57
369.99	215.98
370.37	216.48
370.75	217.36
371.13	216.83
371.51	216.55
371.89	216.90
372.27	216.86
372.65	217.00
373.03	217.33
373.41	217.12
373.78	216.88
374.16	215.69
374.54	214.81
374.92	214.60
375.30	214.33
375.68	213.86
376.06	213.83
376.44	213.50
376.82	213.81
377.19	213.83
377.57	213.93
377.95	213.21
378.33	212.81
378.71	211.38
379.09	211.62
379.47	211.95
379.84	211.57
380.22	211.43
380.60	211.21
380.98	210.88
381.36	211.02
381.73	210.74
382.11	211.14
382.49	211.48
382.87	211.24
383.25	211.48
383.62	213.98
384.00	213.74
384.38	214.10
384.76	214.45
385.13	215.33
385.51	215.36
385.89	215.31
386.27	215.48
386.64	216.05
387.02	215.95
387.40	215.74
387.78	215.98
388.15	216.19
388.53	216.07
388.91	216.10
389.29	215.88
389.66	216.29
390.04	216.10
390.42	216.17
390.79	216.29
391.17	216.31
391.55	213.88
391.92	213.79
392.30	213.90
392.68	213.67
393.05	213.26
393.43	213.24
393.81	213.17
394.18	212.83
394.56	212.83
394.94	213.05
395.31	213.02
395.69	213.50
396.06	213.74
396.44	213.98
396.82	213.81
397.19	214.93
397.57	214.83
397.95	215.19
398.32	214.76
398.70	215.14
399.07	215.38
399.45	215.48
399.82	215.50
400.20	215.33
400.58	215.24
400.95	214.64
401.33	215.21
401.70	216.67
402.08	217.02
402.45	217.14
402.83	217.60
403.20	217.55
403.58	217.48
403.95	217.93
404.33	218.43
404.71	218.90
405.08	220.02
405.46	220.29
405.83	220.45
406.21	220.90
406.58	221.36
406.96	221.60
407.33	222.43
407.70	223.14
408.08	225.38
408.45	226.36
408.83	227.57
409.20	228.05
409.58	227.71
409.95	228.98
410.33	229.95
410.70	230.40
411.08	232.00
411.45	233.02
411.82	234.05
412.20	235.81
412.57	238.33
412.95	238.12
413.32	239.88
413.69	241.48
414.07	243.36
414.44	245.14
414.82	247.50
415.19	249.67
415.56	251.98
415.94	253.26
416.31	256.12
416.68	258.88
417.06	262.57
417.43	266.19
417.81	269.48
418.18	273.12
418.55	277.40
418.93	281.43
419.30	286.10
419.67	290.60
420.04	294.93
420.42	299.10
420.79	306.17
421.16	311.83
421.54	319.17
421.91	325.14
422.28	331.29
422.66	337.98
423.03	346.21
423.40	353.55
423.77	360.88
424.15	368.05
424.52	375.71
424.89	383.98
425.26	391.86
425.64	399.90
426.01	408.60
426.38	417.21
426.75	426.67
427.13	436.17
427.50	446.10
427.87	456.07
428.24	466.55
428.61	475.64
428.99	487.12
429.36	497.69
429.73	510.12
430.10	522.12
430.47	534.02
430.85	544.64
431.22	557.21
431.59	572.55
431.96	585.45
432.33	599.76
432.70	613.95
433.08	630.33
433.45	645.95
433.82	661.12
434.19	678.67
434.56	695.57
434.93	711.26
435.30	727.14
435.68	745.60
436.05	762.86
436.42	780.19
436.79	796.40
437.16	814.02
437.53	831.98
437.90	850.05
438.27	868.36
438.64	887.10
439.01	904.81
439.38	919.48
439.75	934.98
440.13	952.71
440.50	968.48
440.87	982.21
441.24	995.76
441.61	1011.05
441.98	1022.48
442.35	1034.83
442.72	1048.14
443.09	1062.50
443.46	1070.12
443.83	1075.40
444.20	1080.45
444.57	1086.52
444.94	1089.74
445.31	1093.07
445.68	1098.86
446.05	1100.10
446.42	1098.55
446.79	1096.98
447.16	1094.48
447.53	1093.52
447.90	1085.88
448.27	1079.52
448.64	1069.93
449.01	1063.57
449.37	1052.62
449.74	1041.38
450.11	1030.21
450.48	1015.07
450.85	998.31
451.22	985.57
451.59	973.57
451.96	961.64
452.33	946.05
452.70	931.26
453.07	914.00
453.43	894.21
453.80	877.43
454.17	861.50
454.54	845.83
454.91	829.02
455.28	812.14
455.65	797.50
456.02	785.29
456.38	772.48
456.75	756.69
457.12	742.55
457.49	728.93
457.86	713.98
458.23	703.60
458.59	691.95
458.96	679.57
459.33	668.90
459.70	657.83
460.07	649.14
460.43	639.14
460.80	630.10
461.17	622.40
461.54	614.29
461.91	606.14
462.27	597.86
462.64	590.67
463.01	583.31
463.38	576.79
463.74	566.14
464.11	559.71
464.48	554.10
464.85	547.71
465.21	543.17
465.58	538.48
465.95	531.50
466.32	526.21
466.68	520.64
467.05	515.26
467.42	509.93
467.78	504.36
468.15	499.71
468.52	495.79
468.88	490.10
469.25	484.74
469.62	481.17
469.98	476.93
470.35	473.14
470.72	469.19
471.08	464.43
471.45	461.69
471.82	458.62
472.18	454.33
472.55	452.14
472.92	448.69
473.28	445.40
473.65	443.05
474.02	440.02
474.38	438.21
474.75	436.14
475.11	434.00
475.48	432.21
475.85	430.07
476.21	427.95
476.58	426.60
476.94	425.33
477.31	423.74
477.67	422.79
478.04	421.95
478.41	421.19
478.77	422.81
479.14	421.69
479.50	420.79
479.87	420.86
480.23	419.98
480.60	419.38
480.96	419.29
481.33	419.76
481.69	420.00
482.06	420.17
482.42	420.64
482.79	420.95
483.15	421.19
483.52	422.57
483.88	423.57
484.25	424.14
484.61	425.19
484.98	426.14
485.34	427.48
485.71	428.55
486.07	429.69
486.44	428.79
486.80	429.81
487.17	431.38
487.53	433.50
487.90	435.79
488.26	438.74
488.62	441.45
488.99	443.24
489.35	445.76
489.72	447.98
490.08	450.76
490.44	453.40
490.81	456.50
491.17	458.90
491.54	462.33
491.90	465.90
492.26	469.71
492.63	473.48
492.99	476.64
493.36	480.98
493.72	485.57
494.08	490.50
494.45	495.79
494.81	501.21
495.17	506.14
495.54	511.50
495.90	516.14
496.26	521.05
496.63	526.83
496.99	532.48
497.35	539.00
497.72	544.50
498.08	550.62
498.44	557.02
498.80	564.19
499.17	570.24
499.53	577.33
499.89	584.31
500.26	591.40
500.62	598.71
500.98	605.83
501.34	613.19
501.71	620.83
502.07	628.07
502.43	634.43
502.79	641.36
503.16	648.36
503.52	656.29
503.88	663.76
504.24	671.36
504.60	679.31
504.97	686.45
505.33	694.12
505.69	702.74
506.05	710.69
506.41	717.74
506.78	725.69
507.14	732.69
507.50	740.86
507.86	748.93
508.22	757.12
508.59	764.67
508.95	772.76
509.31	780.88
509.67	788.64
510.03	797.26
510.39	805.14
510.75	813.31
511.12	820.64
511.48	828.48
511.84	836.36
512.20	844.17
512.56	852.38
512.92	860.14
513.28	867.90
513.64	875.24
514.00	883.00
514.37	890.12
514.73	898.00
515.09	905.00
515.45	912.17
515.81	919.12
516.17	926.36
516.53	932.62
516.89	938.88
517.25	945.83
517.61	953.12
517.97	959.60
518.33	966.05
518.69	973.36
519.05	980.81
519.41	987.26
519.77	994.62
520.13	1000.36
520.49	1006.45
520.85	1012.57
521.21	1019.88
521.57	1026.57
521.93	1032.05
522.29	1037.71
522.65	1043.02
523.01	1048.60
523.37	1053.95
523.73	1059.79
524.09	1065.90
524.45	1071.50
524.81	1076.74
525.17	1081.40
525.53	1087.38
525.89	1092.60
526.25	1097.31
526.61	1100.90
526.97	1105.12
527.33	1109.00
527.68	1115.81
528.04	1120.81
528.40	1125.12
528.76	1128.57
529.12	1132.62
529.48	1138.38
529.84	1142.79
530.20	1147.26
530.56	1151.86
530.91	1156.93
531.27	1161.29
531.63	1165.29
531.99	1168.67
532.35	1173.14
532.71	1177.10
533.07	1181.38
533.42	1186.93
533.78	1191.29
534.14	1195.86
534.50	1200.07
534.86	1204.71
535.21	1207.76
535.57	1212.48
535.93	1215.55
536.29	1221.00
536.65	1225.50
537.00	1228.21
537.36	1231.98
537.72	1235.88
538.08	1239.48
538.44	1242.45
538.79	1245.93
539.15	1248.98
539.51	1253.48
539.87	1257.36
540.22	1261.10
540.58	1264.64
540.94	1266.86
541.29	1270.05
541.65	1272.88
542.01	1277.26
542.37	1279.67
542.72	1281.64
543.08	1283.24
543.44	1288.12
543.79	1289.48
544.15	1292.83
544.51	1297.21
544.87	1301.17
545.22	1304.64
545.58	1308.29
545.94	1312.21
546.29	1316.45
546.65	1320.55
547.01	1323.62
547.36	1326.93
547.72	1330.00
548.07	1332.62
548.43	1336.02
548.79	1338.67
549.14	1342.26
549.50	1345.69
549.86	1349.17
550.21	1352.83
550.57	1358.05
550.92	1359.31
551.28	1363.43
551.64	1366.55
551.99	1369.90
552.35	1373.02
552.70	1376.12
553.06	1379.55
553.41	1382.24
553.77	1386.50
554.13	1390.17
554.48	1393.90
554.84	1398.64
555.19	1402.48
555.55	1408.57
555.90	1412.45
556.26	1417.95
556.61	1421.52
556.97	1424.26
557.32	1428.95
557.68	1432.98
558.03	1436.43
558.39	1441.52
558.74	1445.88
559.10	1449.62
559.45	1454.05
559.81	1459.05
560.16	1464.19
560.52	1468.81
560.87	1474.14
561.23	1477.52
561.58	1485.24
561.94	1490.07
562.29	1493.62
562.64	1498.79
563.00	1501.19
563.35	1506.05
563.71	1510.19
564.06	1516.55
564.42	1522.88
564.77	1528.38
565.12	1534.88
565.48	1542.19
565.83	1548.98
566.19	1554.86
566.54	1561.07
566.89	1566.67
567.25	1571.48
567.60	1577.83
567.96	1585.81
568.31	1591.98
568.66	1598.31
569.02	1600.45
569.37	1605.36
569.72	1611.00
570.08	1615.33
570.43	1620.90
570.78	1625.64
571.14	1631.31
571.49	1635.88
571.84	1640.33
572.20	1644.62
572.55	1649.14
572.90	1651.93
573.26	1655.29
573.61	1659.79
573.96	1664.76
574.31	1668.64
574.67	1672.88
575.02	1675.74
575.37	1677.05
575.72	1680.38
576.08	1683.69
576.43	1687.33
576.78	1691.24
577.13	1694.64
577.49	1698.95
577.84	1703.57
578.19	1707.50
578.54	1710.60
578.90	1713.90
579.25	1717.36
579.60	1720.14
579.95	1722.14
580.30	1725.43
580.66	1729.07
581.01	1731.36
581.36	1732.83
581.71	1735.69
582.06	1739.07
582.42	1742.26
582.77	1744.31
583.12	1746.48
583.47	1749.07
583.82	1752.24
584.17	1754.95
584.53	1757.60
584.88	1760.26
585.23	1762.62
585.58	1765.19
585.93	1766.31
586.28	1768.76
586.63	1770.10
586.98	1771.95
587.34	1774.40
587.69	1775.90
588.04	1777.40
588.39	1779.12
588.74	1779.45
589.09	1781.38
589.44	1780.79
589.79	1782.67
590.14	1784.33
590.49	1784.48
590.84	1785.07
591.19	1785.33
591.54	1786.12
591.89	1786.43
592.25	1788.83
592.60	1788.50
592.95	1789.36
593.30	1791.62
593.65	1791.60
594.00	1791.93
594.35	1798.05
594.70	1798.19
595.05	1798.67
595.40	1798.69
595.75	1798.69
596.10	1801.00
596.45	1801.24
596.80	1802.79
597.15	1801.81
597.50	1802.60
597.85	1804.81
598.19	1803.50
598.54	1803.24
598.89	1802.67
599.24	1803.45
599.59	1801.76
599.94	1800.45
600.29	1799.79
600.64	1798.52
600.99	1797.86
601.34	1797.83
601.69	1791.62
602.04	1790.07
602.39	1789.64
602.74	1788.50
603.08	1787.48
603.43	1787.52
603.78	1786.17
604.13	1785.00
604.48	1783.98
604.83	1782.55
605.18	1780.86
605.53	1780.79
605.87	1778.71
606.22	1777.33
606.57	1774.88
606.92	1773.45
607.27	1773.10
607.62	1771.26
607.96	1769.74
608.31	1769.02
608.66	1767.98
609.01	1766.40
609.36	1765.76
609.70	1762.57
610.05	1759.88
610.40	1757.36
610.75	1752.14
611.10	1749.07
611.44	1746.19
611.79	1743.24
612.14	1740.02
612.49	1736.31
612.83	1733.05
613.18	1730.71
613.53	1725.98
613.88	1722.00
614.22	1716.71
614.57	1712.24
614.92	1706.93
615.27	1702.83
615.61	1697.12
615.96	1691.79
616.31	1686.62
616.65	1682.60
617.00	1678.64
617.35	1675.19
617.70	1670.95
618.04	1666.17
618.39	1661.79
618.74	1657.40
619.08	1652.62
619.43	1647.55
619.78	1643.14
620.12	1639.29
620.47	1634.81
620.82	1631.36
621.16	1626.26
621.51	1622.74
621.85	1617.64
622.20	1613.48
622.55	1606.93
622.89	1602.64
623.24	1598.69
623.59	1594.29
623.93	1588.45
624.28	1583.64
624.62	1581.26
624.97	1578.26
625.32	1574.93
625.66	1570.19
626.01	1564.48
626.35	1559.43
626.70	1554.48
627.04	1550.24
627.39	1545.10
627.73	1540.38
628.08	1536.07
628.43	1532.31
628.77	1526.95
629.12	1522.38
629.46	1518.12
629.81	1514.95
630.15	1510.10
630.50	1504.19
630.84	1499.17
631.19	1494.48
631.53	1488.79
631.88	1480.45
632.22	1472.86
632.57	1467.95
632.91	1462.31
633.26	1458.36
633.60	1453.33
633.95	1447.76
634.29	1441.17
634.64	1435.36
634.98	1429.40
635.32	1425.07
635.67	1419.74
636.01	1414.90
636.36	1408.76
636.70	1404.26
637.05	1398.86
637.39	1393.38
637.73	1388.36
638.08	1383.95
638.42	1378.43
638.77	1374.00
639.11	1368.52
639.45	1363.40
639.80	1357.29
640.14	1352.71
640.49	1345.83
640.83	1339.52
641.17	1333.98
641.52	1328.45
641.86	1322.95
642.20	1317.83
642.55	1309.88
642.89	1303.76
643.23	1296.90
643.58	1292.45
643.92	1285.17
644.26	1278.43
644.61	1272.07
644.95	1265.36
645.29	1258.07
645.64	1251.98
645.98	1244.90
646.32	1239.43
646.66	1232.98
647.01	1226.74
647.35	1219.79
647.69	1213.74
648.04	1208.88
648.38	1203.00
648.72	1196.52
649.06	1189.40
649.41	1182.36
649.75	1176.00
650.09	1169.17
650.43	1162.95
650.78	1155.45
651.12	1148.81
651.46	1142.10
651.80	1136.12
652.14	1130.57
652.49	1124.45
652.83	1117.81
653.17	1111.17
653.51	1103.95
653.85	1097.52
654.20	1091.17
654.54	1083.52
654.88	1076.57
655.22	1069.90
655.56	1063.43
655.90	1056.62
656.25	1050.21
656.59	1044.19
656.93	1038.05
657.27	1032.36
657.61	1026.12
657.95	1020.60
658.29	1014.64
658.64	1008.90
658.98	1002.00
659.32	994.69
659.66	988.36
660.00	982.10
660.34	975.67
660.68	969.74
661.02	963.83
661.36	956.90
661.70	951.55
662.05	946.74
662.39	940.52
662.73	934.90
663.07	929.98
663.41	924.05
663.75	917.48
664.09	911.05
664.43	903.86
664.77	897.62
665.11	891.17
665.45	885.21
665.79	878.86
666.13	873.24
666.47	867.69
666.81	861.83
667.15	855.79
667.49	850.71
667.83	845.83
668.17	840.31
668.51	835.12
668.85	829.69
669.19	824.76
669.53	818.57
669.87	812.67
670.21	806.86
670.55	800.95
670.89	796.83
671.23	792.67
671.57	788.00
671.91	783.24
672.25	778.07
672.58	773.40
672.92	768.31
673.26	763.19
673.60	758.36
673.94	753.60
674.28	748.90
674.62	744.69
674.96	739.21
675.30	734.52
675.64	729.93
675.97	725.07
676.31	719.17
676.65	714.36
676.99	709.98
677.33	705.40
677.67	701.64
678.01	696.36
678.34	691.60
678.68	687.50
679.02	682.52
679.36	678.29
679.70	673.00
680.04	668.48
680.37	664.05
680.71	659.33
681.05	655.00
681.39	650.52
681.73	645.86
682.06	641.55
682.40	636.69
682.74	632.19
683.08	628.79
683.42	624.29
683.75	620.43
684.09	615.69
684.43	610.88
684.77	606.62
685.10	602.45
685.44	598.14
685.78	593.71
686.12	589.90
686.45	585.29
686.79	580.71
687.13	577.38
687.46	572.81
687.80	569.48
688.14	565.05
688.48	561.17
688.81	556.86
689.15	553.31
689.49	549.36
689.82	545.83
690.16	540.83
690.50	537.43
690.83	533.60
691.17	528.88
691.51	525.38
691.84	521.60
692.18	517.79
692.52	513.90
692.85	510.64
693.19	507.62
693.52	504.40
693.86	501.10
694.20	497.40
694.53	494.64
694.87	490.71
695.21	487.50
695.54	483.83
695.88	480.14
696.21	475.93
696.55	473.12
696.88	469.83
697.22	466.93
697.56	464.19
697.89	460.76
698.23	458.71
698.56	455.60
698.90	452.60
699.23	449.38
699.57	446.69
699.90	443.43
700.24	440.21
700.58	437.19
700.91	434.98
701.25	433.50
701.58	431.52
701.92	429.50
702.25	426.57
702.59	424.10
702.92	421.95
703.26	419.64
703.59	417.14
703.93	416.19
704.26	414.33
704.60	411.57
704.93	408.93
705.26	406.48
705.60	404.31
705.93	401.45
706.27	399.48
706.60	397.50
706.94	395.93
707.27	393.26
707.61	391.50
707.94	389.02
708.27	385.69
708.61	382.71
708.94	380.02
709.28	378.14
709.61	375.95
709.94	373.79
710.28	371.86
710.61	369.60
710.95	365.74
711.28	364.86
711.61	363.05
711.95	362.10
712.28	359.62
712.61	357.57
712.95	357.14
713.28	356.26
713.61	354.10
713.95	351.69
714.28	350.17
714.61	347.98
714.95	346.19
715.28	344.17
715.61	342.45
715.95	341.31
716.28	339.60
716.61	338.86
716.95	337.29
717.28	335.71
717.61	334.02
717.94	332.69
718.28	329.43
718.61	327.69
718.94	325.69
719.27	324.60
719.61	323.48
719.94	321.50
720.27	319.12
720.60	317.45
720.94	316.17
721.27	315.26
721.60	314.31
721.93	313.07
722.27	312.21
722.60	311.10
722.93	309.45
723.26	308.31
723.59	306.31
723.93	305.60
724.26	304.45
724.59	303.50
724.92	302.81
725.25	302.57
725.59	301.52
725.92	300.83
726.25	299.86
726.58	298.86
726.91	297.81
727.24	297.33
727.57	296.38
727.91	295.02
728.24	293.95
728.57	292.90
728.90	292.38
729.23	291.10
729.56	291.05
729.89	290.24
730.22	289.05
730.55	288.33
730.89	287.29
731.22	286.45
731.55	285.38
731.88	284.21
732.21	282.95
732.54	282.14
732.87	281.12
733.20	280.36
733.53	279.50
733.86	278.81
734.19	277.60
734.52	276.74
734.85	277.60
735.18	276.52
735.51	276.17
735.84	275.50
736.17	275.48
736.50	273.86
736.83	275.98
737.16	275.45
737.49	274.76
737.82	273.81
738.15	273.38
738.48	272.76
738.81	272.00
739.14	270.90
739.47	270.05
739.80	269.02
740.13	268.81
740.46	267.90
740.79	266.93
741.12	266.48
741.45	265.98
741.78	264.26
742.11	264.36
742.44	263.55
742.77	263.19
743.10	262.21
743.43	261.76
743.75	258.57
744.08	260.67
744.41	259.81
744.74	259.12
745.07	258.38
745.40	258.24
745.73	258.57
746.06	258.36
746.39	258.14
746.71	257.64
747.04	256.60
747.37	256.31
747.70	256.26
748.03	255.67
748.36	255.48
748.68	255.10
749.01	253.90
749.34	253.17
749.67	252.62
750.00	252.38
750.33	253.40
750.65	253.12
750.98	250.33
751.31	250.12
751.64	249.74
751.97	250.43
752.29	249.83
752.62	248.33
752.95	247.86
753.28	247.00
753.60	246.76
753.93	247.00
754.26	246.55
754.59	245.45
754.91	244.79
755.24	244.38
755.57	243.86
755.90	243.48
756.22	243.29
756.55	242.55
756.88	241.81
757.20	239.95
757.53	239.12
757.86	238.90
758.19	238.81
758.51	238.74
758.84	236.95
759.17	236.57
759.49	236.69
759.82	237.38
760.15	237.60
760.47	237.21
760.80	236.40
761.13	236.64
761.45	236.26
761.78	236.12
762.11	235.93
762.43	235.55
762.76	235.17
763.08	235.05
763.41	235.14
763.74	234.90
764.06	234.74
764.39	234.62
764.71	233.98
765.04	233.38
765.37	232.64
765.69	232.69
766.02	232.24
766.34	231.83
766.67	231.02
767.00	231.12
767.32	232.02
767.65	233.21
767.97	232.71
768.30	232.79
768.62	232.36
768.95	231.88
769.27	231.50
769.60	231.81
769.92	231.38
770.25	230.74
770.57	230.07
770.90	229.86
771.22	229.52
771.55	229.52
771.87	229.45
772.20	229.33
772.52	230.81
772.85	233.05
773.17	232.90
773.50	232.29
773.82	231.62
774.15	230.52
774.47	228.90
774.80	228.43
775.12	228.10
775.45	228.12
775.77	228.17
776.09	228.45
776.42	228.17
776.74	228.40
777.07	228.12
777.39	228.24
777.72	228.17
778.04	228.12
778.36	227.64
778.69	227.55
779.01	227.69
779.33	225.93
779.66	223.55
779.98	223.36
780.31	223.52
780.63	224.31
780.95	224.29
781.28	224.14
781.60	223.86
781.92	223.90
782.25	223.88
782.57	223.55
782.89	223.05
783.22	222.90
783.54	222.36
783.86	222.67
784.19	222.31
784.51	222.62
784.83	222.31
785.16	222.21
785.48	222.07
785.80	221.98
786.12	221.81
786.45	221.64
786.77	221.67
787.09	221.17
787.42	220.31
787.74	220.43
788.06	220.64
788.38	220.62
788.71	220.26
789.03	220.17
789.35	220.64
789.67	220.19
789.99	220.02
790.32	219.95
790.64	220.10
790.96	221.95
791.28	220.83
791.61	220.60
791.93	220.76
792.25	220.76
792.57	222.21
792.89	221.83
793.21	222.12
793.54	221.95
793.86	222.07
794.18	222.12
794.50	221.83
794.82	221.48
795.14	222.00
795.47	222.36
795.79	222.45
796.11	221.76
796.43	221.79
796.75	221.76
797.07	221.67
797.39	221.26
797.71	219.71
798.04	219.95
798.36	220.24
798.68	219.88
799.00	219.95
799.32	218.62
799.64	219.14
799.96	218.81
800.28	218.90
800.60	218.64
800.92	218.86
801.24	218.76
801.56	219.00
801.89	218.43
802.21	218.62
802.53	218.12
802.85	218.50
803.17	219.36
803.49	218.86
803.81	218.76
804.13	218.81
804.45	218.57
804.77	218.95
805.09	219.10
805.41	219.00
805.73	218.67
806.05	218.38
806.37	218.33
806.69	218.33
807.01	218.31
807.33	218.38
807.65	217.26
807.97	218.10
808.28	217.81
808.60	217.76
808.92	217.10
809.24	218.50
809.56	218.02
809.88	217.38
810.20	217.71
810.52	218.17
810.84	217.81
811.16	217.67
811.48	217.31
811.80	217.69
812.12	217.71
812.43	217.88
812.75	218.07
813.07	217.79
813.39	217.86
813.71	217.29
814.03	217.21
814.35	217.43
814.67	216.40
814.98	216.24
815.30	216.24
815.62	215.98
815.94	214.52
816.26	214.50
816.58	214.24
816.89	214.24
817.21	213.60
817.53	213.62
817.85	213.74
818.17	213.81
818.48	212.93
818.80	213.29
819.12	213.14
819.44	212.88
819.76	212.52
820.07	212.57
820.39	212.69
820.71	212.81
821.03	212.93
821.34	212.76
821.66	213.31
821.98	213.55
822.30	213.69
822.61	214.90
822.93	214.98
823.25	215.00
823.57	214.88
823.88	215.40
824.20	215.40
824.52	215.64
824.83	215.45
825.15	215.52
825.47	215.38
825.79	215.48
826.10	215.00
826.42	214.93
826.74	215.07
827.05	215.00
827.37	214.88
827.69	214.83
828.00	215.00
828.32	214.60
828.64	214.31
828.95	215.36
829.27	214.81
829.58	214.90
829.90	215.12
830.22	215.24
830.53	214.79
830.85	214.67
831.17	214.17
831.48	214.45
831.80	214.33
832.11	214.26
832.43	213.90
832.75	213.83
833.06	215.19
833.38	214.64
833.69	214.64
834.01	214.83
834.32	214.76
834.64	214.67
834.96	214.74
835.27	214.67
835.59	214.10
835.90	213.48
836.22	213.33
836.53	212.88
836.85	212.55
837.16	214.67
837.48	214.88
837.79	215.64
838.11	215.31
838.42	215.38
838.74	215.64
839.05	215.48
839.37	215.69
839.68	214.14
840.00	214.05
840.31	214.29
840.63	213.95
840.94	213.88
841.26	213.60
841.57	213.60
841.88	213.74
842.20	213.36
842.51	213.31
842.83	213.33
843.14	215.31
843.46	215.43
843.77	214.14
844.08	213.71
844.40	213.17
844.71	213.31
845.03	213.07
845.34	212.76
845.65	212.79
845.97	212.76
846.28	213.14
846.60	213.12
846.91	212.79
847.22	212.79
847.54	213.17
847.85	213.31
848.16	212.93
848.48	212.64
848.79	213.50
849.10	213.74
849.42	213.86
849.73	211.83
850.04	211.67
850.36	210.93
850.67	211.45
850.98	211.38
851.30	211.43
851.61	211.55
851.92	211.69
852.23	212.52
852.55	212.67
852.86	212.76
853.17	213.19
853.49	213.71
853.80	214.33
854.11	214.38
854.42	214.81
854.74	214.76
855.05	215.07
855.36	213.93
855.67	213.95
855.99	213.69
856.30	216.31
856.61	216.50
856.92	216.60
857.23	216.48
857.55	216.38
857.86	216.45
858.17	216.81
858.48	216.29
858.79	215.98
859.11	216.48
859.42	216.55
859.73	216.17
860.04	216.14
860.35	215.45
860.66	214.98
860.98	214.69
861.29	215.05
861.60	214.86
861.91	215.52
862.22	215.05
862.53	214.83
862.84	212.26
863.16	212.86
863.47	212.45
863.78	212.36
864.09	212.43
864.40	212.45
864.71	212.33
865.02	212.93
865.33	212.50
865.64	212.00
865.95	211.79
866.27	213.17
866.58	213.02
866.89	213.38
867.20	213.33
867.51	213.10
867.82	212.98
868.13	213.60
868.44	213.02
868.75	213.79
869.06	214.02
869.37	214.57
869.68	213.88
869.99	214.33
870.30	214.52
870.61	214.67
870.92	214.45
871.23	214.36
871.54	214.52
871.85	214.95
872.16	215.33
872.47	215.19
872.78	213.81
873.09	214.07
873.40	213.76
873.71	214.10
874.02	214.24
874.33	214.26
874.64	213.69
874.95	214.14
875.26	213.43
875.56	213.40
875.87	212.95
876.18	212.81
876.49	214.83
876.80	214.79
877.11	214.19
877.42	214.24
877.73	214.17
878.04	213.69
878.35	213.83
878.66	213.64
878.96	213.81
879.27	213.93
879.58	213.57
879.89	213.45
880.20	213.95
880.51	213.81
880.82	213.71
881.12	213.71
881.43	213.36
881.74	213.31
882.05	213.24
882.36	213.50
882.67	213.60
882.97	211.26
883.28	210.86
883.59	211.17
883.90	211.38
884.21	211.76
884.51	211.64
884.82	211.38
885.13	211.31
885.44	211.19
885.74	210.98
886.05	211.07
886.36	211.19
886.67	210.31
886.98	211.55
887.28	211.71
887.59	211.57
887.90	211.40
888.20	211.38
888.51	211.57
888.82	211.33
889.13	211.69
889.43	213.40
889.74	213.31
890.05	213.21
890.35	212.88
890.66	212.55
890.97	212.57
891.28	212.33
891.58	212.36
891.89	212.36
892.20	212.38
892.50	212.29
892.81	212.45
893.12	212.48
893.42	211.29
893.73	211.14
894.04	211.31
894.34	211.62
894.65	211.64
894.95	211.62
895.26	211.52
895.57	212.45
895.87	210.52
896.18	210.86
896.48	210.88
896.79	211.05
897.10	211.40
897.40	211.21
897.71	211.33
898.01	211.29
898.32	211.40
898.63	211.57
898.93	211.29
899.24	210.98
899.54	211.10
899.85	211.38
900.15	211.38
900.46	211.55
900.76	211.74
901.07	211.81
901.38	211.98
901.68	212.48
901.99	211.21
902.29	211.45
902.60	211.19
902.90	211.10
903.21	211.00
903.51	210.76
903.82	211.24
904.12	211.33
904.43	211.40
904.73	211.33
905.03	211.31
905.34	213.43
905.64	213.48
905.95	213.21
906.25	213.02
906.56	212.95
906.86	212.81
907.17	212.62
907.47	212.71
907.77	212.33
908.08	211.83
908.38	212.05
908.69	212.29
908.99	212.95
909.30	213.40
909.60	213.55
909.90	213.64
910.21	213.38
910.51	213.17
910.81	213.19
911.12	213.43
911.42	213.43
911.73	211.50
912.03	211.81
912.33	212.64
912.64	212.45
912.94	212.36
913.24	212.12
913.55	211.86
913.85	211.81
914.15	212.26
914.46	212.40
914.76	212.40
915.06	212.45
915.37	212.02
915.67	211.83
915.97	211.69
916.27	211.19
916.58	211.19
916.88	211.24
917.18	211.21
917.49	212.69
917.79	212.55
918.09	212.90
918.39	213.40
918.70	213.02
919.00	213.29
919.30	214.14
919.60	214.19
919.91	214.14
920.21	214.19
920.51	213.67
920.81	213.55
921.12	213.69
921.42	213.38
921.72	213.67
922.02	213.74
922.32	214.02
922.63	214.19
922.93	215.05
923.23	215.14
923.53	214.76
923.83	213.05
924.13	213.43
924.44	213.40
924.74	213.33
925.04	213.81
925.34	213.76
925.64	213.14
925.94	213.24
926.24	214.55
926.55	214.33
926.85	214.74
927.15	214.90
927.45	214.79
927.75	214.93
928.05	214.83
928.35	214.43
928.65	214.76
928.95	214.81
929.26	214.26
929.56	214.36
929.86	214.64
930.16	214.62
930.46	214.26
930.76	214.26
931.06	213.55
931.36	213.05
931.66	213.33
931.96	213.52
932.26	213.57
932.56	212.71
932.86	212.93
933.16	212.93
933.46	212.71
933.76	212.50
934.06	212.86
934.36	213.48
934.66	213.48
934.96	213.12
935.26	213.33
935.56	213.45
935.86	213.29
936.16	213.12
936.46	212.90
936.76	212.88
937.06	212.38
937.36	212.52
937.66	212.60
937.96	212.40
938.26	211.98
938.56	211.90
938.86	211.93
939.16	212.29
939.46	212.57
939.76	212.64
940.06	212.79
940.35	212.21
940.65	211.40
940.95	211.50
941.25	211.19
941.55	210.90
941.85	210.86
942.15	211.29
942.45	211.88
942.75	212.10
943.04	212.29
943.34	212.74
943.64	212.67
943.94	212.19
944.24	212.14
944.54	212.33
944.84	212.31
945.13	211.86
945.43	211.64
945.73	211.55
946.03	211.45
946.33	211.26
946.62	211.26
946.92	210.86
947.22	211.21
947.52	211.36
947.82	211.64
948.11	211.69
948.41	211.12
948.71	210.45
949.01	210.38
949.31	210.07
949.60	210.07
949.90	210.31
950.20	210.48
950.50	210.62
950.79	210.43
951.09	210.71
951.39	210.86
951.69	210.60
951.98	210.64
952.28	210.52
952.58	210.52
952.87	210.50
953.17	211.17
953.47	210.86
953.76	210.88
954.06	210.64
954.36	210.02
954.66	209.90
954.95	210.60
955.25	210.62
955.55	210.86
955.84	210.38
956.14	210.40
956.44	210.67
956.73	210.38
957.03	210.55
957.32	210.40
957.62	210.24
957.92	210.71
958.21	210.81
958.51	213.40
958.81	213.60
959.10	214.12
959.40	214.55
959.69	214.62
959.99	214.88
960.29	214.74
960.58	214.83
960.88	215.86
961.17	215.52
961.47	215.98
961.76	215.93
962.06	216.50
962.36	216.17
962.65	216.17
962.95	216.14
963.24	215.90
963.54	215.93
963.83	216.19
964.13	215.81
964.42	215.24
964.72	213.57
965.01	213.69
965.31	213.17
965.60	212.31
965.90	213.48
966.19	212.83
966.49	213.14
966.78	212.95
967.08	212.62
967.37	212.67
967.67	212.14
967.96	212.45
968.26	212.24
968.55	212.74
968.85	212.50
969.14	212.50
969.43	212.64
969.73	212.48
970.02	212.48
970.32	212.43
970.61	212.21
970.91	211.45
971.20	210.95
971.49	210.98
971.79	211.60
972.08	210.24
972.38	210.45
972.67	210.33
972.96	210.88
973.26	210.48
973.55	210.79
973.85	210.83
974.14	210.62
974.43	210.88
974.73	210.40
975.02	210.10
975.31	210.19
975.61	210.02
975.90	210.12
976.19	209.90
976.49	210.36
976.78	210.67
977.07	210.88
977.37	211.19
977.66	211.31
977.95	210.86
978.24	211.24
978.54	211.52
978.83	211.36
979.12	211.10
979.42	211.02
979.71	210.88
980.00	210.90
980.29	210.86
980.59	210.43
980.88	210.95
981.17	211.07
981.46	210.88
981.76	210.90
982.05	211.36
982.34	211.60
982.63	211.45
982.93	211.55
983.22	211.95
983.51	211.93
983.80	212.38
984.09	212.55
984.39	212.31
984.68	211.90
984.97	212.07
985.26	211.90
985.55	212.21
985.85	211.83
986.14	212.00
986.43	212.31
986.72	212.31
987.01	211.60
987.30	211.60
987.59	211.64
987.89	211.93
988.18	211.14
988.47	210.95
988.76	210.74
989.05	210.48
989.34	210.26
989.63	210.83
989.92	210.24
990.22	209.98
990.51	209.95
990.80	210.14
991.09	210.29
991.38	210.67
991.67	210.36
991.96	210.12
992.25	210.29
992.54	209.86
992.83	209.83
993.12	210.02
993.41	210.40
993.70	211.21
993.99	211.43
994.28	211.81
994.58	212.12
994.87	211.79
995.16	211.79
995.45	211.64
995.74	210.79
996.03	211.12
996.32	211.29
996.61	211.81
996.90	211.64
997.19	211.40
997.48	211.40
997.77	211.36
998.06	211.67
998.34	211.40
998.63	211.60
998.92	211.76
999.21	212.00
999.50	212.17
999.79	211.55
1000.08	211.45
1000.37	211.62
1000.66	211.17
1000.95	211.83
1001.24	211.86
1001.53	212.14
1001.82	212.31
1002.11	211.93
1002.40	212.31
1002.68	212.38
1002.97	213.98
1003.26	213.98
1003.55	213.57
1003.84	213.79
1004.13	214.50
1004.42	214.43
1004.71	214.48
1004.99	214.43
1005.28	215.05
1005.57	214.52
1005.86	214.29
1006.15	214.26
1006.44	213.71
1006.72	214.07
1007.01	213.57
1007.30	213.74
1007.59	213.43
1007.88	213.36
1008.17	213.55
1008.45	213.12
1008.74	212.64
1009.03	211.67
1009.32	211.64
1009.60	211.62
1009.89	211.52
1010.18	210.62
1010.47	210.64
1010.76	210.45
1011.04	210.43
1011.33	210.48
1011.62	210.95
1011.91	211.07
1012.19	211.14
1012.48	211.26
1012.77	211.21
1013.05	212.12
1013.34	212.05
1013.63	211.95
1013.92	212.14
1014.20	211.88
1014.49	211.83
1014.78	212.00
1015.06	211.43
1015.35	211.40
1015.64	211.83
1015.92	212.14
1016.21	212.17
1016.50	212.10
1016.78	212.26
1017.07	212.36
1017.36	211.81
1017.64	211.40
1017.93	211.60
1018.22	211.33
1018.50	211.38
1018.79	211.33
1019.08	210.50
1019.36	210.55
1019.65	210.62
1019.93	210.93
1020.22	211.40
1020.51	212.55
1020.79	212.24
1021.08	209.50
1021.36	208.00
1021.65	211.50
1021.94	209.00
1022.22	210.50
1022.51	211.50
1022.79	217.00
1023.08	214.50
1023.36	234.50
1023.65	207.00
>>>>>End Processed Spectral Data<<<<<
