SpectraSuite Data File
++++++++++++++++++++++++++++++++++++
Date: Tue Apr 02 18:45:01 EDT 2013
User: group
Dark Spectrum Present: No
Reference Spectrum Present: No
Number of Sampled Component Spectra: 1
Spectrometers: USB2E7196
Integration Time (usec): 580000 (USB2E7196)
Spectra Averaged: 2 (USB2E7196)
Boxcar Smoothing: 10 (USB2E7196)
Correct for Electrical Dark: No (USB2E7196)
Strobe/Lamp Enabled: No (USB2E7196)
Correct for Detector Non-linearity: No (USB2E7196)
Correct for Stray Light: No (USB2E7196)
Number of Pixels in Processed Spectrum: 2048
>>>>>Begin Processed Spectral Data<<<<<
339.09	0.00
339.48	192.00
339.86	193.50
340.24	198.00
340.63	197.50
341.01	230.50
341.39	200.50
341.78	207.50
342.16	211.00
342.54	204.00
342.93	196.90
343.31	206.55
343.69	207.14
344.07	207.57
344.46	208.24
344.84	208.86
345.22	207.79
345.60	208.21
345.99	208.40
346.37	208.45
346.75	208.52
347.13	208.64
347.52	208.64
347.90	209.40
348.28	209.14
348.66	209.24
349.05	208.69
349.43	209.12
349.81	209.19
350.19	209.36
350.57	209.50
350.96	209.98
351.34	210.43
351.72	210.50
352.10	210.60
352.48	210.33
352.87	210.14
353.25	209.98
353.63	209.74
354.01	209.48
354.39	209.29
354.77	209.67
355.15	210.33
355.54	210.19
355.92	209.43
356.30	210.14
356.68	211.60
357.06	211.81
357.44	211.31
357.82	211.50
358.20	212.40
358.58	212.36
358.97	212.36
359.35	212.50
359.73	212.95
360.11	213.19
360.49	213.29
360.87	213.33
361.25	213.88
361.63	214.90
362.01	215.31
362.39	215.57
362.77	215.79
363.15	215.57
363.53	215.67
363.91	216.17
364.29	215.67
364.67	213.88
365.05	214.12
365.43	214.62
365.81	214.76
366.19	214.88
366.57	216.00
366.95	216.05
367.33	215.71
367.71	215.95
368.09	216.38
368.47	216.62
368.85	216.67
369.23	217.14
369.61	216.36
369.99	217.21
370.37	217.33
370.75	218.07
371.13	217.79
371.51	217.81
371.89	217.81
372.27	218.24
372.65	218.67
373.03	218.62
373.41	218.24
373.78	218.33
374.16	217.26
374.54	216.38
374.92	216.12
375.30	216.33
375.68	215.88
376.06	216.02
376.44	215.69
376.82	215.93
377.19	215.40
377.57	215.40
377.95	214.50
378.33	214.40
378.71	213.45
379.09	213.67
379.47	213.64
379.84	213.45
380.22	213.21
380.60	212.79
380.98	212.62
381.36	212.83
381.73	212.45
382.11	213.02
382.49	213.19
382.87	212.93
383.25	212.93
383.62	215.29
384.00	214.76
384.38	214.98
384.76	215.33
385.13	216.31
385.51	216.36
385.89	215.86
386.27	215.79
386.64	215.86
387.02	215.79
387.40	215.69
387.78	215.79
388.15	216.00
388.53	215.79
388.91	215.83
389.29	215.67
389.66	215.98
390.04	215.57
390.42	215.98
390.79	216.05
391.17	216.14
391.55	213.69
391.92	213.86
392.30	214.12
392.68	213.52
393.05	213.36
393.43	213.36
393.81	213.71
394.18	213.74
394.56	213.64
394.94	214.07
395.31	213.81
395.69	214.52
396.06	214.81
396.44	215.19
396.82	214.86
397.19	215.90
397.57	215.60
397.95	215.81
398.32	215.17
398.70	215.29
399.07	215.57
399.45	215.57
399.82	215.48
400.20	215.24
400.58	215.36
400.95	214.57
401.33	215.14
401.70	216.57
402.08	216.55
402.45	216.60
402.83	216.95
403.20	217.21
403.58	216.93
403.95	217.12
404.33	217.60
404.71	218.19
405.08	219.29
405.46	219.74
405.83	219.95
406.21	220.48
406.58	221.10
406.96	221.38
407.33	222.02
407.70	222.69
408.08	224.98
408.45	226.00
408.83	227.21
409.20	227.57
409.58	227.33
409.95	228.55
410.33	229.62
410.70	229.76
411.08	231.29
411.45	232.38
411.82	233.21
412.20	234.93
412.57	237.36
412.95	237.07
413.32	238.76
413.69	240.33
414.07	241.74
414.44	243.38
414.82	245.33
415.19	247.81
415.56	249.93
415.94	250.88
416.31	253.69
416.68	256.62
417.06	259.71
417.43	263.19
417.81	266.36
418.18	270.17
418.55	274.31
418.93	278.02
419.30	282.02
419.67	286.57
420.04	291.07
420.42	295.17
420.79	302.12
421.16	307.81
421.54	314.76
421.91	321.17
422.28	327.64
422.66	334.21
423.03	341.93
423.40	348.98
423.77	356.07
424.15	362.93
424.52	369.86
424.89	378.43
425.26	386.07
425.64	393.48
426.01	401.43
426.38	410.24
426.75	420.12
427.13	429.71
427.50	438.98
427.87	448.52
428.24	458.90
428.61	467.55
428.99	478.76
429.36	489.29
429.73	500.64
430.10	511.67
430.47	523.45
430.85	534.69
431.22	547.21
431.59	561.83
431.96	574.67
432.33	588.95
432.70	602.62
433.08	618.38
433.45	633.45
433.82	648.52
434.19	665.05
434.56	681.29
434.93	696.57
435.30	712.83
435.68	730.50
436.05	746.86
436.42	763.26
436.79	779.24
437.16	796.76
437.53	814.19
437.90	831.64
438.27	849.43
438.64	867.19
439.01	883.90
439.38	897.64
439.75	912.12
440.13	928.83
440.50	944.50
440.87	957.48
441.24	970.98
441.61	985.64
441.98	996.88
442.35	1008.67
442.72	1021.81
443.09	1035.43
443.46	1042.40
443.83	1048.02
444.20	1053.52
444.57	1059.02
444.94	1061.10
445.31	1064.57
445.68	1070.52
446.05	1071.95
446.42	1069.81
446.79	1068.76
447.16	1067.38
447.53	1066.52
447.90	1060.10
448.27	1053.24
448.64	1044.81
449.01	1038.79
449.37	1027.83
449.74	1016.86
450.11	1005.55
450.48	990.45
450.85	974.10
451.22	961.45
451.59	949.26
451.96	937.93
452.33	922.79
452.70	908.81
453.07	891.76
453.43	872.45
453.80	855.67
454.17	840.24
454.54	824.69
454.91	808.40
455.28	792.52
455.65	777.36
456.02	766.38
456.38	753.79
456.75	738.81
457.12	725.55
457.49	712.48
457.86	698.55
458.23	688.93
458.59	677.45
458.96	666.12
459.33	655.93
459.70	644.79
460.07	636.48
460.43	627.38
460.80	618.95
461.17	611.45
461.54	603.50
461.91	595.74
462.27	587.55
462.64	580.17
463.01	572.52
463.38	566.79
463.74	556.17
464.11	549.31
464.48	543.33
464.85	537.24
465.21	532.74
465.58	527.57
465.95	520.74
466.32	515.67
466.68	510.55
467.05	505.38
467.42	500.67
467.78	495.19
468.15	490.45
468.52	486.62
468.88	481.05
469.25	476.33
469.62	472.95
469.98	469.17
470.35	466.17
470.72	462.81
471.08	457.64
471.45	454.93
471.82	451.90
472.18	448.43
472.55	446.00
472.92	442.12
473.28	439.05
473.65	436.26
474.02	433.43
474.38	431.43
474.75	429.45
475.11	426.83
475.48	425.02
475.85	422.93
476.21	421.17
476.58	420.26
476.94	419.05
477.31	418.07
477.67	416.81
478.04	415.69
478.41	415.50
478.77	417.69
479.14	416.48
479.50	416.19
479.87	415.95
480.23	415.62
480.60	415.55
480.96	415.71
481.33	416.95
481.69	417.33
482.06	417.00
482.42	417.64
482.79	418.43
483.15	418.83
483.52	419.90
483.88	420.29
484.25	420.71
484.61	421.21
484.98	421.83
485.34	423.95
485.71	425.71
486.07	426.76
486.44	426.02
486.80	427.43
487.17	429.00
487.53	431.76
487.90	433.88
488.26	437.52
488.62	440.43
488.99	442.07
489.35	444.64
489.72	447.21
490.08	449.60
490.44	452.00
490.81	455.79
491.17	458.71
491.54	462.36
491.90	466.33
492.26	470.36
492.63	474.43
492.99	477.60
493.36	481.33
493.72	485.36
494.08	489.62
494.45	494.52
494.81	499.45
495.17	503.19
495.54	508.52
495.90	512.81
496.26	517.52
496.63	523.00
496.99	528.38
497.35	534.36
497.72	540.40
498.08	546.19
498.44	551.71
498.80	558.21
499.17	564.74
499.53	570.71
499.89	577.17
500.26	583.21
500.62	590.00
500.98	596.76
501.34	603.31
501.71	610.57
502.07	617.24
502.43	624.14
502.79	630.76
503.16	637.33
503.52	644.40
503.88	651.17
504.24	658.43
504.60	666.17
504.97	674.05
505.33	681.43
505.69	690.19
506.05	697.90
506.41	705.83
506.78	713.24
507.14	721.12
507.50	729.57
507.86	737.50
508.22	745.31
508.59	751.93
508.95	759.76
509.31	768.40
509.67	776.64
510.03	784.07
510.39	792.43
510.75	800.38
511.12	807.36
511.48	815.90
511.84	823.71
512.20	831.17
512.56	838.64
512.92	845.74
513.28	853.19
513.64	860.52
514.00	867.43
514.37	874.79
514.73	882.38
515.09	889.79
515.45	896.81
515.81	903.74
516.17	911.57
516.53	918.19
516.89	923.45
517.25	929.60
517.61	936.83
517.97	942.64
518.33	949.24
518.69	956.29
519.05	962.31
519.41	968.00
519.77	974.86
520.13	980.50
520.49	986.48
520.85	991.48
521.21	997.36
521.57	1003.02
521.93	1008.02
522.29	1013.19
522.65	1016.93
523.01	1022.10
523.37	1027.21
523.73	1031.90
524.09	1037.52
524.45	1042.48
524.81	1047.81
525.17	1052.60
525.53	1057.62
525.89	1061.90
526.25	1066.83
526.61	1070.60
526.97	1075.21
527.33	1079.12
527.68	1085.14
528.04	1089.55
528.40	1094.14
528.76	1098.02
529.12	1102.55
529.48	1107.48
529.84	1111.12
530.20	1116.40
530.56	1120.60
530.91	1125.29
531.27	1129.60
531.63	1134.29
531.99	1138.71
532.35	1142.33
532.71	1146.10
533.07	1150.40
533.42	1157.38
533.78	1160.29
534.14	1164.43
534.50	1168.12
534.86	1172.50
535.21	1174.76
535.57	1178.69
535.93	1182.60
536.29	1187.83
536.65	1191.67
537.00	1194.69
537.36	1198.50
537.72	1201.33
538.08	1205.43
538.44	1207.83
538.79	1212.21
539.15	1214.45
539.51	1217.67
539.87	1221.10
540.22	1224.07
540.58	1227.60
540.94	1228.12
541.29	1232.07
541.65	1234.74
542.01	1238.33
542.37	1240.07
542.72	1242.26
543.08	1244.29
543.44	1247.12
543.79	1247.95
544.15	1250.48
544.51	1253.95
544.87	1257.21
545.22	1260.10
545.58	1262.64
545.94	1265.19
546.29	1267.17
546.65	1269.95
547.01	1271.71
547.36	1274.64
547.72	1277.10
548.07	1279.33
548.43	1281.26
548.79	1283.05
549.14	1285.90
549.50	1288.38
549.86	1290.60
550.21	1293.71
550.57	1297.33
550.92	1299.71
551.28	1303.26
551.64	1305.86
551.99	1308.29
552.35	1309.86
552.70	1312.55
553.06	1315.43
553.41	1319.00
553.77	1323.43
554.13	1327.31
554.48	1331.83
554.84	1335.90
555.19	1340.21
555.55	1345.19
555.90	1349.00
556.26	1353.60
556.61	1357.52
556.97	1361.00
557.32	1365.40
557.68	1369.21
558.03	1372.52
558.39	1375.50
558.74	1378.88
559.10	1382.50
559.45	1386.24
559.81	1391.55
560.16	1396.05
560.52	1400.38
560.87	1405.40
561.23	1408.50
561.58	1414.00
561.94	1417.62
562.29	1421.29
562.64	1425.69
563.00	1429.21
563.35	1433.79
563.71	1438.33
564.06	1443.71
564.42	1448.83
564.77	1454.38
565.12	1460.14
565.48	1467.26
565.83	1473.57
566.19	1479.36
566.54	1485.10
566.89	1491.10
567.25	1496.88
567.60	1503.48
567.96	1511.52
568.31	1517.81
568.66	1525.05
569.02	1529.38
569.37	1535.24
569.72	1540.67
570.08	1546.17
570.43	1551.48
570.78	1557.69
571.14	1563.74
571.49	1568.60
571.84	1574.67
572.20	1579.98
572.55	1585.40
572.90	1589.02
573.26	1593.81
573.61	1598.55
573.96	1603.50
574.31	1608.26
574.67	1612.79
575.02	1616.81
575.37	1617.74
575.72	1620.38
576.08	1623.31
576.43	1626.45
576.78	1630.19
577.13	1635.40
577.49	1639.00
577.84	1643.55
578.19	1646.95
578.54	1650.40
578.90	1654.29
579.25	1656.55
579.60	1658.95
579.95	1661.71
580.30	1665.69
580.66	1668.95
581.01	1672.79
581.36	1676.40
581.71	1679.05
582.06	1683.02
582.42	1686.07
582.77	1689.90
583.12	1693.40
583.47	1696.17
583.82	1700.33
584.17	1704.14
584.53	1705.98
584.88	1708.64
585.23	1712.31
585.58	1714.90
585.93	1717.67
586.28	1720.19
586.63	1724.62
586.98	1728.64
587.34	1731.83
587.69	1733.12
588.04	1736.38
588.39	1739.12
588.74	1740.17
589.09	1743.24
589.44	1743.55
589.79	1745.67
590.14	1747.52
590.49	1748.24
590.84	1750.24
591.19	1752.60
591.54	1755.02
591.89	1756.93
592.25	1761.10
592.60	1761.29
592.95	1763.62
593.30	1765.71
593.65	1766.93
594.00	1766.33
594.35	1772.38
594.70	1772.76
595.05	1775.31
595.40	1775.36
595.75	1775.69
596.10	1777.81
596.45	1778.88
596.80	1780.74
597.15	1781.50
597.50	1782.43
597.85	1785.60
598.19	1785.88
598.54	1785.31
598.89	1784.05
599.24	1784.57
599.59	1783.38
599.94	1783.43
600.29	1782.90
600.64	1781.55
600.99	1781.93
601.34	1783.17
601.69	1777.33
602.04	1776.17
602.39	1774.79
602.74	1775.62
603.08	1774.40
603.43	1774.50
603.78	1772.90
604.13	1771.19
604.48	1770.62
604.83	1770.40
605.18	1768.81
605.53	1768.12
605.87	1767.48
606.22	1767.29
606.57	1766.40
606.92	1764.50
607.27	1763.52
607.62	1762.79
607.96	1763.29
608.31	1762.98
608.66	1761.24
609.01	1760.50
609.36	1760.95
609.70	1759.67
610.05	1757.14
610.40	1756.48
610.75	1754.05
611.10	1752.48
611.44	1750.62
611.79	1748.14
612.14	1745.52
612.49	1742.50
612.83	1740.10
613.18	1737.48
613.53	1734.52
613.88	1730.64
614.22	1726.76
614.57	1723.88
614.92	1720.55
615.27	1715.43
615.61	1710.88
615.96	1707.62
616.31	1704.26
616.65	1701.24
617.00	1699.00
617.35	1696.95
617.70	1693.71
618.04	1690.14
618.39	1686.95
618.74	1683.74
619.08	1679.67
619.43	1676.17
619.78	1672.50
620.12	1669.76
620.47	1666.07
620.82	1662.02
621.16	1658.21
621.51	1656.21
621.85	1652.05
622.20	1648.05
622.55	1644.81
622.89	1641.26
623.24	1638.29
623.59	1634.93
623.93	1630.62
624.28	1626.33
624.62	1623.12
624.97	1620.00
625.32	1616.43
625.66	1613.02
626.01	1608.95
626.35	1605.62
626.70	1601.21
627.04	1597.48
627.39	1593.48
627.73	1590.24
628.08	1586.64
628.43	1583.21
628.77	1578.67
629.12	1575.83
629.46	1572.79
629.81	1568.76
630.15	1564.86
630.50	1559.69
630.84	1554.50
631.19	1549.60
631.53	1545.62
631.88	1538.36
632.22	1532.36
632.57	1528.10
632.91	1522.12
633.26	1518.48
633.60	1513.36
633.95	1508.57
634.29	1503.57
634.64	1499.40
634.98	1494.40
635.32	1490.76
635.67	1486.60
636.01	1482.36
636.36	1477.12
636.70	1472.12
637.05	1468.21
637.39	1463.64
637.73	1459.12
638.08	1455.36
638.42	1450.50
638.77	1445.57
639.11	1440.95
639.45	1436.36
639.80	1430.67
640.14	1425.88
640.49	1421.12
640.83	1416.26
641.17	1412.71
641.52	1407.95
641.86	1402.19
642.20	1398.12
642.55	1392.10
642.89	1386.83
643.23	1380.98
643.58	1376.10
643.92	1370.62
644.26	1364.95
644.61	1360.36
644.95	1355.10
645.29	1348.71
645.64	1343.88
645.98	1338.38
646.32	1334.14
646.66	1328.36
647.01	1322.79
647.35	1317.67
647.69	1311.19
648.04	1306.12
648.38	1299.36
648.72	1293.90
649.06	1287.67
649.41	1281.21
649.75	1275.00
650.09	1269.31
650.43	1262.67
650.78	1256.17
651.12	1249.07
651.46	1242.67
651.80	1236.12
652.14	1230.05
652.49	1224.52
652.83	1218.19
653.17	1211.21
653.51	1204.36
653.85	1199.14
654.20	1192.95
654.54	1186.14
654.88	1179.79
655.22	1173.69
655.56	1166.86
655.90	1160.10
656.25	1153.93
656.59	1147.05
656.93	1141.40
657.27	1135.83
657.61	1129.98
657.95	1123.90
658.29	1118.81
658.64	1112.88
658.98	1105.81
659.32	1098.60
659.66	1092.02
660.00	1085.74
660.34	1079.64
660.68	1074.00
661.02	1067.19
661.36	1061.19
661.70	1055.90
662.05	1049.36
662.39	1043.98
662.73	1038.95
663.07	1034.52
663.41	1028.57
663.75	1022.79
664.09	1016.71
664.43	1009.57
664.77	1004.26
665.11	997.62
665.45	991.29
665.79	984.69
666.13	979.26
666.47	974.00
666.81	968.00
667.15	962.48
667.49	957.07
667.83	951.93
668.17	945.88
668.51	939.95
668.85	934.43
669.19	930.40
669.53	923.45
669.87	917.55
670.21	911.43
670.55	905.62
670.89	900.98
671.23	895.71
671.57	890.43
671.91	884.74
672.25	879.79
672.58	874.93
672.92	870.07
673.26	864.74
673.60	859.14
673.94	853.67
674.28	848.12
674.62	843.24
674.96	837.62
675.30	832.95
675.64	827.90
675.97	822.60
676.31	816.90
676.65	812.17
676.99	808.21
677.33	802.64
677.67	797.62
678.01	791.95
678.34	786.71
678.68	782.02
679.02	776.88
679.36	771.88
679.70	766.31
680.04	761.21
680.37	756.21
680.71	751.52
681.05	747.24
681.39	742.33
681.73	737.26
682.06	732.00
682.40	726.90
682.74	723.02
683.08	718.79
683.42	713.52
683.75	708.95
684.09	703.57
684.43	699.14
684.77	694.00
685.10	688.95
685.44	684.26
685.78	679.40
686.12	674.95
686.45	670.45
686.79	666.36
687.13	662.21
687.46	657.60
687.80	653.69
688.14	649.02
688.48	645.07
688.81	640.17
689.15	636.64
689.49	632.29
689.82	627.02
690.16	621.83
690.50	617.36
690.83	613.00
691.17	608.29
691.51	604.07
691.84	600.40
692.18	596.52
692.52	592.62
692.85	588.86
693.19	585.62
693.52	581.43
693.86	576.52
694.20	572.55
694.53	568.90
694.87	564.67
695.21	560.55
695.54	556.26
695.88	552.48
696.21	547.38
696.55	543.88
696.88	540.24
697.22	536.93
697.56	534.29
697.89	529.93
698.23	526.67
698.56	522.57
698.90	519.24
699.23	514.88
699.57	511.26
699.90	507.55
700.24	503.31
700.58	500.05
700.91	497.55
701.25	495.86
701.58	492.95
701.92	490.26
702.25	487.40
702.59	484.05
702.92	481.07
703.26	478.14
703.59	474.81
703.93	473.33
704.26	470.12
704.60	466.45
704.93	463.62
705.26	460.33
705.60	458.05
705.93	454.69
706.27	452.86
706.60	450.48
706.94	448.45
707.27	445.50
707.61	442.88
707.94	439.90
708.27	435.05
708.61	431.29
708.94	427.98
709.28	425.38
709.61	422.88
709.94	420.50
710.28	418.21
710.61	415.90
710.95	411.88
711.28	410.76
711.61	408.52
711.95	406.79
712.28	404.26
712.61	401.76
712.95	400.26
713.28	398.60
713.61	396.07
713.95	393.17
714.28	390.95
714.61	388.50
714.95	386.14
715.28	384.48
715.61	382.67
715.95	380.93
716.28	378.67
716.61	376.64
716.95	374.31
717.28	372.14
717.61	370.12
717.94	368.14
718.28	365.17
718.61	363.05
718.94	360.83
719.27	359.02
719.61	356.93
719.94	354.76
720.27	351.81
720.60	349.83
720.94	348.00
721.27	346.69
721.60	345.17
721.93	343.31
722.27	342.29
722.60	340.69
722.93	338.88
723.26	337.67
723.59	336.14
723.93	335.12
724.26	334.05
724.59	332.36
724.92	331.31
725.25	330.21
725.59	329.00
725.92	327.74
726.25	326.40
726.58	325.29
726.91	323.98
727.24	323.17
727.57	322.10
727.91	320.52
728.24	319.26
728.57	318.10
728.90	317.52
729.23	315.38
729.56	315.45
729.89	314.26
730.22	312.93
730.55	311.90
730.89	310.40
731.22	308.98
731.55	307.69
731.88	306.52
732.21	304.98
732.54	303.67
732.87	302.64
733.20	301.93
733.53	300.93
733.86	300.07
734.19	298.62
734.52	297.62
734.85	298.10
735.18	297.00
735.51	296.48
735.84	295.55
736.17	295.45
736.50	293.40
736.83	294.98
737.16	294.10
737.49	292.98
737.82	292.00
738.15	291.79
738.48	291.26
738.81	290.17
739.14	289.55
739.47	288.55
739.80	287.62
740.13	286.62
740.46	285.57
740.79	284.43
741.12	283.76
741.45	282.83
741.78	280.98
742.11	280.43
742.44	278.93
742.77	278.45
743.10	277.43
743.43	276.40
743.75	273.17
744.08	274.64
744.41	273.95
744.74	273.12
745.07	271.76
745.40	271.31
745.73	271.50
746.06	270.57
746.39	270.36
746.71	269.83
747.04	268.88
747.37	268.10
747.70	267.81
748.03	267.45
748.36	266.86
748.68	266.19
749.01	265.29
749.34	264.98
749.67	264.52
750.00	264.12
750.33	265.40
750.65	265.40
750.98	262.74
751.31	262.40
751.64	261.95
751.97	262.60
752.29	261.93
752.62	260.38
752.95	259.86
753.28	259.10
753.60	258.12
753.93	258.31
754.26	258.10
754.59	256.90
754.91	256.07
755.24	255.67
755.57	255.29
755.90	254.69
756.22	253.86
756.55	252.83
756.88	251.74
757.20	249.86
757.53	248.79
757.86	248.24
758.19	247.88
758.51	247.50
758.84	245.81
759.17	244.98
759.49	244.74
759.82	245.29
760.15	245.10
760.47	244.88
760.80	244.05
761.13	243.95
761.45	243.71
761.78	243.38
762.11	243.00
762.43	242.26
762.76	241.79
763.08	241.76
763.41	241.64
763.74	241.38
764.06	241.00
764.39	240.81
764.71	240.19
765.04	239.64
765.37	239.26
765.69	238.90
766.02	238.38
766.34	237.93
766.67	236.74
767.00	236.81
767.32	237.60
767.65	238.33
767.97	237.55
768.30	237.36
768.62	236.88
768.95	236.33
769.27	236.02
769.60	236.21
769.92	235.57
770.25	234.71
770.57	234.19
770.90	233.86
771.22	233.38
771.55	233.31
771.87	233.17
772.20	232.62
772.52	234.31
772.85	236.93
773.17	236.55
773.50	236.31
773.82	235.52
774.15	234.26
774.47	232.76
774.80	232.43
775.12	232.31
775.45	231.98
775.77	231.93
776.09	232.10
776.42	231.90
776.74	232.31
777.07	232.21
777.39	232.17
777.72	231.86
778.04	231.69
778.36	231.21
778.69	230.83
779.01	231.12
779.33	228.98
779.66	226.21
779.98	226.21
780.31	226.31
780.63	227.05
780.95	227.29
781.28	227.07
781.60	227.02
781.92	226.86
782.25	226.93
782.57	226.79
782.89	226.33
783.22	226.05
783.54	225.55
783.86	225.57
784.19	225.36
784.51	225.76
784.83	225.45
785.16	225.52
785.48	225.29
785.80	224.98
786.12	225.14
786.45	224.95
786.77	224.81
787.09	224.21
787.42	223.52
787.74	223.38
788.06	223.43
788.38	223.14
788.71	222.74
789.03	222.64
789.35	222.76
789.67	222.36
789.99	222.26
790.32	221.90
790.64	222.07
790.96	223.48
791.28	222.71
791.61	222.45
791.93	222.19
792.25	222.55
792.57	224.00
792.89	223.45
793.21	223.69
793.54	223.55
793.86	223.43
794.18	223.33
794.50	222.95
794.82	222.76
795.14	223.05
795.47	223.43
795.79	223.17
796.11	222.50
796.43	222.31
796.75	222.48
797.07	222.52
797.39	222.38
797.71	221.07
798.04	221.38
798.36	221.88
798.68	222.19
799.00	222.07
799.32	220.43
799.64	220.98
799.96	220.90
800.28	221.17
800.60	221.02
800.92	221.10
801.24	221.07
801.56	221.19
801.89	220.86
802.21	220.93
802.53	220.67
802.85	221.19
803.17	222.21
803.49	221.60
803.81	221.45
804.13	221.02
804.45	220.60
804.77	220.43
805.09	220.36
805.41	219.86
805.73	219.29
806.05	219.31
806.37	219.21
806.69	219.02
807.01	218.83
807.33	219.05
807.65	218.43
807.97	218.90
808.28	218.86
808.60	218.67
808.92	218.40
809.24	219.90
809.56	219.74
809.88	219.10
810.20	219.14
810.52	219.52
810.84	219.17
811.16	218.98
811.48	218.76
811.80	219.05
812.12	219.17
812.43	219.62
812.75	219.62
813.07	219.29
813.39	219.33
813.71	219.02
814.03	218.83
814.35	218.86
814.67	218.17
814.98	217.76
815.30	217.93
815.62	217.26
815.94	215.69
816.26	215.52
816.58	214.83
816.89	214.95
817.21	214.33
817.53	214.67
817.85	214.79
818.17	214.74
818.48	213.93
818.80	214.10
819.12	213.57
819.44	213.19
819.76	212.93
820.07	212.88
820.39	212.76
820.71	212.76
821.03	212.57
821.34	212.50
821.66	213.10
821.98	213.10
822.30	213.21
822.61	214.60
822.93	214.19
823.25	214.14
823.57	213.86
823.88	214.57
824.20	214.62
824.52	215.02
824.83	214.88
825.15	214.83
825.47	214.86
825.79	215.05
826.10	214.86
826.42	214.88
826.74	215.12
827.05	214.90
827.37	215.05
827.69	215.02
828.00	215.10
828.32	214.86
828.64	214.83
828.95	215.88
829.27	215.10
829.58	215.19
829.90	215.76
830.22	216.14
830.53	215.50
830.85	215.29
831.17	214.95
831.48	215.12
831.80	215.10
832.11	214.88
832.43	214.62
832.75	214.90
833.06	216.07
833.38	215.52
833.69	215.60
834.01	215.57
834.32	215.36
834.64	215.05
834.96	214.93
835.27	214.67
835.59	213.86
835.90	213.29
836.22	213.29
836.53	212.95
836.85	212.52
837.16	214.50
837.48	214.55
837.79	214.86
838.11	214.95
838.42	215.07
838.74	215.31
839.05	215.24
839.37	215.12
839.68	213.95
840.00	213.93
840.31	214.50
840.63	214.26
840.94	214.38
841.26	214.55
841.57	214.62
841.88	214.90
842.20	214.76
842.51	214.88
842.83	214.90
843.14	216.79
843.46	216.83
843.77	215.81
844.08	215.48
844.40	214.95
844.71	214.67
845.03	214.45
845.34	214.33
845.65	214.31
845.97	214.24
846.28	214.21
846.60	214.14
846.91	213.64
847.22	213.83
847.54	214.31
847.85	214.24
848.16	214.00
848.48	213.60
848.79	214.55
849.10	214.74
849.42	214.88
849.73	212.90
850.04	212.95
850.36	212.10
850.67	212.74
850.98	212.76
851.30	212.93
851.61	212.98
851.92	212.95
852.23	213.45
852.55	213.76
852.86	214.00
853.17	214.17
853.49	214.67
853.80	214.93
854.11	214.93
854.42	215.24
854.74	215.02
855.05	215.19
855.36	213.79
855.67	213.76
855.99	213.76
856.30	216.40
856.61	216.40
856.92	216.50
857.23	216.26
857.55	216.26
857.86	216.10
858.17	216.43
858.48	215.95
858.79	215.74
859.11	215.79
859.42	215.38
859.73	215.21
860.04	214.79
860.35	214.07
860.66	213.50
860.98	213.43
861.29	213.74
861.60	213.67
861.91	214.64
862.22	214.50
862.53	214.19
862.84	211.74
863.16	212.31
863.47	212.07
863.78	211.74
864.09	211.74
864.40	211.93
864.71	211.71
865.02	212.14
865.33	211.74
865.64	211.43
865.95	211.43
866.27	212.69
866.58	212.57
866.89	213.07
867.20	212.98
867.51	212.76
867.82	212.67
868.13	213.19
868.44	212.50
868.75	212.74
869.06	212.98
869.37	213.17
869.68	212.36
869.99	212.64
870.30	213.10
870.61	213.24
870.92	213.05
871.23	213.02
871.54	213.12
871.85	213.71
872.16	213.90
872.47	213.79
872.78	212.43
873.09	212.60
873.40	212.38
873.71	212.69
874.02	212.62
874.33	212.43
874.64	212.07
874.95	212.38
875.26	211.95
875.56	211.76
875.87	211.57
876.18	211.60
876.49	213.33
876.80	213.00
877.11	212.74
877.42	212.79
877.73	212.83
878.04	212.64
878.35	212.60
878.66	212.60
878.96	212.83
879.27	213.05
879.58	213.17
879.89	213.00
880.20	213.64
880.51	213.55
880.82	213.52
881.12	213.33
881.43	213.14
881.74	212.98
882.05	212.86
882.36	212.98
882.67	213.38
882.97	211.45
883.28	211.40
883.59	211.19
883.90	211.19
884.21	211.55
884.51	211.50
884.82	211.36
885.13	211.17
885.44	211.17
885.74	211.10
886.05	210.81
886.36	210.76
886.67	209.90
886.98	211.00
887.28	211.33
887.59	211.52
887.90	211.43
888.20	211.40
888.51	211.74
888.82	211.38
889.13	211.12
889.43	212.71
889.74	212.55
890.05	212.55
890.35	212.43
890.66	212.07
890.97	212.05
891.28	211.67
891.58	211.74
891.89	211.57
892.20	211.52
892.50	211.69
892.81	211.67
893.12	211.55
893.42	210.57
893.73	210.69
894.04	210.52
894.34	210.88
894.65	211.00
894.95	210.64
895.26	210.93
895.57	212.17
895.87	210.33
896.18	210.74
896.48	211.05
896.79	210.86
897.10	211.12
897.40	210.98
897.71	211.45
898.01	211.43
898.32	211.57
898.63	211.33
898.93	211.17
899.24	211.31
899.54	211.40
899.85	211.45
900.15	211.24
900.46	211.38
900.76	211.38
901.07	211.10
901.38	211.45
901.68	211.64
901.99	210.45
902.29	210.69
902.60	210.57
902.90	210.40
903.21	210.57
903.51	210.45
903.82	210.98
904.12	211.02
904.43	211.26
904.73	211.21
905.03	211.52
905.34	213.48
905.64	213.36
905.95	213.29
906.25	213.17
906.56	213.12
906.86	212.95
907.17	212.88
907.47	213.43
907.77	213.07
908.08	212.74
908.38	212.88
908.69	213.07
908.99	213.21
909.30	213.26
909.60	213.40
909.90	213.55
910.21	212.76
910.51	212.10
910.81	211.93
911.12	212.19
911.42	212.17
911.73	210.17
912.03	210.29
912.33	210.71
912.64	210.76
912.94	210.50
913.24	210.43
913.55	210.31
913.85	209.95
914.15	210.38
914.46	210.52
914.76	210.40
915.06	210.24
915.37	210.19
915.67	210.17
915.97	210.05
916.27	209.50
916.58	209.83
916.88	209.95
917.18	209.83
917.49	211.12
917.79	210.90
918.09	211.40
918.39	211.86
918.70	211.86
919.00	211.71
919.30	212.57
919.60	212.48
919.91	212.21
920.21	212.36
920.51	211.83
920.81	211.71
921.12	211.86
921.42	211.62
921.72	211.62
922.02	211.67
922.32	211.98
922.63	212.02
922.93	212.81
923.23	213.00
923.53	212.79
923.83	211.31
924.13	211.55
924.44	211.14
924.74	211.38
925.04	211.86
925.34	211.83
925.64	211.26
925.94	211.43
926.24	212.76
926.55	212.48
926.85	212.98
927.15	212.98
927.45	213.07
927.75	213.19
928.05	213.36
928.35	213.29
928.65	213.74
928.95	214.10
929.26	213.52
929.56	213.67
929.86	214.12
930.16	214.12
930.46	214.02
930.76	214.21
931.06	213.17
931.36	212.50
931.66	212.95
931.96	213.31
932.26	213.19
932.56	212.21
932.86	212.57
933.16	212.60
933.46	212.38
933.76	212.02
934.06	212.69
934.36	213.17
934.66	213.14
934.96	212.88
935.26	213.05
935.56	213.48
935.86	213.12
936.16	212.83
936.46	212.86
936.76	212.57
937.06	212.31
937.36	212.83
937.66	212.86
937.96	212.64
938.26	212.14
938.56	212.02
938.86	212.17
939.16	212.45
939.46	212.48
939.76	212.76
940.06	212.83
940.35	212.05
940.65	210.95
940.95	211.17
941.25	210.48
941.55	210.19
941.85	209.93
942.15	210.64
942.45	211.19
942.75	211.02
943.04	211.48
943.34	211.98
943.64	211.67
943.94	211.60
944.24	211.52
944.54	211.48
944.84	211.57
945.13	211.21
945.43	210.83
945.73	210.83
946.03	210.74
946.33	210.40
946.62	210.36
946.92	210.50
947.22	210.69
947.52	211.10
947.82	211.21
948.11	210.83
948.41	210.26
948.71	209.74
949.01	209.83
949.31	209.24
949.60	209.17
949.90	209.43
950.20	209.21
950.50	209.50
950.79	209.67
951.09	210.10
951.39	210.07
951.69	209.98
951.98	210.17
952.28	210.29
952.58	210.36
952.87	210.52
953.17	210.90
953.47	210.48
953.76	210.26
954.06	209.88
954.36	209.76
954.66	209.67
954.95	210.17
955.25	210.26
955.55	210.76
955.84	210.36
956.14	210.43
956.44	210.74
956.73	210.36
957.03	210.24
957.32	210.17
957.62	210.14
957.92	210.74
958.21	210.69
958.51	213.07
958.81	213.55
959.10	213.74
959.40	214.26
959.69	214.52
959.99	215.14
960.29	215.12
960.58	215.26
960.88	216.38
961.17	215.95
961.47	216.29
961.76	215.93
962.06	216.36
962.36	216.31
962.65	216.26
962.95	216.45
963.24	216.36
963.54	216.43
963.83	216.64
964.13	216.29
964.42	215.98
964.72	214.31
965.01	214.14
965.31	214.05
965.60	213.52
965.90	214.86
966.19	214.21
966.49	214.55
966.78	214.33
967.08	213.81
967.37	214.14
967.67	213.71
967.96	214.29
968.26	214.10
968.55	214.19
968.85	214.19
969.14	214.17
969.43	214.14
969.73	213.90
970.02	213.64
970.32	213.62
970.61	213.31
970.91	212.52
971.20	212.12
971.49	211.76
971.79	211.95
972.08	210.52
972.38	210.60
972.67	210.48
972.96	210.71
973.26	210.36
973.55	210.93
973.85	211.00
974.14	210.76
974.43	211.07
974.73	210.86
975.02	210.74
975.31	210.69
975.61	210.74
975.90	210.60
976.19	210.45
976.49	210.60
976.78	210.90
977.07	210.74
977.37	211.31
977.66	211.45
977.95	211.02
978.24	211.05
978.54	211.55
978.83	211.33
979.12	211.33
979.42	211.17
979.71	210.57
980.00	210.40
980.29	210.45
980.59	210.05
980.88	210.48
981.17	210.33
981.46	210.26
981.76	210.33
982.05	210.90
982.34	210.98
982.63	210.98
982.93	210.86
983.22	211.76
983.51	211.45
983.80	212.05
984.09	212.36
984.39	212.14
984.68	211.67
984.97	211.79
985.26	211.83
985.55	212.02
985.85	211.76
986.14	212.17
986.43	212.50
986.72	212.21
987.01	211.71
987.30	211.79
987.59	211.57
987.89	211.67
988.18	210.90
988.47	210.88
988.76	210.74
989.05	210.45
989.34	209.98
989.63	210.74
989.92	210.33
990.22	210.05
990.51	210.07
990.80	210.10
991.09	210.17
991.38	210.31
991.67	210.19
991.96	209.93
992.25	209.67
992.54	209.14
992.83	209.10
993.12	209.19
993.41	209.50
993.70	210.60
993.99	210.98
994.28	211.48
994.58	211.57
994.87	211.29
995.16	211.38
995.45	211.31
995.74	210.45
996.03	210.71
996.32	210.93
996.61	211.52
996.90	211.36
997.19	211.38
997.48	211.29
997.77	211.24
998.06	211.17
998.34	211.10
998.63	211.36
998.92	211.52
999.21	211.71
999.50	211.83
999.79	211.02
1000.08	210.86
1000.37	210.79
1000.66	210.60
1000.95	211.17
1001.24	211.48
1001.53	211.71
1001.82	211.55
1002.11	211.26
1002.40	211.55
1002.68	211.86
1002.97	213.48
1003.26	213.26
1003.55	212.81
1003.84	212.76
1004.13	213.81
1004.42	213.88
1004.71	213.69
1004.99	213.69
1005.28	214.02
1005.57	213.76
1005.86	213.57
1006.15	213.33
1006.44	213.02
1006.72	213.40
1007.01	213.12
1007.30	212.88
1007.59	212.67
1007.88	212.55
1008.17	212.50
1008.45	212.00
1008.74	211.17
1009.03	210.29
1009.32	210.29
1009.60	210.50
1009.89	210.60
1010.18	209.40
1010.47	209.26
1010.76	209.26
1011.04	209.10
1011.33	209.31
1011.62	209.55
1011.91	209.57
1012.19	209.74
1012.48	209.81
1012.77	209.79
1013.05	210.57
1013.34	210.69
1013.63	210.38
1013.92	210.71
1014.20	210.45
1014.49	210.55
1014.78	210.45
1015.06	209.62
1015.35	209.48
1015.64	209.60
1015.92	210.00
1016.21	210.33
1016.50	210.48
1016.78	210.64
1017.07	210.93
1017.36	210.26
1017.64	209.93
1017.93	210.00
1018.22	209.74
1018.50	209.69
1018.79	209.69
1019.08	208.69
1019.36	208.93
1019.65	208.86
1019.93	209.50
1020.22	209.81
1020.51	211.00
1020.79	210.79
1021.08	207.50
1021.36	206.00
1021.65	212.00
1021.94	207.00
1022.22	214.00
1022.51	206.00
1022.79	222.00
1023.08	210.50
1023.36	236.50
1023.65	200.50
>>>>>End Processed Spectral Data<<<<<
