SpectraSuite Data File
++++++++++++++++++++++++++++++++++++
Date: Tue Apr 02 18:45:55 EDT 2013
User: group
Dark Spectrum Present: No
Reference Spectrum Present: No
Number of Sampled Component Spectra: 1
Spectrometers: USB2E7196
Integration Time (usec): 580000 (USB2E7196)
Spectra Averaged: 2 (USB2E7196)
Boxcar Smoothing: 10 (USB2E7196)
Correct for Electrical Dark: No (USB2E7196)
Strobe/Lamp Enabled: No (USB2E7196)
Correct for Detector Non-linearity: No (USB2E7196)
Correct for Stray Light: No (USB2E7196)
Number of Pixels in Processed Spectrum: 2048
>>>>>Begin Processed Spectral Data<<<<<
339.09	0.00
339.48	190.00
339.86	195.50
340.24	197.50
340.63	201.50
341.01	227.50
341.39	200.50
341.78	208.00
342.16	210.50
342.54	202.00
342.93	197.52
343.31	207.38
343.69	208.02
344.07	208.55
344.46	209.31
344.84	209.60
345.22	208.67
345.60	209.02
345.99	209.19
346.37	209.24
346.75	209.60
347.13	209.50
347.52	209.71
347.90	210.40
348.28	210.31
348.66	211.26
349.05	210.38
349.43	210.79
349.81	210.98
350.19	211.07
350.57	211.26
350.96	211.33
351.34	211.81
351.72	212.02
352.10	212.00
352.48	211.79
352.87	211.67
353.25	211.62
353.63	211.57
354.01	211.40
354.39	211.50
354.77	211.33
355.15	211.95
355.54	211.95
355.92	211.29
356.30	211.55
356.68	212.45
357.06	212.76
357.44	212.31
357.82	212.26
358.20	213.00
358.58	212.76
358.97	212.83
359.35	212.90
359.73	213.31
360.11	213.52
360.49	213.38
360.87	213.52
361.25	213.93
361.63	214.67
362.01	214.83
362.39	214.19
362.77	214.50
363.15	214.26
363.53	214.24
363.91	214.29
364.29	214.24
364.67	212.60
365.05	212.43
365.43	212.74
365.81	212.86
366.19	212.98
366.57	214.00
366.95	213.86
367.33	213.38
367.71	213.24
368.09	213.60
368.47	213.71
368.85	213.64
369.23	213.90
369.61	213.21
369.99	213.76
370.37	214.64
370.75	215.64
371.13	215.43
371.51	215.10
371.89	215.21
372.27	215.36
372.65	215.45
373.03	215.33
373.41	215.29
373.78	215.26
374.16	214.17
374.54	213.43
374.92	213.36
375.30	213.36
375.68	213.19
376.06	213.14
376.44	213.31
376.82	213.64
377.19	213.50
377.57	213.50
377.95	212.76
378.33	212.33
378.71	211.12
379.09	211.19
379.47	211.60
379.84	211.40
380.22	211.19
380.60	210.67
380.98	210.79
381.36	210.74
381.73	210.40
382.11	210.83
382.49	210.88
382.87	210.79
383.25	210.90
383.62	213.05
384.00	212.67
384.38	212.55
384.76	212.93
385.13	213.71
385.51	213.71
385.89	213.71
386.27	213.95
386.64	214.36
387.02	214.33
387.40	213.95
387.78	214.31
388.15	214.52
388.53	214.50
388.91	214.62
389.29	214.67
389.66	215.26
390.04	215.19
390.42	215.57
390.79	215.74
391.17	215.79
391.55	213.88
391.92	213.88
392.30	214.10
392.68	213.57
393.05	213.31
393.43	213.24
393.81	213.50
394.18	213.10
394.56	213.05
394.94	213.43
395.31	213.17
395.69	213.69
396.06	214.00
396.44	214.26
396.82	213.95
397.19	215.10
397.57	214.83
397.95	215.00
398.32	214.43
398.70	214.50
399.07	215.00
399.45	214.79
399.82	215.07
400.20	214.88
400.58	214.90
400.95	214.26
401.33	214.90
401.70	216.29
402.08	216.50
402.45	216.48
402.83	216.93
403.20	217.69
403.58	217.64
403.95	217.98
404.33	218.31
404.71	218.64
405.08	219.76
405.46	219.90
405.83	220.29
406.21	220.50
406.58	221.07
406.96	221.33
407.33	221.90
407.70	222.40
408.08	224.57
408.45	225.31
408.83	226.45
409.20	226.95
409.58	226.43
409.95	227.74
410.33	228.76
410.70	229.07
411.08	230.14
411.45	231.24
411.82	232.10
412.20	233.90
412.57	236.60
412.95	235.95
413.32	237.90
413.69	239.21
414.07	241.21
414.44	243.12
414.82	245.02
415.19	247.55
415.56	249.83
415.94	251.00
416.31	254.00
416.68	256.60
417.06	259.74
417.43	263.36
417.81	266.50
418.18	270.14
418.55	273.81
418.93	277.38
419.30	281.24
419.67	285.67
420.04	289.81
420.42	293.86
420.79	301.00
421.16	306.29
421.54	313.07
421.91	319.36
422.28	325.00
422.66	331.48
423.03	339.52
423.40	346.31
423.77	353.74
424.15	361.07
424.52	369.00
424.89	377.71
425.26	385.43
425.64	393.17
426.01	401.19
426.38	410.24
426.75	419.95
427.13	429.38
427.50	439.19
427.87	449.21
428.24	459.14
428.61	467.64
428.99	478.90
429.36	489.43
429.73	500.40
430.10	512.29
430.47	524.21
430.85	534.45
431.22	547.02
431.59	561.71
431.96	573.83
432.33	587.36
432.70	600.81
433.08	616.57
433.45	632.14
433.82	647.67
434.19	664.40
434.56	681.31
434.93	696.55
435.30	711.95
435.68	729.64
436.05	747.10
436.42	763.38
436.79	779.55
437.16	796.43
437.53	814.02
437.90	831.79
438.27	849.07
438.64	866.55
439.01	884.00
439.38	897.64
439.75	913.24
440.13	929.74
440.50	945.21
440.87	957.79
441.24	970.40
441.61	984.45
441.98	995.55
442.35	1007.55
442.72	1021.14
443.09	1034.38
443.46	1041.26
443.83	1046.62
444.20	1051.64
444.57	1056.98
444.94	1060.76
445.31	1064.12
445.68	1069.36
446.05	1070.98
446.42	1070.00
446.79	1068.02
447.16	1065.98
447.53	1064.86
447.90	1059.43
448.27	1053.36
448.64	1045.17
449.01	1039.50
449.37	1028.55
449.74	1017.67
450.11	1006.40
450.48	991.12
450.85	975.67
451.22	963.12
451.59	950.76
451.96	939.93
452.33	924.62
452.70	910.57
453.07	894.40
453.43	874.90
453.80	858.14
454.17	842.86
454.54	827.90
454.91	811.98
455.28	795.19
455.65	779.95
456.02	768.07
456.38	755.07
456.75	739.50
457.12	726.43
457.49	713.74
457.86	699.14
458.23	689.48
458.59	678.02
458.96	666.24
459.33	655.69
459.70	644.71
460.07	637.12
460.43	626.90
460.80	617.64
461.17	610.76
461.54	602.83
461.91	595.05
462.27	586.93
462.64	580.19
463.01	573.31
463.38	566.67
463.74	555.93
464.11	549.57
464.48	543.57
464.85	537.43
465.21	532.52
465.58	527.67
465.95	521.19
466.32	515.76
466.68	511.14
467.05	506.00
467.42	501.38
467.78	495.50
468.15	491.07
468.52	487.62
468.88	481.55
469.25	476.86
469.62	472.79
469.98	468.52
470.35	464.40
470.72	460.76
471.08	456.50
471.45	454.26
471.82	451.74
472.18	448.40
472.55	445.98
472.92	442.52
473.28	439.81
473.65	436.81
474.02	434.57
474.38	432.00
474.75	430.19
475.11	427.48
475.48	425.52
475.85	423.57
476.21	421.62
476.58	420.69
476.94	419.45
477.31	418.45
477.67	417.52
478.04	416.83
478.41	416.07
478.77	417.43
479.14	415.98
479.50	415.24
479.87	415.14
480.23	414.69
480.60	414.24
480.96	413.62
481.33	414.60
481.69	414.57
482.06	414.98
482.42	414.98
482.79	415.71
483.15	416.21
483.52	417.40
483.88	418.02
484.25	418.64
484.61	419.74
484.98	420.29
485.34	422.10
485.71	423.40
486.07	424.76
486.44	424.19
486.80	425.79
487.17	426.81
487.53	429.05
487.90	431.38
488.26	434.50
488.62	437.83
488.99	439.71
489.35	442.55
489.72	445.17
490.08	448.00
490.44	450.74
490.81	454.31
491.17	456.86
491.54	460.12
491.90	464.14
492.26	467.71
492.63	471.69
492.99	474.71
493.36	478.71
493.72	483.45
494.08	487.88
494.45	493.05
494.81	498.60
495.17	503.36
495.54	508.40
495.90	512.71
496.26	517.52
496.63	523.02
496.99	527.69
497.35	533.31
497.72	539.62
498.08	545.33
498.44	551.07
498.80	558.00
499.17	564.19
499.53	570.52
499.89	577.29
500.26	583.88
500.62	591.31
500.98	598.00
501.34	604.14
501.71	611.74
502.07	618.21
502.43	625.21
502.79	632.02
503.16	638.86
503.52	646.17
503.88	653.02
504.24	660.90
504.60	669.02
504.97	676.83
505.33	683.98
505.69	692.50
506.05	700.29
506.41	707.29
506.78	714.71
507.14	721.90
507.50	729.88
507.86	737.71
508.22	745.10
508.59	753.29
508.95	761.57
509.31	770.29
509.67	778.33
510.03	785.98
510.39	793.36
510.75	801.07
511.12	809.24
511.48	817.36
511.84	824.57
512.20	831.67
512.56	839.29
512.92	847.10
513.28	854.45
513.64	861.95
514.00	869.69
514.37	878.10
514.73	885.36
515.09	892.48
515.45	899.10
515.81	905.62
516.17	912.07
516.53	918.71
516.89	924.21
517.25	930.95
517.61	938.12
517.97	944.95
518.33	951.76
518.69	957.64
519.05	963.86
519.41	969.79
519.77	977.52
520.13	983.24
520.49	988.33
520.85	993.38
521.21	1000.05
521.57	1006.19
521.93	1010.62
522.29	1016.64
522.65	1021.40
523.01	1027.05
523.37	1032.38
523.73	1037.95
524.09	1042.21
524.45	1046.74
524.81	1051.48
525.17	1056.55
525.53	1060.64
525.89	1065.36
526.25	1070.60
526.61	1074.83
526.97	1079.62
527.33	1083.24
527.68	1089.38
528.04	1093.83
528.40	1098.55
528.76	1101.86
529.12	1105.67
529.48	1111.36
529.84	1114.69
530.20	1118.90
530.56	1123.62
530.91	1128.29
531.27	1132.43
531.63	1137.05
531.99	1141.02
532.35	1144.88
532.71	1147.31
533.07	1152.57
533.42	1159.38
533.78	1162.81
534.14	1166.76
534.50	1170.24
534.86	1175.14
535.21	1176.69
535.57	1181.05
535.93	1184.19
536.29	1189.17
536.65	1192.98
537.00	1196.31
537.36	1200.19
537.72	1203.48
538.08	1207.14
538.44	1210.00
538.79	1213.57
539.15	1216.43
539.51	1219.69
539.87	1222.98
540.22	1227.48
540.58	1230.81
540.94	1231.26
541.29	1234.21
541.65	1237.19
542.01	1240.90
542.37	1242.24
542.72	1244.81
543.08	1247.00
543.44	1250.14
543.79	1250.74
544.15	1253.24
544.51	1255.38
544.87	1258.31
545.22	1261.86
545.58	1263.69
545.94	1265.74
546.29	1266.98
546.65	1269.83
547.01	1272.45
547.36	1275.76
547.72	1277.88
548.07	1279.81
548.43	1281.43
548.79	1284.14
549.14	1286.24
549.50	1288.52
549.86	1290.60
550.21	1293.95
550.57	1297.12
550.92	1299.48
551.28	1303.74
551.64	1306.43
551.99	1309.50
552.35	1311.79
552.70	1314.02
553.06	1317.17
553.41	1320.81
553.77	1326.76
554.13	1330.48
554.48	1334.95
554.84	1338.52
555.19	1342.26
555.55	1347.26
555.90	1351.60
556.26	1355.52
556.61	1359.62
556.97	1362.57
557.32	1366.48
557.68	1369.90
558.03	1373.86
558.39	1377.98
558.74	1380.71
559.10	1384.57
559.45	1388.48
559.81	1393.14
560.16	1396.81
560.52	1401.10
560.87	1405.57
561.23	1407.60
561.58	1413.81
561.94	1417.05
562.29	1420.95
562.64	1425.29
563.00	1428.21
563.35	1432.62
563.71	1437.07
564.06	1441.57
564.42	1447.67
564.77	1453.57
565.12	1459.43
565.48	1466.67
565.83	1472.88
566.19	1479.31
566.54	1484.69
566.89	1490.40
567.25	1497.10
567.60	1504.50
567.96	1510.93
568.31	1517.52
568.66	1524.38
569.02	1527.52
569.37	1532.88
569.72	1537.86
570.08	1542.79
570.43	1547.93
570.78	1554.10
571.14	1560.55
571.49	1566.26
571.84	1571.12
572.20	1575.90
572.55	1580.43
572.90	1583.05
573.26	1586.90
573.61	1591.33
573.96	1596.40
574.31	1600.24
574.67	1603.40
575.02	1606.57
575.37	1609.43
575.72	1612.45
576.08	1616.31
576.43	1620.81
576.78	1625.24
577.13	1629.31
577.49	1633.48
577.84	1637.36
578.19	1640.95
578.54	1643.24
578.90	1647.10
579.25	1649.74
579.60	1652.64
579.95	1656.29
580.30	1660.17
580.66	1664.45
581.01	1667.86
581.36	1670.79
581.71	1674.19
582.06	1678.55
582.42	1682.67
582.77	1686.02
583.12	1689.10
583.47	1692.02
583.82	1695.60
584.17	1699.17
584.53	1703.40
584.88	1706.29
585.23	1710.69
585.58	1711.86
585.93	1714.02
586.28	1716.86
586.63	1719.36
586.98	1723.24
587.34	1727.14
587.69	1729.52
588.04	1731.69
588.39	1733.71
588.74	1735.31
589.09	1737.79
589.44	1737.93
589.79	1739.90
590.14	1741.79
590.49	1743.76
590.84	1745.19
591.19	1747.26
591.54	1748.10
591.89	1749.40
592.25	1752.00
592.60	1752.31
592.95	1755.90
593.30	1759.24
593.65	1760.21
594.00	1761.43
594.35	1767.88
594.70	1767.33
595.05	1769.21
595.40	1769.93
595.75	1770.19
596.10	1772.52
596.45	1773.93
596.80	1775.88
597.15	1777.07
597.50	1778.60
597.85	1780.55
598.19	1781.55
598.54	1782.36
598.89	1782.52
599.24	1782.81
599.59	1782.71
599.94	1783.40
600.29	1783.05
600.64	1782.36
600.99	1783.14
601.34	1784.62
601.69	1778.93
602.04	1778.86
602.39	1778.02
602.74	1778.19
603.08	1779.12
603.43	1779.45
603.78	1778.83
604.13	1779.12
604.48	1777.26
604.83	1776.83
605.18	1776.33
605.53	1776.05
605.87	1774.50
606.22	1773.76
606.57	1773.76
606.92	1772.86
607.27	1771.69
607.62	1771.33
607.96	1771.05
608.31	1770.07
608.66	1768.57
609.01	1766.88
609.36	1767.00
609.70	1765.26
610.05	1762.88
610.40	1761.52
610.75	1758.79
611.10	1756.71
611.44	1753.81
611.79	1751.98
612.14	1749.74
612.49	1745.64
612.83	1742.90
613.18	1739.81
613.53	1738.29
613.88	1734.14
614.22	1730.02
614.57	1726.71
614.92	1722.95
615.27	1719.10
615.61	1714.48
615.96	1710.93
616.31	1707.52
616.65	1704.36
617.00	1701.83
617.35	1699.98
617.70	1696.71
618.04	1693.69
618.39	1690.88
618.74	1688.38
619.08	1684.81
619.43	1680.98
619.78	1678.88
620.12	1674.95
620.47	1672.33
620.82	1668.33
621.16	1663.90
621.51	1661.88
621.85	1658.57
622.20	1655.14
622.55	1651.79
622.89	1649.93
623.24	1647.17
623.59	1643.69
623.93	1639.90
624.28	1636.36
624.62	1633.71
624.97	1630.36
625.32	1626.24
625.66	1622.29
626.01	1618.10
626.35	1615.00
626.70	1612.12
627.04	1608.76
627.39	1605.33
627.73	1601.76
628.08	1598.50
628.43	1595.17
628.77	1591.07
629.12	1587.67
629.46	1584.19
629.81	1580.31
630.15	1575.17
630.50	1570.36
630.84	1566.36
631.19	1560.81
631.53	1556.07
631.88	1549.43
632.22	1543.55
632.57	1539.64
632.91	1534.40
633.26	1529.95
633.60	1524.24
633.95	1518.55
634.29	1513.05
634.64	1508.38
634.98	1503.95
635.32	1499.24
635.67	1495.29
636.01	1491.12
636.36	1485.62
636.70	1481.29
637.05	1477.07
637.39	1473.36
637.73	1468.88
638.08	1464.55
638.42	1460.57
638.77	1456.64
639.11	1451.93
639.45	1446.95
639.80	1441.05
640.14	1435.95
640.49	1431.10
640.83	1425.57
641.17	1421.48
641.52	1416.14
641.86	1411.07
642.20	1406.14
642.55	1400.21
642.89	1394.21
643.23	1388.00
643.58	1384.02
643.92	1377.86
644.26	1371.57
644.61	1366.00
644.95	1360.48
645.29	1354.81
645.64	1350.29
645.98	1343.67
646.32	1338.81
646.66	1333.50
647.01	1327.55
647.35	1322.50
647.69	1316.40
648.04	1312.60
648.38	1305.95
648.72	1300.71
649.06	1295.29
649.41	1288.40
649.75	1282.79
650.09	1277.98
650.43	1271.76
650.78	1264.50
651.12	1257.64
651.46	1251.43
651.80	1244.83
652.14	1239.00
652.49	1233.45
652.83	1226.69
653.17	1220.71
653.51	1213.36
653.85	1208.00
654.20	1202.76
654.54	1195.14
654.88	1188.93
655.22	1183.43
655.56	1177.74
655.90	1171.00
656.25	1163.93
656.59	1158.24
656.93	1151.86
657.27	1146.33
657.61	1140.19
657.95	1134.60
658.29	1129.33
658.64	1124.12
658.98	1116.90
659.32	1110.00
659.66	1103.14
660.00	1096.43
660.34	1090.02
660.68	1084.95
661.02	1078.31
661.36	1071.69
661.70	1066.19
662.05	1060.07
662.39	1053.33
662.73	1048.43
663.07	1043.71
663.41	1038.21
663.75	1032.26
664.09	1026.90
664.43	1020.24
664.77	1014.90
665.11	1008.62
665.45	1003.00
665.79	996.93
666.13	991.76
666.47	986.86
666.81	981.17
667.15	975.81
667.49	971.05
667.83	965.62
668.17	959.95
668.51	955.00
668.85	950.38
669.19	945.76
669.53	939.55
669.87	932.74
670.21	926.57
670.55	920.71
670.89	915.64
671.23	910.17
671.57	904.86
671.91	899.26
672.25	894.55
672.58	889.21
672.92	883.17
673.26	878.90
673.60	873.45
673.94	868.43
674.28	863.52
674.62	858.81
674.96	853.40
675.30	848.86
675.64	843.79
675.97	838.90
676.31	833.43
676.65	828.26
676.99	824.67
677.33	819.31
677.67	815.14
678.01	809.55
678.34	804.31
678.68	799.71
679.02	794.83
679.36	789.71
679.70	784.12
680.04	780.07
680.37	774.43
680.71	769.36
681.05	764.79
681.39	759.36
681.73	753.86
682.06	749.31
682.40	744.10
682.74	739.17
683.08	734.90
683.42	729.43
683.75	725.05
684.09	719.31
684.43	715.02
684.77	710.21
685.10	705.24
685.44	700.95
685.78	695.48
686.12	690.50
686.45	685.57
686.79	681.02
687.13	676.45
687.46	671.90
687.80	667.90
688.14	663.17
688.48	659.10
688.81	654.86
689.15	650.67
689.49	646.26
689.82	641.93
690.16	636.55
690.50	632.57
690.83	628.00
691.17	623.19
691.51	618.86
691.84	614.57
692.18	610.45
692.52	606.12
692.85	602.69
693.19	599.81
693.52	595.95
693.86	591.74
694.20	587.24
694.53	583.40
694.87	578.90
695.21	574.86
695.54	571.00
695.88	566.05
696.21	561.40
696.55	557.57
696.88	553.60
697.22	549.67
697.56	545.81
697.89	542.17
698.23	538.88
698.56	534.60
698.90	530.79
699.23	527.17
699.57	523.71
699.90	519.40
700.24	515.19
700.58	511.40
700.91	508.38
701.25	506.60
701.58	503.50
701.92	500.76
702.25	497.57
702.59	494.07
702.92	491.36
703.26	488.43
703.59	485.26
703.93	483.79
704.26	480.93
704.60	478.21
704.93	475.07
705.26	471.76
705.60	469.64
705.93	466.21
706.27	463.76
706.60	461.14
706.94	459.52
707.27	456.05
707.61	453.31
707.94	450.17
708.27	445.43
708.61	442.29
708.94	439.45
709.28	436.90
709.61	434.19
709.94	431.45
710.28	428.95
710.61	426.43
710.95	422.14
711.28	421.19
711.61	418.79
711.95	417.00
712.28	414.55
712.61	411.62
712.95	410.26
713.28	408.45
713.61	405.50
713.95	402.50
714.28	400.48
714.61	398.12
714.95	396.00
715.28	393.98
715.61	391.76
715.95	389.21
716.28	386.55
716.61	384.62
716.95	382.52
717.28	380.24
717.61	378.12
717.94	375.98
718.28	372.26
718.61	370.12
718.94	367.67
719.27	365.74
719.61	363.76
719.94	361.17
720.27	358.45
720.60	356.71
720.94	354.48
721.27	353.07
721.60	351.90
721.93	350.07
722.27	349.29
722.60	347.67
722.93	345.71
723.26	344.43
723.59	342.38
723.93	341.12
724.26	339.79
724.59	337.93
724.92	336.95
725.25	336.45
725.59	334.76
725.92	333.67
726.25	332.48
726.58	331.40
726.91	330.45
727.24	329.43
727.57	327.90
727.91	326.40
728.24	325.14
728.57	323.26
728.90	322.19
729.23	320.10
729.56	319.69
729.89	319.07
730.22	317.69
730.55	316.62
730.89	315.26
731.22	313.95
731.55	312.76
731.88	311.50
732.21	309.90
732.54	308.79
732.87	307.76
733.20	306.69
733.53	305.38
733.86	304.43
734.19	303.07
734.52	302.71
734.85	303.12
735.18	301.64
735.51	301.45
735.84	300.76
736.17	300.29
736.50	298.55
736.83	299.50
737.16	298.64
737.49	297.67
737.82	296.50
738.15	295.88
738.48	295.12
738.81	294.00
739.14	292.69
739.47	291.74
739.80	290.38
740.13	289.90
740.46	288.74
740.79	287.50
741.12	286.48
741.45	285.12
741.78	283.38
742.11	283.38
742.44	282.33
742.77	281.83
743.10	280.64
743.43	279.74
743.75	276.95
744.08	278.93
744.41	278.26
744.74	277.52
745.07	276.24
745.40	275.93
745.73	275.90
746.06	275.67
746.39	275.12
746.71	274.40
747.04	273.21
747.37	272.50
747.70	272.24
748.03	271.52
748.36	271.31
748.68	270.26
749.01	268.83
749.34	268.02
749.67	267.19
750.00	267.00
750.33	267.98
750.65	267.52
750.98	264.02
751.31	263.26
751.64	262.83
751.97	263.55
752.29	262.67
752.62	261.31
752.95	260.12
753.28	259.43
753.60	258.79
753.93	258.86
754.26	258.60
754.59	257.17
754.91	256.74
755.24	255.71
755.57	255.31
755.90	254.76
756.22	253.98
756.55	253.31
756.88	252.29
757.20	250.36
757.53	249.26
757.86	248.81
758.19	248.45
758.51	247.90
758.84	246.26
759.17	245.64
759.49	245.48
759.82	246.02
760.15	245.95
760.47	245.62
760.80	244.57
761.13	244.29
761.45	243.88
761.78	243.36
762.11	243.10
762.43	242.76
762.76	242.38
763.08	242.43
763.41	242.07
763.74	242.00
764.06	241.67
764.39	241.55
764.71	241.29
765.04	240.67
765.37	240.14
765.69	239.83
766.02	239.43
766.34	238.98
766.67	238.29
767.00	238.10
767.32	238.76
767.65	239.64
767.97	239.14
768.30	238.95
768.62	238.95
768.95	238.50
769.27	238.12
769.60	238.12
769.92	237.43
770.25	236.81
770.57	236.05
770.90	235.64
771.22	235.02
771.55	234.83
771.87	234.76
772.20	234.48
772.52	235.95
772.85	238.33
773.17	237.90
773.50	237.36
773.82	236.62
774.15	235.40
774.47	233.76
774.80	233.62
775.12	233.64
775.45	233.14
775.77	232.93
776.09	232.83
776.42	232.74
776.74	233.05
777.07	232.62
777.39	232.48
777.72	232.02
778.04	232.02
778.36	231.67
778.69	231.57
779.01	231.57
779.33	229.67
779.66	227.07
779.98	226.81
780.31	226.71
780.63	227.29
780.95	227.52
781.28	227.38
781.60	227.12
781.92	226.86
782.25	226.81
782.57	226.60
782.89	226.17
783.22	225.81
783.54	225.38
783.86	225.90
784.19	225.86
784.51	226.45
784.83	226.17
785.16	226.05
785.48	225.86
785.80	225.52
786.12	225.40
786.45	225.31
786.77	225.33
787.09	225.21
787.42	224.48
787.74	224.45
788.06	224.21
788.38	224.02
788.71	223.76
789.03	223.76
789.35	223.86
789.67	223.62
789.99	223.64
790.32	223.26
790.64	223.02
790.96	224.57
791.28	223.64
791.61	223.50
791.93	223.43
792.25	223.02
792.57	224.74
792.89	224.29
793.21	224.29
793.54	224.05
793.86	223.71
794.18	223.88
794.50	223.45
794.82	223.79
795.14	224.00
795.47	224.02
795.79	223.88
796.11	223.55
796.43	223.50
796.75	223.36
797.07	223.36
797.39	223.24
797.71	221.64
798.04	221.81
798.36	222.10
798.68	222.07
799.00	222.26
799.32	220.79
799.64	221.19
799.96	220.98
800.28	221.24
800.60	221.00
800.92	221.17
801.24	220.71
801.56	220.52
801.89	220.07
802.21	220.38
802.53	220.00
802.85	220.21
803.17	221.14
803.49	220.69
803.81	220.45
804.13	220.17
804.45	219.90
804.77	219.88
805.09	219.62
805.41	219.33
805.73	219.10
806.05	218.62
806.37	218.36
806.69	218.12
807.01	217.95
807.33	218.12
807.65	217.19
807.97	218.31
808.28	218.14
808.60	218.02
808.92	217.64
809.24	218.98
809.56	218.83
809.88	217.98
810.20	218.24
810.52	218.60
810.84	218.29
811.16	218.21
811.48	218.29
811.80	218.83
812.12	218.81
812.43	219.33
812.75	219.67
813.07	219.48
813.39	219.79
813.71	219.40
814.03	219.19
814.35	219.36
814.67	218.62
814.98	218.57
815.30	218.71
815.62	218.48
815.94	216.90
816.26	216.79
816.58	216.48
816.89	216.45
817.21	216.02
817.53	216.45
817.85	216.33
818.17	216.12
818.48	215.17
818.80	215.38
819.12	214.88
819.44	214.33
819.76	214.02
820.07	213.67
820.39	213.88
820.71	214.05
821.03	213.90
821.34	213.57
821.66	213.79
821.98	213.93
822.30	213.79
822.61	215.12
822.93	214.93
823.25	214.83
823.57	214.62
823.88	215.02
824.20	215.07
824.52	215.50
824.83	215.40
825.15	215.55
825.47	215.45
825.79	215.74
826.10	215.69
826.42	215.83
826.74	216.38
827.05	216.36
827.37	216.43
827.69	216.48
828.00	216.64
828.32	216.52
828.64	216.33
828.95	217.50
829.27	216.95
829.58	216.79
829.90	217.31
830.22	217.60
830.53	217.19
830.85	216.60
831.17	216.05
831.48	216.17
831.80	216.14
832.11	216.14
832.43	215.76
832.75	215.86
833.06	217.07
833.38	216.31
833.69	216.05
834.01	215.93
834.32	215.79
834.64	215.62
834.96	215.52
835.27	215.50
835.59	214.81
835.90	214.12
836.22	214.12
836.53	213.57
836.85	213.50
837.16	215.52
837.48	215.48
837.79	216.26
838.11	216.40
838.42	216.38
838.74	216.62
839.05	216.38
839.37	216.40
839.68	215.02
840.00	215.12
840.31	215.21
840.63	214.98
840.94	214.98
841.26	214.79
841.57	214.86
841.88	214.98
842.20	214.40
842.51	214.40
842.83	214.76
843.14	216.45
843.46	216.33
843.77	215.10
844.08	215.21
844.40	214.43
844.71	214.31
845.03	214.14
845.34	213.76
845.65	213.90
845.97	213.62
846.28	213.88
846.60	214.02
846.91	213.93
847.22	214.10
847.54	214.38
847.85	214.31
848.16	214.05
848.48	213.62
848.79	214.74
849.10	214.90
849.42	214.83
849.73	212.93
850.04	212.67
850.36	211.93
850.67	212.21
850.98	212.50
851.30	212.45
851.61	212.43
851.92	212.52
852.23	212.98
852.55	213.38
852.86	213.43
853.17	213.45
853.49	213.90
853.80	214.14
854.11	214.24
854.42	214.71
854.74	214.64
855.05	214.90
855.36	213.69
855.67	213.98
855.99	213.55
856.30	216.29
856.61	216.29
856.92	216.33
857.23	216.17
857.55	215.95
857.86	215.83
858.17	216.02
858.48	215.57
858.79	215.31
859.11	215.31
859.42	215.36
859.73	214.93
860.04	214.62
860.35	214.07
860.66	213.52
860.98	213.31
861.29	213.50
861.60	213.14
861.91	213.64
862.22	213.33
862.53	213.29
862.84	210.76
863.16	211.38
863.47	211.05
863.78	210.90
864.09	211.05
864.40	211.10
864.71	211.07
865.02	211.62
865.33	211.29
865.64	210.93
865.95	210.90
866.27	212.36
866.58	212.26
866.89	212.57
867.20	212.55
867.51	212.26
867.82	212.24
868.13	213.17
868.44	212.62
868.75	212.93
869.06	213.17
869.37	213.50
869.68	212.86
869.99	213.29
870.30	213.48
870.61	213.48
870.92	213.14
871.23	213.10
871.54	213.26
871.85	213.71
872.16	214.02
872.47	213.71
872.78	212.57
873.09	212.79
873.40	212.90
873.71	213.05
874.02	213.19
874.33	212.90
874.64	212.33
874.95	212.86
875.26	212.24
875.56	212.10
875.87	211.88
876.18	211.93
876.49	213.98
876.80	213.86
877.11	213.60
877.42	213.81
877.73	213.83
878.04	213.43
878.35	213.48
878.66	213.62
878.96	213.67
879.27	213.60
879.58	213.64
879.89	213.21
880.20	213.79
880.51	213.67
880.82	213.76
881.12	213.93
881.43	213.48
881.74	213.43
882.05	213.52
882.36	213.83
882.67	213.86
882.97	211.48
883.28	211.52
883.59	211.40
883.90	211.69
884.21	212.07
884.51	212.02
884.82	211.71
885.13	211.60
885.44	211.45
885.74	211.33
886.05	211.10
886.36	211.17
886.67	210.55
886.98	211.86
887.28	212.14
887.59	212.14
887.90	212.33
888.20	212.33
888.51	212.52
888.82	211.98
889.13	212.33
889.43	213.88
889.74	213.55
890.05	213.64
890.35	213.33
890.66	212.74
890.97	212.69
891.28	212.48
891.58	212.79
891.89	212.95
892.20	212.88
892.50	212.81
892.81	213.00
893.12	212.81
893.42	211.76
893.73	211.81
894.04	211.67
894.34	211.95
894.65	211.88
894.95	211.83
895.26	211.93
895.57	212.43
895.87	210.74
896.18	211.14
896.48	211.21
896.79	211.26
897.10	211.81
897.40	211.86
897.71	212.05
898.01	211.55
898.32	211.74
898.63	211.57
898.93	211.48
899.24	211.26
899.54	211.36
899.85	211.29
900.15	210.98
900.46	210.95
900.76	210.90
901.07	210.90
901.38	210.83
901.68	211.19
901.99	210.57
902.29	210.86
902.60	210.43
902.90	210.45
903.21	210.40
903.51	210.10
903.82	210.60
904.12	210.76
904.43	210.98
904.73	210.95
905.03	211.38
905.34	213.48
905.64	213.33
905.95	213.33
906.25	213.19
906.56	213.12
906.86	212.98
907.17	212.81
907.47	213.07
907.77	212.76
908.08	212.33
908.38	212.24
908.69	212.38
908.99	212.98
909.30	212.90
909.60	212.95
909.90	213.17
910.21	212.40
910.51	212.19
910.81	212.00
911.12	211.74
911.42	211.64
911.73	209.43
912.03	209.57
912.33	210.00
912.64	209.86
912.94	209.98
913.24	209.81
913.55	209.74
913.85	209.60
914.15	210.14
914.46	210.19
914.76	210.21
915.06	210.14
915.37	209.62
915.67	209.57
915.97	209.60
916.27	209.12
916.58	209.17
916.88	208.98
917.18	209.12
917.49	210.76
917.79	210.81
918.09	211.26
918.39	211.81
918.70	211.69
919.00	211.60
919.30	212.29
919.60	212.19
919.91	212.00
920.21	211.95
920.51	211.50
920.81	211.62
921.12	211.83
921.42	211.76
921.72	211.90
922.02	211.95
922.32	212.17
922.63	212.24
922.93	213.36
923.23	213.57
923.53	213.36
923.83	211.86
924.13	212.02
924.44	211.95
924.74	212.26
925.04	212.60
925.34	212.69
925.64	211.76
925.94	212.02
926.24	213.07
926.55	212.88
926.85	213.45
927.15	213.29
927.45	213.14
927.75	213.05
928.05	213.50
928.35	213.52
928.65	213.88
928.95	214.24
929.26	213.45
929.56	213.71
929.86	214.00
930.16	213.79
930.46	213.67
930.76	213.69
931.06	212.98
931.36	212.40
931.66	212.81
931.96	213.21
932.26	213.24
932.56	212.57
932.86	212.86
933.16	212.67
933.46	212.76
933.76	212.55
934.06	213.00
934.36	213.38
934.66	213.43
934.96	213.38
935.26	213.31
935.56	213.62
935.86	213.12
936.16	212.81
936.46	212.86
936.76	212.76
937.06	212.69
937.36	212.67
937.66	212.64
937.96	212.52
938.26	212.10
938.56	211.95
938.86	211.93
939.16	212.33
939.46	212.48
939.76	212.57
940.06	212.57
940.35	212.10
940.65	211.12
940.95	211.24
941.25	210.69
941.55	210.52
941.85	210.33
942.15	210.93
942.45	211.55
942.75	211.48
943.04	211.52
943.34	211.98
943.64	211.67
943.94	211.43
944.24	211.40
944.54	211.62
944.84	211.52
945.13	211.31
945.43	210.95
945.73	210.76
946.03	210.64
946.33	210.31
946.62	210.29
946.92	210.33
947.22	210.31
947.52	210.33
947.82	210.43
948.11	210.26
948.41	209.60
948.71	209.05
949.01	209.10
949.31	209.10
949.60	208.57
949.90	209.14
950.20	209.21
950.50	209.33
950.79	209.17
951.09	209.43
951.39	209.55
951.69	209.52
951.98	209.86
952.28	209.69
952.58	210.07
952.87	209.86
953.17	210.24
953.47	210.07
953.76	210.00
954.06	209.83
954.36	209.62
954.66	209.69
954.95	210.26
955.25	210.62
955.55	210.45
955.84	210.36
956.14	210.40
956.44	210.69
956.73	210.43
957.03	210.67
957.32	210.76
957.62	210.71
957.92	211.12
958.21	210.98
958.51	213.52
958.81	213.55
959.10	213.98
959.40	214.26
959.69	214.33
959.99	214.76
960.29	214.81
960.58	214.74
960.88	215.67
961.17	215.43
961.47	215.55
961.76	215.57
962.06	216.24
962.36	215.86
962.65	216.00
962.95	216.10
963.24	215.86
963.54	215.93
963.83	216.07
964.13	215.81
964.42	215.17
964.72	213.43
965.01	213.67
965.31	213.60
965.60	213.36
965.90	214.62
966.19	214.05
966.49	214.31
966.78	214.29
967.08	213.95
967.37	213.93
967.67	213.71
967.96	213.90
968.26	213.40
968.55	213.90
968.85	213.71
969.14	213.76
969.43	213.67
969.73	213.33
970.02	213.12
970.32	212.88
970.61	212.88
970.91	212.36
971.20	211.98
971.49	211.83
971.79	211.83
972.08	210.48
972.38	210.57
972.67	210.36
972.96	210.88
973.26	210.50
973.55	211.00
973.85	210.83
974.14	210.86
974.43	211.21
974.73	210.83
975.02	210.71
975.31	210.33
975.61	210.45
975.90	210.45
976.19	210.26
976.49	210.57
976.78	210.79
977.07	210.81
977.37	210.81
977.66	211.05
977.95	210.64
978.24	210.57
978.54	210.95
978.83	210.76
979.12	210.40
979.42	210.50
979.71	210.10
980.00	210.10
980.29	210.12
980.59	209.43
980.88	209.83
981.17	209.67
981.46	210.00
981.76	210.05
982.05	210.57
982.34	210.76
982.63	210.64
982.93	210.69
983.22	211.07
983.51	211.12
983.80	211.10
984.09	211.40
984.39	211.55
984.68	211.55
984.97	211.57
985.26	211.50
985.55	211.45
985.85	211.19
986.14	211.43
986.43	211.57
986.72	211.64
987.01	211.00
987.30	211.05
987.59	210.76
987.89	210.95
988.18	210.38
988.47	210.05
988.76	210.02
989.05	210.00
989.34	210.00
989.63	210.60
989.92	210.48
990.22	210.24
990.51	210.19
990.80	210.19
991.09	210.50
991.38	210.64
991.67	210.74
991.96	210.52
992.25	210.64
992.54	210.17
992.83	210.31
993.12	210.31
993.41	210.67
993.70	211.64
993.99	211.76
994.28	212.05
994.58	212.55
994.87	212.31
995.16	212.02
995.45	211.52
995.74	210.64
996.03	210.88
996.32	211.40
996.61	211.69
996.90	211.38
997.19	211.17
997.48	211.17
997.77	210.83
998.06	211.00
998.34	210.88
998.63	211.24
998.92	211.07
999.21	211.24
999.50	211.33
999.79	210.64
1000.08	210.60
1000.37	210.50
1000.66	210.21
1000.95	210.69
1001.24	210.93
1001.53	211.33
1001.82	211.33
1002.11	210.88
1002.40	211.00
1002.68	211.52
1002.97	213.02
1003.26	213.00
1003.55	212.83
1003.84	213.21
1004.13	213.90
1004.42	213.64
1004.71	213.29
1004.99	213.40
1005.28	214.31
1005.57	214.05
1005.86	213.98
1006.15	213.83
1006.44	213.69
1006.72	214.02
1007.01	213.71
1007.30	213.64
1007.59	213.31
1007.88	213.43
1008.17	213.48
1008.45	213.00
1008.74	212.12
1009.03	211.07
1009.32	211.00
1009.60	210.79
1009.89	210.24
1010.18	209.36
1010.47	209.26
1010.76	209.43
1011.04	209.48
1011.33	209.31
1011.62	209.29
1011.91	209.26
1012.19	209.43
1012.48	209.57
1012.77	209.60
1013.05	210.64
1013.34	210.74
1013.63	210.76
1013.92	211.05
1014.20	211.12
1014.49	211.19
1014.78	211.36
1015.06	210.74
1015.35	210.50
1015.64	211.00
1015.92	211.40
1016.21	211.48
1016.50	211.48
1016.78	211.69
1017.07	211.90
1017.36	211.36
1017.64	211.24
1017.93	211.57
1018.22	211.38
1018.50	211.17
1018.79	211.02
1019.08	209.98
1019.36	210.19
1019.65	209.98
1019.93	210.40
1020.22	210.64
1020.51	211.43
1020.79	210.93
1021.08	209.00
1021.36	206.00
1021.65	211.50
1021.94	209.50
1022.22	213.00
1022.51	206.50
1022.79	222.00
1023.08	214.00
1023.36	230.00
1023.65	199.50
>>>>>End Processed Spectral Data<<<<<
