SpectraSuite Data File
++++++++++++++++++++++++++++++++++++
Date: Tue Apr 02 18:46:22 EDT 2013
User: group
Dark Spectrum Present: No
Reference Spectrum Present: No
Number of Sampled Component Spectra: 1
Spectrometers: USB2E7196
Integration Time (usec): 580000 (USB2E7196)
Spectra Averaged: 2 (USB2E7196)
Boxcar Smoothing: 10 (USB2E7196)
Correct for Electrical Dark: No (USB2E7196)
Strobe/Lamp Enabled: No (USB2E7196)
Correct for Detector Non-linearity: No (USB2E7196)
Correct for Stray Light: No (USB2E7196)
Number of Pixels in Processed Spectrum: 2048
>>>>>Begin Processed Spectral Data<<<<<
339.09	0.00
339.48	193.00
339.86	196.50
340.24	195.50
340.63	194.50
341.01	233.00
341.39	198.50
341.78	207.50
342.16	210.50
342.54	203.50
342.93	197.88
343.31	207.86
343.69	208.52
344.07	208.98
344.46	210.00
344.84	210.86
345.22	209.71
345.60	210.43
345.99	210.57
346.37	210.71
346.75	211.14
347.13	211.31
347.52	211.52
347.90	212.40
348.28	212.52
348.66	212.67
349.05	211.98
349.43	212.40
349.81	212.74
350.19	212.79
350.57	213.12
350.96	213.33
351.34	213.38
351.72	213.64
352.10	213.98
352.48	213.64
352.87	213.62
353.25	213.69
353.63	213.55
354.01	213.57
354.39	213.69
354.77	213.60
355.15	214.05
355.54	213.83
355.92	213.24
356.30	213.14
356.68	214.38
357.06	214.52
357.44	214.05
357.82	213.88
358.20	214.88
358.58	214.79
358.97	214.74
359.35	215.14
359.73	215.31
360.11	215.14
360.49	215.21
360.87	215.14
361.25	215.29
361.63	216.07
362.01	216.12
362.39	215.88
362.77	216.02
363.15	215.81
363.53	215.90
363.91	216.00
364.29	216.10
364.67	214.36
365.05	214.48
365.43	214.86
365.81	215.07
366.19	215.26
366.57	216.02
366.95	215.64
367.33	215.14
367.71	215.12
368.09	215.62
368.47	215.83
368.85	215.83
369.23	216.33
369.61	215.45
369.99	216.19
370.37	216.48
370.75	217.48
371.13	217.05
371.51	216.74
371.89	216.88
372.27	217.10
372.65	217.14
373.03	217.07
373.41	216.62
373.78	216.33
374.16	215.24
374.54	214.76
374.92	214.69
375.30	214.83
375.68	214.33
376.06	214.19
376.44	213.69
376.82	213.93
377.19	213.55
377.57	213.45
377.95	212.74
378.33	212.31
378.71	211.00
379.09	211.50
379.47	211.71
379.84	211.40
380.22	211.29
380.60	211.14
380.98	211.19
381.36	211.26
381.73	211.10
382.11	211.57
382.49	211.74
382.87	211.64
383.25	211.64
383.62	214.43
384.00	214.00
384.38	214.26
384.76	214.48
385.13	215.38
385.51	215.45
385.89	215.14
386.27	215.55
386.64	215.74
387.02	215.55
387.40	215.48
387.78	215.57
388.15	215.48
388.53	215.33
388.91	215.45
389.29	215.38
389.66	215.45
390.04	215.26
390.42	215.31
390.79	215.74
391.17	215.86
391.55	213.38
391.92	213.55
392.30	213.76
392.68	213.38
393.05	213.12
393.43	213.19
393.81	213.50
394.18	213.21
394.56	213.48
394.94	213.67
395.31	213.50
395.69	214.36
396.06	214.67
396.44	214.90
396.82	214.67
397.19	215.64
397.57	215.76
397.95	215.93
398.32	215.38
398.70	215.26
399.07	215.33
399.45	215.12
399.82	215.17
400.20	214.90
400.58	214.90
400.95	214.07
401.33	214.55
401.70	215.81
402.08	215.93
402.45	215.98
402.83	216.79
403.20	216.90
403.58	216.38
403.95	216.95
404.33	217.38
404.71	217.81
405.08	218.95
405.46	219.33
405.83	219.55
406.21	219.98
406.58	220.71
406.96	221.21
407.33	222.00
407.70	222.64
408.08	224.98
408.45	225.93
408.83	227.19
409.20	227.74
409.58	227.33
409.95	228.38
410.33	229.33
410.70	229.45
411.08	230.83
411.45	232.12
411.82	232.93
412.20	234.40
412.57	236.79
412.95	236.38
413.32	238.00
413.69	239.62
414.07	241.29
414.44	242.83
414.82	244.69
415.19	247.24
415.56	249.38
415.94	250.52
416.31	252.90
416.68	255.48
417.06	258.69
417.43	262.19
417.81	265.57
418.18	269.19
418.55	272.81
418.93	276.64
419.30	280.69
419.67	285.05
420.04	289.40
420.42	293.19
420.79	300.74
421.16	306.60
421.54	313.36
421.91	319.60
422.28	325.62
422.66	332.21
423.03	339.67
423.40	346.64
423.77	353.64
424.15	361.19
424.52	368.67
424.89	377.40
425.26	384.86
425.64	392.74
426.01	400.81
426.38	409.48
426.75	419.10
427.13	428.21
427.50	438.07
427.87	447.69
428.24	457.81
428.61	465.50
428.99	476.67
429.36	487.10
429.73	497.98
430.10	509.67
430.47	521.50
430.85	532.19
431.22	544.40
431.59	559.38
431.96	571.90
432.33	586.19
432.70	599.86
433.08	616.24
433.45	631.31
433.82	647.00
434.19	664.31
434.56	680.86
434.93	696.26
435.30	711.74
435.68	729.29
436.05	746.19
436.42	763.02
436.79	778.88
437.16	796.24
437.53	814.40
437.90	832.10
438.27	849.10
438.64	867.26
439.01	884.52
439.38	898.05
439.75	912.79
440.13	929.14
440.50	943.98
440.87	957.07
441.24	970.05
441.61	984.40
441.98	995.36
442.35	1007.33
442.72	1020.93
443.09	1034.81
443.46	1042.62
443.83	1047.88
444.20	1052.74
444.57	1057.50
444.94	1060.21
445.31	1064.02
445.68	1069.48
446.05	1071.14
446.42	1069.45
446.79	1068.50
447.16	1067.36
447.53	1066.33
447.90	1060.29
448.27	1053.95
448.64	1044.81
449.01	1038.36
449.37	1027.31
449.74	1015.71
450.11	1004.29
450.48	989.07
450.85	972.76
451.22	960.05
451.59	948.12
451.96	936.69
452.33	922.33
452.70	908.43
453.07	890.67
453.43	871.12
453.80	855.02
454.17	839.50
454.54	823.60
454.91	806.55
455.28	790.55
455.65	775.38
456.02	764.31
456.38	751.79
456.75	736.62
457.12	723.12
457.49	710.98
457.86	696.69
458.23	686.76
458.59	675.29
458.96	663.38
459.33	652.83
459.70	642.71
460.07	634.14
460.43	624.62
460.80	616.48
461.17	609.33
461.54	600.86
461.91	592.90
462.27	585.24
462.64	578.60
463.01	571.57
463.38	565.17
463.74	554.52
464.11	547.71
464.48	542.19
464.85	536.21
465.21	531.71
465.58	527.12
465.95	520.69
466.32	515.69
466.68	510.60
467.05	505.69
467.42	500.55
467.78	495.12
468.15	490.14
468.52	486.57
468.88	480.79
469.25	476.50
469.62	473.00
469.98	469.05
470.35	465.40
470.72	461.69
471.08	457.36
471.45	454.52
471.82	451.95
472.18	448.62
472.55	446.00
472.92	441.93
473.28	438.83
473.65	436.29
474.02	433.33
474.38	431.60
474.75	429.76
475.11	427.36
475.48	425.60
475.85	423.50
476.21	421.40
476.58	420.50
476.94	419.07
477.31	417.69
477.67	416.48
478.04	415.26
478.41	414.50
478.77	415.48
479.14	414.33
479.50	413.69
479.87	413.60
480.23	413.55
480.60	413.33
480.96	413.07
481.33	413.62
481.69	413.93
482.06	413.86
482.42	414.19
482.79	414.55
483.15	415.19
483.52	416.74
483.88	417.21
484.25	417.81
484.61	418.52
484.98	419.55
485.34	421.26
485.71	423.02
486.07	424.24
486.44	424.12
486.80	426.10
487.17	427.69
487.53	429.81
487.90	431.79
488.26	434.50
488.62	437.64
488.99	439.62
489.35	442.40
489.72	445.29
490.08	447.76
490.44	450.76
490.81	454.00
491.17	456.64
491.54	460.14
491.90	463.38
492.26	467.48
492.63	471.31
492.99	474.64
493.36	478.50
493.72	482.98
494.08	487.31
494.45	491.62
494.81	496.40
495.17	501.07
495.54	505.93
495.90	511.07
496.26	515.81
496.63	521.12
496.99	526.29
497.35	531.67
497.72	537.50
498.08	543.21
498.44	549.55
498.80	555.88
499.17	561.60
499.53	568.31
499.89	575.33
500.26	582.17
500.62	589.10
500.98	596.19
501.34	602.71
501.71	610.62
502.07	617.52
502.43	624.40
502.79	630.67
503.16	637.55
503.52	644.38
503.88	650.86
504.24	658.55
504.60	666.10
504.97	673.62
505.33	681.50
505.69	690.55
506.05	697.48
506.41	705.19
506.78	713.29
507.14	721.00
507.50	728.38
507.86	736.43
508.22	744.64
508.59	751.71
508.95	759.31
509.31	767.36
509.67	775.69
510.03	783.74
510.39	792.33
510.75	800.62
511.12	809.17
511.48	817.71
511.84	825.07
512.20	832.71
512.56	840.52
512.92	848.12
513.28	855.52
513.64	863.69
514.00	871.24
514.37	878.74
514.73	885.45
515.09	892.88
515.45	899.48
515.81	905.38
516.17	913.05
516.53	920.24
516.89	925.76
517.25	931.52
517.61	938.29
517.97	944.50
518.33	950.48
518.69	955.98
519.05	962.69
519.41	968.81
519.77	975.71
520.13	981.31
520.49	986.83
520.85	991.38
521.21	997.50
521.57	1003.43
521.93	1008.86
522.29	1014.38
522.65	1019.40
523.01	1024.88
523.37	1030.86
523.73	1035.69
524.09	1040.38
524.45	1046.33
524.81	1051.69
525.17	1056.60
525.53	1061.40
525.89	1066.29
526.25	1071.12
526.61	1075.02
526.97	1078.98
527.33	1083.05
527.68	1089.48
528.04	1093.93
528.40	1098.52
528.76	1102.90
529.12	1106.90
529.48	1111.43
529.84	1115.88
530.20	1120.14
530.56	1124.79
530.91	1128.93
531.27	1133.19
531.63	1137.98
531.99	1140.62
532.35	1144.38
532.71	1147.90
533.07	1152.19
533.42	1158.67
533.78	1162.81
534.14	1166.67
534.50	1171.19
534.86	1176.12
535.21	1178.24
535.57	1182.83
535.93	1186.17
536.29	1190.45
536.65	1194.29
537.00	1197.52
537.36	1201.05
537.72	1204.71
538.08	1207.83
538.44	1210.40
538.79	1213.60
539.15	1216.21
539.51	1220.38
539.87	1223.98
540.22	1227.83
540.58	1230.88
540.94	1232.21
541.29	1235.12
541.65	1238.05
542.01	1241.17
542.37	1242.67
542.72	1244.86
543.08	1246.81
543.44	1249.86
543.79	1250.71
544.15	1253.98
544.51	1257.74
544.87	1260.79
545.22	1262.79
545.58	1266.17
545.94	1268.71
546.29	1271.50
546.65	1273.95
547.01	1275.88
547.36	1278.19
547.72	1279.90
548.07	1282.31
548.43	1284.02
548.79	1286.83
549.14	1288.90
549.50	1292.71
549.86	1294.60
550.21	1298.33
550.57	1301.38
550.92	1304.26
551.28	1307.24
551.64	1309.26
551.99	1311.64
552.35	1313.98
552.70	1317.12
553.06	1319.17
553.41	1322.76
553.77	1326.79
554.13	1330.40
554.48	1335.21
554.84	1340.05
555.19	1344.55
555.55	1349.86
555.90	1353.67
556.26	1356.14
556.61	1360.36
556.97	1362.24
557.32	1367.40
557.68	1370.88
558.03	1374.48
558.39	1377.55
558.74	1381.50
559.10	1385.93
559.45	1389.57
559.81	1394.50
560.16	1398.36
560.52	1402.02
560.87	1406.64
561.23	1409.88
561.58	1415.64
561.94	1418.31
562.29	1421.64
562.64	1425.62
563.00	1428.93
563.35	1433.26
563.71	1439.21
564.06	1443.86
564.42	1449.17
564.77	1454.14
565.12	1459.29
565.48	1466.38
565.83	1473.05
566.19	1479.64
566.54	1483.88
566.89	1489.38
567.25	1494.98
567.60	1501.88
567.96	1510.36
568.31	1516.50
568.66	1522.71
569.02	1526.79
569.37	1532.95
569.72	1539.38
570.08	1544.79
570.43	1549.29
570.78	1555.36
571.14	1560.57
571.49	1565.76
571.84	1571.33
572.20	1575.74
572.55	1580.67
572.90	1583.43
573.26	1587.43
573.61	1590.90
573.96	1596.10
574.31	1600.69
574.67	1603.88
575.02	1607.29
575.37	1609.10
575.72	1612.36
576.08	1616.26
576.43	1620.17
576.78	1623.62
577.13	1626.81
577.49	1629.64
577.84	1634.26
578.19	1637.88
578.54	1642.26
578.90	1647.14
579.25	1649.64
579.60	1652.81
579.95	1655.26
580.30	1659.60
580.66	1663.88
581.01	1667.67
581.36	1671.38
581.71	1674.81
582.06	1680.26
582.42	1683.45
582.77	1686.55
583.12	1689.43
583.47	1692.43
583.82	1695.79
584.17	1699.45
584.53	1703.05
584.88	1706.98
585.23	1710.60
585.58	1712.81
585.93	1714.21
586.28	1716.93
586.63	1720.21
586.98	1724.40
587.34	1729.36
587.69	1731.31
588.04	1734.17
588.39	1736.43
588.74	1738.02
589.09	1740.69
589.44	1740.88
589.79	1743.33
590.14	1746.43
590.49	1748.52
590.84	1750.79
591.19	1753.21
591.54	1755.07
591.89	1756.14
592.25	1759.14
592.60	1759.95
592.95	1762.95
593.30	1765.52
593.65	1766.29
594.00	1767.55
594.35	1773.71
594.70	1773.86
595.05	1775.57
595.40	1775.64
595.75	1776.64
596.10	1778.52
596.45	1779.69
596.80	1781.74
597.15	1783.26
597.50	1783.40
597.85	1784.57
598.19	1784.95
598.54	1784.40
598.89	1784.57
599.24	1786.19
599.59	1785.76
599.94	1785.60
600.29	1785.60
600.64	1786.10
600.99	1786.21
601.34	1787.81
601.69	1781.95
602.04	1781.86
602.39	1781.67
602.74	1781.81
603.08	1781.05
603.43	1781.98
603.78	1780.93
604.13	1779.60
604.48	1778.93
604.83	1779.52
605.18	1779.67
605.53	1779.24
605.87	1779.14
606.22	1778.81
606.57	1777.62
606.92	1776.86
607.27	1776.50
607.62	1775.71
607.96	1774.67
608.31	1774.95
608.66	1773.17
609.01	1771.86
609.36	1770.81
609.70	1769.62
610.05	1767.88
610.40	1767.55
610.75	1764.12
611.10	1763.24
611.44	1761.83
611.79	1759.43
612.14	1756.05
612.49	1752.14
612.83	1749.21
613.18	1746.67
613.53	1744.19
613.88	1740.17
614.22	1736.74
614.57	1733.79
614.92	1729.40
615.27	1725.98
615.61	1720.64
615.96	1717.55
616.31	1715.10
616.65	1713.19
617.00	1710.29
617.35	1707.07
617.70	1703.38
618.04	1699.67
618.39	1696.40
618.74	1692.83
619.08	1689.43
619.43	1686.43
619.78	1683.48
620.12	1680.95
620.47	1677.43
620.82	1673.48
621.16	1670.40
621.51	1667.88
621.85	1663.67
622.20	1660.02
622.55	1656.12
622.89	1654.12
623.24	1651.19
623.59	1647.69
623.93	1642.29
624.28	1638.12
624.62	1636.17
624.97	1634.26
625.32	1631.07
625.66	1626.05
626.01	1622.57
626.35	1618.64
626.70	1614.48
627.04	1612.05
627.39	1607.64
627.73	1604.43
628.08	1602.02
628.43	1597.95
628.77	1593.21
629.12	1590.12
629.46	1586.67
629.81	1582.45
630.15	1578.40
630.50	1572.45
630.84	1567.02
631.19	1563.14
631.53	1558.64
631.88	1552.02
632.22	1544.74
632.57	1540.86
632.91	1536.10
633.26	1531.83
633.60	1527.29
633.95	1521.83
634.29	1516.24
634.64	1511.48
634.98	1506.50
635.32	1501.69
635.67	1498.48
636.01	1495.00
636.36	1489.55
636.70	1485.62
637.05	1481.02
637.39	1475.81
637.73	1471.57
638.08	1467.55
638.42	1462.50
638.77	1458.00
639.11	1453.76
639.45	1449.76
639.80	1444.74
640.14	1440.45
640.49	1434.98
640.83	1429.69
641.17	1426.24
641.52	1421.48
641.86	1417.07
642.20	1412.83
642.55	1406.57
642.89	1400.36
643.23	1394.24
643.58	1390.57
643.92	1384.07
644.26	1379.05
644.61	1374.36
644.95	1369.55
645.29	1363.17
645.64	1358.71
645.98	1353.38
646.32	1348.67
646.66	1342.14
647.01	1335.86
647.35	1330.12
647.69	1324.33
648.04	1318.45
648.38	1312.05
648.72	1305.90
649.06	1299.12
649.41	1292.50
649.75	1286.07
650.09	1279.86
650.43	1273.86
650.78	1266.86
651.12	1261.12
651.46	1254.17
651.80	1247.31
652.14	1241.14
652.49	1236.60
652.83	1229.45
653.17	1222.21
653.51	1214.81
653.85	1209.76
654.20	1204.19
654.54	1197.00
654.88	1190.62
655.22	1185.88
655.56	1179.60
655.90	1173.36
656.25	1167.69
656.59	1161.71
656.93	1156.19
657.27	1151.60
657.61	1144.86
657.95	1138.86
658.29	1133.19
658.64	1127.93
658.98	1120.93
659.32	1114.21
659.66	1107.21
660.00	1101.24
660.34	1095.67
660.68	1090.69
661.02	1084.40
661.36	1077.40
661.70	1072.36
662.05	1066.48
662.39	1059.90
662.73	1054.62
663.07	1049.52
663.41	1043.62
663.75	1037.60
664.09	1031.90
664.43	1024.90
664.77	1020.05
665.11	1013.93
665.45	1007.98
665.79	1002.88
666.13	997.24
666.47	991.48
666.81	985.86
667.15	979.83
667.49	975.07
667.83	969.57
668.17	964.40
668.51	959.81
668.85	954.50
669.19	950.48
669.53	944.31
669.87	938.67
670.21	932.69
670.55	927.36
670.89	923.00
671.23	918.02
671.57	912.67
671.91	907.14
672.25	901.64
672.58	896.81
672.92	891.02
673.26	886.98
673.60	882.02
673.94	877.31
674.28	872.95
674.62	867.55
674.96	862.21
675.30	856.86
675.64	851.79
675.97	846.67
676.31	840.52
676.65	835.52
676.99	831.45
677.33	826.29
677.67	821.21
678.01	815.07
678.34	810.24
678.68	805.40
679.02	799.88
679.36	795.52
679.70	790.38
680.04	785.33
680.37	779.86
680.71	774.76
681.05	769.86
681.39	765.19
681.73	759.98
682.06	755.07
682.40	750.95
682.74	746.17
683.08	741.93
683.42	736.57
683.75	732.02
684.09	725.83
684.43	720.93
684.77	716.02
685.10	711.69
685.44	706.57
685.78	701.95
686.12	697.00
686.45	691.62
686.79	686.81
687.13	682.45
687.46	678.12
687.80	674.38
688.14	669.79
688.48	664.93
688.81	660.57
689.15	656.55
689.49	651.40
689.82	646.60
690.16	641.24
690.50	637.29
690.83	632.81
691.17	628.29
691.51	623.88
691.84	619.90
692.18	615.26
692.52	610.71
692.85	607.00
693.19	604.00
693.52	600.26
693.86	595.69
694.20	590.79
694.53	586.55
694.87	581.67
695.21	576.76
695.54	572.64
695.88	568.07
696.21	563.12
696.55	559.40
696.88	555.60
697.22	551.50
697.56	548.55
697.89	544.90
698.23	542.10
698.56	538.64
698.90	534.52
699.23	530.79
699.57	527.76
699.90	523.07
700.24	518.67
700.58	514.98
700.91	512.24
701.25	510.95
701.58	508.29
701.92	505.67
702.25	503.21
702.59	499.81
702.92	496.69
703.26	493.43
703.59	489.98
703.93	488.55
704.26	486.19
704.60	482.52
704.93	479.07
705.26	475.55
705.60	472.76
705.93	469.90
706.27	467.67
706.60	464.83
706.94	463.17
707.27	460.14
707.61	457.36
707.94	454.21
708.27	449.93
708.61	446.21
708.94	443.48
709.28	441.07
709.61	438.24
709.94	436.17
710.28	433.74
710.61	431.19
710.95	426.76
711.28	425.71
711.61	423.31
711.95	421.38
712.28	418.60
712.61	416.26
712.95	414.71
713.28	412.90
713.61	410.07
713.95	407.17
714.28	405.31
714.61	403.02
714.95	400.67
715.28	398.29
715.61	396.21
715.95	393.67
716.28	390.48
716.61	388.79
716.95	386.26
717.28	384.17
717.61	381.95
717.94	379.67
718.28	375.86
718.61	373.71
718.94	371.29
719.27	369.26
719.61	367.31
719.94	364.86
720.27	362.14
720.60	360.07
720.94	357.88
721.27	356.19
721.60	354.74
721.93	352.86
722.27	351.79
722.60	350.40
722.93	348.79
723.26	347.71
723.59	345.79
723.93	344.48
724.26	343.07
724.59	341.64
724.92	340.50
725.25	339.93
725.59	338.26
725.92	337.45
726.25	336.40
726.58	335.07
726.91	333.57
727.24	332.43
727.57	331.07
727.91	329.62
728.24	328.31
728.57	326.62
728.90	325.48
729.23	323.52
729.56	322.83
729.89	321.71
730.22	320.29
730.55	318.86
730.89	317.38
731.22	316.14
731.55	314.86
731.88	314.07
732.21	312.07
732.54	310.81
732.87	309.48
733.20	308.31
733.53	307.17
733.86	306.29
734.19	304.88
734.52	304.05
734.85	304.57
735.18	303.48
735.51	302.95
735.84	302.33
736.17	302.19
736.50	300.29
736.83	301.81
737.16	300.52
737.49	299.86
737.82	299.19
738.15	298.60
738.48	297.45
738.81	295.95
739.14	294.88
739.47	293.81
739.80	292.95
740.13	292.14
740.46	290.74
740.79	289.50
741.12	288.71
741.45	287.79
741.78	285.81
742.11	285.57
742.44	284.67
742.77	283.90
743.10	282.57
743.43	281.55
743.75	278.36
744.08	280.57
744.41	279.50
744.74	278.31
745.07	277.10
745.40	276.74
745.73	276.81
746.06	276.21
746.39	276.00
746.71	274.95
747.04	273.81
747.37	273.36
747.70	273.12
748.03	272.36
748.36	272.05
748.68	271.36
749.01	269.83
749.34	269.07
749.67	268.48
750.00	268.12
750.33	269.12
750.65	268.81
750.98	265.64
751.31	265.31
751.64	265.12
751.97	265.60
752.29	264.95
752.62	263.62
752.95	263.07
753.28	262.19
753.60	261.86
753.93	262.07
754.26	261.19
754.59	260.00
754.91	259.45
755.24	258.90
755.57	258.21
755.90	257.69
756.22	257.10
756.55	256.33
756.88	255.26
757.20	253.55
757.53	252.26
757.86	251.86
758.19	251.12
758.51	250.33
758.84	248.86
759.17	248.12
759.49	247.83
759.82	248.07
760.15	247.69
760.47	247.07
760.80	245.90
761.13	246.45
761.45	245.98
761.78	245.38
762.11	244.55
762.43	244.05
762.76	243.79
763.08	243.67
763.41	243.38
763.74	243.17
764.06	242.64
764.39	242.40
764.71	241.83
765.04	241.48
765.37	240.98
765.69	240.31
766.02	240.00
766.34	239.29
766.67	238.50
767.00	238.69
767.32	239.50
767.65	240.48
767.97	239.55
768.30	239.57
768.62	239.10
768.95	238.74
769.27	238.50
769.60	238.33
769.92	237.40
770.25	237.07
770.57	236.71
770.90	236.31
771.22	235.90
771.55	235.90
771.87	235.64
772.20	235.43
772.52	237.07
772.85	239.24
773.17	239.43
773.50	239.02
773.82	238.31
774.15	236.86
774.47	235.43
774.80	235.02
775.12	234.43
775.45	234.24
775.77	234.24
776.09	234.17
776.42	233.98
776.74	234.64
777.07	234.14
777.39	233.83
777.72	233.57
778.04	233.74
778.36	233.26
778.69	233.19
779.01	233.14
779.33	231.17
779.66	228.98
779.98	228.64
780.31	228.57
780.63	229.55
780.95	229.86
781.28	230.07
781.60	229.88
781.92	230.10
782.25	230.00
782.57	229.71
782.89	229.19
783.22	229.05
783.54	228.31
783.86	228.02
784.19	227.64
784.51	228.36
784.83	227.57
785.16	227.40
785.48	227.21
785.80	227.05
786.12	227.07
786.45	226.52
786.77	226.36
787.09	226.02
787.42	224.98
787.74	224.95
788.06	224.60
788.38	224.50
788.71	224.05
789.03	224.10
789.35	224.21
789.67	224.10
789.99	224.00
790.32	223.76
790.64	224.10
790.96	225.83
791.28	224.86
791.61	224.76
791.93	224.88
792.25	224.64
792.57	226.05
792.89	225.38
793.21	225.52
793.54	225.19
793.86	224.93
794.18	224.95
794.50	224.38
794.82	224.31
795.14	224.31
795.47	224.71
795.79	224.45
796.11	223.98
796.43	223.81
796.75	223.83
797.07	223.81
797.39	223.76
797.71	222.07
798.04	221.93
798.36	222.29
798.68	222.12
799.00	222.38
799.32	221.02
799.64	221.62
799.96	221.60
800.28	222.07
800.60	221.81
800.92	221.79
801.24	221.62
801.56	221.26
801.89	220.98
802.21	220.95
802.53	220.93
802.85	221.17
803.17	221.81
803.49	220.90
803.81	220.62
804.13	220.17
804.45	220.07
804.77	220.24
805.09	220.02
805.41	219.60
805.73	219.00
806.05	218.69
806.37	218.50
806.69	218.21
807.01	217.74
807.33	218.05
807.65	217.50
807.97	218.43
808.28	218.57
808.60	218.64
808.92	218.19
809.24	219.14
809.56	218.90
809.88	218.48
810.20	218.81
810.52	219.40
810.84	219.26
811.16	218.76
811.48	218.69
811.80	219.38
812.12	219.31
812.43	219.62
812.75	219.60
813.07	219.33
813.39	219.33
813.71	219.12
814.03	218.57
814.35	218.43
814.67	217.43
814.98	217.24
815.30	217.24
815.62	216.93
815.94	215.67
816.26	215.67
816.58	215.24
816.89	215.29
817.21	214.71
817.53	214.62
817.85	214.76
818.17	214.71
818.48	213.76
818.80	214.17
819.12	213.98
819.44	213.76
819.76	213.60
820.07	213.62
820.39	213.74
820.71	214.19
821.03	214.29
821.34	214.24
821.66	214.36
821.98	214.55
822.30	214.52
822.61	215.71
822.93	215.31
823.25	215.00
823.57	214.74
823.88	214.88
824.20	214.83
824.52	215.36
824.83	215.10
825.15	214.86
825.47	214.71
825.79	214.79
826.10	214.52
826.42	214.40
826.74	214.48
827.05	214.33
827.37	214.40
827.69	214.24
828.00	214.36
828.32	214.40
828.64	214.10
828.95	215.19
829.27	214.62
829.58	214.74
829.90	215.29
830.22	215.57
830.53	215.02
830.85	214.98
831.17	214.38
831.48	214.36
831.80	214.67
832.11	214.48
832.43	214.31
832.75	214.33
833.06	215.38
833.38	214.69
833.69	214.60
834.01	214.40
834.32	214.26
834.64	213.88
834.96	213.64
835.27	213.50
835.59	212.79
835.90	212.29
836.22	212.36
836.53	212.19
836.85	211.98
837.16	214.17
837.48	214.14
837.79	214.79
838.11	214.93
838.42	214.79
838.74	214.98
839.05	214.95
839.37	214.88
839.68	213.95
840.00	213.90
840.31	214.48
840.63	214.52
840.94	214.43
841.26	214.29
841.57	214.67
841.88	214.86
842.20	214.52
842.51	214.38
842.83	214.33
843.14	216.00
843.46	215.81
843.77	214.62
844.08	214.55
844.40	213.93
844.71	213.79
845.03	213.88
845.34	213.79
845.65	213.62
845.97	213.86
846.28	213.83
846.60	213.90
846.91	213.24
847.22	212.98
847.54	213.40
847.85	213.71
848.16	213.50
848.48	213.26
848.79	214.24
849.10	214.38
849.42	214.45
849.73	212.48
850.04	212.57
850.36	211.98
850.67	212.31
850.98	212.43
851.30	212.76
851.61	212.62
851.92	212.83
852.23	213.31
852.55	213.31
852.86	213.40
853.17	213.64
853.49	214.21
853.80	214.52
854.11	214.62
854.42	214.79
854.74	214.50
855.05	214.62
855.36	213.50
855.67	213.71
855.99	213.74
856.30	216.31
856.61	216.31
856.92	216.52
857.23	216.50
857.55	216.36
857.86	216.29
858.17	216.64
858.48	215.93
858.79	215.52
859.11	215.86
859.42	215.71
859.73	215.71
860.04	215.67
860.35	215.33
860.66	214.88
860.98	214.88
861.29	214.79
861.60	214.38
861.91	214.93
862.22	214.60
862.53	214.40
862.84	211.93
863.16	212.50
863.47	212.00
863.78	211.74
864.09	211.69
864.40	211.64
864.71	211.38
865.02	211.83
865.33	211.64
865.64	211.29
865.95	211.33
866.27	212.55
866.58	212.21
866.89	212.57
867.20	212.43
867.51	212.10
867.82	212.24
868.13	213.12
868.44	212.64
868.75	213.07
869.06	213.12
869.37	213.10
869.68	212.38
869.99	212.79
870.30	213.07
870.61	213.43
870.92	213.05
871.23	213.05
871.54	213.48
871.85	214.26
872.16	214.48
872.47	214.29
872.78	213.10
873.09	213.26
873.40	213.19
873.71	213.52
874.02	213.55
874.33	213.31
874.64	212.76
874.95	213.10
875.26	212.45
875.56	212.36
875.87	212.55
876.18	212.57
876.49	214.48
876.80	214.21
877.11	213.69
877.42	213.88
877.73	213.90
878.04	213.52
878.35	213.52
878.66	213.71
878.96	213.64
879.27	213.50
879.58	213.38
879.89	213.17
880.20	213.48
880.51	213.45
880.82	213.57
881.12	213.64
881.43	213.12
881.74	213.07
882.05	213.00
882.36	213.02
882.67	213.31
882.97	211.12
883.28	211.19
883.59	211.10
883.90	211.40
884.21	211.55
884.51	211.40
884.82	210.79
885.13	210.74
885.44	210.74
885.74	210.90
886.05	211.05
886.36	210.98
886.67	210.45
886.98	211.48
887.28	211.71
887.59	211.83
887.90	212.10
888.20	211.98
888.51	212.43
888.82	212.29
889.13	212.38
889.43	213.93
889.74	213.50
890.05	213.71
890.35	213.26
890.66	213.33
890.97	213.33
891.28	213.29
891.58	213.14
891.89	213.31
892.20	213.07
892.50	212.93
892.81	212.83
893.12	212.98
893.42	211.93
893.73	212.02
894.04	212.07
894.34	212.21
894.65	212.36
894.95	212.07
895.26	212.24
895.57	212.98
895.87	211.40
896.18	212.05
896.48	212.19
896.79	212.31
897.10	212.38
897.40	212.43
897.71	212.74
898.01	212.45
898.32	212.64
898.63	212.57
898.93	212.74
899.24	212.74
899.54	212.45
899.85	212.45
900.15	212.21
900.46	211.90
900.76	211.95
901.07	211.88
901.38	211.93
901.68	212.10
901.99	210.93
902.29	210.81
902.60	210.43
902.90	210.21
903.21	210.31
903.51	210.10
903.82	210.24
904.12	210.31
904.43	210.38
904.73	210.17
905.03	210.45
905.34	212.21
905.64	212.36
905.95	212.36
906.25	212.38
906.56	212.38
906.86	212.57
907.17	212.50
907.47	212.88
907.77	212.86
908.08	212.29
908.38	212.38
908.69	212.86
908.99	213.36
909.30	213.55
909.60	213.52
909.90	213.67
910.21	213.21
910.51	212.71
910.81	212.74
911.12	213.00
911.42	212.83
911.73	210.74
912.03	210.71
912.33	211.33
912.64	211.40
912.94	211.43
913.24	211.07
913.55	210.83
913.85	210.36
914.15	210.57
914.46	210.93
914.76	210.86
915.06	210.60
915.37	210.17
915.67	209.98
915.97	210.12
916.27	209.74
916.58	210.07
916.88	210.00
917.18	210.05
917.49	211.19
917.79	211.26
918.09	211.62
918.39	212.29
918.70	212.19
919.00	212.19
919.30	213.05
919.60	213.26
919.91	213.21
920.21	213.69
920.51	213.40
920.81	213.26
921.12	213.93
921.42	213.86
921.72	214.14
922.02	214.40
922.32	214.45
922.63	214.57
922.93	215.31
923.23	215.60
923.53	215.38
923.83	214.26
924.13	214.52
924.44	214.55
924.74	214.69
925.04	214.98
925.34	215.14
925.64	214.36
925.94	214.48
926.24	215.71
926.55	215.45
926.85	215.67
927.15	215.67
927.45	215.36
927.75	215.45
928.05	215.52
928.35	215.29
928.65	215.69
928.95	215.81
929.26	215.07
929.56	215.38
929.86	215.69
930.16	215.57
930.46	215.21
930.76	215.36
931.06	214.45
931.36	213.98
931.66	214.12
931.96	214.24
932.26	214.17
932.56	213.24
932.86	213.50
933.16	213.50
933.46	213.45
933.76	213.21
934.06	213.67
934.36	214.43
934.66	214.31
934.96	214.07
935.26	214.10
935.56	214.50
935.86	214.10
936.16	213.86
936.46	213.48
936.76	213.40
937.06	213.00
937.36	213.02
937.66	213.02
937.96	212.69
938.26	212.24
938.56	211.95
938.86	212.02
939.16	212.36
939.46	212.40
939.76	212.26
940.06	212.29
940.35	211.57
940.65	210.31
940.95	210.57
941.25	210.05
941.55	209.83
941.85	209.50
942.15	210.17
942.45	210.64
942.75	210.71
943.04	210.79
943.34	211.17
943.64	211.17
943.94	210.86
944.24	211.19
944.54	211.57
944.84	211.74
945.13	211.64
945.43	211.14
945.73	211.07
946.03	211.17
946.33	211.02
946.62	210.93
946.92	210.71
947.22	210.93
947.52	210.81
947.82	211.02
948.11	211.00
948.41	210.17
948.71	209.64
949.01	209.86
949.31	209.83
949.60	209.62
949.90	210.05
950.20	210.07
950.50	210.10
950.79	209.79
951.09	210.05
951.39	209.88
951.69	209.83
951.98	210.31
952.28	210.40
952.58	210.24
952.87	210.29
953.17	210.76
953.47	210.38
953.76	210.69
954.06	210.26
954.36	209.90
954.66	209.93
954.95	210.57
955.25	210.71
955.55	211.02
955.84	210.74
956.14	210.83
956.44	211.05
956.73	210.50
957.03	210.62
957.32	210.60
957.62	210.36
957.92	210.62
958.21	210.31
958.51	212.71
958.81	213.07
959.10	213.45
959.40	214.07
959.69	214.36
959.99	214.74
960.29	214.93
960.58	214.98
960.88	215.86
961.17	215.52
961.47	215.86
961.76	215.64
962.06	216.38
962.36	216.14
962.65	216.14
962.95	216.31
963.24	216.29
963.54	216.24
963.83	216.79
964.13	216.60
964.42	216.29
964.72	214.55
965.01	214.48
965.31	214.38
965.60	213.81
965.90	215.00
966.19	214.48
966.49	214.81
966.78	214.62
967.08	214.52
967.37	214.45
967.67	213.79
967.96	214.02
968.26	213.71
968.55	213.93
968.85	213.88
969.14	213.81
969.43	213.76
969.73	213.55
970.02	213.29
970.32	213.29
970.61	212.98
970.91	212.19
971.20	212.19
971.49	211.88
971.79	212.14
972.08	210.69
972.38	210.86
972.67	210.38
972.96	210.86
973.26	210.38
973.55	210.95
973.85	211.19
974.14	210.95
974.43	210.93
974.73	210.62
975.02	210.57
975.31	210.81
975.61	210.64
975.90	210.43
976.19	210.31
976.49	210.48
976.78	210.88
977.07	211.00
977.37	210.95
977.66	211.19
977.95	210.90
978.24	211.02
978.54	211.50
978.83	211.38
979.12	211.29
979.42	211.29
979.71	210.83
980.00	210.45
980.29	210.86
980.59	210.45
980.88	210.79
981.17	210.52
981.46	210.43
981.76	210.50
982.05	211.31
982.34	211.14
982.63	211.07
982.93	211.02
983.22	211.45
983.51	211.43
983.80	211.79
984.09	211.98
984.39	212.12
984.68	211.71
984.97	212.07
985.26	211.95
985.55	211.95
985.85	211.67
986.14	212.26
986.43	211.98
986.72	212.10
987.01	211.52
987.30	211.74
987.59	211.52
987.89	211.67
988.18	210.95
988.47	211.17
988.76	210.88
989.05	210.79
989.34	210.62
989.63	210.93
989.92	210.50
990.22	210.21
990.51	210.00
990.80	209.90
991.09	210.00
991.38	210.10
991.67	209.90
991.96	209.60
992.25	209.40
992.54	209.31
992.83	209.12
993.12	209.02
993.41	209.21
993.70	210.17
993.99	210.38
994.28	210.76
994.58	210.76
994.87	210.71
995.16	210.62
995.45	210.40
995.74	209.93
996.03	210.21
996.32	210.62
996.61	211.10
996.90	211.10
997.19	210.74
997.48	210.57
997.77	210.57
998.06	210.90
998.34	210.83
998.63	210.67
998.92	210.90
999.21	211.36
999.50	211.62
999.79	210.67
1000.08	210.76
1000.37	210.64
1000.66	210.48
1000.95	210.90
1001.24	211.10
1001.53	211.29
1001.82	211.33
1002.11	211.02
1002.40	211.12
1002.68	211.29
1002.97	212.57
1003.26	212.67
1003.55	212.57
1003.84	212.76
1004.13	213.36
1004.42	213.12
1004.71	213.14
1004.99	212.86
1005.28	213.40
1005.57	212.83
1005.86	212.83
1006.15	212.76
1006.44	212.52
1006.72	212.83
1007.01	212.40
1007.30	212.17
1007.59	211.90
1007.88	211.81
1008.17	211.98
1008.45	211.31
1008.74	210.48
1009.03	209.45
1009.32	209.48
1009.60	209.55
1009.89	209.40
1010.18	208.50
1010.47	208.55
1010.76	208.71
1011.04	208.93
1011.33	208.76
1011.62	209.14
1011.91	209.14
1012.19	209.02
1012.48	208.90
1012.77	208.74
1013.05	209.86
1013.34	209.83
1013.63	209.88
1013.92	210.12
1014.20	209.90
1014.49	210.24
1014.78	210.50
1015.06	209.90
1015.35	209.64
1015.64	209.98
1015.92	210.31
1016.21	210.67
1016.50	210.81
1016.78	210.76
1017.07	210.79
1017.36	210.36
1017.64	210.02
1017.93	210.31
1018.22	210.31
1018.50	210.60
1018.79	210.57
1019.08	209.48
1019.36	209.88
1019.65	209.71
1019.93	210.29
1020.22	210.52
1020.51	211.55
1020.79	211.36
1021.08	210.50
1021.36	210.00
1021.65	209.00
1021.94	206.50
1022.22	214.00
1022.51	207.00
1022.79	221.50
1023.08	212.00
1023.36	234.50
1023.65	205.50
>>>>>End Processed Spectral Data<<<<<
