SpectraSuite Data File
++++++++++++++++++++++++++++++++++++
Date: Tue Apr 02 18:40:04 EDT 2013
User: group
Dark Spectrum Present: No
Reference Spectrum Present: No
Number of Sampled Component Spectra: 1
Spectrometers: USB2E7196
Integration Time (usec): 580000 (USB2E7196)
Spectra Averaged: 2 (USB2E7196)
Boxcar Smoothing: 10 (USB2E7196)
Correct for Electrical Dark: No (USB2E7196)
Strobe/Lamp Enabled: No (USB2E7196)
Correct for Detector Non-linearity: No (USB2E7196)
Correct for Stray Light: No (USB2E7196)
Number of Pixels in Processed Spectrum: 2048
>>>>>Begin Processed Spectral Data<<<<<
339.09	0.00
339.48	196.00
339.86	195.00
340.24	196.00
340.63	200.50
341.01	230.00
341.39	196.00
341.78	207.50
342.16	211.00
342.54	204.50
342.93	197.64
343.31	207.45
343.69	207.95
344.07	208.57
344.46	209.19
344.84	209.57
345.22	208.48
345.60	209.12
345.99	209.26
346.37	209.14
346.75	209.19
347.13	209.24
347.52	209.21
347.90	210.05
348.28	209.98
348.66	210.40
349.05	209.71
349.43	210.00
349.81	210.17
350.19	210.21
350.57	210.14
350.96	210.36
351.34	210.83
351.72	210.83
352.10	210.71
352.48	210.67
352.87	210.64
353.25	210.81
353.63	210.64
354.01	210.60
354.39	210.88
354.77	211.12
355.15	211.71
355.54	211.52
355.92	210.98
356.30	211.43
356.68	212.76
357.06	213.02
357.44	212.83
357.82	212.64
358.20	213.48
358.58	213.67
358.97	213.83
359.35	213.98
359.73	214.60
360.11	214.76
360.49	215.02
360.87	214.98
361.25	215.07
361.63	216.10
362.01	216.38
362.39	216.33
362.77	216.45
363.15	216.02
363.53	216.21
363.91	216.26
364.29	216.02
364.67	214.14
365.05	214.40
365.43	214.86
365.81	215.24
366.19	215.71
366.57	216.43
366.95	216.40
367.33	216.05
367.71	215.83
368.09	216.07
368.47	216.05
368.85	216.21
369.23	216.67
369.61	215.93
369.99	216.40
370.37	216.71
370.75	217.79
371.13	217.81
371.51	217.52
371.89	217.74
372.27	217.93
372.65	218.17
373.03	217.98
373.41	217.81
373.78	217.90
374.16	216.52
374.54	216.05
374.92	215.90
375.30	216.10
375.68	215.74
376.06	216.00
376.44	215.83
376.82	216.05
377.19	216.07
377.57	215.98
377.95	215.45
378.33	215.00
378.71	213.69
379.09	213.93
379.47	214.36
379.84	214.17
380.22	213.93
380.60	213.48
380.98	213.48
381.36	213.40
381.73	212.98
382.11	213.57
382.49	213.45
382.87	213.02
383.25	212.95
383.62	215.48
384.00	215.17
384.38	215.24
384.76	215.71
385.13	216.43
385.51	216.43
385.89	216.12
386.27	216.10
386.64	216.57
387.02	216.48
387.40	216.26
387.78	216.40
388.15	216.57
388.53	216.64
388.91	216.64
389.29	216.40
389.66	216.52
390.04	216.24
390.42	216.74
390.79	217.05
391.17	216.90
391.55	214.79
391.92	214.64
392.30	215.07
392.68	214.52
393.05	214.24
393.43	214.17
393.81	214.19
394.18	214.02
394.56	213.95
394.94	214.05
395.31	213.83
395.69	214.31
396.06	214.57
396.44	214.74
396.82	214.55
397.19	215.71
397.57	215.76
397.95	216.07
398.32	215.50
398.70	215.67
399.07	216.17
399.45	215.90
399.82	216.00
400.20	215.76
400.58	215.48
400.95	214.81
401.33	215.40
401.70	217.31
402.08	217.67
402.45	217.74
402.83	218.55
403.20	218.93
403.58	218.95
403.95	219.38
404.33	219.95
404.71	220.26
405.08	221.48
405.46	221.83
405.83	222.19
406.21	222.38
406.58	222.67
406.96	222.98
407.33	223.86
407.70	224.71
408.08	226.79
408.45	227.76
408.83	228.88
409.20	229.26
409.58	228.64
409.95	229.98
410.33	231.05
410.70	231.19
411.08	232.60
411.45	233.83
411.82	234.93
412.20	236.52
412.57	239.02
412.95	238.74
413.32	240.57
413.69	241.98
414.07	243.95
414.44	245.95
414.82	248.07
415.19	250.40
415.56	252.67
415.94	254.12
416.31	257.48
416.68	260.17
417.06	263.86
417.43	267.38
417.81	270.81
418.18	274.81
418.55	278.93
418.93	283.17
419.30	287.69
419.67	292.50
420.04	297.14
420.42	301.38
420.79	308.93
421.16	315.00
421.54	322.76
421.91	329.14
422.28	335.71
422.66	342.79
423.03	351.05
423.40	358.50
423.77	366.38
424.15	374.05
424.52	382.43
424.89	391.57
425.26	400.12
425.64	408.31
426.01	417.17
426.38	426.50
426.75	436.62
427.13	446.40
427.50	456.95
427.87	467.88
428.24	478.95
428.61	487.81
428.99	499.90
429.36	511.14
429.73	523.40
430.10	535.81
430.47	548.52
430.85	560.26
431.22	573.93
431.59	589.50
431.96	602.93
432.33	618.19
432.70	633.17
433.08	650.60
433.45	667.17
433.82	683.52
434.19	702.00
434.56	720.48
434.93	737.69
435.30	754.12
435.68	773.12
436.05	791.79
436.42	810.48
436.79	827.52
437.16	845.69
437.53	865.40
437.90	885.07
438.27	903.90
438.64	924.05
439.01	942.69
439.38	957.17
439.75	973.05
440.13	991.36
440.50	1008.05
440.87	1021.74
441.24	1036.02
441.61	1051.38
441.98	1063.17
442.35	1075.50
442.72	1088.79
443.09	1103.24
443.46	1111.33
443.83	1117.29
444.20	1122.48
444.57	1128.81
444.94	1132.71
445.31	1136.57
445.68	1141.62
446.05	1143.67
446.42	1141.57
446.79	1139.83
447.16	1137.86
447.53	1137.10
447.90	1129.76
448.27	1122.86
448.64	1113.26
449.01	1106.48
449.37	1094.14
449.74	1081.45
450.11	1069.55
450.48	1053.76
450.85	1036.55
451.22	1023.07
451.59	1009.76
451.96	997.05
452.33	980.60
452.70	965.07
453.07	945.48
453.43	924.86
453.80	906.83
454.17	889.64
454.54	872.86
454.91	856.43
455.28	838.74
455.65	822.90
456.02	810.12
456.38	797.02
456.75	780.40
457.12	766.90
457.49	753.52
457.86	737.50
458.23	727.00
458.59	714.98
458.96	701.64
459.33	690.24
459.70	679.31
460.07	669.81
460.43	659.40
460.80	651.00
461.17	643.02
461.54	634.19
461.91	625.57
462.27	616.95
462.64	608.71
463.01	600.93
463.38	593.57
463.74	582.19
464.11	574.62
464.48	569.02
464.85	562.36
465.21	557.95
465.58	552.83
465.95	545.45
466.32	539.71
466.68	534.19
467.05	528.86
467.42	522.95
467.78	517.26
468.15	512.00
468.52	507.95
468.88	501.90
469.25	496.76
469.62	493.79
469.98	489.40
470.35	485.45
470.72	481.76
471.08	477.05
471.45	473.95
471.82	470.93
472.18	466.36
472.55	463.33
472.92	459.24
473.28	455.83
473.65	452.74
474.02	450.29
474.38	448.40
474.75	446.43
475.11	443.98
475.48	442.12
475.85	440.02
476.21	437.86
476.58	436.95
476.94	435.74
477.31	433.79
477.67	432.76
478.04	431.86
478.41	430.90
478.77	432.55
479.14	431.33
479.50	430.64
479.87	430.55
480.23	430.36
480.60	429.93
480.96	430.26
481.33	431.48
481.69	431.52
482.06	431.31
482.42	431.43
482.79	432.12
483.15	432.71
483.52	433.69
483.88	434.26
484.25	434.45
484.61	435.29
484.98	435.83
485.34	437.33
485.71	438.95
486.07	440.67
486.44	440.07
486.80	442.10
487.17	443.88
487.53	446.12
487.90	448.67
488.26	451.69
488.62	454.48
488.99	456.69
489.35	459.21
489.72	462.10
490.08	464.45
490.44	467.38
490.81	470.64
491.17	474.05
491.54	477.79
491.90	482.17
492.26	485.86
492.63	490.29
492.99	494.12
493.36	498.29
493.72	503.05
494.08	507.62
494.45	512.43
494.81	517.60
495.17	522.79
495.54	528.33
495.90	533.48
496.26	539.14
496.63	544.79
496.99	550.81
497.35	557.19
497.72	564.24
498.08	570.50
498.44	577.10
498.80	583.81
499.17	590.69
499.53	597.24
499.89	604.86
500.26	611.76
500.62	619.29
500.98	627.12
501.34	634.07
501.71	642.62
502.07	650.64
502.43	658.17
502.79	665.79
503.16	673.19
503.52	681.26
503.88	688.81
504.24	696.98
504.60	705.10
504.97	713.31
505.33	721.24
505.69	730.98
506.05	739.57
506.41	748.24
506.78	757.10
507.14	765.64
507.50	774.26
507.86	783.05
508.22	791.60
508.59	799.38
508.95	808.40
509.31	818.31
509.67	826.64
510.03	835.29
510.39	844.33
510.75	852.71
511.12	861.07
511.48	869.83
511.84	878.10
512.20	886.60
512.56	895.43
512.92	904.48
513.28	912.62
513.64	920.90
514.00	929.38
514.37	936.71
514.73	945.52
515.09	954.26
515.45	962.40
515.81	970.79
516.17	979.40
516.53	986.62
516.89	992.45
517.25	1000.57
517.61	1009.07
517.97	1016.29
518.33	1024.40
518.69	1032.21
519.05	1040.67
519.41	1048.24
519.77	1057.19
520.13	1064.10
520.49	1070.50
520.85	1076.81
521.21	1084.90
521.57	1092.05
521.93	1098.50
522.29	1104.88
522.65	1110.62
523.01	1117.17
523.37	1122.57
523.73	1128.76
524.09	1135.71
524.45	1141.83
524.81	1148.10
525.17	1153.02
525.53	1158.71
525.89	1164.48
526.25	1170.86
526.61	1174.74
526.97	1180.26
527.33	1184.76
527.68	1191.81
528.04	1197.38
528.40	1202.74
528.76	1207.31
529.12	1212.26
529.48	1218.02
529.84	1222.81
530.20	1228.19
530.56	1233.38
530.91	1239.57
531.27	1245.31
531.63	1250.90
531.99	1255.74
532.35	1259.05
532.71	1264.40
533.07	1270.33
533.42	1277.52
533.78	1282.07
534.14	1288.05
534.50	1292.43
534.86	1297.93
535.21	1301.83
535.57	1308.19
535.93	1312.40
536.29	1318.26
536.65	1323.48
537.00	1328.19
537.36	1333.62
537.72	1338.62
538.08	1343.40
538.44	1347.31
538.79	1350.90
539.15	1354.07
539.51	1359.10
539.87	1364.55
540.22	1369.48
540.58	1373.67
540.94	1375.86
541.29	1380.12
541.65	1383.69
542.01	1389.40
542.37	1392.86
542.72	1395.57
543.08	1398.10
543.44	1403.19
543.79	1405.24
544.15	1409.69
544.51	1414.55
544.87	1418.00
545.22	1421.69
545.58	1425.50
545.94	1429.45
546.29	1434.31
546.65	1438.81
547.01	1442.50
547.36	1446.67
547.72	1450.98
548.07	1454.93
548.43	1457.79
548.79	1460.88
549.14	1464.14
549.50	1467.62
549.86	1470.26
550.21	1474.36
550.57	1478.48
550.92	1481.62
551.28	1486.40
551.64	1489.60
551.99	1492.67
552.35	1496.31
552.70	1500.45
553.06	1504.74
553.41	1508.40
553.77	1512.81
554.13	1516.71
554.48	1520.98
554.84	1526.83
555.19	1530.12
555.55	1535.14
555.90	1540.36
556.26	1545.17
556.61	1549.98
556.97	1553.29
557.32	1558.12
557.68	1562.74
558.03	1567.33
558.39	1571.69
558.74	1576.00
559.10	1580.00
559.45	1585.17
559.81	1589.67
560.16	1593.05
560.52	1597.19
560.87	1601.95
561.23	1605.26
561.58	1611.86
561.94	1615.83
562.29	1618.38
562.64	1623.36
563.00	1626.90
563.35	1630.93
563.71	1635.57
564.06	1640.62
564.42	1645.76
564.77	1651.76
565.12	1657.79
565.48	1664.14
565.83	1669.64
566.19	1674.50
566.54	1679.24
566.89	1684.21
567.25	1690.21
567.60	1697.02
567.96	1704.60
568.31	1710.50
568.66	1716.31
569.02	1718.67
569.37	1723.74
569.72	1729.24
570.08	1733.26
570.43	1737.19
570.78	1742.21
571.14	1746.36
571.49	1751.38
571.84	1755.33
572.20	1758.45
572.55	1761.93
572.90	1763.88
573.26	1766.43
573.61	1769.43
573.96	1773.57
574.31	1776.45
574.67	1779.24
575.02	1781.48
575.37	1781.95
575.72	1783.40
576.08	1786.21
576.43	1788.17
576.78	1790.31
577.13	1791.90
577.49	1794.36
577.84	1797.17
578.19	1798.74
578.54	1801.71
578.90	1803.50
579.25	1806.12
579.60	1807.62
579.95	1807.98
580.30	1809.12
580.66	1811.17
581.01	1813.36
581.36	1814.17
581.71	1815.17
582.06	1817.36
582.42	1818.10
582.77	1818.64
583.12	1820.26
583.47	1820.21
583.82	1822.64
584.17	1823.12
584.53	1824.69
584.88	1825.95
585.23	1826.21
585.58	1826.67
585.93	1826.98
586.28	1826.45
586.63	1825.93
586.98	1827.02
587.34	1828.17
587.69	1828.55
588.04	1828.26
588.39	1826.93
588.74	1825.48
589.09	1824.74
589.44	1821.86
589.79	1821.05
590.14	1820.02
590.49	1818.29
590.84	1817.07
591.19	1815.67
591.54	1814.64
591.89	1813.26
592.25	1813.50
592.60	1812.02
592.95	1810.83
593.30	1809.10
593.65	1807.26
594.00	1805.55
594.35	1809.07
594.70	1806.29
595.05	1804.07
595.40	1802.71
595.75	1801.24
596.10	1800.60
596.45	1799.52
596.80	1798.88
597.15	1796.74
597.50	1795.24
597.85	1794.76
598.19	1793.33
598.54	1790.98
598.89	1788.71
599.24	1785.55
599.59	1780.83
599.94	1779.33
600.29	1777.12
600.64	1775.05
600.99	1773.69
601.34	1772.21
601.69	1763.64
602.04	1761.36
602.39	1758.86
602.74	1756.86
603.08	1754.67
603.43	1752.40
603.78	1750.12
604.13	1748.10
604.48	1745.79
604.83	1743.48
605.18	1741.21
605.53	1738.90
605.87	1736.10
606.22	1733.55
606.57	1730.71
606.92	1727.64
607.27	1723.86
607.62	1721.05
607.96	1718.19
608.31	1714.52
608.66	1710.81
609.01	1707.79
609.36	1705.05
609.70	1701.76
610.05	1697.71
610.40	1693.98
610.75	1689.36
611.10	1685.02
611.44	1679.26
611.79	1674.31
612.14	1669.48
612.49	1663.71
612.83	1657.67
613.18	1652.43
613.53	1648.31
613.88	1643.74
614.22	1638.74
614.57	1633.33
614.92	1627.52
615.27	1622.26
615.61	1616.62
615.96	1611.33
616.31	1606.24
616.65	1601.79
617.00	1597.19
617.35	1591.79
617.70	1586.17
618.04	1580.31
618.39	1573.69
618.74	1568.60
619.08	1563.64
619.43	1558.21
619.78	1552.52
620.12	1548.19
620.47	1543.21
620.82	1536.83
621.16	1530.60
621.51	1526.50
621.85	1521.26
622.20	1516.26
622.55	1509.12
622.89	1503.81
623.24	1498.79
623.59	1492.45
623.93	1486.19
624.28	1480.64
624.62	1477.38
624.97	1473.19
625.32	1469.26
625.66	1464.21
626.01	1459.07
626.35	1454.12
626.70	1449.74
627.04	1444.69
627.39	1438.57
627.73	1433.95
628.08	1429.19
628.43	1424.19
628.77	1417.69
629.12	1412.86
629.46	1407.64
629.81	1402.52
630.15	1396.86
630.50	1390.02
630.84	1384.88
631.19	1378.36
631.53	1371.86
631.88	1362.48
632.22	1355.02
632.57	1348.55
632.91	1342.50
633.26	1336.19
633.60	1330.02
633.95	1323.02
634.29	1317.36
634.64	1311.76
634.98	1304.29
635.32	1298.33
635.67	1293.33
636.01	1287.93
636.36	1280.86
636.70	1274.98
637.05	1268.71
637.39	1262.86
637.73	1257.50
638.08	1252.62
638.42	1247.02
638.77	1241.38
639.11	1236.52
639.45	1230.24
639.80	1224.24
640.14	1218.74
640.49	1212.90
640.83	1205.90
641.17	1199.31
641.52	1192.24
641.86	1185.69
642.20	1180.88
642.55	1173.31
642.89	1165.93
643.23	1159.24
643.58	1154.10
643.92	1146.69
644.26	1140.69
644.61	1134.31
644.95	1127.29
645.29	1119.10
645.64	1112.81
645.98	1105.50
646.32	1099.26
646.66	1093.00
647.01	1085.74
647.35	1079.38
647.69	1073.10
648.04	1067.60
648.38	1062.07
648.72	1056.17
649.06	1049.86
649.41	1042.36
649.75	1036.50
650.09	1029.67
650.43	1022.90
650.78	1015.79
651.12	1009.38
651.46	1002.38
651.80	995.36
652.14	989.71
652.49	984.83
652.83	978.26
653.17	972.29
653.51	965.48
653.85	958.45
654.20	952.21
654.54	945.36
654.88	938.60
655.22	932.19
655.56	925.33
655.90	918.88
656.25	912.33
656.59	906.81
656.93	901.07
657.27	896.52
657.61	890.33
657.95	884.14
658.29	878.50
658.64	873.52
658.98	867.83
659.32	861.50
659.66	854.57
660.00	848.62
660.34	843.05
660.68	837.57
661.02	832.40
661.36	826.64
661.70	820.98
662.05	815.48
662.39	810.24
662.73	805.26
663.07	800.64
663.41	795.10
663.75	789.21
664.09	783.86
664.43	777.19
664.77	771.88
665.11	765.90
665.45	760.88
665.79	755.64
666.13	750.19
666.47	744.62
666.81	739.86
667.15	734.64
667.49	729.95
667.83	725.26
668.17	720.26
668.51	715.38
668.85	710.19
669.19	706.05
669.53	700.14
669.87	694.71
670.21	688.55
670.55	684.33
670.89	680.40
671.23	675.05
671.57	670.43
671.91	665.81
672.25	661.64
672.58	657.52
672.92	652.31
673.26	648.48
673.60	643.98
673.94	639.62
674.28	635.50
674.62	631.55
674.96	626.52
675.30	622.81
675.64	618.83
675.97	615.05
676.31	610.02
676.65	605.81
676.99	602.74
677.33	598.88
677.67	594.69
678.01	589.50
678.34	586.21
678.68	582.93
679.02	578.64
679.36	574.86
679.70	570.21
680.04	566.31
680.37	562.12
680.71	558.55
681.05	554.33
681.39	550.38
681.73	545.74
682.06	541.79
682.40	537.76
682.74	533.79
683.08	530.93
683.42	527.02
683.75	523.76
684.09	518.81
684.43	515.14
684.77	511.33
685.10	507.79
685.44	503.88
685.78	499.86
686.12	496.48
686.45	492.69
686.79	489.26
687.13	486.31
687.46	482.90
687.80	479.79
688.14	476.64
688.48	473.57
688.81	470.60
689.15	468.50
689.49	465.26
689.82	462.60
690.16	458.62
690.50	455.69
690.83	452.43
691.17	449.57
691.51	446.74
691.84	443.48
692.18	440.81
692.52	437.74
692.85	435.64
693.19	433.50
693.52	430.81
693.86	427.83
694.20	424.90
694.53	422.10
694.87	419.14
695.21	416.21
695.54	413.55
695.88	410.26
696.21	406.29
696.55	403.76
696.88	401.05
697.22	398.60
697.56	396.64
697.89	394.07
698.23	392.21
698.56	389.74
698.90	387.62
699.23	385.33
699.57	383.29
699.90	380.60
700.24	378.05
700.58	376.29
700.91	374.52
701.25	374.45
701.58	373.17
701.92	371.45
702.25	369.50
702.59	367.14
702.92	365.64
703.26	364.02
703.59	361.95
703.93	361.52
704.26	359.95
704.60	358.36
704.93	356.76
705.26	354.57
705.60	353.36
705.93	351.55
706.27	350.38
706.60	349.38
706.94	348.45
707.27	346.67
707.61	344.95
707.94	343.29
708.27	339.76
708.61	337.45
708.94	336.12
709.28	334.74
709.61	333.21
709.94	331.81
710.28	330.57
710.61	329.31
710.95	326.24
711.28	325.98
711.61	324.00
711.95	323.00
712.28	321.26
712.61	319.55
712.95	319.38
713.28	318.90
713.61	316.83
713.95	315.14
714.28	313.98
714.61	312.60
714.95	310.83
715.28	309.62
715.61	308.14
715.95	306.86
716.28	305.40
716.61	304.74
716.95	303.17
717.28	301.79
717.61	300.55
717.94	299.36
718.28	296.95
718.61	296.05
718.94	294.55
719.27	293.45
719.61	292.40
719.94	290.74
720.27	288.26
720.60	287.38
720.94	286.12
721.27	285.31
721.60	284.81
721.93	284.14
722.27	283.81
722.60	283.33
722.93	282.14
723.26	281.50
723.59	280.24
723.93	279.90
724.26	279.48
724.59	278.64
724.92	278.24
725.25	277.93
725.59	276.98
725.92	276.98
726.25	276.62
726.58	276.02
726.91	275.12
727.24	274.98
727.57	274.36
727.91	273.69
728.24	273.07
728.57	272.00
728.90	271.76
729.23	270.50
729.56	270.64
729.89	269.90
730.22	269.19
730.55	268.50
730.89	268.00
731.22	267.21
731.55	266.57
731.88	265.90
732.21	264.98
732.54	264.36
732.87	263.19
733.20	262.57
733.53	262.10
733.86	261.90
734.19	260.95
734.52	260.81
734.85	261.36
735.18	260.62
735.51	260.74
735.84	260.31
736.17	260.62
736.50	259.19
736.83	260.98
737.16	260.33
737.49	259.74
737.82	258.79
738.15	258.71
738.48	258.21
738.81	257.48
739.14	256.81
739.47	256.21
739.80	255.71
740.13	255.55
740.46	254.98
740.79	254.05
741.12	253.86
741.45	253.10
741.78	251.69
742.11	251.74
742.44	250.90
742.77	250.62
743.10	249.26
743.43	248.81
743.75	246.31
744.08	248.69
744.41	248.50
744.74	247.95
745.07	247.07
745.40	246.90
745.73	247.62
746.06	247.14
746.39	247.14
746.71	246.88
747.04	246.12
747.37	245.69
747.70	246.12
748.03	245.64
748.36	245.79
748.68	245.31
749.01	244.45
749.34	243.90
749.67	243.76
750.00	243.95
750.33	245.02
750.65	245.19
750.98	242.36
751.31	242.10
751.64	242.26
751.97	243.19
752.29	242.88
752.62	241.52
752.95	241.26
753.28	240.55
753.60	240.00
753.93	240.36
754.26	240.10
754.59	239.07
754.91	238.79
755.24	237.98
755.57	237.71
755.90	237.52
756.22	237.29
756.55	236.29
756.88	235.48
757.20	234.26
757.53	233.29
757.86	233.14
758.19	233.31
758.51	233.02
758.84	231.60
759.17	231.19
759.49	231.10
759.82	231.83
760.15	231.90
760.47	232.07
760.80	231.21
761.13	231.31
761.45	230.95
761.78	230.76
762.11	230.45
762.43	230.29
762.76	229.98
763.08	229.98
763.41	230.19
763.74	230.36
764.06	230.10
764.39	230.10
764.71	229.62
765.04	229.07
765.37	228.40
765.69	228.24
766.02	227.98
766.34	227.50
766.67	226.43
767.00	226.55
767.32	227.07
767.65	228.12
767.97	227.83
768.30	227.76
768.62	227.64
768.95	227.43
769.27	227.17
769.60	227.31
769.92	226.98
770.25	226.29
770.57	225.93
770.90	225.64
771.22	225.21
771.55	225.26
771.87	225.05
772.20	225.29
772.52	227.10
772.85	229.74
773.17	229.83
773.50	229.64
773.82	229.21
774.15	228.31
774.47	226.88
774.80	226.74
775.12	226.57
775.45	226.24
775.77	226.62
776.09	226.76
776.42	226.60
776.74	226.93
777.07	226.95
777.39	226.62
777.72	226.10
778.04	226.45
778.36	225.95
778.69	226.00
779.01	225.83
779.33	224.02
779.66	221.38
779.98	221.24
780.31	221.33
780.63	221.95
780.95	222.31
781.28	222.38
781.60	221.98
781.92	222.05
782.25	222.12
782.57	221.57
782.89	221.05
783.22	220.79
783.54	220.31
783.86	220.33
784.19	220.40
784.51	220.86
784.83	220.10
785.16	220.12
785.48	220.10
785.80	220.10
786.12	220.10
786.45	220.10
786.77	219.95
787.09	219.71
787.42	218.98
787.74	218.67
788.06	218.57
788.38	218.43
788.71	218.07
789.03	218.14
789.35	218.52
789.67	218.24
789.99	218.36
790.32	218.19
790.64	218.21
790.96	219.64
791.28	218.93
791.61	219.29
791.93	219.33
792.25	218.90
792.57	220.26
792.89	219.79
793.21	219.64
793.54	219.52
793.86	219.62
794.18	219.81
794.50	219.24
794.82	219.33
795.14	219.55
795.47	219.88
795.79	219.83
796.11	219.19
796.43	219.21
796.75	219.07
797.07	219.19
797.39	219.07
797.71	217.69
798.04	217.71
798.36	217.60
798.68	217.55
799.00	217.86
799.32	216.62
799.64	216.98
799.96	216.90
800.28	217.17
800.60	217.07
800.92	217.12
801.24	217.10
801.56	217.24
801.89	217.14
802.21	217.43
802.53	216.83
802.85	217.38
803.17	218.67
803.49	218.26
803.81	217.79
804.13	217.76
804.45	217.38
804.77	217.98
805.09	218.00
805.41	217.93
805.73	217.40
806.05	217.07
806.37	217.05
806.69	216.95
807.01	216.98
807.33	216.90
807.65	216.40
807.97	217.62
808.28	217.02
808.60	216.81
808.92	216.19
809.24	217.67
809.56	217.31
809.88	216.40
810.20	216.43
810.52	217.12
810.84	216.62
811.16	216.55
811.48	216.12
811.80	217.07
812.12	216.86
812.43	217.45
812.75	217.62
813.07	217.31
813.39	217.67
813.71	217.26
814.03	217.10
814.35	217.07
814.67	216.10
814.98	216.05
815.30	216.19
815.62	216.02
815.94	214.69
816.26	214.81
816.58	214.40
816.89	214.86
817.21	214.24
817.53	214.64
817.85	214.67
818.17	214.69
818.48	213.71
818.80	214.40
819.12	214.07
819.44	213.64
819.76	213.38
820.07	213.17
820.39	213.17
820.71	213.38
821.03	213.36
821.34	213.24
821.66	213.74
821.98	213.93
822.30	213.76
822.61	215.07
822.93	214.86
823.25	214.64
823.57	214.55
823.88	214.76
824.20	214.81
824.52	215.26
824.83	215.21
825.15	215.07
825.47	214.95
825.79	214.90
826.10	214.95
826.42	214.88
826.74	215.24
827.05	215.12
827.37	214.95
827.69	214.93
828.00	214.95
828.32	214.93
828.64	214.67
828.95	216.05
829.27	215.33
829.58	215.40
829.90	216.02
830.22	216.00
830.53	215.71
830.85	215.40
831.17	214.95
831.48	215.07
831.80	215.21
832.11	214.74
832.43	214.76
832.75	214.62
833.06	216.12
833.38	215.45
833.69	215.64
834.01	215.71
834.32	215.67
834.64	215.62
834.96	215.69
835.27	215.67
835.59	215.02
835.90	214.60
836.22	214.52
836.53	214.00
836.85	213.76
837.16	215.74
837.48	215.79
837.79	216.36
838.11	216.38
838.42	216.40
838.74	216.90
839.05	216.76
839.37	216.93
839.68	215.52
840.00	215.50
840.31	215.74
840.63	215.64
840.94	215.40
841.26	215.02
841.57	214.90
841.88	215.02
842.20	214.57
842.51	214.33
842.83	214.33
843.14	216.19
843.46	216.19
843.77	215.12
844.08	215.12
844.40	214.76
844.71	214.62
845.03	214.38
845.34	213.90
845.65	213.98
845.97	213.88
846.28	213.79
846.60	213.79
846.91	213.31
847.22	213.17
847.54	213.71
847.85	213.98
848.16	213.83
848.48	213.55
848.79	214.62
849.10	214.83
849.42	214.86
849.73	213.10
850.04	213.12
850.36	212.55
850.67	212.71
850.98	212.57
851.30	212.81
851.61	212.55
851.92	212.71
852.23	213.05
852.55	213.14
852.86	213.26
853.17	213.83
853.49	214.31
853.80	214.83
854.11	214.88
854.42	215.29
854.74	214.98
855.05	215.00
855.36	213.64
855.67	213.95
855.99	213.81
856.30	216.02
856.61	215.88
856.92	215.93
857.23	215.86
857.55	215.74
857.86	215.79
858.17	216.24
858.48	215.86
858.79	215.60
859.11	215.62
859.42	215.67
859.73	215.05
860.04	214.79
860.35	214.19
860.66	213.55
860.98	213.29
861.29	213.67
861.60	213.64
861.91	214.17
862.22	213.88
862.53	213.71
862.84	211.33
863.16	211.93
863.47	211.55
863.78	211.38
864.09	211.60
864.40	211.69
864.71	211.76
865.02	212.17
865.33	211.86
865.64	211.57
865.95	211.64
866.27	213.14
866.58	213.02
866.89	213.26
867.20	213.36
867.51	213.10
867.82	212.90
868.13	213.50
868.44	213.05
868.75	213.48
869.06	213.50
869.37	213.83
869.68	212.86
869.99	213.29
870.30	213.45
870.61	213.64
870.92	213.21
871.23	213.10
871.54	213.21
871.85	213.76
872.16	213.98
872.47	213.64
872.78	212.36
873.09	212.55
873.40	212.62
873.71	212.71
874.02	212.93
874.33	212.67
874.64	212.07
874.95	212.69
875.26	212.10
875.56	212.21
875.87	212.14
876.18	212.36
876.49	214.26
876.80	214.31
877.11	213.76
877.42	213.71
877.73	213.62
878.04	213.40
878.35	213.24
878.66	213.40
878.96	213.50
879.27	213.33
879.58	213.19
879.89	212.88
880.20	213.50
880.51	213.48
880.82	213.55
881.12	213.79
881.43	213.26
881.74	213.26
882.05	213.19
882.36	213.29
882.67	213.55
882.97	211.36
883.28	211.19
883.59	211.26
883.90	211.52
884.21	211.88
884.51	211.74
884.82	211.60
885.13	211.45
885.44	211.50
885.74	211.52
886.05	211.69
886.36	211.76
886.67	211.00
886.98	211.95
887.28	212.29
887.59	212.48
887.90	212.48
888.20	212.26
888.51	212.67
888.82	212.48
889.13	212.67
889.43	214.36
889.74	214.12
890.05	214.05
890.35	213.81
890.66	213.62
890.97	213.57
891.28	213.33
891.58	213.52
891.89	213.38
892.20	213.24
892.50	213.10
892.81	212.86
893.12	212.95
893.42	211.81
893.73	211.76
894.04	211.67
894.34	211.64
894.65	211.60
894.95	211.26
895.26	211.26
895.57	212.07
895.87	210.14
896.18	210.74
896.48	210.83
896.79	210.90
897.10	211.07
897.40	211.14
897.71	211.52
898.01	211.50
898.32	211.67
898.63	211.55
898.93	211.55
899.24	211.71
899.54	211.62
899.85	211.64
900.15	211.57
900.46	211.43
900.76	211.93
901.07	212.05
901.38	212.21
901.68	212.45
901.99	211.43
902.29	211.76
902.60	211.40
902.90	211.24
903.21	211.05
903.51	210.95
903.82	211.45
904.12	211.24
904.43	211.24
904.73	211.29
905.03	211.48
905.34	213.29
905.64	213.12
905.95	213.21
906.25	213.38
906.56	213.48
906.86	213.50
907.17	213.19
907.47	213.31
907.77	212.98
908.08	212.48
908.38	212.60
908.69	212.76
908.99	213.31
909.30	213.48
909.60	213.76
909.90	213.67
910.21	212.88
910.51	212.79
910.81	212.69
911.12	212.88
911.42	212.93
911.73	210.90
912.03	211.05
912.33	211.50
912.64	211.29
912.94	211.19
913.24	210.81
913.55	210.64
913.85	210.55
914.15	210.95
914.46	211.31
914.76	211.17
915.06	210.86
915.37	210.05
915.67	209.98
915.97	209.79
916.27	209.43
916.58	209.48
916.88	209.29
917.18	209.10
917.49	210.43
917.79	210.33
918.09	210.67
918.39	211.12
918.70	210.93
919.00	210.86
919.30	211.67
919.60	211.81
919.91	211.74
920.21	211.71
920.51	211.38
920.81	211.45
921.12	211.76
921.42	211.79
921.72	212.21
922.02	212.45
922.32	212.90
922.63	212.86
922.93	214.07
923.23	214.33
923.53	214.60
923.83	213.10
924.13	213.29
924.44	213.26
924.74	213.69
925.04	214.00
925.34	214.14
925.64	213.17
925.94	213.10
926.24	214.00
926.55	213.98
926.85	214.24
927.15	214.02
927.45	213.95
927.75	214.14
928.05	214.24
928.35	213.81
928.65	214.12
928.95	214.62
929.26	214.02
929.56	214.60
929.86	214.76
930.16	214.74
930.46	214.55
930.76	214.86
931.06	213.95
931.36	213.45
931.66	213.83
931.96	214.29
932.26	214.38
932.56	213.57
932.86	213.74
933.16	213.79
933.46	213.88
933.76	213.57
934.06	213.74
934.36	214.26
934.66	214.43
934.96	214.14
935.26	214.14
935.56	214.10
935.86	213.52
936.16	213.07
936.46	212.95
936.76	213.10
937.06	212.57
937.36	212.67
937.66	212.74
937.96	212.71
938.26	212.29
938.56	212.21
938.86	212.45
939.16	213.12
939.46	213.21
939.76	213.24
940.06	213.19
940.35	212.83
940.65	211.86
940.95	212.17
941.25	211.45
941.55	211.05
941.85	211.05
942.15	211.67
942.45	212.36
942.75	212.38
943.04	212.21
943.34	212.74
943.64	212.88
943.94	212.62
944.24	212.64
944.54	212.71
944.84	212.48
945.13	212.31
945.43	211.60
945.73	211.60
946.03	211.43
946.33	211.55
946.62	211.26
946.92	211.55
947.22	211.52
947.52	211.86
947.82	212.36
948.11	212.12
948.41	211.45
948.71	210.76
949.01	210.71
949.31	210.83
949.60	210.64
949.90	210.76
950.20	210.88
950.50	210.60
950.79	210.48
951.09	211.02
951.39	210.95
951.69	210.71
951.98	210.95
952.28	210.86
952.58	210.83
952.87	211.24
953.17	211.14
953.47	210.86
953.76	211.00
954.06	210.29
954.36	209.90
954.66	209.86
954.95	210.52
955.25	210.62
955.55	210.74
955.84	210.43
956.14	210.55
956.44	210.55
956.73	210.43
957.03	210.57
957.32	210.29
957.62	210.02
957.92	210.71
958.21	210.48
958.51	213.00
958.81	213.19
959.10	213.07
959.40	213.79
959.69	214.05
959.99	214.24
960.29	214.50
960.58	214.62
960.88	215.45
961.17	215.10
961.47	215.29
961.76	214.93
962.06	215.33
962.36	215.05
962.65	214.98
962.95	215.05
963.24	214.83
963.54	215.10
963.83	215.50
964.13	215.40
964.42	214.81
964.72	212.98
965.01	212.81
965.31	212.79
965.60	212.17
965.90	213.40
966.19	212.81
966.49	213.05
966.78	212.83
967.08	212.57
967.37	212.76
967.67	212.40
967.96	212.95
968.26	212.62
968.55	212.83
968.85	212.88
969.14	212.93
969.43	212.90
969.73	212.67
970.02	212.74
970.32	212.45
970.61	212.62
970.91	212.07
971.20	211.81
971.49	211.64
971.79	211.79
972.08	210.21
972.38	210.40
972.67	210.24
972.96	210.71
973.26	210.17
973.55	210.74
973.85	210.81
974.14	210.83
974.43	211.00
974.73	210.71
975.02	210.52
975.31	210.36
975.61	210.43
975.90	210.29
976.19	209.98
976.49	209.95
976.78	210.17
977.07	210.19
977.37	210.43
977.66	210.81
977.95	210.60
978.24	210.81
978.54	211.40
978.83	211.05
979.12	211.00
979.42	211.17
979.71	210.74
980.00	210.60
980.29	210.38
980.59	209.95
980.88	210.69
981.17	210.88
981.46	211.12
981.76	211.17
982.05	211.83
982.34	212.00
982.63	212.02
982.93	212.00
983.22	212.64
983.51	212.55
983.80	212.83
984.09	212.93
984.39	212.71
984.68	212.24
984.97	212.76
985.26	212.36
985.55	212.55
985.85	211.83
986.14	212.21
986.43	212.31
986.72	212.52
987.01	211.45
987.30	211.19
987.59	210.81
987.89	210.83
988.18	210.29
988.47	210.07
988.76	210.02
989.05	209.81
989.34	209.52
989.63	210.38
989.92	209.93
990.22	209.93
990.51	209.90
990.80	209.86
991.09	209.90
991.38	210.19
991.67	209.86
991.96	210.00
992.25	210.00
992.54	209.74
992.83	209.71
993.12	210.00
993.41	210.43
993.70	211.38
993.99	211.60
994.28	211.71
994.58	211.86
994.87	211.62
995.16	211.57
995.45	211.38
995.74	210.71
996.03	211.02
996.32	211.19
996.61	211.83
996.90	211.74
997.19	211.62
997.48	211.74
997.77	211.64
998.06	211.71
998.34	211.50
998.63	211.52
998.92	211.48
999.21	211.67
999.50	211.71
999.79	211.12
1000.08	211.07
1000.37	210.95
1000.66	210.86
1000.95	211.36
1001.24	211.52
1001.53	211.69
1001.82	211.52
1002.11	211.12
1002.40	211.33
1002.68	211.74
1002.97	213.36
1003.26	213.10
1003.55	212.86
1003.84	213.00
1004.13	213.55
1004.42	213.57
1004.71	213.62
1004.99	213.38
1005.28	214.00
1005.57	213.88
1005.86	213.57
1006.15	213.48
1006.44	213.45
1006.72	213.57
1007.01	213.33
1007.30	213.21
1007.59	212.86
1007.88	212.76
1008.17	212.86
1008.45	212.50
1008.74	211.69
1009.03	210.76
1009.32	210.79
1009.60	210.71
1009.89	210.50
1010.18	209.88
1010.47	210.07
1010.76	210.00
1011.04	210.14
1011.33	210.10
1011.62	210.19
1011.91	210.50
1012.19	210.62
1012.48	210.62
1012.77	210.76
1013.05	211.74
1013.34	211.86
1013.63	212.00
1013.92	212.26
1014.20	212.17
1014.49	212.12
1014.78	212.31
1015.06	211.60
1015.35	211.55
1015.64	211.86
1015.92	212.40
1016.21	212.62
1016.50	212.10
1016.78	212.40
1017.07	212.57
1017.36	212.02
1017.64	211.76
1017.93	212.02
1018.22	212.02
1018.50	212.14
1018.79	212.10
1019.08	210.90
1019.36	210.95
1019.65	210.69
1019.93	211.21
1020.22	211.40
1020.51	212.48
1020.79	212.12
1021.08	212.50
1021.36	210.50
1021.65	212.50
1021.94	206.50
1022.22	210.50
1022.51	206.50
1022.79	222.50
1023.08	212.50
1023.36	234.50
1023.65	206.00
>>>>>End Processed Spectral Data<<<<<
