SpectraSuite Data File
++++++++++++++++++++++++++++++++++++
Date: Tue Apr 02 18:41:13 EDT 2013
User: group
Dark Spectrum Present: No
Reference Spectrum Present: No
Number of Sampled Component Spectra: 1
Spectrometers: USB2E7196
Integration Time (usec): 580000 (USB2E7196)
Spectra Averaged: 2 (USB2E7196)
Boxcar Smoothing: 10 (USB2E7196)
Correct for Electrical Dark: No (USB2E7196)
Strobe/Lamp Enabled: No (USB2E7196)
Correct for Detector Non-linearity: No (USB2E7196)
Correct for Stray Light: No (USB2E7196)
Number of Pixels in Processed Spectrum: 2048
>>>>>Begin Processed Spectral Data<<<<<
339.09	0.00
339.48	191.50
339.86	191.00
340.24	200.00
340.63	194.00
341.01	230.00
341.39	198.00
341.78	205.00
342.16	209.00
342.54	204.00
342.93	195.67
343.31	205.31
343.69	206.00
344.07	206.74
344.46	207.33
344.84	208.17
345.22	207.10
345.60	207.62
345.99	207.83
346.37	207.79
346.75	208.00
347.13	208.21
347.52	208.40
347.90	209.12
348.28	209.40
348.66	210.00
349.05	209.12
349.43	209.67
349.81	210.07
350.19	210.24
350.57	210.24
350.96	210.40
351.34	210.86
351.72	210.86
352.10	211.12
352.48	210.74
352.87	210.52
353.25	210.60
353.63	210.55
354.01	210.36
354.39	210.62
354.77	210.67
355.15	211.36
355.54	211.07
355.92	210.43
356.30	210.60
356.68	211.67
357.06	212.10
357.44	211.50
357.82	211.64
358.20	212.52
358.58	212.36
358.97	212.57
359.35	212.93
359.73	213.69
360.11	213.43
360.49	213.88
360.87	214.00
361.25	214.33
361.63	214.90
362.01	215.14
362.39	214.98
362.77	215.17
363.15	214.93
363.53	215.24
363.91	215.43
364.29	215.24
364.67	213.48
365.05	213.55
365.43	214.00
365.81	214.29
366.19	214.38
366.57	215.38
366.95	215.14
367.33	214.57
367.71	214.31
368.09	214.88
368.47	214.64
368.85	214.52
369.23	215.05
369.61	214.55
369.99	215.21
370.37	215.43
370.75	216.33
371.13	215.88
371.51	215.52
371.89	215.55
372.27	215.76
372.65	216.05
373.03	216.12
373.41	215.93
373.78	215.76
374.16	214.64
374.54	213.90
374.92	213.90
375.30	214.07
375.68	213.69
376.06	213.76
376.44	213.71
376.82	213.95
377.19	213.57
377.57	213.38
377.95	212.93
378.33	212.74
378.71	211.67
379.09	212.05
379.47	212.38
379.84	212.48
380.22	212.33
380.60	212.07
380.98	211.83
381.36	211.79
381.73	211.55
382.11	212.00
382.49	212.14
382.87	212.00
383.25	212.29
383.62	214.64
384.00	214.19
384.38	214.40
384.76	214.71
385.13	215.43
385.51	215.57
385.89	215.21
386.27	215.40
386.64	215.74
387.02	215.60
387.40	215.43
387.78	215.31
388.15	215.29
388.53	215.14
388.91	215.12
389.29	215.02
389.66	215.36
390.04	215.12
390.42	215.55
390.79	215.67
391.17	215.38
391.55	213.19
391.92	213.24
392.30	213.48
392.68	213.26
393.05	213.26
393.43	213.43
393.81	213.69
394.18	213.38
394.56	213.45
394.94	213.95
395.31	213.69
395.69	214.60
396.06	215.19
396.44	215.45
396.82	215.52
397.19	216.50
397.57	216.50
397.95	217.02
398.32	216.40
398.70	216.76
399.07	217.21
399.45	217.02
399.82	216.88
400.20	216.57
400.58	216.48
400.95	215.52
401.33	215.93
401.70	217.36
402.08	217.62
402.45	217.71
402.83	218.31
403.20	218.69
403.58	218.33
403.95	218.64
404.33	219.14
404.71	219.67
405.08	220.90
405.46	221.02
405.83	221.31
406.21	221.81
406.58	222.12
406.96	222.55
407.33	223.60
407.70	224.48
408.08	226.79
408.45	227.74
408.83	228.88
409.20	229.31
409.58	228.86
409.95	230.07
410.33	230.88
410.70	231.00
411.08	232.43
411.45	233.40
411.82	234.43
412.20	235.95
412.57	238.24
412.95	237.90
413.32	239.60
413.69	241.02
414.07	242.93
414.44	244.81
414.82	246.69
415.19	249.00
415.56	251.26
415.94	252.50
416.31	255.43
416.68	258.57
417.06	262.17
417.43	266.07
417.81	269.57
418.18	273.55
418.55	277.57
418.93	281.31
419.30	285.95
419.67	290.29
420.04	294.62
420.42	299.29
420.79	306.64
421.16	312.43
421.54	319.69
421.91	325.98
422.28	332.67
422.66	339.60
423.03	347.33
423.40	354.38
423.77	361.93
424.15	368.88
424.52	376.64
424.89	384.90
425.26	392.60
425.64	400.79
426.01	409.07
426.38	418.14
426.75	428.00
427.13	437.21
427.50	447.29
427.87	457.88
428.24	467.95
428.61	476.62
428.99	488.60
429.36	499.26
429.73	510.74
430.10	522.31
430.47	534.95
430.85	546.29
431.22	559.43
431.59	575.10
431.96	588.33
432.33	602.36
432.70	617.05
433.08	633.64
433.45	648.90
433.82	664.45
434.19	682.07
434.56	699.38
434.93	716.02
435.30	732.43
435.68	750.14
436.05	767.67
436.42	785.02
436.79	801.21
437.16	819.33
437.53	837.71
437.90	856.57
438.27	874.33
438.64	893.26
439.01	911.07
439.38	924.69
439.75	940.45
440.13	958.14
440.50	974.33
440.87	987.71
441.24	1001.79
441.61	1017.24
441.98	1028.93
442.35	1041.00
442.72	1054.74
443.09	1068.74
443.46	1076.88
443.83	1082.33
444.20	1087.90
444.57	1093.90
444.94	1096.38
445.31	1100.79
445.68	1106.07
446.05	1107.76
446.42	1105.93
446.79	1104.79
447.16	1103.00
447.53	1101.93
447.90	1095.95
448.27	1089.86
448.64	1080.88
449.01	1074.62
449.37	1063.12
449.74	1051.07
450.11	1040.31
450.48	1024.71
450.85	1008.55
451.22	995.40
451.59	983.45
451.96	971.33
452.33	955.36
452.70	941.05
453.07	923.02
453.43	903.21
453.80	886.21
454.17	869.90
454.54	853.26
454.91	836.52
455.28	819.52
455.65	803.57
456.02	791.43
456.38	778.14
456.75	761.69
457.12	747.88
457.49	734.74
457.86	719.36
458.23	709.55
458.59	697.17
458.96	685.02
459.33	673.76
459.70	662.69
460.07	654.07
460.43	644.48
460.80	635.36
461.17	626.93
461.54	618.40
461.91	610.29
462.27	602.38
462.64	595.00
463.01	587.52
463.38	580.79
463.74	569.19
464.11	562.52
464.48	556.74
464.85	550.31
465.21	545.50
465.58	540.86
465.95	533.50
466.32	528.29
466.68	522.83
467.05	517.71
467.42	512.52
467.78	506.88
468.15	501.45
468.52	497.33
468.88	491.79
469.25	486.60
469.62	483.40
469.98	479.40
470.35	475.69
470.72	472.00
471.08	467.38
471.45	464.71
471.82	461.71
472.18	458.07
472.55	455.67
472.92	452.05
473.28	448.69
473.65	445.50
474.02	442.64
474.38	440.45
474.75	438.48
475.11	436.12
475.48	434.64
475.85	432.83
476.21	430.86
476.58	429.67
476.94	428.62
477.31	426.95
477.67	425.40
478.04	424.74
478.41	424.19
478.77	425.55
479.14	424.17
479.50	423.52
479.87	423.29
480.23	422.88
480.60	422.33
480.96	421.90
481.33	422.98
481.69	422.86
482.06	423.07
482.42	423.14
482.79	423.33
483.15	423.38
483.52	424.45
483.88	425.05
484.25	426.00
484.61	426.64
484.98	427.12
485.34	428.67
485.71	429.71
486.07	430.79
486.44	430.50
486.80	432.26
487.17	433.81
487.53	436.02
487.90	437.95
488.26	441.29
488.62	444.81
488.99	446.40
489.35	448.98
489.72	451.45
490.08	454.40
490.44	457.26
490.81	460.64
491.17	463.95
491.54	467.81
491.90	471.60
492.26	475.31
492.63	479.69
492.99	483.31
493.36	487.36
493.72	492.12
494.08	496.07
494.45	500.69
494.81	505.52
495.17	510.33
495.54	516.31
495.90	520.76
496.26	525.40
496.63	531.05
496.99	536.90
497.35	543.05
497.72	548.71
498.08	554.76
498.44	560.88
498.80	567.33
499.17	573.79
499.53	580.24
499.89	587.79
500.26	594.45
500.62	601.50
500.98	609.05
501.34	615.76
501.71	623.76
502.07	630.60
502.43	638.45
502.79	645.24
503.16	652.24
503.52	659.98
503.88	667.10
504.24	675.17
504.60	683.12
504.97	690.64
505.33	698.62
505.69	708.33
506.05	716.36
506.41	724.31
506.78	731.71
507.14	739.17
507.50	746.62
507.86	755.05
508.22	763.33
508.59	770.48
508.95	778.90
509.31	787.57
509.67	795.88
510.03	803.31
510.39	812.05
510.75	819.62
511.12	827.45
511.48	836.05
511.84	843.19
512.20	851.45
512.56	859.90
512.92	868.74
513.28	875.81
513.64	882.83
514.00	889.86
514.37	898.29
514.73	906.36
515.09	914.33
515.45	920.90
515.81	928.21
516.17	936.05
516.53	942.60
516.89	948.62
517.25	955.74
517.61	963.83
517.97	970.67
518.33	977.50
518.69	985.07
519.05	991.76
519.41	999.05
519.77	1006.12
520.13	1012.76
520.49	1017.88
520.85	1023.62
521.21	1031.19
521.57	1038.21
521.93	1043.52
522.29	1049.88
522.65	1055.21
523.01	1061.69
523.37	1066.95
523.73	1072.74
524.09	1078.90
524.45	1084.31
524.81	1089.43
525.17	1094.57
525.53	1099.10
525.89	1104.17
526.25	1108.98
526.61	1113.50
526.97	1117.90
527.33	1122.05
527.68	1128.40
528.04	1133.69
528.40	1138.93
528.76	1142.71
529.12	1147.38
529.48	1152.31
529.84	1155.81
530.20	1160.74
530.56	1165.57
530.91	1171.05
531.27	1175.88
531.63	1180.14
531.99	1183.71
532.35	1188.17
532.71	1191.95
533.07	1196.93
533.42	1204.05
533.78	1208.86
534.14	1213.60
534.50	1218.38
534.86	1223.52
535.21	1225.95
535.57	1230.48
535.93	1233.88
536.29	1239.67
536.65	1244.12
537.00	1247.98
537.36	1251.93
537.72	1255.83
538.08	1259.88
538.44	1262.83
538.79	1266.62
539.15	1269.88
539.51	1275.67
539.87	1280.76
540.22	1284.33
540.58	1288.36
540.94	1290.10
541.29	1292.81
541.65	1296.00
542.01	1299.95
542.37	1302.62
542.72	1305.83
543.08	1308.12
543.44	1311.93
543.79	1313.38
544.15	1316.81
544.51	1321.33
544.87	1326.12
545.22	1329.55
545.58	1333.05
545.94	1336.33
546.29	1339.07
546.65	1342.95
547.01	1345.07
547.36	1347.98
547.72	1351.12
548.07	1354.36
548.43	1357.24
548.79	1360.50
549.14	1363.21
549.50	1365.93
549.86	1368.69
550.21	1372.00
550.57	1376.14
550.92	1378.62
551.28	1382.62
551.64	1385.36
551.99	1388.07
552.35	1390.86
552.70	1393.90
553.06	1397.43
553.41	1401.45
553.77	1406.43
554.13	1410.62
554.48	1415.17
554.84	1418.67
555.19	1423.21
555.55	1429.38
555.90	1433.12
556.26	1437.86
556.61	1442.71
556.97	1446.71
557.32	1451.83
557.68	1456.33
558.03	1460.90
558.39	1465.98
558.74	1470.21
559.10	1474.67
559.45	1479.88
559.81	1484.60
560.16	1489.93
560.52	1494.26
560.87	1499.05
561.23	1502.50
561.58	1507.90
561.94	1511.86
562.29	1516.95
562.64	1522.52
563.00	1525.86
563.35	1530.98
563.71	1535.71
564.06	1541.10
564.42	1546.26
564.77	1551.48
565.12	1557.62
565.48	1564.62
565.83	1570.81
566.19	1577.21
566.54	1582.88
566.89	1587.67
567.25	1594.40
567.60	1601.00
567.96	1608.57
568.31	1614.64
568.66	1621.40
569.02	1625.71
569.37	1631.24
569.72	1636.31
570.08	1641.19
570.43	1645.48
570.78	1651.26
571.14	1656.24
571.49	1661.21
571.84	1667.14
572.20	1672.05
572.55	1675.71
572.90	1678.64
573.26	1682.52
573.61	1686.74
573.96	1690.86
574.31	1695.05
574.67	1697.71
575.02	1700.90
575.37	1702.31
575.72	1704.74
576.08	1707.74
576.43	1711.45
576.78	1714.40
577.13	1717.62
577.49	1720.64
577.84	1724.40
578.19	1727.55
578.54	1730.71
578.90	1733.69
579.25	1736.62
579.60	1738.67
579.95	1741.74
580.30	1744.60
580.66	1748.67
581.01	1751.40
581.36	1754.05
581.71	1755.83
582.06	1759.86
582.42	1761.88
582.77	1764.29
583.12	1767.71
583.47	1769.48
583.82	1771.74
584.17	1774.83
584.53	1778.33
584.88	1779.98
585.23	1782.62
585.58	1783.48
585.93	1785.29
586.28	1786.50
586.63	1787.88
586.98	1790.26
587.34	1792.45
587.69	1793.45
588.04	1793.29
588.39	1794.43
588.74	1794.10
589.09	1796.26
589.44	1795.36
589.79	1796.90
590.14	1798.64
590.49	1798.48
590.84	1799.81
591.19	1800.88
591.54	1801.48
591.89	1800.45
592.25	1802.55
592.60	1801.83
592.95	1802.93
593.30	1804.10
593.65	1805.38
594.00	1805.55
594.35	1811.64
594.70	1810.14
595.05	1810.88
595.40	1810.57
595.75	1809.76
596.10	1811.21
596.45	1811.00
596.80	1811.26
597.15	1810.19
597.50	1809.31
597.85	1810.57
598.19	1809.17
598.54	1808.21
598.89	1806.98
599.24	1807.02
599.59	1805.10
599.94	1804.81
600.29	1803.90
600.64	1801.52
600.99	1799.93
601.34	1798.88
601.69	1791.98
602.04	1791.55
602.39	1789.79
602.74	1789.24
603.08	1787.95
603.43	1787.12
603.78	1785.64
604.13	1784.12
604.48	1782.67
604.83	1782.24
605.18	1780.74
605.53	1780.10
605.87	1778.48
606.22	1776.62
606.57	1774.12
606.92	1771.79
607.27	1769.67
607.62	1768.21
607.96	1767.95
608.31	1766.81
608.66	1764.71
609.01	1762.07
609.36	1759.62
609.70	1757.71
610.05	1755.31
610.40	1753.10
610.75	1749.33
611.10	1747.29
611.44	1743.26
611.79	1740.31
612.14	1735.90
612.49	1730.74
612.83	1726.86
613.18	1723.10
613.53	1719.52
613.88	1715.40
614.22	1711.88
614.57	1707.40
614.92	1702.12
615.27	1697.00
615.61	1691.10
615.96	1685.88
616.31	1681.21
616.65	1678.31
617.00	1674.05
617.35	1668.86
617.70	1663.76
618.04	1659.29
618.39	1653.52
618.74	1649.76
619.08	1644.14
619.43	1639.40
619.78	1635.43
620.12	1631.14
620.47	1626.10
620.82	1620.95
621.16	1615.88
621.51	1611.21
621.85	1605.83
622.20	1601.26
622.55	1595.33
622.89	1590.52
623.24	1586.52
623.59	1581.88
623.93	1576.36
624.28	1570.50
624.62	1567.64
624.97	1564.40
625.32	1559.48
625.66	1555.12
626.01	1549.74
626.35	1546.19
626.70	1541.05
627.04	1536.88
627.39	1531.17
627.73	1527.62
628.08	1523.86
628.43	1518.74
628.77	1513.74
629.12	1509.57
629.46	1505.02
629.81	1500.36
630.15	1495.36
630.50	1489.26
630.84	1483.95
631.19	1478.07
631.53	1472.57
631.88	1464.83
632.22	1457.38
632.57	1452.45
632.91	1445.48
633.26	1440.67
633.60	1434.12
633.95	1427.90
634.29	1421.12
634.64	1416.50
634.98	1410.12
635.32	1404.74
635.67	1400.86
636.01	1395.48
636.36	1389.36
636.70	1384.93
637.05	1380.07
637.39	1375.17
637.73	1370.17
638.08	1365.43
638.42	1360.62
638.77	1355.31
639.11	1350.48
639.45	1345.45
639.80	1338.74
640.14	1333.62
640.49	1327.48
640.83	1321.21
641.17	1315.60
641.52	1309.52
641.86	1303.05
642.20	1297.71
642.55	1290.55
642.89	1283.81
643.23	1277.69
643.58	1272.38
643.92	1264.33
644.26	1257.57
644.61	1250.95
644.95	1244.81
645.29	1237.10
645.64	1230.05
645.98	1224.31
646.32	1217.79
646.66	1210.38
647.01	1204.07
647.35	1197.95
647.69	1191.76
648.04	1185.62
648.38	1180.21
648.72	1174.10
649.06	1166.67
649.41	1159.00
649.75	1152.02
650.09	1145.45
650.43	1138.24
650.78	1130.33
651.12	1123.50
651.46	1116.52
651.80	1110.26
652.14	1103.64
652.49	1098.10
652.83	1090.71
653.17	1083.48
653.51	1075.90
653.85	1069.79
654.20	1063.00
654.54	1056.05
654.88	1048.55
655.22	1042.93
655.56	1035.12
655.90	1028.21
656.25	1021.83
656.59	1015.55
656.93	1009.90
657.27	1004.05
657.61	997.71
657.95	992.48
658.29	986.45
658.64	980.79
658.98	973.64
659.32	966.88
659.66	960.00
660.00	954.50
660.34	948.62
660.68	943.07
661.02	937.19
661.36	931.52
661.70	925.76
662.05	920.57
662.39	914.69
662.73	909.88
663.07	905.69
663.41	900.33
663.75	894.26
664.09	888.50
664.43	881.86
664.77	875.26
665.11	868.93
665.45	863.57
665.79	857.81
666.13	852.05
666.47	846.43
666.81	841.00
667.15	835.33
667.49	829.88
667.83	825.05
668.17	819.60
668.51	814.19
668.85	808.81
669.19	803.55
669.53	797.17
669.87	791.21
670.21	784.57
670.55	779.45
670.89	775.43
671.23	770.55
671.57	765.52
671.91	761.29
672.25	756.90
672.58	752.57
672.92	747.45
673.26	742.67
673.60	737.55
673.94	732.64
674.28	728.00
674.62	723.74
674.96	718.38
675.30	713.69
675.64	709.02
675.97	704.57
676.31	699.95
676.65	695.45
676.99	692.07
677.33	687.93
677.67	683.43
678.01	677.76
678.34	673.24
678.68	669.05
679.02	664.64
679.36	659.55
679.70	653.98
680.04	649.17
680.37	645.07
680.71	640.52
681.05	636.05
681.39	631.60
681.73	625.95
682.06	621.36
682.40	617.43
682.74	613.74
683.08	609.71
683.42	605.33
683.75	601.19
684.09	596.17
684.43	591.52
684.77	586.69
685.10	583.21
685.44	578.45
685.78	574.21
686.12	569.29
686.45	565.45
686.79	561.71
687.13	558.50
687.46	554.86
687.80	551.81
688.14	547.98
688.48	544.29
688.81	541.00
689.15	537.88
689.49	533.81
689.82	529.52
690.16	525.07
690.50	521.26
690.83	517.38
691.17	513.00
691.51	509.21
691.84	506.40
692.18	502.48
692.52	499.33
692.85	495.98
693.19	494.02
693.52	490.57
693.86	487.12
694.20	483.38
694.53	479.83
694.87	475.95
695.21	472.45
695.54	468.69
695.88	464.90
696.21	461.10
696.55	458.10
696.88	455.10
697.22	452.12
697.56	449.79
697.89	446.76
698.23	444.17
698.56	441.52
698.90	438.55
699.23	435.36
699.57	432.62
699.90	429.48
700.24	425.86
700.58	422.93
700.91	420.76
701.25	419.98
701.58	417.79
701.92	416.24
702.25	413.64
702.59	411.17
702.92	409.19
703.26	407.19
703.59	404.55
703.93	403.57
704.26	401.40
704.60	398.43
704.93	396.24
705.26	394.07
705.60	392.21
705.93	389.79
706.27	388.14
706.60	386.05
706.94	385.24
707.27	383.00
707.61	381.43
707.94	378.81
708.27	375.05
708.61	372.07
708.94	369.57
709.28	367.86
709.61	365.86
709.94	364.02
710.28	362.10
710.61	360.19
710.95	356.83
711.28	356.33
711.61	354.81
711.95	353.38
712.28	351.62
712.61	349.40
712.95	348.50
713.28	347.93
713.61	345.98
713.95	343.52
714.28	341.79
714.61	339.62
714.95	338.19
715.28	336.14
715.61	334.88
715.95	333.38
716.28	331.62
716.61	330.79
716.95	329.05
717.28	327.31
717.61	325.88
717.94	324.36
718.28	321.50
718.61	320.00
718.94	318.21
719.27	316.79
719.61	315.55
719.94	313.74
720.27	310.90
720.60	309.45
720.94	308.21
721.27	307.17
721.60	306.48
721.93	305.21
722.27	304.69
722.60	304.07
722.93	302.55
723.26	301.67
723.59	299.71
723.93	298.79
724.26	297.90
724.59	296.83
724.92	296.24
725.25	295.76
725.59	294.52
725.92	293.81
726.25	292.81
726.58	291.86
726.91	290.76
727.24	290.43
727.57	289.52
727.91	288.19
728.24	287.64
728.57	286.43
728.90	285.57
729.23	284.19
729.56	284.00
729.89	283.07
730.22	281.95
730.55	281.40
730.89	280.79
731.22	279.71
731.55	279.02
731.88	278.02
732.21	276.90
732.54	276.33
732.87	275.62
733.20	274.83
733.53	274.38
733.86	274.05
734.19	272.95
734.52	272.74
734.85	273.55
735.18	272.52
735.51	272.62
735.84	272.29
736.17	272.24
736.50	270.55
736.83	272.26
737.16	271.93
737.49	271.40
737.82	270.26
738.15	270.10
738.48	269.17
738.81	268.14
739.14	267.52
739.47	266.74
739.80	266.14
740.13	266.12
740.46	265.19
740.79	264.14
741.12	263.62
741.45	262.76
741.78	261.12
742.11	261.38
742.44	260.31
742.77	260.19
743.10	259.31
743.43	258.60
743.75	256.05
744.08	258.02
744.41	257.24
744.74	257.07
745.07	255.98
745.40	255.90
745.73	256.45
746.06	255.86
746.39	255.50
746.71	254.79
747.04	253.90
747.37	253.43
747.70	253.43
748.03	252.95
748.36	252.79
748.68	252.17
749.01	250.88
749.34	250.43
749.67	249.79
750.00	249.64
750.33	251.00
750.65	251.10
750.98	247.81
751.31	247.48
751.64	247.07
751.97	248.05
752.29	247.21
752.62	246.02
752.95	245.62
753.28	244.88
753.60	244.40
753.93	244.45
754.26	244.12
754.59	243.26
754.91	242.69
755.24	242.14
755.57	241.81
755.90	241.48
756.22	241.17
756.55	240.36
756.88	239.50
757.20	237.76
757.53	236.52
757.86	236.71
758.19	236.60
758.51	236.19
758.84	234.83
759.17	234.67
759.49	234.62
759.82	235.24
760.15	235.29
760.47	235.05
760.80	234.14
761.13	234.38
761.45	233.98
761.78	233.81
762.11	233.71
762.43	233.50
762.76	233.10
763.08	232.93
763.41	233.24
763.74	233.33
764.06	233.14
764.39	233.14
764.71	232.71
765.04	232.43
765.37	232.00
765.69	231.62
766.02	231.33
766.34	230.81
766.67	229.98
767.00	230.19
767.32	231.12
767.65	232.29
767.97	231.48
768.30	231.26
768.62	230.95
768.95	230.62
769.27	230.33
769.60	230.40
769.92	230.00
770.25	229.17
770.57	228.38
770.90	228.12
771.22	227.81
771.55	227.64
771.87	227.50
772.20	227.38
772.52	229.07
772.85	231.45
773.17	231.57
773.50	231.21
773.82	230.79
774.15	229.55
774.47	227.79
774.80	228.00
775.12	228.00
775.45	227.76
775.77	227.62
776.09	227.64
776.42	227.86
776.74	228.10
777.07	228.05
777.39	228.31
777.72	227.86
778.04	228.17
778.36	227.86
778.69	227.81
779.01	227.98
779.33	226.24
779.66	223.93
779.98	223.57
780.31	223.52
780.63	224.33
780.95	224.67
781.28	225.00
781.60	224.50
781.92	224.31
782.25	224.33
782.57	224.29
782.89	223.95
783.22	223.55
783.54	223.10
783.86	223.21
784.19	222.83
784.51	223.60
784.83	223.05
785.16	222.86
785.48	222.76
785.80	222.62
786.12	222.62
786.45	222.43
786.77	222.52
787.09	222.52
787.42	221.29
787.74	221.14
788.06	221.07
788.38	221.07
788.71	220.86
789.03	220.86
789.35	220.98
789.67	220.86
789.99	220.69
790.32	220.79
790.64	221.12
790.96	222.98
791.28	222.17
791.61	222.02
791.93	222.24
792.25	222.00
792.57	223.38
792.89	222.86
793.21	223.02
793.54	222.62
793.86	222.26
794.18	222.60
794.50	222.12
794.82	222.00
795.14	222.05
795.47	222.29
795.79	222.29
796.11	221.79
796.43	221.45
796.75	221.64
797.07	221.57
797.39	220.95
797.71	219.57
798.04	219.60
798.36	219.81
798.68	219.48
799.00	219.74
799.32	218.43
799.64	218.88
799.96	218.83
800.28	219.21
800.60	219.12
800.92	219.31
801.24	219.36
801.56	219.48
801.89	219.21
802.21	219.64
802.53	219.12
802.85	219.62
803.17	220.64
803.49	220.17
803.81	219.79
804.13	219.98
804.45	219.40
804.77	219.67
805.09	219.57
805.41	219.60
805.73	219.07
806.05	218.83
806.37	218.67
806.69	218.10
807.01	217.86
807.33	218.05
807.65	217.29
807.97	218.02
808.28	217.83
808.60	217.83
808.92	217.17
809.24	218.83
809.56	218.26
809.88	217.57
810.20	217.76
810.52	218.36
810.84	217.86
811.16	217.95
811.48	217.69
811.80	218.24
812.12	217.93
812.43	218.31
812.75	218.52
813.07	218.19
813.39	218.60
813.71	218.38
814.03	218.14
814.35	218.31
814.67	217.57
814.98	217.38
815.30	217.52
815.62	217.24
815.94	215.62
816.26	215.98
816.58	215.67
816.89	215.71
817.21	214.98
817.53	215.12
817.85	215.31
818.17	215.19
818.48	214.55
818.80	215.10
819.12	214.86
819.44	214.19
819.76	214.24
820.07	214.21
820.39	214.12
820.71	214.07
821.03	214.12
821.34	213.90
821.66	214.33
821.98	214.36
822.30	214.40
822.61	215.93
822.93	215.57
823.25	215.36
823.57	215.00
823.88	215.57
824.20	215.62
824.52	215.71
824.83	215.64
825.15	215.57
825.47	215.76
825.79	215.88
826.10	216.14
826.42	215.86
826.74	215.83
827.05	215.88
827.37	215.95
827.69	215.62
828.00	215.57
828.32	215.45
828.64	215.17
828.95	216.29
829.27	215.40
829.58	215.45
829.90	215.98
830.22	216.33
830.53	215.67
830.85	215.14
831.17	214.69
831.48	214.79
831.80	214.71
832.11	214.29
832.43	214.10
832.75	213.62
833.06	215.02
833.38	214.33
833.69	214.10
834.01	214.40
834.32	214.40
834.64	214.52
834.96	214.38
835.27	214.40
835.59	213.64
835.90	213.17
836.22	213.07
836.53	212.48
836.85	212.29
837.16	214.29
837.48	214.67
837.79	215.48
838.11	215.38
838.42	215.60
838.74	215.67
839.05	215.57
839.37	215.57
839.68	214.29
840.00	214.50
840.31	214.88
840.63	214.64
840.94	214.52
841.26	214.40
841.57	214.33
841.88	214.52
842.20	214.12
842.51	213.88
842.83	214.12
843.14	216.02
843.46	215.88
843.77	214.83
844.08	214.86
844.40	214.00
844.71	213.98
845.03	213.45
845.34	213.38
845.65	213.17
845.97	213.48
846.28	213.52
846.60	213.52
846.91	213.19
847.22	213.14
847.54	213.52
847.85	213.62
848.16	213.52
848.48	213.19
848.79	214.00
849.10	214.21
849.42	214.00
849.73	212.14
850.04	212.05
850.36	211.40
850.67	211.69
850.98	211.93
851.30	212.05
851.61	212.17
851.92	212.21
852.23	213.07
852.55	213.05
852.86	213.33
853.17	213.69
853.49	214.31
853.80	214.67
854.11	214.86
854.42	214.86
854.74	214.48
855.05	214.60
855.36	213.67
855.67	213.83
855.99	213.88
856.30	216.64
856.61	216.45
856.92	216.64
857.23	216.40
857.55	216.12
857.86	215.95
858.17	216.26
858.48	215.86
858.79	215.19
859.11	215.43
859.42	215.10
859.73	214.57
860.04	214.31
860.35	213.43
860.66	212.74
860.98	212.83
861.29	213.10
861.60	213.07
861.91	213.62
862.22	213.31
862.53	213.21
862.84	210.52
863.16	211.48
863.47	210.79
863.78	210.62
864.09	210.79
864.40	211.02
864.71	210.88
865.02	211.40
865.33	211.33
865.64	211.00
865.95	211.07
866.27	212.45
866.58	212.36
866.89	212.95
867.20	213.00
867.51	212.64
867.82	212.60
868.13	213.19
868.44	212.83
868.75	213.31
869.06	213.43
869.37	213.71
869.68	212.83
869.99	213.40
870.30	213.45
870.61	213.67
870.92	213.40
871.23	213.29
871.54	213.26
871.85	213.55
872.16	213.95
872.47	213.62
872.78	212.71
873.09	212.88
873.40	212.74
873.71	212.83
874.02	213.07
874.33	213.00
874.64	212.33
874.95	212.90
875.26	212.45
875.56	212.52
875.87	212.26
876.18	212.21
876.49	214.07
876.80	213.83
877.11	213.60
877.42	213.57
877.73	213.55
878.04	213.40
878.35	213.74
878.66	213.55
878.96	213.64
879.27	213.33
879.58	213.17
879.89	213.05
880.20	213.79
880.51	213.64
880.82	213.76
881.12	213.81
881.43	213.05
881.74	212.88
882.05	212.55
882.36	212.86
882.67	213.19
882.97	211.36
883.28	211.64
883.59	211.40
883.90	211.62
884.21	212.05
884.51	211.98
884.82	211.31
885.13	211.29
885.44	211.36
885.74	211.43
886.05	211.55
886.36	211.67
886.67	210.76
886.98	211.93
887.28	212.10
887.59	212.17
887.90	212.33
888.20	212.33
888.51	212.62
888.82	212.12
889.13	212.31
889.43	213.76
889.74	213.74
890.05	213.81
890.35	213.55
890.66	213.33
890.97	213.14
891.28	213.10
891.58	213.17
891.89	213.21
892.20	213.05
892.50	212.64
892.81	212.45
893.12	212.60
893.42	211.29
893.73	211.33
894.04	211.43
894.34	211.62
894.65	211.40
894.95	211.50
895.26	211.83
895.57	212.52
895.87	210.64
896.18	210.76
896.48	210.86
896.79	211.00
897.10	211.17
897.40	211.38
897.71	211.50
898.01	211.40
898.32	211.55
898.63	211.50
898.93	211.74
899.24	211.88
899.54	211.79
899.85	212.10
900.15	211.98
900.46	211.98
900.76	212.17
901.07	212.26
901.38	212.10
901.68	212.17
901.99	211.17
902.29	211.43
902.60	211.26
902.90	211.05
903.21	210.93
903.51	210.83
903.82	211.26
904.12	211.48
904.43	211.81
904.73	211.74
905.03	212.19
905.34	214.14
905.64	214.02
905.95	214.14
906.25	213.93
906.56	213.95
906.86	213.90
907.17	213.79
907.47	214.05
907.77	213.71
908.08	213.52
908.38	213.74
908.69	213.74
908.99	214.02
909.30	214.17
909.60	214.36
909.90	214.57
910.21	213.83
910.51	213.50
910.81	213.17
911.12	213.33
911.42	213.24
911.73	211.10
912.03	211.26
912.33	211.67
912.64	211.64
912.94	211.26
913.24	211.05
913.55	210.74
913.85	210.60
914.15	211.10
914.46	211.19
914.76	210.98
915.06	210.90
915.37	210.86
915.67	210.81
915.97	210.81
916.27	210.33
916.58	210.76
916.88	210.67
917.18	210.71
917.49	212.14
917.79	211.98
918.09	212.29
918.39	212.83
918.70	212.55
919.00	212.74
919.30	213.98
919.60	214.02
919.91	213.81
920.21	214.19
920.51	213.88
920.81	214.02
921.12	214.38
921.42	214.31
921.72	214.31
922.02	214.45
922.32	214.76
922.63	214.76
922.93	215.57
923.23	215.81
923.53	215.67
923.83	214.24
924.13	214.31
924.44	214.31
924.74	214.50
925.04	215.21
925.34	215.17
925.64	214.19
925.94	214.02
926.24	215.17
926.55	214.62
926.85	214.86
927.15	214.81
927.45	214.76
927.75	214.57
928.05	214.52
928.35	214.48
928.65	214.76
928.95	214.95
929.26	214.21
929.56	214.64
929.86	215.02
930.16	214.76
930.46	214.64
930.76	214.67
931.06	213.81
931.36	213.05
931.66	213.40
931.96	213.71
932.26	213.98
932.56	213.10
932.86	213.45
933.16	213.45
933.46	213.21
933.76	212.90
934.06	213.50
934.36	214.14
934.66	213.83
934.96	213.40
935.26	213.45
935.56	213.71
935.86	213.12
936.16	212.71
936.46	212.67
936.76	212.64
937.06	212.50
937.36	212.45
937.66	212.48
937.96	212.10
938.26	211.74
938.56	211.45
938.86	211.62
939.16	211.81
939.46	211.98
939.76	212.05
940.06	212.26
940.35	211.88
940.65	210.81
940.95	211.10
941.25	210.69
941.55	210.55
941.85	210.24
942.15	210.81
942.45	211.43
942.75	211.38
943.04	211.52
943.34	211.67
943.64	211.52
943.94	211.29
944.24	211.50
944.54	211.62
944.84	211.62
945.13	211.57
945.43	211.50
945.73	211.10
946.03	211.17
946.33	210.93
946.62	210.98
946.92	211.07
947.22	211.05
947.52	211.31
947.82	211.55
948.11	211.52
948.41	210.98
948.71	210.26
949.01	210.48
949.31	210.31
949.60	210.14
949.90	210.50
950.20	210.55
950.50	210.45
950.79	210.17
951.09	210.48
951.39	210.29
951.69	209.83
951.98	210.45
952.28	210.38
952.58	210.31
952.87	210.31
953.17	210.60
953.47	210.31
953.76	210.26
954.06	209.93
954.36	209.52
954.66	209.64
954.95	210.29
955.25	210.57
955.55	210.60
955.84	210.45
956.14	210.60
956.44	210.83
956.73	210.43
957.03	210.69
957.32	210.60
957.62	210.64
957.92	211.10
958.21	211.00
958.51	213.43
958.81	213.52
959.10	213.64
959.40	214.12
959.69	214.57
959.99	214.69
960.29	214.62
960.58	214.60
960.88	215.19
961.17	214.83
961.47	214.52
961.76	214.48
962.06	215.05
962.36	214.81
962.65	214.83
962.95	215.14
963.24	215.02
963.54	215.17
963.83	215.19
964.13	215.19
964.42	214.33
964.72	212.67
965.01	212.95
965.31	213.00
965.60	212.33
965.90	213.57
966.19	213.31
966.49	213.40
966.78	213.29
967.08	213.14
967.37	213.19
967.67	213.05
967.96	213.55
968.26	213.02
968.55	213.40
968.85	213.43
969.14	213.31
969.43	213.19
969.73	212.98
970.02	212.90
970.32	212.55
970.61	212.64
970.91	211.90
971.20	211.60
971.49	211.36
971.79	211.69
972.08	210.24
972.38	210.38
972.67	210.17
972.96	210.71
973.26	210.38
973.55	211.10
973.85	211.00
974.14	210.57
974.43	210.83
974.73	210.36
975.02	210.14
975.31	210.29
975.61	210.14
975.90	210.21
976.19	210.17
976.49	210.60
976.78	210.93
977.07	211.00
977.37	211.02
977.66	211.26
977.95	210.83
978.24	210.98
978.54	211.24
978.83	211.21
979.12	210.90
979.42	210.86
979.71	210.45
980.00	210.64
980.29	210.71
980.59	210.50
980.88	211.05
981.17	211.07
981.46	211.17
981.76	211.36
982.05	211.69
982.34	211.71
982.63	211.74
982.93	211.64
983.22	212.07
983.51	211.95
983.80	211.90
984.09	212.17
984.39	212.05
984.68	211.88
984.97	212.14
985.26	212.14
985.55	212.24
985.85	211.74
986.14	212.00
986.43	212.38
986.72	212.33
987.01	211.62
987.30	211.52
987.59	211.12
987.89	211.14
988.18	210.48
988.47	210.45
988.76	210.26
989.05	210.36
989.34	210.07
989.63	210.55
989.92	210.40
990.22	210.26
990.51	210.40
990.80	210.52
991.09	210.67
991.38	210.93
991.67	210.83
991.96	210.86
992.25	210.79
992.54	210.43
992.83	210.24
993.12	210.36
993.41	210.57
993.70	211.48
993.99	212.12
994.28	212.69
994.58	212.83
994.87	212.64
995.16	212.33
995.45	212.02
995.74	211.64
996.03	211.88
996.32	212.38
996.61	212.62
996.90	212.33
997.19	212.21
997.48	212.17
997.77	211.95
998.06	211.90
998.34	211.76
998.63	211.57
998.92	211.83
999.21	212.05
999.50	212.10
999.79	211.60
1000.08	211.26
1000.37	211.29
1000.66	211.19
1000.95	211.81
1001.24	212.14
1001.53	212.50
1001.82	212.36
1002.11	211.83
1002.40	211.83
1002.68	212.40
1002.97	213.83
1003.26	213.69
1003.55	213.21
1003.84	213.14
1004.13	213.95
1004.42	213.76
1004.71	213.88
1004.99	213.74
1005.28	214.26
1005.57	214.02
1005.86	213.67
1006.15	213.55
1006.44	213.17
1006.72	213.40
1007.01	212.95
1007.30	212.83
1007.59	212.69
1007.88	212.69
1008.17	213.05
1008.45	212.31
1008.74	211.14
1009.03	210.17
1009.32	210.19
1009.60	210.14
1009.89	210.31
1010.18	209.33
1010.47	209.43
1010.76	209.26
1011.04	209.33
1011.33	209.31
1011.62	209.52
1011.91	209.60
1012.19	209.67
1012.48	209.55
1012.77	209.33
1013.05	210.02
1013.34	210.24
1013.63	210.12
1013.92	210.33
1014.20	210.07
1014.49	210.38
1014.78	210.67
1015.06	209.86
1015.35	209.79
1015.64	210.31
1015.92	210.52
1016.21	210.74
1016.50	210.69
1016.78	211.21
1017.07	211.26
1017.36	210.62
1017.64	210.31
1017.93	210.81
1018.22	210.52
1018.50	210.62
1018.79	210.74
1019.08	210.12
1019.36	210.17
1019.65	210.12
1019.93	210.38
1020.22	210.62
1020.51	211.69
1020.79	211.57
1021.08	206.50
1021.36	207.00
1021.65	212.00
1021.94	213.00
1022.22	215.00
1022.51	209.50
1022.79	216.00
1023.08	211.00
1023.36	234.00
1023.65	207.00
>>>>>End Processed Spectral Data<<<<<
