SpectraSuite Data File
++++++++++++++++++++++++++++++++++++
Date: Tue Apr 02 18:44:22 EDT 2013
User: group
Dark Spectrum Present: No
Reference Spectrum Present: No
Number of Sampled Component Spectra: 1
Spectrometers: USB2E7196
Integration Time (usec): 580000 (USB2E7196)
Spectra Averaged: 2 (USB2E7196)
Boxcar Smoothing: 10 (USB2E7196)
Correct for Electrical Dark: No (USB2E7196)
Strobe/Lamp Enabled: No (USB2E7196)
Correct for Detector Non-linearity: No (USB2E7196)
Correct for Stray Light: No (USB2E7196)
Number of Pixels in Processed Spectrum: 2048
>>>>>Begin Processed Spectral Data<<<<<
339.09	0.00
339.48	191.50
339.86	192.50
340.24	192.50
340.63	195.50
341.01	228.50
341.39	197.00
341.78	204.50
342.16	209.00
342.54	204.00
342.93	196.31
343.31	206.07
343.69	206.55
344.07	206.98
344.46	207.95
344.84	208.50
345.22	207.21
345.60	207.93
345.99	208.21
346.37	208.10
346.75	208.43
347.13	208.86
347.52	209.02
347.90	209.71
348.28	209.79
348.66	210.31
349.05	209.79
349.43	210.17
349.81	210.45
350.19	210.60
350.57	210.60
350.96	210.67
351.34	210.83
351.72	211.24
352.10	211.64
352.48	211.43
352.87	211.57
353.25	212.02
353.63	211.83
354.01	211.81
354.39	212.19
354.77	212.07
355.15	212.64
355.54	212.57
355.92	212.10
356.30	212.31
356.68	213.50
357.06	213.76
357.44	213.40
357.82	213.26
358.20	214.33
358.58	214.55
358.97	214.67
359.35	215.50
359.73	215.81
360.11	215.71
360.49	215.93
360.87	216.05
361.25	216.38
361.63	217.29
362.01	217.45
362.39	217.38
362.77	217.55
363.15	217.21
363.53	217.26
363.91	217.38
364.29	217.12
364.67	215.29
365.05	215.31
365.43	215.88
365.81	216.21
366.19	216.36
366.57	217.05
366.95	217.10
367.33	216.55
367.71	216.52
368.09	216.88
368.47	216.76
368.85	216.50
369.23	216.79
369.61	215.93
369.99	216.64
370.37	216.98
370.75	218.40
371.13	218.02
371.51	217.93
371.89	218.07
372.27	218.43
372.65	218.55
373.03	218.74
373.41	218.48
373.78	218.33
374.16	217.38
374.54	216.79
374.92	216.29
375.30	216.17
375.68	215.86
376.06	215.98
376.44	215.79
376.82	216.21
377.19	216.02
377.57	216.00
377.95	215.24
378.33	215.10
378.71	213.36
379.09	213.62
379.47	213.95
379.84	213.79
380.22	213.43
380.60	213.26
380.98	212.93
381.36	212.81
381.73	212.43
382.11	212.67
382.49	212.71
382.87	212.71
383.25	212.60
383.62	214.88
384.00	214.48
384.38	214.79
384.76	215.21
385.13	216.21
385.51	216.38
385.89	216.14
386.27	216.10
386.64	216.74
387.02	216.52
387.40	216.38
387.78	216.36
388.15	216.64
388.53	216.31
388.91	216.31
389.29	216.26
389.66	216.57
390.04	216.14
390.42	216.50
390.79	216.74
391.17	217.05
391.55	214.90
391.92	215.17
392.30	215.31
392.68	214.81
393.05	214.43
393.43	214.31
393.81	214.55
394.18	214.36
394.56	214.29
394.94	214.79
395.31	214.67
395.69	215.45
396.06	215.62
396.44	215.95
396.82	215.81
397.19	217.02
397.57	216.98
397.95	217.50
398.32	216.93
398.70	216.93
399.07	217.36
399.45	217.36
399.82	217.33
400.20	217.07
400.58	216.86
400.95	216.24
401.33	216.79
401.70	218.33
402.08	218.40
402.45	218.43
402.83	219.07
403.20	219.43
403.58	218.95
403.95	219.26
404.33	219.76
404.71	220.26
405.08	221.36
405.46	221.67
405.83	221.95
406.21	222.55
406.58	223.14
406.96	223.14
407.33	223.88
407.70	224.64
408.08	227.00
408.45	228.00
408.83	228.86
409.20	229.10
409.58	228.40
409.95	229.43
410.33	230.29
410.70	230.38
411.08	231.74
411.45	233.05
411.82	233.88
412.20	235.38
412.57	237.60
412.95	237.43
413.32	239.19
413.69	240.57
414.07	242.17
414.44	243.90
414.82	245.95
415.19	248.24
415.56	250.26
415.94	251.10
416.31	253.93
416.68	256.83
417.06	260.38
417.43	263.88
417.81	267.26
418.18	271.02
418.55	274.83
418.93	278.62
419.30	282.67
419.67	287.19
420.04	291.52
420.42	295.79
420.79	302.62
421.16	308.17
421.54	315.17
421.91	321.05
422.28	326.90
422.66	333.48
423.03	341.64
423.40	348.67
423.77	356.45
424.15	363.38
424.52	370.86
424.89	379.24
425.26	387.45
425.64	395.10
426.01	403.14
426.38	412.02
426.75	421.14
427.13	430.38
427.50	439.67
427.87	450.10
428.24	460.26
428.61	468.57
428.99	479.43
429.36	489.83
429.73	501.21
430.10	513.17
430.47	525.07
430.85	535.10
431.22	547.36
431.59	561.88
431.96	574.90
432.33	589.05
432.70	602.40
433.08	618.40
433.45	633.48
433.82	648.52
434.19	665.36
434.56	681.55
434.93	696.88
435.30	713.07
435.68	730.31
436.05	747.29
436.42	764.40
436.79	780.29
437.16	797.57
437.53	815.48
437.90	832.98
438.27	849.81
438.64	868.55
439.01	886.19
439.38	899.07
439.75	914.05
440.13	930.50
440.50	946.10
440.87	958.95
441.24	972.67
441.61	987.71
441.98	998.19
442.35	1010.19
442.72	1024.19
443.09	1037.50
443.46	1044.79
443.83	1050.29
444.20	1054.48
444.57	1060.48
444.94	1063.55
445.31	1067.81
445.68	1073.50
446.05	1075.33
446.42	1073.50
446.79	1072.00
447.16	1070.83
447.53	1069.71
447.90	1063.45
448.27	1057.26
448.64	1048.36
449.01	1042.33
449.37	1031.21
449.74	1020.83
450.11	1009.90
450.48	994.26
450.85	978.36
451.22	965.90
451.59	953.81
451.96	942.60
452.33	927.74
452.70	913.57
453.07	896.21
453.43	877.17
453.80	861.00
454.17	845.10
454.54	829.07
454.91	812.95
455.28	796.36
455.65	781.55
456.02	770.31
456.38	757.83
456.75	742.38
457.12	728.90
457.49	716.10
457.86	702.17
458.23	692.45
458.59	680.83
458.96	668.90
459.33	658.19
459.70	647.88
460.07	639.12
460.43	629.40
460.80	620.31
461.17	612.60
461.54	604.14
461.91	596.26
462.27	587.86
462.64	581.00
463.01	573.45
463.38	567.12
463.74	556.29
464.11	549.45
464.48	543.12
464.85	536.81
465.21	532.31
465.58	527.29
465.95	520.67
466.32	515.69
466.68	510.60
467.05	505.43
467.42	500.64
467.78	495.29
468.15	490.43
468.52	486.98
468.88	480.98
469.25	476.45
469.62	473.26
469.98	470.12
470.35	466.26
470.72	462.79
471.08	457.90
471.45	455.24
471.82	452.55
472.18	449.14
472.55	446.45
472.92	442.76
473.28	439.90
473.65	437.57
474.02	434.60
474.38	432.48
474.75	430.62
475.11	428.00
475.48	426.12
475.85	424.45
476.21	422.05
476.58	421.29
476.94	420.05
477.31	418.24
477.67	416.98
478.04	416.07
478.41	416.12
478.77	417.50
479.14	416.21
479.50	415.48
479.87	415.24
480.23	415.14
480.60	414.76
480.96	414.50
481.33	414.98
481.69	415.55
482.06	415.86
482.42	416.33
482.79	416.83
483.15	417.43
483.52	418.40
483.88	419.31
484.25	419.74
484.61	420.55
484.98	421.50
485.34	422.95
485.71	424.50
486.07	425.19
486.44	424.93
486.80	426.50
487.17	427.67
487.53	430.07
487.90	432.26
488.26	434.95
488.62	437.71
488.99	439.26
489.35	442.07
489.72	444.60
490.08	447.07
490.44	449.38
490.81	452.55
491.17	455.31
491.54	458.48
491.90	462.21
492.26	465.95
492.63	469.86
492.99	473.55
493.36	477.62
493.72	482.17
494.08	486.67
494.45	491.67
494.81	496.98
495.17	501.26
495.54	506.50
495.90	511.36
496.26	516.38
496.63	522.07
496.99	526.95
497.35	532.81
497.72	538.52
498.08	544.74
498.44	550.81
498.80	556.98
499.17	563.45
499.53	569.81
499.89	576.55
500.26	583.31
500.62	590.10
500.98	597.14
501.34	604.24
501.71	611.76
502.07	618.71
502.43	625.71
502.79	632.69
503.16	639.93
503.52	647.21
503.88	654.19
504.24	661.36
504.60	668.71
504.97	676.26
505.33	683.98
505.69	692.98
506.05	700.38
506.41	708.26
506.78	715.93
507.14	722.76
507.50	730.62
507.86	738.19
508.22	745.88
508.59	753.17
508.95	760.98
509.31	769.07
509.67	776.88
510.03	784.52
510.39	792.57
510.75	800.02
511.12	807.24
511.48	815.14
511.84	822.90
512.20	830.86
512.56	838.57
512.92	845.71
513.28	852.62
513.64	860.43
514.00	868.29
514.37	875.40
514.73	883.52
515.09	890.88
515.45	898.05
515.81	904.50
516.17	911.57
516.53	917.52
516.89	923.43
517.25	929.95
517.61	936.71
517.97	943.48
518.33	950.17
518.69	957.38
519.05	963.48
519.41	969.95
519.77	976.52
520.13	982.17
520.49	989.21
520.85	994.43
521.21	1001.12
521.57	1006.55
521.93	1011.74
522.29	1017.17
522.65	1022.36
523.01	1027.86
523.37	1034.00
523.73	1038.67
524.09	1044.40
524.45	1049.21
524.81	1053.88
525.17	1058.93
525.53	1063.24
525.89	1067.71
526.25	1072.83
526.61	1076.98
526.97	1081.24
527.33	1085.50
527.68	1091.36
528.04	1094.95
528.40	1099.52
528.76	1102.74
529.12	1107.19
529.48	1111.95
529.84	1116.36
530.20	1120.64
530.56	1124.81
530.91	1129.12
531.27	1134.02
531.63	1137.83
531.99	1141.76
532.35	1145.62
532.71	1149.36
533.07	1153.62
533.42	1160.38
533.78	1164.10
534.14	1168.55
534.50	1171.93
534.86	1175.88
535.21	1179.05
535.57	1182.93
535.93	1185.38
536.29	1190.17
536.65	1193.31
537.00	1197.19
537.36	1200.45
537.72	1203.36
538.08	1207.17
538.44	1209.60
538.79	1212.67
539.15	1215.95
539.51	1219.31
539.87	1223.12
540.22	1226.62
540.58	1230.31
540.94	1230.98
541.29	1233.52
541.65	1236.12
542.01	1239.71
542.37	1242.43
542.72	1243.69
543.08	1245.71
543.44	1249.55
543.79	1250.55
544.15	1253.74
544.51	1256.83
544.87	1259.43
545.22	1262.83
545.58	1266.05
545.94	1269.29
546.29	1272.14
546.65	1274.98
547.01	1277.50
547.36	1280.17
547.72	1282.83
548.07	1284.55
548.43	1286.62
548.79	1288.64
549.14	1290.64
549.50	1294.21
549.86	1296.10
550.21	1298.98
550.57	1302.76
550.92	1305.26
551.28	1309.10
551.64	1311.55
551.99	1313.52
552.35	1316.52
552.70	1318.67
553.06	1321.52
553.41	1324.67
553.77	1329.14
554.13	1332.93
554.48	1337.29
554.84	1341.62
555.19	1344.71
555.55	1350.14
555.90	1354.02
556.26	1358.26
556.61	1362.62
556.97	1364.69
557.32	1368.93
557.68	1373.19
558.03	1376.69
558.39	1380.98
558.74	1384.95
559.10	1388.90
559.45	1393.36
559.81	1397.98
560.16	1402.48
560.52	1406.21
560.87	1411.24
561.23	1414.10
561.58	1419.55
561.94	1423.50
562.29	1427.00
562.64	1431.07
563.00	1434.57
563.35	1439.05
563.71	1444.79
564.06	1450.38
564.42	1456.67
564.77	1463.21
565.12	1469.86
565.48	1477.26
565.83	1483.69
566.19	1488.36
566.54	1494.00
566.89	1499.24
567.25	1505.07
567.60	1511.67
567.96	1519.52
568.31	1526.00
568.66	1532.45
569.02	1537.52
569.37	1542.19
569.72	1547.93
570.08	1554.05
570.43	1559.76
570.78	1566.67
571.14	1571.74
571.49	1576.64
571.84	1581.55
572.20	1585.38
572.55	1589.19
572.90	1592.10
573.26	1596.02
573.61	1601.71
573.96	1607.12
574.31	1612.38
574.67	1616.48
575.02	1620.24
575.37	1622.00
575.72	1624.14
576.08	1628.00
576.43	1631.24
576.78	1635.60
577.13	1639.31
577.49	1642.71
577.84	1646.33
578.19	1649.43
578.54	1652.48
578.90	1657.29
579.25	1660.74
579.60	1663.38
579.95	1666.17
580.30	1669.67
580.66	1673.93
581.01	1676.67
581.36	1679.12
581.71	1681.67
582.06	1685.64
582.42	1689.90
582.77	1692.93
583.12	1696.45
583.47	1699.43
583.82	1702.45
584.17	1706.31
584.53	1710.29
584.88	1714.00
585.23	1716.83
585.58	1718.60
585.93	1721.10
586.28	1723.05
586.63	1725.86
586.98	1729.52
587.34	1733.90
587.69	1735.88
588.04	1737.45
588.39	1740.69
588.74	1742.19
589.09	1744.29
589.44	1744.33
589.79	1745.55
590.14	1747.83
590.49	1749.76
590.84	1750.83
591.19	1752.26
591.54	1753.38
591.89	1754.60
592.25	1757.64
592.60	1758.60
592.95	1760.55
593.30	1762.69
593.65	1763.67
594.00	1763.62
594.35	1771.38
594.70	1771.12
595.05	1773.17
595.40	1774.62
595.75	1773.81
596.10	1776.12
596.45	1778.24
596.80	1780.14
597.15	1780.93
597.50	1781.52
597.85	1783.05
598.19	1783.19
598.54	1784.31
598.89	1784.48
599.24	1785.12
599.59	1783.79
599.94	1784.62
600.29	1785.67
600.64	1785.57
600.99	1785.33
601.34	1786.67
601.69	1779.64
602.04	1779.12
602.39	1778.17
602.74	1777.74
603.08	1778.67
603.43	1778.43
603.78	1776.57
604.13	1776.57
604.48	1775.45
604.83	1774.50
605.18	1772.88
605.53	1772.52
605.87	1770.90
606.22	1769.76
606.57	1767.38
606.92	1765.60
607.27	1764.86
607.62	1763.17
607.96	1761.74
608.31	1761.33
608.66	1760.57
609.01	1759.29
609.36	1758.74
609.70	1758.33
610.05	1755.95
610.40	1754.19
610.75	1751.76
611.10	1750.52
611.44	1748.67
611.79	1745.98
612.14	1743.26
612.49	1740.83
612.83	1738.83
613.18	1736.79
613.53	1734.60
613.88	1732.14
614.22	1729.83
614.57	1725.86
614.92	1722.38
615.27	1719.64
615.61	1715.55
615.96	1711.33
616.31	1708.79
616.65	1705.98
617.00	1701.93
617.35	1699.05
617.70	1695.33
618.04	1691.31
618.39	1687.10
618.74	1682.62
619.08	1678.86
619.43	1676.64
619.78	1672.98
620.12	1669.07
620.47	1665.43
620.82	1660.74
621.16	1656.50
621.51	1652.88
621.85	1648.55
622.20	1644.33
622.55	1639.45
622.89	1635.26
623.24	1631.93
623.59	1627.31
623.93	1622.45
624.28	1618.74
624.62	1616.33
624.97	1613.81
625.32	1609.88
625.66	1606.45
626.01	1602.76
626.35	1600.12
626.70	1595.24
627.04	1591.79
627.39	1588.19
627.73	1584.86
628.08	1582.21
628.43	1578.71
628.77	1574.60
629.12	1571.74
629.46	1568.79
629.81	1565.69
630.15	1561.36
630.50	1556.69
630.84	1551.81
631.19	1547.12
631.53	1542.60
631.88	1535.71
632.22	1529.24
632.57	1525.76
632.91	1520.64
633.26	1515.79
633.60	1510.64
633.95	1505.95
634.29	1500.38
634.64	1495.64
634.98	1489.67
635.32	1485.95
635.67	1482.67
636.01	1478.43
636.36	1472.52
636.70	1467.93
637.05	1462.88
637.39	1459.17
637.73	1454.69
638.08	1451.83
638.42	1448.40
638.77	1444.12
639.11	1439.69
639.45	1435.31
639.80	1429.38
640.14	1424.55
640.49	1420.21
640.83	1414.57
641.17	1410.26
641.52	1405.17
641.86	1399.93
642.20	1395.57
642.55	1388.50
642.89	1382.05
643.23	1376.57
643.58	1372.12
643.92	1365.64
644.26	1360.12
644.61	1354.52
644.95	1349.21
645.29	1342.43
645.64	1336.02
645.98	1329.07
646.32	1324.45
646.66	1318.67
647.01	1312.50
647.35	1308.17
647.69	1301.74
648.04	1296.55
648.38	1291.00
648.72	1285.57
649.06	1279.43
649.41	1273.48
649.75	1267.12
650.09	1260.67
650.43	1253.95
650.78	1247.07
651.12	1240.57
651.46	1233.45
651.80	1226.79
652.14	1219.95
652.49	1214.33
652.83	1208.40
653.17	1202.29
653.51	1194.38
653.85	1188.31
654.20	1182.50
654.54	1174.02
654.88	1167.19
655.22	1160.95
655.56	1153.76
655.90	1147.00
656.25	1140.81
656.59	1133.79
656.93	1127.83
657.27	1122.40
657.61	1116.40
657.95	1110.57
658.29	1104.69
658.64	1099.76
658.98	1093.69
659.32	1086.83
659.66	1079.93
660.00	1073.45
660.34	1067.55
660.68	1061.62
661.02	1055.02
661.36	1048.43
661.70	1043.07
662.05	1037.29
662.39	1031.50
662.73	1026.07
663.07	1021.43
663.41	1015.62
663.75	1010.02
664.09	1004.74
664.43	998.19
664.77	992.02
665.11	986.17
665.45	980.19
665.79	974.17
666.13	968.21
666.47	963.36
666.81	957.29
667.15	951.24
667.49	945.60
667.83	941.19
668.17	935.71
668.51	930.50
668.85	925.12
669.19	920.83
669.53	914.43
669.87	907.71
670.21	900.76
670.55	894.40
670.89	889.02
671.23	883.26
671.57	877.83
671.91	872.45
672.25	866.95
672.58	861.88
672.92	855.90
673.26	850.52
673.60	844.74
673.94	839.62
674.28	834.26
674.62	829.60
674.96	823.64
675.30	818.40
675.64	813.07
675.97	807.79
676.31	801.45
676.65	796.14
676.99	792.60
677.33	788.36
677.67	783.93
678.01	778.60
678.34	773.38
678.68	769.12
679.02	763.69
679.36	758.98
679.70	753.74
680.04	748.45
680.37	743.26
680.71	738.07
681.05	733.48
681.39	729.10
681.73	723.62
682.06	718.57
682.40	714.36
682.74	709.88
683.08	705.93
683.42	701.29
683.75	697.00
684.09	691.57
684.43	686.19
684.77	681.38
685.10	676.55
685.44	672.14
685.78	666.45
686.12	662.48
686.45	657.64
686.79	653.17
687.13	649.55
687.46	645.48
687.80	641.93
688.14	637.19
688.48	632.86
688.81	628.74
689.15	625.14
689.49	619.93
689.82	615.90
690.16	610.57
690.50	606.33
690.83	602.10
691.17	597.43
691.51	593.26
691.84	589.26
692.18	585.38
692.52	581.02
692.85	577.74
693.19	573.95
693.52	569.90
693.86	565.67
694.20	561.48
694.53	557.83
694.87	553.14
695.21	549.14
695.54	545.14
695.88	540.45
696.21	535.93
696.55	532.33
696.88	528.74
697.22	525.12
697.56	521.62
697.89	517.98
698.23	514.57
698.56	511.02
698.90	507.48
699.23	503.88
699.57	500.88
699.90	497.14
700.24	493.14
700.58	489.90
700.91	487.33
701.25	485.62
701.58	482.95
701.92	480.40
702.25	477.48
702.59	474.07
702.92	471.43
703.26	468.40
703.59	465.60
703.93	463.95
704.26	461.05
704.60	458.21
704.93	455.19
705.26	452.19
705.60	449.64
705.93	446.40
706.27	444.45
706.60	442.14
706.94	440.26
707.27	437.50
707.61	435.24
707.94	432.31
708.27	428.07
708.61	424.67
708.94	421.64
709.28	419.55
709.61	417.05
709.94	414.90
710.28	412.83
710.61	410.36
710.95	405.79
711.28	404.93
711.61	402.48
711.95	400.64
712.28	398.14
712.61	396.02
712.95	395.02
713.28	393.21
713.61	390.50
713.95	387.69
714.28	386.05
714.61	383.79
714.95	381.76
715.28	379.36
715.61	377.21
715.95	375.62
716.28	373.05
716.61	371.36
716.95	369.10
717.28	367.00
717.61	364.81
717.94	363.26
718.28	360.29
718.61	358.48
718.94	356.36
719.27	354.64
719.61	352.74
719.94	350.55
720.27	347.60
720.60	345.88
720.94	344.05
721.27	342.36
721.60	340.79
721.93	338.93
722.27	338.33
722.60	336.81
722.93	334.98
723.26	333.79
723.59	331.76
723.93	330.48
724.26	329.12
724.59	328.07
724.92	326.98
725.25	326.26
725.59	324.86
725.92	323.86
726.25	322.88
726.58	321.67
726.91	320.07
727.24	319.07
727.57	317.71
727.91	316.50
728.24	315.33
728.57	313.71
728.90	312.93
729.23	311.10
729.56	311.02
729.89	309.93
730.22	308.31
730.55	307.43
730.89	306.40
731.22	305.05
731.55	303.95
731.88	302.93
732.21	301.14
732.54	300.12
732.87	299.10
733.20	298.12
733.53	297.31
733.86	296.55
734.19	295.24
734.52	294.67
734.85	295.10
735.18	294.05
735.51	294.10
735.84	293.45
736.17	293.02
736.50	291.24
736.83	292.21
737.16	291.64
737.49	291.14
737.82	290.21
738.15	289.79
738.48	288.62
738.81	287.76
739.14	286.95
739.47	286.10
739.80	284.76
740.13	284.00
740.46	282.48
740.79	281.45
741.12	281.24
741.45	280.02
741.78	278.02
742.11	277.88
742.44	276.45
742.77	275.71
743.10	274.83
743.43	273.62
743.75	271.31
744.08	273.29
744.41	272.21
744.74	271.50
745.07	270.40
745.40	270.31
745.73	270.12
746.06	269.50
746.39	268.88
746.71	268.14
747.04	267.24
747.37	266.69
747.70	266.57
748.03	265.90
748.36	265.67
748.68	264.93
749.01	263.38
749.34	262.79
749.67	262.05
750.00	261.93
750.33	263.38
750.65	263.00
750.98	259.95
751.31	259.60
751.64	259.19
751.97	259.88
752.29	259.10
752.62	257.79
752.95	257.19
753.28	256.48
753.60	256.19
753.93	256.31
754.26	256.31
754.59	255.17
754.91	254.24
755.24	253.24
755.57	252.93
755.90	252.48
756.22	251.81
756.55	251.17
756.88	249.93
757.20	247.98
757.53	246.88
757.86	246.43
758.19	245.88
758.51	245.36
758.84	243.76
759.17	243.17
759.49	242.93
759.82	243.38
760.15	243.36
760.47	242.79
760.80	241.76
761.13	241.55
761.45	240.95
761.78	240.62
762.11	240.57
762.43	239.98
762.76	239.52
763.08	239.52
763.41	239.36
763.74	239.19
764.06	238.86
764.39	238.57
764.71	238.26
765.04	237.98
765.37	237.57
765.69	237.62
766.02	237.24
766.34	236.83
766.67	235.93
767.00	235.69
767.32	236.81
767.65	237.88
767.97	237.29
768.30	237.31
768.62	237.21
768.95	236.69
769.27	236.36
769.60	236.57
769.92	236.14
770.25	235.50
770.57	234.90
770.90	234.64
771.22	234.38
771.55	234.19
771.87	234.12
772.20	233.67
772.52	234.81
772.85	236.98
773.17	236.83
773.50	236.33
773.82	235.86
774.15	234.55
774.47	232.83
774.80	232.64
775.12	232.24
775.45	232.05
775.77	232.10
776.09	232.02
776.42	231.81
776.74	232.21
777.07	231.93
777.39	231.83
777.72	231.60
778.04	231.69
778.36	231.02
778.69	230.67
779.01	230.81
779.33	228.76
779.66	226.24
779.98	225.88
780.31	225.90
780.63	226.48
780.95	226.62
781.28	226.71
781.60	226.40
781.92	226.43
782.25	226.26
782.57	226.17
782.89	225.95
783.22	225.62
783.54	225.14
783.86	225.31
784.19	225.36
784.51	225.88
784.83	225.31
785.16	225.40
785.48	225.31
785.80	224.95
786.12	225.31
786.45	225.14
786.77	225.19
787.09	225.05
787.42	224.24
787.74	224.14
788.06	224.24
788.38	223.93
788.71	223.62
789.03	223.29
789.35	223.26
789.67	222.88
789.99	222.76
790.32	222.31
790.64	222.33
790.96	223.93
791.28	223.05
791.61	223.05
791.93	223.05
792.25	222.74
792.57	224.24
792.89	223.71
793.21	223.86
793.54	223.71
793.86	223.48
794.18	223.67
794.50	223.17
794.82	223.00
795.14	223.17
795.47	223.60
795.79	223.71
796.11	223.19
796.43	223.05
796.75	222.90
797.07	222.74
797.39	222.43
797.71	220.60
798.04	220.67
798.36	220.79
798.68	220.64
799.00	220.90
799.32	219.45
799.64	219.86
799.96	220.00
800.28	220.24
800.60	220.05
800.92	220.02
801.24	219.86
801.56	220.05
801.89	219.90
802.21	219.81
802.53	219.36
802.85	219.74
803.17	220.64
803.49	220.57
803.81	220.60
804.13	220.45
804.45	220.24
804.77	220.21
805.09	219.95
805.41	219.74
805.73	219.40
806.05	219.02
806.37	218.79
806.69	218.31
807.01	217.83
807.33	217.88
807.65	217.07
807.97	218.05
808.28	217.57
808.60	217.64
808.92	217.21
809.24	218.45
809.56	218.12
809.88	217.38
810.20	217.40
810.52	217.81
810.84	217.38
811.16	217.19
811.48	217.00
811.80	217.74
812.12	217.79
812.43	217.93
812.75	218.24
813.07	217.98
813.39	218.14
813.71	217.93
814.03	217.86
814.35	218.05
814.67	217.07
814.98	216.90
815.30	216.83
815.62	216.40
815.94	215.36
816.26	215.33
816.58	214.86
816.89	215.26
817.21	214.79
817.53	215.17
817.85	215.60
818.17	215.57
818.48	214.67
818.80	214.81
819.12	214.52
819.44	214.26
819.76	214.19
820.07	214.12
820.39	214.36
820.71	214.43
821.03	214.52
821.34	214.38
821.66	214.81
821.98	214.98
822.30	215.02
822.61	216.00
822.93	215.83
823.25	216.14
823.57	215.57
823.88	215.64
824.20	215.67
824.52	215.88
824.83	215.64
825.15	215.52
825.47	215.74
825.79	215.95
826.10	215.83
826.42	215.57
826.74	216.00
827.05	215.93
827.37	216.00
827.69	215.76
828.00	215.95
828.32	215.67
828.64	215.24
828.95	216.38
829.27	215.90
829.58	215.98
829.90	216.05
830.22	216.17
830.53	215.71
830.85	215.33
831.17	214.81
831.48	214.90
831.80	215.05
832.11	214.69
832.43	214.48
832.75	214.29
833.06	215.60
833.38	214.81
833.69	214.64
834.01	214.79
834.32	214.90
834.64	214.60
834.96	214.69
835.27	214.76
835.59	214.10
835.90	213.45
836.22	213.48
836.53	213.10
836.85	212.86
837.16	215.05
837.48	215.17
837.79	215.52
838.11	215.79
838.42	215.55
838.74	215.86
839.05	215.79
839.37	215.90
839.68	214.74
840.00	214.64
840.31	214.90
840.63	214.43
840.94	214.21
841.26	213.95
841.57	213.88
841.88	214.07
842.20	213.86
842.51	213.86
842.83	213.90
843.14	215.79
843.46	216.02
843.77	214.95
844.08	214.88
844.40	214.50
844.71	214.19
845.03	214.26
845.34	214.02
845.65	213.93
845.97	214.14
846.28	214.07
846.60	214.17
846.91	213.90
847.22	214.12
847.54	214.40
847.85	214.93
848.16	214.60
848.48	214.31
848.79	215.21
849.10	215.36
849.42	215.48
849.73	213.60
850.04	213.40
850.36	212.62
850.67	213.14
850.98	213.29
851.30	213.48
851.61	213.29
851.92	213.45
852.23	214.19
852.55	213.98
852.86	214.00
853.17	214.26
853.49	214.60
853.80	214.98
854.11	214.98
854.42	215.14
854.74	215.12
855.05	215.02
855.36	213.79
855.67	214.12
855.99	214.02
856.30	216.57
856.61	216.45
856.92	216.76
857.23	216.52
857.55	216.24
857.86	216.07
858.17	216.50
858.48	216.05
858.79	215.55
859.11	215.71
859.42	215.57
859.73	215.21
860.04	215.26
860.35	214.40
860.66	214.00
860.98	213.64
861.29	213.93
861.60	213.79
861.91	214.36
862.22	213.62
862.53	213.31
862.84	210.86
863.16	211.40
863.47	210.79
863.78	210.62
864.09	210.69
864.40	210.81
864.71	210.93
865.02	211.24
865.33	210.95
865.64	210.55
865.95	210.62
866.27	212.19
866.58	211.95
866.89	212.24
867.20	212.12
867.51	211.95
867.82	211.71
868.13	212.36
868.44	211.88
868.75	212.52
869.06	212.76
869.37	213.02
869.68	212.14
869.99	212.43
870.30	212.38
870.61	212.55
870.92	212.29
871.23	211.83
871.54	212.05
871.85	212.67
872.16	213.24
872.47	213.17
872.78	211.88
873.09	211.90
873.40	212.02
873.71	212.31
874.02	212.43
874.33	212.24
874.64	211.83
874.95	211.90
875.26	211.40
875.56	211.12
875.87	210.93
876.18	211.14
876.49	213.10
876.80	213.00
877.11	212.69
877.42	212.62
877.73	212.64
878.04	212.12
878.35	211.90
878.66	211.67
878.96	211.57
879.27	211.33
879.58	211.45
879.89	211.07
880.20	211.57
880.51	211.43
880.82	211.50
881.12	211.48
881.43	211.48
881.74	211.43
882.05	211.38
882.36	211.43
882.67	211.57
882.97	209.50
883.28	209.40
883.59	209.38
883.90	209.62
884.21	210.00
884.51	209.93
884.82	209.79
885.13	209.69
885.44	209.83
885.74	210.02
886.05	209.76
886.36	210.00
886.67	209.29
886.98	210.24
887.28	210.52
887.59	210.55
887.90	210.64
888.20	210.45
888.51	210.71
888.82	210.38
889.13	210.64
889.43	212.40
889.74	212.50
890.05	212.38
890.35	212.36
890.66	212.10
890.97	211.90
891.28	211.43
891.58	211.64
891.89	211.60
892.20	211.26
892.50	211.31
892.81	211.12
893.12	211.31
893.42	210.50
893.73	210.45
894.04	210.60
894.34	210.50
894.65	210.50
894.95	210.43
895.26	210.74
895.57	211.33
895.87	209.43
896.18	209.83
896.48	209.95
896.79	209.83
897.10	210.45
897.40	210.83
897.71	211.26
898.01	211.07
898.32	211.24
898.63	211.33
898.93	211.26
899.24	211.40
899.54	211.21
899.85	211.24
900.15	211.12
900.46	211.14
900.76	211.43
901.07	211.48
901.38	211.50
901.68	211.33
901.99	210.60
902.29	210.69
902.60	210.31
902.90	210.38
903.21	210.48
903.51	210.02
903.82	210.43
904.12	210.50
904.43	210.69
904.73	210.60
905.03	210.64
905.34	212.67
905.64	212.50
905.95	212.52
906.25	212.50
906.56	212.48
906.86	212.24
907.17	211.95
907.47	212.02
907.77	211.95
908.08	211.79
908.38	211.79
908.69	211.98
908.99	212.36
909.30	212.33
909.60	212.45
909.90	212.43
910.21	211.67
910.51	211.40
910.81	211.55
911.12	211.69
911.42	211.79
911.73	209.67
912.03	209.86
912.33	210.14
912.64	210.07
912.94	210.05
913.24	209.98
913.55	210.02
913.85	209.95
914.15	210.33
914.46	210.71
914.76	210.76
915.06	210.67
915.37	210.50
915.67	210.64
915.97	210.60
916.27	210.45
916.58	210.74
916.88	210.71
917.18	210.33
917.49	211.79
917.79	211.67
918.09	212.17
918.39	212.93
918.70	213.00
919.00	213.07
919.30	213.95
919.60	213.88
919.91	213.60
920.21	213.57
920.51	213.02
920.81	213.00
921.12	213.14
921.42	213.10
921.72	213.10
922.02	213.17
922.32	213.40
922.63	213.33
922.93	214.36
923.23	214.62
923.53	214.36
923.83	213.07
924.13	213.21
924.44	213.19
924.74	213.24
925.04	213.48
925.34	213.29
925.64	212.38
925.94	212.31
926.24	213.45
926.55	213.67
926.85	214.02
927.15	213.90
927.45	214.12
927.75	214.14
928.05	214.12
928.35	213.90
928.65	214.31
928.95	214.64
929.26	213.90
929.56	214.29
929.86	214.76
930.16	214.67
930.46	214.71
930.76	214.60
931.06	213.71
931.36	213.26
931.66	213.81
931.96	214.00
932.26	214.31
932.56	213.50
932.86	213.40
933.16	213.31
933.46	213.14
933.76	212.79
934.06	213.10
934.36	213.86
934.66	213.67
934.96	213.31
935.26	213.24
935.56	213.52
935.86	212.67
936.16	212.50
936.46	212.21
936.76	212.07
937.06	212.00
937.36	212.10
937.66	212.17
937.96	212.00
938.26	211.60
938.56	211.43
938.86	211.67
939.16	212.12
939.46	212.45
939.76	212.69
940.06	212.50
940.35	212.07
940.65	211.00
940.95	211.24
941.25	210.74
941.55	210.62
941.85	210.33
942.15	210.93
942.45	211.50
942.75	211.40
943.04	211.45
943.34	211.62
943.64	211.36
943.94	211.10
944.24	211.12
944.54	211.40
944.84	211.40
945.13	211.07
945.43	210.69
945.73	210.55
946.03	210.24
946.33	210.05
946.62	210.00
946.92	210.00
947.22	210.31
947.52	210.76
947.82	210.90
948.11	210.69
948.41	210.50
948.71	209.83
949.01	210.21
949.31	209.98
949.60	209.90
949.90	210.43
950.20	210.33
950.50	210.33
950.79	210.17
951.09	210.55
951.39	210.31
951.69	210.14
951.98	210.57
952.28	210.88
952.58	211.07
952.87	211.19
953.17	211.55
953.47	211.26
953.76	211.17
954.06	210.98
954.36	210.74
954.66	210.52
954.95	211.21
955.25	211.24
955.55	211.48
955.84	211.07
956.14	211.36
956.44	211.43
956.73	210.95
957.03	211.19
957.32	211.05
957.62	211.21
957.92	211.57
958.21	211.38
958.51	213.60
958.81	213.71
959.10	213.86
959.40	214.31
959.69	214.24
959.99	214.45
960.29	214.55
960.58	214.48
960.88	215.24
961.17	214.74
961.47	214.67
961.76	214.55
962.06	215.36
962.36	214.81
962.65	215.17
962.95	215.31
963.24	215.17
963.54	215.14
963.83	215.26
964.13	215.17
964.42	214.45
964.72	212.83
965.01	213.02
965.31	212.74
965.60	212.02
965.90	213.26
966.19	212.71
966.49	212.67
966.78	212.62
967.08	212.43
967.37	212.76
967.67	212.50
967.96	212.79
968.26	212.40
968.55	212.57
968.85	212.33
969.14	212.43
969.43	212.33
969.73	212.07
970.02	211.98
970.32	211.93
970.61	211.88
970.91	211.38
971.20	210.93
971.49	210.81
971.79	211.29
972.08	210.05
972.38	210.10
972.67	209.93
972.96	210.29
973.26	209.90
973.55	210.26
973.85	210.24
974.14	210.12
974.43	210.29
974.73	210.12
975.02	210.05
975.31	210.02
975.61	209.93
975.90	210.02
976.19	210.10
976.49	210.38
976.78	210.71
977.07	210.57
977.37	210.69
977.66	210.79
977.95	210.45
978.24	210.45
978.54	211.00
978.83	211.07
979.12	211.02
979.42	211.05
979.71	210.43
980.00	210.29
980.29	210.26
980.59	209.88
980.88	210.33
981.17	210.33
981.46	210.48
981.76	210.57
982.05	211.21
982.34	211.17
982.63	211.07
982.93	210.98
983.22	211.50
983.51	211.55
983.80	212.07
984.09	212.29
984.39	212.31
984.68	211.86
984.97	211.81
985.26	211.67
985.55	211.79
985.85	211.48
986.14	212.00
986.43	212.33
986.72	211.95
987.01	211.33
987.30	211.45
987.59	211.24
987.89	211.26
988.18	210.62
988.47	210.71
988.76	210.45
989.05	210.21
989.34	210.12
989.63	210.76
989.92	210.40
990.22	210.26
990.51	210.33
990.80	210.31
991.09	210.36
991.38	210.71
991.67	210.55
991.96	210.76
992.25	210.88
992.54	210.48
992.83	210.60
993.12	210.64
993.41	210.71
993.70	211.45
993.99	211.95
994.28	212.19
994.58	212.17
994.87	211.90
995.16	212.12
995.45	211.76
995.74	211.00
996.03	211.19
996.32	211.52
996.61	211.98
996.90	211.86
997.19	211.86
997.48	212.00
997.77	211.88
998.06	211.88
998.34	211.48
998.63	211.55
998.92	211.69
999.21	211.88
999.50	212.10
999.79	211.50
1000.08	211.10
1000.37	211.12
1000.66	211.05
1000.95	211.90
1001.24	212.05
1001.53	212.48
1001.82	212.50
1002.11	212.26
1002.40	212.33
1002.68	212.69
1002.97	214.29
1003.26	213.98
1003.55	213.40
1003.84	213.67
1004.13	214.33
1004.42	214.52
1004.71	214.48
1004.99	214.40
1005.28	215.02
1005.57	214.90
1005.86	214.62
1006.15	214.69
1006.44	214.48
1006.72	214.55
1007.01	214.10
1007.30	214.05
1007.59	213.71
1007.88	213.67
1008.17	214.07
1008.45	213.62
1008.74	212.71
1009.03	211.69
1009.32	212.00
1009.60	212.26
1009.89	212.24
1010.18	211.31
1010.47	210.95
1010.76	210.88
1011.04	210.93
1011.33	210.95
1011.62	211.19
1011.91	211.67
1012.19	211.71
1012.48	211.69
1012.77	211.88
1013.05	212.64
1013.34	212.67
1013.63	212.64
1013.92	212.88
1014.20	212.50
1014.49	212.67
1014.78	212.69
1015.06	211.81
1015.35	211.62
1015.64	211.71
1015.92	211.79
1016.21	211.79
1016.50	212.00
1016.78	212.14
1017.07	212.29
1017.36	211.79
1017.64	211.38
1017.93	211.26
1018.22	211.17
1018.50	210.88
1018.79	210.55
1019.08	209.76
1019.36	209.95
1019.65	209.52
1019.93	209.83
1020.22	209.98
1020.51	211.10
1020.79	211.07
1021.08	209.00
1021.36	203.50
1021.65	208.50
1021.94	212.00
1022.22	215.00
1022.51	203.50
1022.79	218.00
1023.08	212.00
1023.36	238.50
1023.65	207.50
>>>>>End Processed Spectral Data<<<<<
