SpectraSuite Data File
++++++++++++++++++++++++++++++++++++
Date: Tue Apr 02 18:38:39 EDT 2013
User: group
Dark Spectrum Present: No
Reference Spectrum Present: No
Number of Sampled Component Spectra: 1
Spectrometers: USB2E7196
Integration Time (usec): 580000 (USB2E7196)
Spectra Averaged: 2 (USB2E7196)
Boxcar Smoothing: 10 (USB2E7196)
Correct for Electrical Dark: No (USB2E7196)
Strobe/Lamp Enabled: No (USB2E7196)
Correct for Detector Non-linearity: No (USB2E7196)
Correct for Stray Light: No (USB2E7196)
Number of Pixels in Processed Spectrum: 2048
>>>>>Begin Processed Spectral Data<<<<<
339.09	0.00
339.48	191.00
339.86	198.00
340.24	195.00
340.63	198.00
341.01	230.00
341.39	199.00
341.78	207.00
342.16	212.00
342.54	204.00
342.93	198.10
343.31	207.79
343.69	208.62
344.07	209.00
344.46	209.76
344.84	210.38
345.22	209.38
345.60	209.67
345.99	209.62
346.37	209.62
346.75	209.83
347.13	209.62
347.52	209.76
347.90	210.57
348.28	210.45
348.66	210.79
349.05	210.24
349.43	210.62
349.81	210.50
350.19	210.57
350.57	210.50
350.96	210.71
351.34	211.21
351.72	211.19
352.10	211.43
352.48	211.40
352.87	211.14
353.25	211.29
353.63	211.55
354.01	211.74
354.39	211.90
354.77	211.86
355.15	212.64
355.54	212.64
355.92	212.07
356.30	212.17
356.68	213.48
357.06	213.71
357.44	213.33
357.82	213.33
358.20	214.33
358.58	214.57
358.97	214.67
359.35	215.10
359.73	215.60
360.11	215.43
360.49	215.55
360.87	215.55
361.25	215.74
361.63	216.48
362.01	216.71
362.39	216.38
362.77	216.69
363.15	216.50
363.53	216.38
363.91	216.43
364.29	216.33
364.67	214.50
365.05	214.36
365.43	214.76
365.81	214.95
366.19	215.02
366.57	215.95
366.95	215.83
367.33	215.31
367.71	215.36
368.09	215.88
368.47	215.86
368.85	215.98
369.23	216.62
369.61	215.76
369.99	216.52
370.37	216.98
370.75	217.74
371.13	217.48
371.51	217.21
371.89	217.31
372.27	217.55
372.65	217.79
373.03	217.86
373.41	217.45
373.78	217.29
374.16	216.26
374.54	215.40
374.92	215.36
375.30	215.40
375.68	214.86
376.06	214.98
376.44	214.81
376.82	214.83
377.19	214.43
377.57	214.60
377.95	213.64
378.33	213.24
378.71	212.21
379.09	212.43
379.47	212.95
379.84	212.86
380.22	212.57
380.60	212.14
380.98	212.14
381.36	212.40
381.73	212.12
382.11	212.50
382.49	212.50
382.87	212.29
383.25	212.17
383.62	214.52
384.00	214.07
384.38	214.05
384.76	214.76
385.13	215.52
385.51	215.52
385.89	215.48
386.27	215.71
386.64	216.07
387.02	215.83
387.40	215.83
387.78	216.07
388.15	216.24
388.53	216.19
388.91	216.45
389.29	216.36
389.66	216.98
390.04	216.74
390.42	217.07
390.79	217.29
391.17	217.33
391.55	215.33
391.92	215.40
392.30	215.90
392.68	215.24
393.05	215.07
393.43	215.00
393.81	215.33
394.18	214.86
394.56	214.79
394.94	215.19
395.31	214.88
395.69	215.33
396.06	215.76
396.44	216.02
396.82	215.52
397.19	216.40
397.57	216.19
397.95	216.64
398.32	216.26
398.70	216.21
399.07	216.64
399.45	216.52
399.82	216.40
400.20	216.02
400.58	216.26
400.95	215.62
401.33	216.21
401.70	217.71
402.08	218.17
402.45	218.19
402.83	218.79
403.20	219.10
403.58	219.02
403.95	219.29
404.33	219.86
404.71	220.45
405.08	221.69
405.46	221.86
405.83	222.38
406.21	222.93
406.58	223.76
406.96	224.48
407.33	225.24
407.70	226.21
408.08	228.71
408.45	229.64
408.83	230.38
409.20	230.83
409.58	230.26
409.95	231.36
410.33	232.55
410.70	233.07
411.08	234.55
411.45	235.62
411.82	236.55
412.20	238.10
412.57	240.62
412.95	240.60
413.32	242.90
413.69	244.26
414.07	246.40
414.44	248.36
414.82	250.40
415.19	253.29
415.56	256.00
415.94	257.45
416.31	260.60
416.68	264.21
417.06	268.12
417.43	272.17
417.81	276.52
418.18	280.90
418.55	285.17
418.93	289.83
419.30	295.02
419.67	300.40
420.04	305.64
420.42	310.79
420.79	319.00
421.16	325.48
421.54	333.48
421.91	340.52
422.28	347.86
422.66	355.43
423.03	364.21
423.40	372.12
423.77	380.40
424.15	388.86
424.52	397.50
424.89	407.55
425.26	416.60
425.64	425.38
426.01	435.05
426.38	445.67
426.75	456.55
427.13	467.52
427.50	479.29
427.87	491.10
428.24	502.83
428.61	512.86
428.99	526.24
429.36	538.76
429.73	552.05
430.10	565.69
430.47	579.57
430.85	592.14
431.22	607.19
431.59	624.36
431.96	640.07
432.33	656.90
432.70	673.12
433.08	692.07
433.45	710.19
433.82	728.33
434.19	748.21
434.56	768.00
434.93	786.98
435.30	805.38
435.68	826.36
436.05	847.57
436.42	867.64
436.79	885.88
437.16	906.29
437.53	927.29
437.90	948.33
438.27	969.48
438.64	991.33
439.01	1011.31
439.38	1027.57
439.75	1044.55
440.13	1065.10
440.50	1084.17
440.87	1099.33
441.24	1115.57
441.61	1132.98
441.98	1145.93
442.35	1160.00
442.72	1174.07
443.09	1189.40
443.46	1198.74
443.83	1204.74
444.20	1210.14
444.57	1217.48
444.94	1221.76
445.31	1226.43
445.68	1233.00
446.05	1234.79
446.42	1233.60
446.79	1232.67
447.16	1231.10
447.53	1229.60
447.90	1222.17
448.27	1214.10
448.64	1203.90
449.01	1196.29
449.37	1182.93
449.74	1170.07
450.11	1156.98
450.48	1140.10
450.85	1121.45
451.22	1105.93
451.59	1091.33
451.96	1077.62
452.33	1059.07
452.70	1041.38
453.07	1020.55
453.43	997.40
453.80	977.50
454.17	958.19
454.54	939.14
454.91	919.81
455.28	901.05
455.65	882.88
456.02	868.26
456.38	853.69
456.75	835.40
457.12	820.02
457.49	804.74
457.86	787.45
458.23	775.50
458.59	762.00
458.96	748.17
459.33	736.02
459.70	723.74
460.07	713.60
460.43	702.60
460.80	692.83
461.17	683.93
461.54	674.48
461.91	664.90
462.27	655.64
462.64	647.43
463.01	638.29
463.38	630.62
463.74	619.07
464.11	611.05
464.48	603.81
464.85	596.19
465.21	590.95
465.58	585.45
465.95	577.83
466.32	572.19
466.68	565.67
467.05	559.12
467.42	553.40
467.78	547.48
468.15	542.12
468.52	537.31
468.88	530.98
469.25	525.55
469.62	521.67
469.98	517.07
470.35	513.00
470.72	509.43
471.08	504.00
471.45	500.38
471.82	496.95
472.18	493.00
472.55	490.00
472.92	485.81
473.28	482.26
473.65	478.76
474.02	475.38
474.38	473.40
474.75	471.21
475.11	468.17
475.48	466.48
475.85	463.90
476.21	461.50
476.58	459.90
476.94	458.64
477.31	457.12
477.67	455.43
478.04	454.00
478.41	452.71
478.77	453.98
479.14	452.71
479.50	452.26
479.87	452.21
480.23	451.86
480.60	451.26
480.96	451.05
481.33	452.29
481.69	452.62
482.06	452.74
482.42	453.31
482.79	454.40
483.15	454.33
483.52	455.83
483.88	456.98
484.25	457.88
484.61	458.62
484.98	459.79
485.34	462.07
485.71	463.90
486.07	466.05
486.44	465.98
486.80	467.86
487.17	469.55
487.53	472.45
487.90	475.07
488.26	478.93
488.62	482.74
488.99	485.12
489.35	488.33
489.72	491.81
490.08	494.88
490.44	498.36
490.81	503.10
491.17	506.81
491.54	510.83
491.90	515.43
492.26	520.00
492.63	524.69
492.99	529.10
493.36	534.12
493.72	539.69
494.08	545.07
494.45	551.55
494.81	557.95
495.17	563.36
495.54	570.14
495.90	575.71
496.26	581.64
496.63	588.52
496.99	595.24
497.35	602.12
497.72	609.26
498.08	616.31
498.44	623.67
498.80	631.60
499.17	640.10
499.53	648.07
499.89	656.40
500.26	664.81
500.62	673.19
500.98	682.45
501.34	690.57
501.71	700.12
502.07	709.07
502.43	717.93
502.79	727.29
503.16	736.38
503.52	745.88
503.88	754.81
504.24	763.98
504.60	774.19
504.97	784.86
505.33	795.17
505.69	806.64
506.05	817.10
506.41	827.40
506.78	837.21
507.14	847.29
507.50	857.86
507.86	868.64
508.22	879.55
508.59	889.71
508.95	901.12
509.31	912.00
509.67	922.29
510.03	932.62
510.39	943.21
510.75	954.02
511.12	965.14
511.48	976.81
511.84	988.43
512.20	998.64
512.56	1008.79
512.92	1019.60
513.28	1029.69
513.64	1040.50
514.00	1051.10
514.37	1061.88
514.73	1073.86
515.09	1085.29
515.45	1095.67
515.81	1106.14
516.17	1116.24
516.53	1125.90
516.89	1135.74
517.25	1146.40
517.61	1157.19
517.97	1166.81
518.33	1176.24
518.69	1186.62
519.05	1195.83
519.41	1205.21
519.77	1216.29
520.13	1224.93
520.49	1234.79
520.85	1243.98
521.21	1253.60
521.57	1263.02
521.93	1271.76
522.29	1279.90
522.65	1287.79
523.01	1296.14
523.37	1304.71
523.73	1313.17
524.09	1321.19
524.45	1328.55
524.81	1335.95
525.17	1343.81
525.53	1352.29
525.89	1359.67
526.25	1367.33
526.61	1374.64
526.97	1382.00
527.33	1388.62
527.68	1398.38
528.04	1404.55
528.40	1411.48
528.76	1418.00
529.12	1424.29
529.48	1432.38
529.84	1439.50
530.20	1447.62
530.56	1455.52
530.91	1462.02
531.27	1469.00
531.63	1476.43
531.99	1483.40
532.35	1489.88
532.71	1495.48
533.07	1501.93
533.42	1511.60
533.78	1517.76
534.14	1525.50
534.50	1531.71
534.86	1538.98
535.21	1542.64
535.57	1550.38
535.93	1555.67
536.29	1562.07
536.65	1568.62
537.00	1572.74
537.36	1578.50
537.72	1582.62
538.08	1586.90
538.44	1591.95
538.79	1597.43
539.15	1602.50
539.51	1608.60
539.87	1613.55
540.22	1619.98
540.58	1625.29
540.94	1627.76
541.29	1632.24
541.65	1635.55
542.01	1641.29
542.37	1644.29
542.72	1649.24
543.08	1651.57
543.44	1656.60
543.79	1658.98
544.15	1663.52
544.51	1669.05
544.87	1672.95
545.22	1677.24
545.58	1680.57
545.94	1684.07
546.29	1687.90
546.65	1690.43
547.01	1692.50
547.36	1696.52
547.72	1698.93
548.07	1702.29
548.43	1706.05
548.79	1708.26
549.14	1711.07
549.50	1713.14
549.86	1715.12
550.21	1718.14
550.57	1722.36
550.92	1723.48
551.28	1726.79
551.64	1728.00
551.99	1729.81
552.35	1732.05
552.70	1733.86
553.06	1737.19
553.41	1739.00
553.77	1741.38
554.13	1744.55
554.48	1747.90
554.84	1751.19
555.19	1753.38
555.55	1756.74
555.90	1758.07
556.26	1760.40
556.61	1762.36
556.97	1763.67
557.32	1765.86
557.68	1767.98
558.03	1769.38
558.39	1772.29
558.74	1773.69
559.10	1775.71
559.45	1778.48
559.81	1779.57
560.16	1780.71
560.52	1782.17
560.87	1785.36
561.23	1786.26
561.58	1789.19
561.94	1790.10
562.29	1790.10
562.64	1792.21
563.00	1791.67
563.35	1792.88
563.71	1794.07
564.06	1796.67
564.42	1798.00
564.77	1800.24
565.12	1801.50
565.48	1804.31
565.83	1806.31
566.19	1808.50
566.54	1810.71
566.89	1810.71
567.25	1813.55
567.60	1816.19
567.96	1818.52
568.31	1820.17
568.66	1822.48
569.02	1821.60
569.37	1821.24
569.72	1822.21
570.08	1822.67
570.43	1823.26
570.78	1823.36
571.14	1824.31
571.49	1824.98
571.84	1826.02
572.20	1826.26
572.55	1826.50
572.90	1824.43
573.26	1824.48
573.61	1823.64
573.96	1822.14
574.31	1822.83
574.67	1820.24
575.02	1819.29
575.37	1817.64
575.72	1815.17
576.08	1812.83
576.43	1811.62
576.78	1811.19
577.13	1809.21
577.49	1807.33
577.84	1805.43
578.19	1803.95
578.54	1802.29
578.90	1799.81
579.25	1797.05
579.60	1793.60
579.95	1790.19
580.30	1788.10
580.66	1785.48
581.01	1782.12
581.36	1779.05
581.71	1774.74
582.06	1773.05
582.42	1769.52
582.77	1765.21
583.12	1761.43
583.47	1757.98
583.82	1754.95
584.17	1751.14
584.53	1748.40
584.88	1743.79
585.23	1740.24
585.58	1736.38
585.93	1730.95
586.28	1726.67
586.63	1722.60
586.98	1718.76
587.34	1715.90
587.69	1710.67
588.04	1705.64
588.39	1702.10
588.74	1696.33
589.09	1692.31
589.44	1685.76
589.79	1681.05
590.14	1677.40
590.49	1673.10
590.84	1668.33
591.19	1663.24
591.54	1657.95
591.89	1652.21
592.25	1650.05
592.60	1645.45
592.95	1640.98
593.30	1637.33
593.65	1631.29
594.00	1625.86
594.35	1626.50
594.70	1619.79
595.05	1615.19
595.40	1609.55
595.75	1604.38
596.10	1601.45
596.45	1595.43
596.80	1591.07
597.15	1585.93
597.50	1579.12
597.85	1573.90
598.19	1567.88
598.54	1562.21
598.89	1556.95
599.24	1552.24
599.59	1544.05
599.94	1537.76
600.29	1531.76
600.64	1525.64
600.99	1520.83
601.34	1516.50
601.69	1505.26
602.04	1500.24
602.39	1494.79
602.74	1490.36
603.08	1484.36
603.43	1479.02
603.78	1473.86
604.13	1468.26
604.48	1462.50
604.83	1458.17
605.18	1452.38
605.53	1446.88
605.87	1441.31
606.22	1436.02
606.57	1430.12
606.92	1424.71
607.27	1420.00
607.62	1414.55
607.96	1409.40
608.31	1404.33
608.66	1397.71
609.01	1392.02
609.36	1387.21
609.70	1381.83
610.05	1375.36
610.40	1369.57
610.75	1362.12
611.10	1356.26
611.44	1349.40
611.79	1343.05
612.14	1336.43
612.49	1329.76
612.83	1323.93
613.18	1317.64
613.53	1311.33
613.88	1304.55
614.22	1298.26
614.57	1290.83
614.92	1283.52
615.27	1277.10
615.61	1269.14
615.96	1262.43
616.31	1256.17
616.65	1249.90
617.00	1243.14
617.35	1237.00
617.70	1230.60
618.04	1224.48
618.39	1218.19
618.74	1212.79
619.08	1206.33
619.43	1200.21
619.78	1194.17
620.12	1188.19
620.47	1182.60
620.82	1176.14
621.16	1170.14
621.51	1165.33
621.85	1158.98
622.20	1152.93
622.55	1146.57
622.89	1141.48
623.24	1136.17
623.59	1129.67
623.93	1123.43
624.28	1117.67
624.62	1113.50
624.97	1108.86
625.32	1103.05
625.66	1097.10
626.01	1091.17
626.35	1085.67
626.70	1080.52
627.04	1075.74
627.39	1069.48
627.73	1064.33
628.08	1059.69
628.43	1053.81
628.77	1046.90
629.12	1042.02
629.46	1037.10
629.81	1031.88
630.15	1025.71
630.50	1019.40
630.84	1013.29
631.19	1007.19
631.53	1000.93
631.88	993.05
632.22	985.62
632.57	980.40
632.91	974.17
633.26	968.36
633.60	962.07
633.95	955.10
634.29	948.71
634.64	943.36
634.98	936.40
635.32	930.64
635.67	925.79
636.01	920.71
636.36	914.50
636.70	909.52
637.05	903.19
637.39	897.74
637.73	892.69
638.08	888.52
638.42	881.95
638.77	876.86
639.11	871.38
639.45	866.62
639.80	860.33
640.14	855.19
640.49	849.45
640.83	844.29
641.17	839.64
641.52	833.79
641.86	828.76
642.20	824.17
642.55	818.10
642.89	811.88
643.23	805.79
643.58	801.57
643.92	795.40
644.26	790.38
644.61	785.52
644.95	780.19
645.29	774.48
645.64	770.40
645.98	765.31
646.32	760.69
646.66	754.86
647.01	749.79
647.35	744.52
647.69	739.45
648.04	734.62
648.38	729.31
648.72	725.45
649.06	719.74
649.41	714.19
649.75	709.17
650.09	704.79
650.43	700.31
650.78	694.64
651.12	689.26
651.46	684.10
651.80	678.86
652.14	673.71
652.49	669.21
652.83	664.14
653.17	658.98
653.51	653.71
653.85	649.79
654.20	645.93
654.54	641.64
654.88	636.95
655.22	633.52
655.56	629.24
655.90	624.19
656.25	620.02
656.59	615.83
656.93	611.76
657.27	608.21
657.61	603.40
657.95	599.74
658.29	596.12
658.64	592.55
658.98	588.07
659.32	584.21
659.66	580.05
660.00	576.31
660.34	572.74
660.68	568.60
661.02	563.95
661.36	559.62
661.70	555.45
662.05	551.93
662.39	547.45
662.73	544.31
663.07	541.57
663.41	538.05
663.75	534.26
664.09	530.95
664.43	526.55
664.77	523.67
665.11	519.57
665.45	515.98
665.79	512.67
666.13	509.50
666.47	506.05
666.81	502.90
667.15	499.21
667.49	496.21
667.83	493.81
668.17	491.24
668.51	488.55
668.85	486.24
669.19	484.19
669.53	480.83
669.87	477.26
670.21	473.79
670.55	470.76
670.89	469.00
671.23	466.29
671.57	463.50
671.91	460.93
672.25	458.38
672.58	456.57
672.92	453.19
673.26	450.86
673.60	448.67
673.94	446.38
674.28	444.29
674.62	442.05
674.96	439.21
675.30	436.86
675.64	434.38
675.97	431.83
676.31	428.81
676.65	426.62
676.99	425.33
677.33	422.71
677.67	420.90
678.01	417.79
678.34	415.50
678.68	414.14
679.02	411.74
679.36	409.50
679.70	406.74
680.04	405.24
680.37	403.14
680.71	400.38
681.05	397.76
681.39	395.93
681.73	393.38
682.06	391.19
682.40	389.07
682.74	387.36
683.08	386.00
683.42	384.02
683.75	382.38
684.09	379.26
684.43	377.43
684.77	375.02
685.10	373.36
685.44	371.38
685.78	368.71
686.12	367.02
686.45	365.10
686.79	363.36
687.13	362.05
687.46	360.29
687.80	359.31
688.14	357.81
688.48	356.12
688.81	354.69
689.15	353.86
689.49	352.02
689.82	350.12
690.16	347.64
690.50	345.98
690.83	344.19
691.17	342.52
691.51	340.98
691.84	339.86
692.18	338.02
692.52	336.86
692.85	335.81
693.19	335.10
693.52	333.74
693.86	332.17
694.20	330.60
694.53	329.43
694.87	327.83
695.21	326.24
695.54	324.64
695.88	322.88
696.21	320.64
696.55	319.57
696.88	318.55
697.22	317.26
697.56	316.50
697.89	315.19
698.23	314.60
698.56	313.31
698.90	312.14
699.23	310.86
699.57	309.38
699.90	308.10
700.24	306.12
700.58	305.48
700.91	304.69
701.25	304.83
701.58	304.33
701.92	303.98
702.25	303.31
702.59	302.21
702.92	301.38
703.26	300.62
703.59	299.74
703.93	300.31
704.26	299.79
704.60	298.98
704.93	298.10
705.26	296.81
705.60	296.50
705.93	295.33
706.27	295.24
706.60	294.93
706.94	294.83
707.27	293.88
707.61	292.74
707.94	291.81
708.27	289.86
708.61	288.38
708.94	287.12
709.28	286.50
709.61	285.55
709.94	285.02
710.28	284.24
710.61	283.24
710.95	280.55
711.28	280.71
711.61	279.81
711.95	279.38
712.28	278.40
712.61	277.50
712.95	278.05
713.28	278.00
713.61	276.69
713.95	275.38
714.28	274.95
714.61	274.19
714.95	273.55
715.28	272.43
715.61	271.57
715.95	271.33
716.28	270.26
716.61	269.90
716.95	269.14
717.28	268.74
717.61	268.05
717.94	267.60
718.28	265.48
718.61	264.71
718.94	264.00
719.27	263.57
719.61	263.07
719.94	262.02
720.27	260.57
720.60	259.98
720.94	259.29
721.27	258.86
721.60	258.52
721.93	257.98
722.27	258.24
722.60	258.05
722.93	256.83
723.26	256.40
723.59	255.67
723.93	255.62
724.26	255.17
724.59	254.76
724.92	254.48
725.25	255.02
725.59	254.55
725.92	254.38
726.25	253.88
726.58	253.24
726.91	252.52
727.24	252.26
727.57	251.83
727.91	251.29
728.24	250.98
728.57	250.57
728.90	250.45
729.23	249.62
729.56	250.29
729.89	250.05
730.22	249.81
730.55	249.71
730.89	249.17
731.22	248.90
731.55	248.69
731.88	248.14
732.21	247.07
732.54	246.67
732.87	246.10
733.20	245.74
733.53	245.69
733.86	245.50
734.19	244.62
734.52	244.83
734.85	245.98
735.18	245.40
735.51	245.83
735.84	245.57
736.17	245.57
736.50	244.02
736.83	245.98
737.16	245.55
737.49	245.12
737.82	244.52
738.15	244.17
738.48	243.90
738.81	243.50
739.14	243.05
739.47	242.69
739.80	242.33
740.13	242.60
740.46	241.93
740.79	241.36
741.12	241.48
741.45	240.62
741.78	239.24
742.11	239.45
742.44	238.38
742.77	238.45
743.10	237.88
743.43	237.67
743.75	235.55
744.08	238.33
744.41	237.98
744.74	237.79
745.07	237.43
745.40	237.50
745.73	238.45
746.06	238.38
746.39	238.33
746.71	237.81
747.04	237.26
747.37	236.98
747.70	237.14
748.03	236.81
748.36	237.29
748.68	237.21
749.01	236.50
749.34	236.38
749.67	235.86
750.00	235.88
750.33	236.98
750.65	236.98
750.98	234.24
751.31	234.17
751.64	234.10
751.97	234.98
752.29	234.67
752.62	233.40
752.95	233.12
753.28	232.76
753.60	232.79
753.93	233.02
754.26	233.00
754.59	232.10
754.91	231.64
755.24	231.07
755.57	230.57
755.90	230.31
756.22	230.19
756.55	229.93
756.88	229.43
757.20	228.14
757.53	227.36
757.86	226.93
758.19	226.88
758.51	226.67
758.84	225.52
759.17	225.00
759.49	224.90
759.82	225.76
760.15	226.02
760.47	225.57
760.80	224.86
761.13	225.05
761.45	224.95
761.78	225.07
762.11	225.12
762.43	224.83
762.76	224.88
763.08	224.76
763.41	224.81
763.74	224.76
764.06	224.29
764.39	224.02
764.71	223.69
765.04	223.36
765.37	223.33
765.69	223.19
766.02	223.19
766.34	222.76
766.67	221.93
767.00	222.00
767.32	223.17
767.65	224.26
767.97	223.90
768.30	224.07
768.62	223.88
768.95	223.50
769.27	223.48
769.60	223.45
769.92	223.10
770.25	222.40
770.57	221.95
770.90	222.36
771.22	222.21
771.55	222.40
771.87	222.55
772.20	222.02
772.52	223.57
772.85	225.98
773.17	226.02
773.50	226.02
773.82	225.55
774.15	224.50
774.47	223.24
774.80	223.10
775.12	223.21
775.45	223.05
775.77	223.17
776.09	223.38
776.42	223.29
776.74	223.98
777.07	224.19
777.39	224.24
777.72	223.88
778.04	224.33
778.36	223.76
778.69	223.62
779.01	223.98
779.33	222.26
779.66	219.93
779.98	219.81
780.31	219.62
780.63	220.19
780.95	220.36
781.28	220.57
781.60	220.40
781.92	220.29
782.25	220.45
782.57	220.26
782.89	220.05
783.22	220.05
783.54	219.43
783.86	219.31
784.19	219.05
784.51	219.69
784.83	219.12
785.16	219.21
785.48	219.21
785.80	219.07
786.12	219.31
786.45	219.07
786.77	219.33
787.09	219.31
787.42	218.83
787.74	219.00
788.06	218.62
788.38	218.52
788.71	218.17
789.03	218.07
789.35	218.31
789.67	217.93
789.99	217.71
790.32	217.40
790.64	217.67
790.96	219.55
791.28	218.76
791.61	218.81
791.93	218.88
792.25	219.02
792.57	220.38
792.89	219.98
793.21	220.07
793.54	219.93
793.86	219.81
794.18	220.00
794.50	219.57
794.82	219.76
795.14	220.14
795.47	220.57
795.79	220.52
796.11	220.14
796.43	220.02
796.75	220.12
797.07	220.36
797.39	220.40
797.71	218.79
798.04	218.76
798.36	218.93
798.68	219.10
799.00	219.02
799.32	217.95
799.64	218.24
799.96	218.33
800.28	218.79
800.60	218.64
800.92	218.64
801.24	218.69
801.56	219.07
801.89	218.86
802.21	219.12
802.53	218.69
802.85	219.10
803.17	220.19
803.49	219.74
803.81	219.62
804.13	219.38
804.45	219.10
804.77	219.36
805.09	219.10
805.41	218.71
805.73	218.10
806.05	217.71
806.37	217.50
806.69	217.21
807.01	216.83
807.33	217.05
807.65	216.17
807.97	216.90
808.28	216.40
808.60	216.12
808.92	215.55
809.24	216.98
809.56	216.60
809.88	215.90
810.20	216.38
810.52	216.52
810.84	216.31
811.16	216.29
811.48	216.02
811.80	216.81
812.12	216.86
812.43	217.55
812.75	217.62
813.07	217.33
813.39	217.64
813.71	217.38
814.03	217.10
814.35	217.10
814.67	216.33
814.98	216.14
815.30	216.26
815.62	215.98
815.94	214.64
816.26	214.88
816.58	214.43
816.89	214.60
817.21	214.36
817.53	214.48
817.85	214.67
818.17	214.83
818.48	214.05
818.80	214.60
819.12	214.14
819.44	213.86
819.76	213.48
820.07	213.29
820.39	213.36
820.71	213.52
821.03	213.71
821.34	213.55
821.66	213.86
821.98	213.95
822.30	213.95
822.61	215.26
822.93	214.81
823.25	214.90
823.57	214.40
823.88	214.83
824.20	214.69
824.52	214.93
824.83	214.93
825.15	214.76
825.47	214.55
825.79	214.62
826.10	214.43
826.42	214.60
826.74	214.64
827.05	214.60
827.37	214.57
827.69	214.48
828.00	214.50
828.32	214.55
828.64	214.40
828.95	215.33
829.27	214.79
829.58	215.02
829.90	215.43
830.22	215.74
830.53	215.19
830.85	215.02
831.17	214.62
831.48	214.21
831.80	214.36
832.11	214.17
832.43	214.10
832.75	214.31
833.06	215.60
833.38	215.21
833.69	215.02
834.01	214.98
834.32	215.02
834.64	214.86
834.96	214.93
835.27	214.81
835.59	214.36
835.90	213.69
836.22	213.62
836.53	213.12
836.85	213.12
837.16	215.29
837.48	215.19
837.79	215.81
838.11	215.93
838.42	216.05
838.74	216.21
839.05	215.98
839.37	215.88
839.68	214.50
840.00	214.57
840.31	215.05
840.63	214.88
840.94	214.60
841.26	214.55
841.57	214.33
841.88	214.67
842.20	214.36
842.51	214.36
842.83	214.43
843.14	216.36
843.46	216.17
843.77	215.12
844.08	215.17
844.40	214.43
844.71	214.26
845.03	214.00
845.34	213.67
845.65	213.71
845.97	213.60
846.28	213.90
846.60	214.07
846.91	213.69
847.22	213.67
847.54	214.17
847.85	214.26
848.16	214.05
848.48	213.74
848.79	214.55
849.10	214.95
849.42	214.86
849.73	212.90
850.04	212.88
850.36	212.12
850.67	212.57
850.98	212.71
851.30	212.98
851.61	212.90
851.92	213.07
852.23	213.69
852.55	213.83
852.86	213.98
853.17	213.98
853.49	214.43
853.80	215.10
854.11	215.24
854.42	215.50
854.74	215.48
855.05	215.62
855.36	214.55
855.67	214.43
855.99	214.45
856.30	217.07
856.61	217.00
856.92	217.00
857.23	217.00
857.55	216.83
857.86	216.74
858.17	217.24
858.48	216.98
858.79	216.64
859.11	216.93
859.42	216.69
859.73	216.29
860.04	216.26
860.35	215.52
860.66	215.00
860.98	214.95
861.29	215.17
861.60	214.93
861.91	215.33
862.22	215.07
862.53	214.95
862.84	212.36
863.16	212.95
863.47	212.40
863.78	212.05
864.09	212.24
864.40	212.43
864.71	212.17
865.02	212.45
865.33	212.07
865.64	211.67
865.95	211.67
866.27	213.12
866.58	212.90
866.89	213.21
867.20	213.02
867.51	212.81
867.82	212.69
868.13	213.48
868.44	212.98
868.75	213.21
869.06	213.12
869.37	213.33
869.68	212.48
869.99	212.83
870.30	213.02
870.61	213.05
870.92	212.88
871.23	212.74
871.54	213.10
871.85	213.45
872.16	213.71
872.47	213.45
872.78	212.33
873.09	212.29
873.40	211.95
873.71	212.29
874.02	212.14
874.33	211.86
874.64	211.24
874.95	211.64
875.26	211.26
875.56	211.45
875.87	211.29
876.18	211.31
876.49	213.64
876.80	213.67
877.11	213.40
877.42	213.40
877.73	213.64
878.04	213.24
878.35	213.38
878.66	213.31
878.96	213.40
879.27	213.29
879.58	213.26
879.89	213.43
880.20	213.88
880.51	213.98
880.82	214.14
881.12	214.43
881.43	214.00
881.74	213.71
882.05	213.50
882.36	213.76
882.67	213.79
882.97	211.48
883.28	211.31
883.59	211.31
883.90	211.31
884.21	211.60
884.51	211.40
884.82	211.10
885.13	210.98
885.44	210.88
885.74	211.02
886.05	210.83
886.36	210.48
886.67	209.81
886.98	210.95
887.28	211.10
887.59	210.76
887.90	210.90
888.20	211.05
888.51	211.36
888.82	211.12
889.13	211.57
889.43	213.17
889.74	213.02
890.05	212.86
890.35	212.79
890.66	212.40
890.97	212.38
891.28	212.07
891.58	212.36
891.89	212.31
892.20	212.21
892.50	212.14
892.81	212.52
893.12	212.40
893.42	211.19
893.73	211.43
894.04	211.57
894.34	211.88
894.65	211.79
894.95	211.67
895.26	211.67
895.57	212.29
895.87	210.45
896.18	210.74
896.48	210.88
896.79	210.98
897.10	211.29
897.40	211.14
897.71	211.67
898.01	211.48
898.32	211.83
898.63	211.67
898.93	211.83
899.24	212.00
899.54	212.19
899.85	212.02
900.15	211.60
900.46	211.45
900.76	211.60
901.07	211.71
901.38	211.62
901.68	211.88
901.99	210.98
902.29	211.10
902.60	211.02
902.90	210.88
903.21	210.88
903.51	210.48
903.82	210.98
904.12	210.81
904.43	211.00
904.73	211.00
905.03	211.07
905.34	212.98
905.64	212.71
905.95	212.64
906.25	213.00
906.56	213.19
906.86	213.29
907.17	213.02
907.47	213.05
907.77	212.86
908.08	212.36
908.38	212.50
908.69	212.83
908.99	213.14
909.30	213.33
909.60	213.29
909.90	213.43
910.21	212.93
910.51	212.55
910.81	212.48
911.12	212.60
911.42	212.60
911.73	210.50
912.03	210.48
912.33	210.95
912.64	210.93
912.94	210.81
913.24	210.33
913.55	210.12
913.85	210.17
914.15	210.60
914.46	210.93
914.76	210.67
915.06	210.33
915.37	209.98
915.67	209.88
915.97	209.95
916.27	209.38
916.58	209.45
916.88	209.48
917.18	209.36
917.49	210.67
917.79	210.69
918.09	211.31
918.39	212.07
918.70	211.79
919.00	211.62
919.30	212.60
919.60	212.69
919.91	212.64
920.21	212.76
920.51	212.60
920.81	212.48
921.12	212.79
921.42	212.76
921.72	212.98
922.02	213.12
922.32	213.40
922.63	214.07
922.93	215.40
923.23	215.52
923.53	215.36
923.83	213.95
924.13	214.07
924.44	213.95
924.74	213.95
925.04	214.48
925.34	214.50
925.64	213.67
925.94	213.79
926.24	214.79
926.55	214.38
926.85	214.40
927.15	214.40
927.45	214.45
927.75	214.57
928.05	214.50
928.35	214.38
928.65	214.69
928.95	214.69
929.26	213.67
929.56	213.95
929.86	214.38
930.16	214.33
930.46	214.14
930.76	214.10
931.06	213.29
931.36	212.69
931.66	213.19
931.96	213.40
932.26	213.52
932.56	212.88
932.86	213.33
933.16	213.45
933.46	213.21
933.76	212.88
934.06	213.31
934.36	213.98
934.66	213.98
934.96	213.38
935.26	213.45
935.56	213.67
935.86	213.24
936.16	212.57
936.46	212.40
936.76	212.38
937.06	211.95
937.36	212.02
937.66	212.05
937.96	211.79
938.26	211.40
938.56	211.31
938.86	211.29
939.16	211.69
939.46	211.55
939.76	211.67
940.06	211.60
940.35	211.14
940.65	210.10
940.95	210.19
941.25	209.90
941.55	209.57
941.85	209.64
942.15	210.07
942.45	210.76
942.75	210.57
943.04	210.71
943.34	211.14
943.64	210.86
943.94	210.60
944.24	210.67
944.54	210.69
944.84	210.48
945.13	210.24
945.43	209.74
945.73	209.81
946.03	209.69
946.33	209.67
946.62	209.36
946.92	209.52
947.22	209.55
947.52	209.95
947.82	210.60
948.11	210.29
948.41	209.83
948.71	209.45
949.01	209.74
949.31	209.50
949.60	209.29
949.90	209.74
950.20	209.90
950.50	209.74
950.79	209.69
951.09	210.29
951.39	210.26
951.69	210.14
951.98	210.62
952.28	210.93
952.58	210.98
952.87	211.12
953.17	211.36
953.47	211.26
953.76	211.10
954.06	210.50
954.36	210.17
954.66	210.24
954.95	210.62
955.25	210.64
955.55	210.71
955.84	210.43
956.14	210.57
956.44	210.76
956.73	210.48
957.03	210.90
957.32	210.79
957.62	210.79
957.92	211.26
958.21	210.79
958.51	213.12
958.81	213.29
959.10	213.64
959.40	214.02
959.69	214.19
959.99	214.33
960.29	214.29
960.58	214.21
960.88	215.05
961.17	214.90
961.47	215.17
961.76	215.17
962.06	215.67
962.36	215.52
962.65	215.50
962.95	215.79
963.24	215.24
963.54	215.07
963.83	215.33
964.13	214.95
964.42	214.55
964.72	212.76
965.01	212.71
965.31	212.64
965.60	212.02
965.90	213.19
966.19	212.95
966.49	213.12
966.78	213.17
967.08	213.14
967.37	213.10
967.67	212.81
967.96	213.19
968.26	213.02
968.55	213.26
968.85	213.10
969.14	212.95
969.43	213.19
969.73	212.98
970.02	212.69
970.32	212.71
970.61	212.69
970.91	212.07
971.20	211.71
971.49	211.29
971.79	211.67
972.08	210.21
972.38	210.26
972.67	210.07
972.96	210.43
973.26	209.98
973.55	210.64
973.85	210.52
974.14	210.19
974.43	210.38
974.73	209.98
975.02	209.90
975.31	209.88
975.61	209.57
975.90	209.57
976.19	209.43
976.49	209.71
976.78	210.19
977.07	210.00
977.37	210.40
977.66	210.67
977.95	210.19
978.24	210.38
978.54	210.76
978.83	210.45
979.12	210.36
979.42	210.05
979.71	209.40
980.00	209.38
980.29	209.40
980.59	208.95
980.88	209.40
981.17	209.38
981.46	209.38
981.76	209.67
982.05	210.33
982.34	210.52
982.63	210.33
982.93	210.19
983.22	210.86
983.51	210.74
983.80	211.19
984.09	211.43
984.39	211.21
984.68	210.93
984.97	211.38
985.26	211.29
985.55	211.69
985.85	211.43
986.14	211.88
986.43	212.19
986.72	212.24
987.01	211.67
987.30	211.69
987.59	211.60
987.89	211.38
988.18	210.81
988.47	210.55
988.76	210.21
989.05	210.12
989.34	209.79
989.63	210.52
989.92	210.05
990.22	209.98
990.51	210.05
990.80	210.10
991.09	210.10
991.38	210.12
991.67	209.76
991.96	209.55
992.25	209.38
992.54	209.00
992.83	208.88
993.12	209.10
993.41	209.29
993.70	210.14
993.99	210.74
994.28	211.10
994.58	211.62
994.87	211.62
995.16	211.43
995.45	211.26
995.74	210.71
996.03	210.88
996.32	211.05
996.61	211.52
996.90	211.24
997.19	211.10
997.48	211.14
997.77	211.10
998.06	211.50
998.34	211.45
998.63	211.60
998.92	211.86
999.21	211.83
999.50	211.98
999.79	211.00
1000.08	210.55
1000.37	210.31
1000.66	210.02
1000.95	210.60
1001.24	210.88
1001.53	211.26
1001.82	211.07
1002.11	210.90
1002.40	211.21
1002.68	211.83
1002.97	213.29
1003.26	213.10
1003.55	212.95
1003.84	213.07
1004.13	213.62
1004.42	213.55
1004.71	213.48
1004.99	213.26
1005.28	214.05
1005.57	213.95
1005.86	213.81
1006.15	214.00
1006.44	213.86
1006.72	214.14
1007.01	213.74
1007.30	213.83
1007.59	213.67
1007.88	213.62
1008.17	213.45
1008.45	213.12
1008.74	211.98
1009.03	211.14
1009.32	211.26
1009.60	211.10
1009.89	210.95
1010.18	210.10
1010.47	210.00
1010.76	209.88
1011.04	209.81
1011.33	209.57
1011.62	209.79
1011.91	209.98
1012.19	210.19
1012.48	210.36
1012.77	210.12
1013.05	211.12
1013.34	211.07
1013.63	210.83
1013.92	210.98
1014.20	210.93
1014.49	211.00
1014.78	211.31
1015.06	210.48
1015.35	210.33
1015.64	210.71
1015.92	211.00
1016.21	211.00
1016.50	210.95
1016.78	211.36
1017.07	211.81
1017.36	211.21
1017.64	210.67
1017.93	211.26
1018.22	211.00
1018.50	210.83
1018.79	211.07
1019.08	210.07
1019.36	210.19
1019.65	210.17
1019.93	210.62
1020.22	211.07
1020.51	211.90
1020.79	211.69
1021.08	211.50
1021.36	207.00
1021.65	215.00
1021.94	209.50
1022.22	214.00
1022.51	208.50
1022.79	219.50
1023.08	214.50
1023.36	233.00
1023.65	207.00
>>>>>End Processed Spectral Data<<<<<
