SpectraSuite Data File
++++++++++++++++++++++++++++++++++++
Date: Tue Apr 02 18:42:05 EDT 2013
User: group
Dark Spectrum Present: No
Reference Spectrum Present: No
Number of Sampled Component Spectra: 1
Spectrometers: USB2E7196
Integration Time (usec): 580000 (USB2E7196)
Spectra Averaged: 2 (USB2E7196)
Boxcar Smoothing: 10 (USB2E7196)
Correct for Electrical Dark: No (USB2E7196)
Strobe/Lamp Enabled: No (USB2E7196)
Correct for Detector Non-linearity: No (USB2E7196)
Correct for Stray Light: No (USB2E7196)
Number of Pixels in Processed Spectrum: 2048
>>>>>Begin Processed Spectral Data<<<<<
339.09	0.00
339.48	192.00
339.86	193.50
340.24	193.50
340.63	199.50
341.01	232.50
341.39	198.00
341.78	207.00
342.16	203.50
342.54	201.50
342.93	195.79
343.31	205.57
343.69	206.10
344.07	206.79
344.46	207.69
344.84	208.14
345.22	206.62
345.60	207.19
345.99	207.21
346.37	207.52
346.75	207.79
347.13	207.98
347.52	208.10
347.90	208.69
348.28	208.64
348.66	208.95
349.05	208.33
349.43	208.76
349.81	209.10
350.19	209.24
350.57	209.33
350.96	210.07
351.34	210.21
351.72	210.50
352.10	210.45
352.48	210.26
352.87	210.19
353.25	210.62
353.63	210.40
354.01	210.57
354.39	210.71
354.77	210.90
355.15	211.57
355.54	211.52
355.92	211.10
356.30	211.55
356.68	213.10
357.06	213.36
357.44	213.00
357.82	212.98
358.20	213.98
358.58	213.93
358.97	214.14
359.35	214.86
359.73	215.19
360.11	215.45
360.49	215.52
360.87	215.90
361.25	216.26
361.63	217.19
362.01	217.33
362.39	217.36
362.77	217.52
363.15	217.48
363.53	217.57
363.91	217.98
364.29	218.10
364.67	216.38
365.05	216.60
365.43	216.81
365.81	217.10
366.19	217.26
366.57	218.19
366.95	217.95
367.33	217.26
367.71	217.43
368.09	217.88
368.47	218.26
368.85	218.07
369.23	218.60
369.61	218.02
369.99	218.62
370.37	218.86
370.75	219.81
371.13	219.36
371.51	219.10
371.89	219.10
372.27	219.12
372.65	219.05
373.03	219.00
373.41	218.90
373.78	218.74
374.16	217.76
374.54	217.24
374.92	217.17
375.30	217.33
375.68	216.71
376.06	216.57
376.44	216.29
376.82	216.43
377.19	216.05
377.57	215.86
377.95	215.29
378.33	215.07
378.71	213.81
379.09	214.07
379.47	214.29
379.84	214.29
380.22	214.02
380.60	214.10
380.98	213.79
381.36	213.88
381.73	213.55
382.11	214.00
382.49	214.12
382.87	213.83
383.25	213.88
383.62	216.19
384.00	215.76
384.38	215.74
384.76	216.02
385.13	216.98
385.51	216.88
385.89	216.71
386.27	216.79
386.64	217.21
387.02	216.88
387.40	216.81
387.78	216.76
388.15	216.67
388.53	216.40
388.91	216.52
389.29	216.07
389.66	216.33
390.04	215.98
390.42	216.29
390.79	216.55
391.17	216.40
391.55	214.33
391.92	214.26
392.30	214.52
392.68	214.29
393.05	213.90
393.43	214.17
393.81	214.29
394.18	213.83
394.56	213.81
394.94	214.19
395.31	214.00
395.69	214.52
396.06	214.74
396.44	214.76
396.82	214.64
397.19	215.76
397.57	215.55
397.95	216.12
398.32	215.43
398.70	215.90
399.07	216.38
399.45	216.26
399.82	216.31
400.20	216.24
400.58	215.98
400.95	215.26
401.33	215.60
401.70	217.10
402.08	217.38
402.45	217.36
402.83	218.00
403.20	218.14
403.58	218.19
403.95	218.71
404.33	218.86
404.71	219.21
405.08	220.45
405.46	220.71
405.83	220.88
406.21	221.31
406.58	221.24
406.96	221.48
407.33	222.43
407.70	223.33
408.08	225.24
408.45	226.24
408.83	227.19
409.20	227.45
409.58	227.00
409.95	228.12
410.33	229.19
410.70	229.36
411.08	230.64
411.45	231.45
411.82	232.19
412.20	234.19
412.57	236.62
412.95	236.43
413.32	238.55
413.69	239.74
414.07	241.45
414.44	243.48
414.82	245.60
415.19	248.10
415.56	250.24
415.94	251.38
416.31	254.40
416.68	257.26
417.06	260.86
417.43	264.21
417.81	267.57
418.18	271.19
418.55	274.98
418.93	278.86
419.30	283.02
419.67	287.55
420.04	291.81
420.42	295.98
420.79	303.07
421.16	308.74
421.54	315.79
421.91	322.02
422.28	328.33
422.66	335.02
423.03	342.76
423.40	349.55
423.77	357.10
424.15	364.05
424.52	371.76
424.89	380.38
425.26	388.10
425.64	395.93
426.01	404.31
426.38	413.43
426.75	423.31
427.13	432.81
427.50	442.64
427.87	452.79
428.24	462.76
428.61	471.29
428.99	482.31
429.36	492.86
429.73	504.31
430.10	516.14
430.47	528.14
430.85	539.17
431.22	552.33
431.59	567.29
431.96	580.26
432.33	594.64
432.70	608.45
433.08	625.14
433.45	640.62
433.82	656.21
434.19	673.76
434.56	690.29
434.93	706.14
435.30	722.74
435.68	741.02
436.05	758.57
436.42	775.74
436.79	792.17
437.16	809.98
437.53	828.21
437.90	845.81
438.27	863.36
438.64	881.67
439.01	899.38
439.38	913.14
439.75	927.60
440.13	944.62
440.50	960.60
440.87	973.55
441.24	986.74
441.61	1001.48
441.98	1012.52
442.35	1024.98
442.72	1038.12
443.09	1051.12
443.46	1058.88
443.83	1064.79
444.20	1069.83
444.57	1075.52
444.94	1079.05
445.31	1082.45
445.68	1089.00
446.05	1090.88
446.42	1089.17
446.79	1087.81
447.16	1086.50
447.53	1086.10
447.90	1079.05
448.27	1072.17
448.64	1063.12
449.01	1057.86
449.37	1046.86
449.74	1035.55
450.11	1023.79
450.48	1008.88
450.85	992.67
451.22	979.12
451.59	966.60
451.96	954.88
452.33	939.31
452.70	924.14
453.07	907.40
453.43	886.76
453.80	870.55
454.17	854.57
454.54	838.21
454.91	821.14
455.28	805.07
455.65	790.12
456.02	778.55
456.38	765.69
456.75	749.81
457.12	736.07
457.49	722.98
457.86	708.79
458.23	698.64
458.59	687.48
458.96	676.10
459.33	665.21
459.70	654.43
460.07	645.98
460.43	636.74
460.80	627.26
461.17	620.12
461.54	611.24
461.91	603.43
462.27	595.57
462.64	588.69
463.01	580.86
463.38	574.74
463.74	563.88
464.11	557.10
464.48	550.67
464.85	544.26
465.21	539.52
465.58	534.69
465.95	527.93
466.32	522.69
466.68	516.64
467.05	511.52
467.42	506.40
467.78	500.90
468.15	495.67
468.52	491.50
468.88	485.31
469.25	480.36
469.62	476.86
469.98	472.64
470.35	468.81
470.72	465.24
471.08	460.57
471.45	457.90
471.82	455.36
472.18	452.05
472.55	449.52
472.92	446.10
473.28	442.76
473.65	439.81
474.02	436.98
474.38	435.24
474.75	433.40
475.11	430.98
475.48	429.67
475.85	427.69
476.21	426.29
476.58	425.33
476.94	424.19
477.31	422.55
477.67	421.14
478.04	420.33
478.41	419.64
478.77	420.88
479.14	419.57
479.50	418.83
479.87	418.36
480.23	417.64
480.60	416.88
480.96	416.67
481.33	417.76
481.69	417.50
482.06	417.52
482.42	417.50
482.79	417.93
483.15	417.62
483.52	418.67
483.88	418.90
484.25	419.43
484.61	420.48
484.98	420.95
485.34	422.83
485.71	424.14
486.07	425.24
486.44	425.21
486.80	427.24
487.17	428.67
487.53	431.26
487.90	434.07
488.26	437.60
488.62	440.55
488.99	442.14
489.35	444.98
489.72	447.52
490.08	450.36
490.44	453.12
490.81	456.88
491.17	459.98
491.54	463.79
491.90	468.05
492.26	471.26
492.63	475.14
492.99	478.31
493.36	482.50
493.72	486.88
494.08	491.19
494.45	495.71
494.81	500.74
495.17	504.98
495.54	510.14
495.90	514.52
496.26	519.33
496.63	524.81
496.99	530.31
497.35	536.21
497.72	541.98
498.08	547.98
498.44	553.71
498.80	560.02
499.17	566.02
499.53	572.21
499.89	579.45
500.26	586.76
500.62	593.36
500.98	600.45
501.34	607.57
501.71	614.93
502.07	622.14
502.43	629.29
502.79	636.00
503.16	642.83
503.52	649.86
503.88	657.14
504.24	665.07
504.60	672.24
504.97	679.88
505.33	686.98
505.69	695.79
506.05	703.33
506.41	711.38
506.78	718.95
507.14	725.95
507.50	734.07
507.86	741.95
508.22	750.26
508.59	756.90
508.95	765.33
509.31	774.21
509.67	782.17
510.03	789.81
510.39	798.38
510.75	806.05
511.12	813.95
511.48	821.60
511.84	828.43
512.20	836.52
512.56	844.62
512.92	853.19
513.28	860.67
513.64	868.81
514.00	876.40
514.37	884.33
514.73	892.21
515.09	899.21
515.45	905.52
515.81	912.38
516.17	920.76
516.53	926.90
516.89	932.48
517.25	938.43
517.61	945.71
517.97	952.24
518.33	958.57
518.69	965.26
519.05	972.05
519.41	979.50
519.77	987.19
520.13	992.95
520.49	998.60
520.85	1003.86
521.21	1010.21
521.57	1016.02
521.93	1021.62
522.29	1027.48
522.65	1032.62
523.01	1039.36
523.37	1044.81
523.73	1049.55
524.09	1054.74
524.45	1059.55
524.81	1064.95
525.17	1069.98
525.53	1074.90
525.89	1080.64
526.25	1085.48
526.61	1089.79
526.97	1094.43
527.33	1098.55
527.68	1105.05
528.04	1110.05
528.40	1114.50
528.76	1118.55
529.12	1122.31
529.48	1127.26
529.84	1131.07
530.20	1135.86
530.56	1140.40
530.91	1145.33
531.27	1150.24
531.63	1154.50
531.99	1158.71
532.35	1163.36
532.71	1167.60
533.07	1172.36
533.42	1178.12
533.78	1183.14
534.14	1188.38
534.50	1192.29
534.86	1196.31
535.21	1198.36
535.57	1202.60
535.93	1205.90
536.29	1210.67
536.65	1215.81
537.00	1218.69
537.36	1223.48
537.72	1226.40
538.08	1229.52
538.44	1232.17
538.79	1235.26
539.15	1238.93
539.51	1243.48
539.87	1247.21
540.22	1250.36
540.58	1253.12
540.94	1254.67
541.29	1256.81
541.65	1258.67
542.01	1262.10
542.37	1264.83
542.72	1267.33
543.08	1270.24
543.44	1273.62
543.79	1275.48
544.15	1277.93
544.51	1282.21
544.87	1284.67
545.22	1287.79
545.58	1290.45
545.94	1293.76
546.29	1297.00
546.65	1299.60
547.01	1301.29
547.36	1303.40
547.72	1305.26
548.07	1308.57
548.43	1311.02
548.79	1313.57
549.14	1316.62
549.50	1319.21
549.86	1321.12
550.21	1324.83
550.57	1327.95
550.92	1330.76
551.28	1334.00
551.64	1337.38
551.99	1339.98
552.35	1342.52
552.70	1345.81
553.06	1349.12
553.41	1352.93
553.77	1358.00
554.13	1362.62
554.48	1367.33
554.84	1371.95
555.19	1376.74
555.55	1381.86
555.90	1386.12
556.26	1390.57
556.61	1394.48
556.97	1398.19
557.32	1402.93
557.68	1405.90
558.03	1408.86
558.39	1412.57
558.74	1416.64
559.10	1420.57
559.45	1424.83
559.81	1429.71
560.16	1434.07
560.52	1438.40
560.87	1443.38
561.23	1445.83
561.58	1451.17
561.94	1454.48
562.29	1458.14
562.64	1463.57
563.00	1466.52
563.35	1470.88
563.71	1475.48
564.06	1481.29
564.42	1486.02
564.77	1491.17
565.12	1497.71
565.48	1505.76
565.83	1512.64
566.19	1517.90
566.54	1522.74
566.89	1528.36
567.25	1534.55
567.60	1541.50
567.96	1549.50
568.31	1555.81
568.66	1562.38
569.02	1566.60
569.37	1572.24
569.72	1578.33
570.08	1582.64
570.43	1588.24
570.78	1594.12
571.14	1599.71
571.49	1604.14
571.84	1610.19
572.20	1615.29
572.55	1620.62
572.90	1623.17
573.26	1627.26
573.61	1632.14
573.96	1636.98
574.31	1641.02
574.67	1644.14
575.02	1646.86
575.37	1648.93
575.72	1651.76
576.08	1655.55
576.43	1659.38
576.78	1663.05
577.13	1666.60
577.49	1670.67
577.84	1674.74
578.19	1677.86
578.54	1682.62
578.90	1687.38
579.25	1689.83
579.60	1693.05
579.95	1695.38
580.30	1699.45
580.66	1702.55
581.01	1705.83
581.36	1708.40
581.71	1711.43
582.06	1715.69
582.42	1719.98
582.77	1722.43
583.12	1725.00
583.47	1727.14
583.82	1729.02
584.17	1732.29
584.53	1736.05
584.88	1737.98
585.23	1740.88
585.58	1743.29
585.93	1743.83
586.28	1745.29
586.63	1747.81
586.98	1750.76
587.34	1753.36
587.69	1754.67
588.04	1757.00
588.39	1758.05
588.74	1759.43
589.09	1761.71
589.44	1762.07
589.79	1763.07
590.14	1765.55
590.49	1766.95
590.84	1768.17
591.19	1771.24
591.54	1772.02
591.89	1771.93
592.25	1775.00
592.60	1775.00
592.95	1776.48
593.30	1777.48
593.65	1778.10
594.00	1778.98
594.35	1785.48
594.70	1784.60
595.05	1785.43
595.40	1785.14
595.75	1785.55
596.10	1786.90
596.45	1787.19
596.80	1788.33
597.15	1787.38
597.50	1787.02
597.85	1787.40
598.19	1787.90
598.54	1786.52
598.89	1786.90
599.24	1787.36
599.59	1785.60
599.94	1785.21
600.29	1783.86
600.64	1784.40
600.99	1784.74
601.34	1785.02
601.69	1777.93
602.04	1778.26
602.39	1777.31
602.74	1777.83
603.08	1776.76
603.43	1776.45
603.78	1774.98
604.13	1773.14
604.48	1773.33
604.83	1771.95
605.18	1771.69
605.53	1770.40
605.87	1768.88
606.22	1767.19
606.57	1765.81
606.92	1764.00
607.27	1763.43
607.62	1762.98
607.96	1761.98
608.31	1761.24
608.66	1758.69
609.01	1757.05
609.36	1755.38
609.70	1754.24
610.05	1751.24
610.40	1749.86
610.75	1747.19
611.10	1745.21
611.44	1743.52
611.79	1740.71
612.14	1738.57
612.49	1734.98
612.83	1731.57
613.18	1728.88
613.53	1725.55
613.88	1721.24
614.22	1717.67
614.57	1713.12
614.92	1709.10
615.27	1705.10
615.61	1699.26
615.96	1695.33
616.31	1691.38
616.65	1688.12
617.00	1683.90
617.35	1680.21
617.70	1675.40
618.04	1671.24
618.39	1666.79
618.74	1662.12
619.08	1657.69
619.43	1652.48
619.78	1647.29
620.12	1644.43
620.47	1640.38
620.82	1635.90
621.16	1631.62
621.51	1628.76
621.85	1624.10
622.20	1619.57
622.55	1613.69
622.89	1609.00
623.24	1605.38
623.59	1600.02
623.93	1594.79
624.28	1590.17
624.62	1587.52
624.97	1585.45
625.32	1581.00
625.66	1576.36
626.01	1571.64
626.35	1568.17
626.70	1563.71
627.04	1561.40
627.39	1556.14
627.73	1553.26
628.08	1550.10
628.43	1546.10
628.77	1540.76
629.12	1537.52
629.46	1532.88
629.81	1529.26
630.15	1525.10
630.50	1520.17
630.84	1516.05
631.19	1511.52
631.53	1506.24
631.88	1498.10
632.22	1491.02
632.57	1485.88
632.91	1481.33
633.26	1477.52
633.60	1471.24
633.95	1465.76
634.29	1458.86
634.64	1453.19
634.98	1445.93
635.32	1441.86
635.67	1437.31
636.01	1432.83
636.36	1426.74
636.70	1423.90
637.05	1419.07
637.39	1413.83
637.73	1408.64
638.08	1404.31
638.42	1400.00
638.77	1395.10
639.11	1390.95
639.45	1386.12
639.80	1380.29
640.14	1375.05
640.49	1368.90
640.83	1363.21
641.17	1358.50
641.52	1353.21
641.86	1348.10
642.20	1344.14
642.55	1336.31
642.89	1329.50
643.23	1322.95
643.58	1317.67
643.92	1309.86
644.26	1302.74
644.61	1297.45
644.95	1290.45
645.29	1283.31
645.64	1276.71
645.98	1269.83
646.32	1264.36
646.66	1257.07
647.01	1251.12
647.35	1244.67
647.69	1238.07
648.04	1232.71
648.38	1226.60
648.72	1220.17
649.06	1213.52
649.41	1206.02
649.75	1199.29
650.09	1193.17
650.43	1185.86
650.78	1178.90
651.12	1171.83
651.46	1165.74
651.80	1158.50
652.14	1152.43
652.49	1146.33
652.83	1139.38
653.17	1133.40
653.51	1126.98
653.85	1121.14
654.20	1114.62
654.54	1107.45
654.88	1100.69
655.22	1094.40
655.56	1087.48
655.90	1080.93
656.25	1074.36
656.59	1068.36
656.93	1062.48
657.27	1057.19
657.61	1051.52
657.95	1045.76
658.29	1039.88
658.64	1034.74
658.98	1028.10
659.32	1021.67
659.66	1015.45
660.00	1008.71
660.34	1002.50
660.68	995.21
661.02	989.29
661.36	983.29
661.70	977.29
662.05	972.02
662.39	966.24
662.73	960.71
663.07	955.88
663.41	950.00
663.75	943.43
664.09	937.71
664.43	930.88
664.77	925.24
665.11	918.24
665.45	912.19
665.79	905.76
666.13	900.95
666.47	895.19
666.81	889.48
667.15	884.02
667.49	878.26
667.83	873.26
668.17	867.69
668.51	862.12
668.85	856.88
669.19	852.02
669.53	844.83
669.87	838.98
670.21	832.62
670.55	827.26
670.89	823.19
671.23	817.71
671.57	811.67
671.91	806.10
672.25	801.74
672.58	797.14
672.92	791.40
673.26	786.05
673.60	781.02
673.94	775.62
674.28	771.00
674.62	766.90
674.96	761.86
675.30	756.95
675.64	752.21
675.97	747.33
676.31	741.79
676.65	737.74
676.99	734.26
677.33	729.81
677.67	724.93
678.01	718.88
678.34	714.57
678.68	711.36
679.02	706.76
679.36	701.79
679.70	696.38
680.04	691.76
680.37	686.98
680.71	682.17
681.05	678.07
681.39	673.12
681.73	667.71
682.06	663.00
682.40	658.98
682.74	654.69
683.08	651.00
683.42	645.86
683.75	641.74
684.09	636.33
684.43	631.43
684.77	627.07
685.10	622.86
685.44	617.79
685.78	612.90
686.12	608.45
686.45	603.98
686.79	600.10
687.13	596.33
687.46	591.67
687.80	588.33
688.14	583.71
688.48	580.50
688.81	576.90
689.15	573.62
689.49	569.14
689.82	565.00
690.16	559.93
690.50	556.07
690.83	552.02
691.17	547.71
691.51	543.93
691.84	540.40
692.18	536.62
692.52	533.33
692.85	529.98
693.19	527.29
693.52	523.33
693.86	519.64
694.20	515.62
694.53	512.62
694.87	508.50
695.21	505.02
695.54	500.67
695.88	496.52
696.21	492.17
696.55	488.62
696.88	484.79
697.22	481.55
697.56	479.05
697.89	475.40
698.23	472.64
698.56	469.52
698.90	465.83
699.23	462.57
699.57	459.48
699.90	455.93
700.24	451.69
700.58	448.74
700.91	446.05
701.25	444.74
701.58	442.69
701.92	440.62
702.25	438.05
702.59	435.21
702.92	432.86
703.26	430.48
703.59	427.74
703.93	427.02
704.26	424.95
704.60	422.17
704.93	419.48
705.26	416.57
705.60	414.60
705.93	412.12
706.27	410.21
706.60	408.14
706.94	406.50
707.27	404.21
707.61	402.26
707.94	399.52
708.27	395.52
708.61	391.88
708.94	389.19
709.28	387.17
709.61	384.83
709.94	382.57
710.28	380.36
710.61	378.33
710.95	374.36
711.28	373.62
711.61	371.29
711.95	369.76
712.28	367.57
712.61	364.86
712.95	364.14
713.28	362.67
713.61	360.07
713.95	357.71
714.28	356.38
714.61	354.62
714.95	352.76
715.28	351.17
715.61	349.74
715.95	347.98
716.28	345.86
716.61	344.98
716.95	343.05
717.28	341.24
717.61	339.62
717.94	338.19
718.28	334.83
718.61	332.90
718.94	330.86
719.27	329.43
719.61	328.19
719.94	325.71
720.27	323.14
720.60	321.45
720.94	319.62
721.27	318.26
721.60	317.14
721.93	315.86
722.27	315.50
722.60	314.52
722.93	313.00
723.26	311.88
723.59	309.93
723.93	309.12
724.26	308.29
724.59	307.07
724.92	305.90
725.25	305.52
725.59	304.74
725.92	304.10
726.25	303.19
726.58	302.29
726.91	301.36
727.24	301.12
727.57	300.40
727.91	299.55
728.24	298.67
728.57	297.07
728.90	296.55
729.23	294.88
729.56	294.57
729.89	293.81
730.22	292.60
730.55	291.83
730.89	290.88
731.22	289.90
731.55	289.07
731.88	288.50
732.21	287.21
732.54	286.33
732.87	285.43
733.20	284.79
733.53	283.79
733.86	282.98
734.19	281.69
734.52	281.02
734.85	281.67
735.18	280.60
735.51	280.71
735.84	279.93
736.17	279.43
736.50	277.88
736.83	279.33
737.16	278.88
737.49	278.00
737.82	277.36
738.15	276.71
738.48	275.98
738.81	275.07
739.14	273.95
739.47	273.07
739.80	272.07
740.13	271.31
740.46	270.50
740.79	269.62
741.12	269.00
741.45	268.26
741.78	266.21
742.11	266.19
742.44	265.36
742.77	265.19
743.10	264.29
743.43	263.79
743.75	261.21
744.08	263.14
744.41	262.48
744.74	261.57
745.07	260.60
745.40	260.33
745.73	260.60
746.06	260.21
746.39	260.31
746.71	259.79
747.04	259.00
747.37	258.45
747.70	258.26
748.03	257.69
748.36	257.57
748.68	257.05
749.01	255.79
749.34	255.00
749.67	254.17
750.00	253.95
750.33	254.60
750.65	254.26
750.98	251.36
751.31	251.12
751.64	251.00
751.97	251.81
752.29	251.24
752.62	249.81
752.95	249.36
753.28	248.40
753.60	247.90
753.93	248.26
754.26	248.19
754.59	247.69
754.91	247.17
755.24	246.55
755.57	246.26
755.90	246.05
756.22	245.86
756.55	245.02
756.88	244.17
757.20	242.67
757.53	241.81
757.86	241.31
758.19	240.83
758.51	240.14
758.84	238.71
759.17	238.12
759.49	237.90
759.82	238.64
760.15	238.52
760.47	238.36
760.80	237.26
761.13	237.12
761.45	236.36
761.78	235.95
762.11	235.57
762.43	235.19
762.76	234.74
763.08	234.38
763.41	234.48
763.74	234.36
764.06	234.00
764.39	233.81
764.71	233.81
765.04	233.40
765.37	233.02
765.69	232.74
766.02	232.55
766.34	232.24
766.67	231.00
767.00	230.98
767.32	231.50
767.65	232.52
767.97	231.86
768.30	231.93
768.62	232.05
768.95	231.86
769.27	231.48
769.60	231.50
769.92	230.98
770.25	230.48
770.57	229.90
770.90	230.00
771.22	229.38
771.55	229.12
771.87	229.12
772.20	228.95
772.52	230.71
772.85	232.88
773.17	232.79
773.50	232.67
773.82	232.45
774.15	231.74
774.47	230.31
774.80	230.05
775.12	229.93
775.45	229.52
775.77	229.24
776.09	229.45
776.42	229.40
776.74	230.02
777.07	229.60
777.39	229.55
777.72	228.86
778.04	229.02
778.36	228.62
778.69	228.67
779.01	228.71
779.33	226.64
779.66	224.17
779.98	223.83
780.31	223.93
780.63	224.38
780.95	224.36
781.28	224.38
781.60	224.26
781.92	224.17
782.25	224.33
782.57	224.43
782.89	223.93
783.22	223.60
783.54	222.95
783.86	223.48
784.19	223.26
784.51	223.98
784.83	223.64
785.16	223.40
785.48	223.12
785.80	222.88
786.12	223.26
786.45	223.29
786.77	223.36
787.09	222.90
787.42	222.10
787.74	222.12
788.06	222.07
788.38	221.88
788.71	221.69
789.03	221.60
789.35	221.64
789.67	221.50
789.99	221.64
790.32	221.36
790.64	221.19
790.96	222.98
791.28	222.12
791.61	222.12
791.93	222.40
792.25	222.45
792.57	224.02
792.89	223.33
793.21	223.31
793.54	223.05
793.86	222.76
794.18	222.95
794.50	222.64
794.82	222.45
795.14	222.60
795.47	222.95
795.79	222.81
796.11	222.24
796.43	222.21
796.75	222.05
797.07	222.26
797.39	222.05
797.71	220.50
798.04	220.50
798.36	220.52
798.68	220.38
799.00	220.40
799.32	219.07
799.64	219.69
799.96	219.57
800.28	219.93
800.60	219.93
800.92	219.88
801.24	219.62
801.56	219.98
801.89	219.76
802.21	219.69
802.53	219.40
802.85	219.71
803.17	220.69
803.49	220.10
803.81	219.71
804.13	219.62
804.45	219.29
804.77	219.64
805.09	219.76
805.41	219.50
805.73	219.00
806.05	218.62
806.37	217.93
806.69	217.79
807.01	217.57
807.33	217.71
807.65	216.90
807.97	217.93
808.28	217.74
808.60	217.83
808.92	217.69
809.24	218.95
809.56	218.71
809.88	217.81
810.20	218.12
810.52	218.43
810.84	218.05
811.16	218.07
811.48	217.79
811.80	218.36
812.12	218.38
812.43	218.88
812.75	219.21
813.07	219.17
813.39	219.36
813.71	219.00
814.03	218.81
814.35	218.93
814.67	218.05
814.98	217.43
815.30	217.29
815.62	216.76
815.94	215.31
816.26	215.29
816.58	215.02
816.89	215.12
817.21	214.74
817.53	214.86
817.85	215.00
818.17	215.05
818.48	214.29
818.80	214.71
819.12	214.50
819.44	214.00
819.76	213.93
820.07	213.74
820.39	213.79
820.71	214.05
821.03	214.19
821.34	213.79
821.66	214.45
821.98	214.69
822.30	214.45
822.61	215.74
822.93	215.55
823.25	215.62
823.57	215.76
823.88	216.24
824.20	216.21
824.52	216.62
824.83	216.45
825.15	216.10
825.47	215.98
825.79	216.00
826.10	216.07
826.42	215.90
826.74	216.24
827.05	216.33
827.37	216.36
827.69	216.07
828.00	216.55
828.32	216.21
828.64	216.00
828.95	217.40
829.27	216.81
829.58	217.02
829.90	217.24
830.22	217.12
830.53	216.60
830.85	216.48
831.17	215.74
831.48	215.76
831.80	216.07
832.11	215.79
832.43	215.50
832.75	215.48
833.06	216.69
833.38	215.98
833.69	215.71
834.01	215.76
834.32	215.98
834.64	215.71
834.96	216.02
835.27	216.07
835.59	215.26
835.90	214.81
836.22	214.67
836.53	214.21
836.85	213.81
837.16	215.81
837.48	215.74
837.79	216.38
838.11	216.45
838.42	216.17
838.74	216.31
839.05	216.36
839.37	216.24
839.68	215.36
840.00	215.45
840.31	215.93
840.63	215.88
840.94	215.50
841.26	215.26
841.57	215.17
841.88	215.33
842.20	214.93
842.51	214.86
842.83	215.10
843.14	216.90
843.46	217.10
843.77	215.93
844.08	215.98
844.40	215.40
844.71	215.24
845.03	215.33
845.34	215.40
845.65	215.29
845.97	215.40
846.28	215.48
846.60	215.67
846.91	215.36
847.22	215.12
847.54	215.90
847.85	216.02
848.16	215.88
848.48	215.40
848.79	216.50
849.10	216.86
849.42	216.69
849.73	214.76
850.04	214.69
850.36	214.02
850.67	214.52
850.98	214.45
851.30	214.57
851.61	214.62
851.92	214.43
852.23	215.02
852.55	215.17
852.86	215.00
853.17	214.88
853.49	215.12
853.80	215.45
854.11	215.31
854.42	215.55
854.74	215.19
855.05	215.19
855.36	213.90
855.67	213.74
855.99	213.79
856.30	216.43
856.61	216.26
856.92	216.31
857.23	215.98
857.55	215.67
857.86	215.48
858.17	215.69
858.48	215.31
858.79	214.88
859.11	214.83
859.42	214.67
859.73	214.45
860.04	214.26
860.35	213.79
860.66	213.19
860.98	213.31
861.29	213.79
861.60	213.64
861.91	214.33
862.22	213.88
862.53	213.40
862.84	210.88
863.16	211.60
863.47	211.36
863.78	211.21
864.09	211.55
864.40	211.88
864.71	211.64
865.02	212.07
865.33	211.76
865.64	211.45
865.95	211.43
866.27	212.81
866.58	212.40
866.89	212.69
867.20	212.74
867.51	212.19
867.82	211.83
868.13	212.52
868.44	212.05
868.75	212.64
869.06	212.86
869.37	213.02
869.68	212.31
869.99	212.71
870.30	212.95
870.61	213.17
870.92	212.57
871.23	212.40
871.54	212.45
871.85	213.00
872.16	213.40
872.47	213.10
872.78	211.95
873.09	212.52
873.40	212.31
873.71	212.48
874.02	212.55
874.33	212.40
874.64	211.86
874.95	212.14
875.26	211.81
875.56	211.88
875.87	211.67
876.18	211.64
876.49	213.62
876.80	213.19
877.11	212.67
877.42	213.00
877.73	213.10
878.04	212.83
878.35	212.90
878.66	212.71
878.96	212.93
879.27	212.76
879.58	212.64
879.89	212.40
880.20	213.00
880.51	213.05
880.82	213.17
881.12	213.48
881.43	213.24
881.74	212.88
882.05	212.71
882.36	213.12
882.67	213.40
882.97	211.14
883.28	211.21
883.59	211.40
883.90	211.43
884.21	212.00
884.51	212.19
884.82	211.74
885.13	211.74
885.44	211.50
885.74	211.71
886.05	211.62
886.36	211.71
886.67	211.14
886.98	212.02
887.28	212.36
887.59	212.10
887.90	212.05
888.20	212.10
888.51	212.55
888.82	212.10
889.13	212.05
889.43	213.90
889.74	213.76
890.05	213.55
890.35	213.48
890.66	212.98
890.97	212.50
891.28	212.48
891.58	212.69
891.89	212.69
892.20	212.38
892.50	212.12
892.81	212.31
893.12	212.19
893.42	211.21
893.73	211.07
894.04	211.29
894.34	211.57
894.65	211.60
894.95	210.95
895.26	211.14
895.57	212.07
895.87	210.05
896.18	210.48
896.48	210.83
896.79	210.76
897.10	211.00
897.40	211.21
897.71	211.33
898.01	211.07
898.32	211.62
898.63	211.79
898.93	212.19
899.24	212.05
899.54	211.95
899.85	211.88
900.15	211.74
900.46	211.43
900.76	211.45
901.07	211.29
901.38	211.69
901.68	211.98
901.99	210.81
902.29	211.02
902.60	210.88
902.90	210.88
903.21	210.74
903.51	210.64
903.82	211.14
904.12	211.12
904.43	211.31
904.73	211.12
905.03	211.21
905.34	213.05
905.64	212.90
905.95	213.21
906.25	213.29
906.56	213.14
906.86	213.55
907.17	213.48
907.47	213.57
907.77	213.57
908.08	213.07
908.38	213.21
908.69	213.31
908.99	213.60
909.30	213.40
909.60	213.64
909.90	213.71
910.21	213.17
910.51	212.95
910.81	213.05
911.12	213.36
911.42	213.38
911.73	211.05
912.03	211.12
912.33	211.26
912.64	211.38
912.94	211.31
913.24	210.95
913.55	210.64
913.85	210.62
914.15	210.76
914.46	211.05
914.76	210.98
915.06	210.95
915.37	210.62
915.67	210.36
915.97	210.50
916.27	210.19
916.58	210.29
916.88	210.24
917.18	209.90
917.49	211.14
917.79	210.83
918.09	211.24
918.39	211.86
918.70	211.64
919.00	211.57
919.30	212.71
919.60	212.45
919.91	212.48
920.21	212.57
920.51	212.24
920.81	211.95
921.12	212.36
921.42	212.21
921.72	212.05
922.02	212.43
922.32	212.67
922.63	212.86
922.93	213.76
923.23	213.95
923.53	213.76
923.83	212.60
924.13	213.02
924.44	213.00
924.74	213.33
925.04	213.93
925.34	213.93
925.64	213.00
925.94	213.31
926.24	214.52
926.55	214.29
926.85	214.62
927.15	214.74
927.45	214.55
927.75	214.67
928.05	214.98
928.35	214.83
928.65	215.05
928.95	215.14
929.26	214.52
929.56	214.86
929.86	215.26
930.16	214.93
930.46	214.86
930.76	214.95
931.06	213.98
931.36	213.43
931.66	213.74
931.96	214.17
932.26	214.12
932.56	213.40
932.86	213.48
933.16	213.26
933.46	213.21
933.76	213.00
934.06	213.52
934.36	214.02
934.66	214.00
934.96	213.45
935.26	213.52
935.56	213.79
935.86	213.43
936.16	213.05
936.46	213.02
936.76	212.79
937.06	212.67
937.36	212.83
937.66	212.76
937.96	212.60
938.26	212.02
938.56	211.86
938.86	211.64
939.16	212.26
939.46	212.57
939.76	212.64
940.06	212.64
940.35	212.00
940.65	211.21
940.95	211.36
941.25	211.07
941.55	210.76
941.85	210.24
942.15	210.71
942.45	211.26
942.75	211.10
943.04	211.24
943.34	211.62
943.64	211.40
943.94	211.24
944.24	211.29
944.54	211.40
944.84	211.38
945.13	211.05
945.43	210.86
945.73	210.74
946.03	210.76
946.33	210.74
946.62	210.64
946.92	210.74
947.22	210.76
947.52	211.05
947.82	211.36
948.11	211.40
948.41	210.76
948.71	210.31
949.01	210.29
949.31	210.14
949.60	210.14
949.90	210.69
950.20	210.50
950.50	210.40
950.79	210.14
951.09	210.60
951.39	210.67
951.69	210.31
951.98	210.62
952.28	210.55
952.58	210.43
952.87	210.31
953.17	210.62
953.47	210.43
953.76	210.26
954.06	209.83
954.36	209.57
954.66	209.60
954.95	209.86
955.25	210.24
955.55	210.52
955.84	210.12
956.14	210.00
956.44	210.40
956.73	209.93
957.03	210.29
957.32	209.98
957.62	210.05
957.92	210.52
958.21	210.17
958.51	212.31
958.81	212.69
959.10	213.10
959.40	213.33
959.69	213.64
959.99	213.95
960.29	214.12
960.58	214.10
960.88	215.02
961.17	215.12
961.47	215.14
961.76	214.86
962.06	215.12
962.36	214.79
962.65	214.67
962.95	215.17
963.24	214.88
963.54	215.07
963.83	215.07
964.13	214.90
964.42	214.55
964.72	213.14
965.01	212.93
965.31	212.88
965.60	212.43
965.90	213.62
966.19	213.26
966.49	213.33
966.78	213.38
967.08	213.02
967.37	212.88
967.67	212.40
967.96	212.86
968.26	212.86
968.55	213.43
968.85	213.26
969.14	213.05
969.43	213.10
969.73	213.07
970.02	213.05
970.32	213.07
970.61	213.00
970.91	212.60
971.20	212.69
971.49	212.38
971.79	212.62
972.08	211.17
972.38	211.26
972.67	211.12
972.96	211.55
973.26	211.14
973.55	211.83
973.85	212.02
974.14	211.74
974.43	211.83
974.73	211.36
975.02	211.19
975.31	211.24
975.61	211.17
975.90	210.74
976.19	210.43
976.49	210.40
976.78	210.57
977.07	210.36
977.37	210.29
977.66	210.38
977.95	210.00
978.24	210.10
978.54	210.62
978.83	210.57
979.12	210.24
979.42	210.45
979.71	209.81
980.00	209.74
980.29	209.90
980.59	209.38
980.88	209.90
981.17	210.19
981.46	210.19
981.76	210.43
982.05	211.29
982.34	211.40
982.63	211.43
982.93	211.50
983.22	212.07
983.51	212.17
983.80	212.48
984.09	212.69
984.39	212.55
984.68	212.24
984.97	212.14
985.26	212.07
985.55	212.17
985.85	211.98
986.14	212.21
986.43	212.40
986.72	212.36
987.01	211.76
987.30	211.64
987.59	211.43
987.89	211.24
988.18	210.55
988.47	210.57
988.76	210.36
989.05	210.40
989.34	209.81
989.63	210.33
989.92	210.02
990.22	209.74
990.51	209.71
990.80	209.60
991.09	209.88
991.38	209.98
991.67	209.76
991.96	209.50
992.25	209.60
992.54	209.07
992.83	209.33
993.12	209.38
993.41	209.57
993.70	210.57
993.99	210.93
994.28	211.33
994.58	211.69
994.87	211.55
995.16	211.45
995.45	211.50
995.74	210.79
996.03	211.14
996.32	211.67
996.61	212.24
996.90	212.10
997.19	212.02
997.48	212.36
997.77	212.02
998.06	212.50
998.34	212.21
998.63	212.12
998.92	212.07
999.21	212.43
999.50	212.79
999.79	212.07
1000.08	212.10
1000.37	211.98
1000.66	211.71
1000.95	212.24
1001.24	212.17
1001.53	212.36
1001.82	212.29
1002.11	211.76
1002.40	211.88
1002.68	212.31
1002.97	213.76
1003.26	213.62
1003.55	213.12
1003.84	213.57
1004.13	213.95
1004.42	213.81
1004.71	213.88
1004.99	213.81
1005.28	214.24
1005.57	213.79
1005.86	213.71
1006.15	213.52
1006.44	213.14
1006.72	213.36
1007.01	213.02
1007.30	213.00
1007.59	212.86
1007.88	212.86
1008.17	213.05
1008.45	212.62
1008.74	211.69
1009.03	210.98
1009.32	210.86
1009.60	210.83
1009.89	210.60
1010.18	209.86
1010.47	209.98
1010.76	210.05
1011.04	210.02
1011.33	210.36
1011.62	210.62
1011.91	210.71
1012.19	210.74
1012.48	210.88
1012.77	210.88
1013.05	211.64
1013.34	211.67
1013.63	211.48
1013.92	211.52
1014.20	211.36
1014.49	211.36
1014.78	211.67
1015.06	210.71
1015.35	210.57
1015.64	211.05
1015.92	211.40
1016.21	211.55
1016.50	211.45
1016.78	211.52
1017.07	211.52
1017.36	210.62
1017.64	210.12
1017.93	210.24
1018.22	210.26
1018.50	210.17
1018.79	209.88
1019.08	209.02
1019.36	209.21
1019.65	209.36
1019.93	209.86
1020.22	210.14
1020.51	211.17
1020.79	210.90
1021.08	212.00
1021.36	205.00
1021.65	208.00
1021.94	208.00
1022.22	211.00
1022.51	211.50
1022.79	218.50
1023.08	212.00
1023.36	232.00
1023.65	208.00
>>>>>End Processed Spectral Data<<<<<
