SpectraSuite Data File
++++++++++++++++++++++++++++++++++++
Date: Tue Apr 02 18:41:51 EDT 2013
User: group
Dark Spectrum Present: No
Reference Spectrum Present: No
Number of Sampled Component Spectra: 1
Spectrometers: USB2E7196
Integration Time (usec): 580000 (USB2E7196)
Spectra Averaged: 2 (USB2E7196)
Boxcar Smoothing: 10 (USB2E7196)
Correct for Electrical Dark: No (USB2E7196)
Strobe/Lamp Enabled: No (USB2E7196)
Correct for Detector Non-linearity: No (USB2E7196)
Correct for Stray Light: No (USB2E7196)
Number of Pixels in Processed Spectrum: 2048
>>>>>Begin Processed Spectral Data<<<<<
339.09	0.00
339.48	189.50
339.86	191.50
340.24	195.00
340.63	196.50
341.01	231.00
341.39	201.00
341.78	205.50
342.16	212.00
342.54	205.50
342.93	197.17
343.31	207.00
343.69	207.79
344.07	208.52
344.46	209.17
344.84	209.90
345.22	208.79
345.60	209.17
345.99	209.31
346.37	209.10
346.75	209.14
347.13	209.00
347.52	209.43
347.90	210.12
348.28	210.31
348.66	210.74
349.05	210.05
349.43	210.33
349.81	210.50
350.19	210.67
350.57	210.90
350.96	211.19
351.34	211.52
351.72	211.64
352.10	211.95
352.48	212.02
352.87	212.00
353.25	212.02
353.63	211.98
354.01	212.07
354.39	212.55
354.77	212.76
355.15	213.69
355.54	213.33
355.92	212.81
356.30	212.74
356.68	213.95
357.06	214.02
357.44	213.90
357.82	214.05
358.20	214.93
358.58	214.90
358.97	214.83
359.35	215.17
359.73	215.74
360.11	215.57
360.49	215.90
360.87	215.83
361.25	215.98
361.63	216.79
362.01	216.71
362.39	216.55
362.77	216.57
363.15	216.29
363.53	216.29
363.91	216.55
364.29	216.52
364.67	214.55
365.05	214.60
365.43	214.79
365.81	214.81
366.19	215.07
366.57	215.64
366.95	215.71
367.33	215.10
367.71	214.88
368.09	215.24
368.47	214.98
368.85	215.05
369.23	215.74
369.61	214.93
369.99	215.69
370.37	215.60
370.75	216.81
371.13	216.45
371.51	216.29
371.89	216.52
372.27	216.76
372.65	216.95
373.03	217.10
373.41	216.76
373.78	216.83
374.16	215.71
374.54	215.29
374.92	215.19
375.30	215.40
375.68	215.17
376.06	215.29
376.44	215.10
376.82	215.19
377.19	214.74
377.57	214.88
377.95	214.14
378.33	214.14
378.71	212.81
379.09	213.07
379.47	213.40
379.84	212.93
380.22	212.76
380.60	212.50
380.98	212.45
381.36	212.74
381.73	212.31
382.11	212.74
382.49	212.74
382.87	212.48
383.25	212.40
383.62	214.79
384.00	214.31
384.38	214.55
384.76	214.98
385.13	215.90
385.51	215.62
385.89	215.62
386.27	215.90
386.64	216.21
387.02	215.95
387.40	215.76
387.78	215.88
388.15	215.76
388.53	215.71
388.91	215.60
389.29	215.26
389.66	215.74
390.04	215.64
390.42	216.02
390.79	216.36
391.17	216.40
391.55	214.07
391.92	213.98
392.30	214.07
392.68	213.62
393.05	213.38
393.43	213.62
393.81	213.86
394.18	213.40
394.56	213.38
394.94	213.98
395.31	213.98
395.69	214.52
396.06	214.83
396.44	215.14
396.82	215.07
397.19	216.12
397.57	215.86
397.95	216.17
398.32	215.67
398.70	215.57
399.07	216.10
399.45	216.00
399.82	216.00
400.20	215.83
400.58	215.95
400.95	215.10
401.33	215.74
401.70	217.19
402.08	217.33
402.45	217.29
402.83	217.67
403.20	217.95
403.58	217.86
403.95	218.43
404.33	218.69
404.71	219.31
405.08	220.50
405.46	220.52
405.83	220.69
406.21	221.12
406.58	221.98
406.96	222.24
407.33	223.10
407.70	223.98
408.08	226.43
408.45	227.19
408.83	228.57
409.20	228.90
409.58	228.36
409.95	229.64
410.33	230.83
410.70	231.05
411.08	232.31
411.45	233.19
411.82	234.12
412.20	235.95
412.57	238.50
412.95	238.24
413.32	240.21
413.69	241.48
414.07	243.17
414.44	244.55
414.82	246.48
415.19	248.55
415.56	250.52
415.94	251.67
416.31	254.36
416.68	256.90
417.06	260.19
417.43	263.83
417.81	267.33
418.18	271.05
418.55	275.00
418.93	278.67
419.30	283.14
419.67	287.69
420.04	292.14
420.42	295.98
420.79	303.31
421.16	309.17
421.54	316.50
421.91	322.64
422.28	329.48
422.66	336.17
423.03	344.71
423.40	351.95
423.77	358.86
424.15	366.48
424.52	374.31
424.89	382.74
425.26	390.57
425.64	397.88
426.01	406.55
426.38	415.90
426.75	426.07
427.13	435.64
427.50	445.48
427.87	455.36
428.24	465.79
428.61	474.02
428.99	485.10
429.36	495.33
429.73	506.93
430.10	517.83
430.47	530.00
430.85	540.12
431.22	553.05
431.59	568.48
431.96	581.12
432.33	595.69
432.70	609.55
433.08	625.86
433.45	641.88
433.82	656.86
434.19	673.71
434.56	690.64
434.93	706.48
435.30	722.74
435.68	740.88
436.05	758.26
436.42	776.00
436.79	792.74
437.16	810.33
437.53	828.69
437.90	847.12
438.27	865.12
438.64	884.17
439.01	902.07
439.38	915.33
439.75	930.98
440.13	947.52
440.50	963.81
440.87	976.98
441.24	990.50
441.61	1006.31
441.98	1017.38
442.35	1029.48
442.72	1042.83
443.09	1056.69
443.46	1064.05
443.83	1069.64
444.20	1074.76
444.57	1080.40
444.94	1083.95
445.31	1087.21
445.68	1093.21
446.05	1094.50
446.42	1092.93
446.79	1091.14
447.16	1089.60
447.53	1088.38
447.90	1082.62
448.27	1076.36
448.64	1067.43
449.01	1061.10
449.37	1049.26
449.74	1038.19
450.11	1026.17
450.48	1010.98
450.85	994.26
451.22	981.36
451.59	969.24
451.96	956.98
452.33	941.12
452.70	926.57
453.07	909.76
453.43	889.83
453.80	873.21
454.17	857.38
454.54	841.36
454.91	825.50
455.28	808.83
455.65	793.40
456.02	781.40
456.38	768.29
456.75	752.26
457.12	738.55
457.49	725.12
457.86	710.90
458.23	700.57
458.59	688.98
458.96	677.00
459.33	665.74
459.70	654.93
460.07	646.43
460.43	636.38
460.80	627.26
461.17	620.19
461.54	611.60
461.91	603.05
462.27	594.83
462.64	587.45
463.01	579.93
463.38	573.33
463.74	562.38
464.11	555.60
464.48	550.02
464.85	543.67
465.21	539.79
465.58	534.86
465.95	528.26
466.32	522.67
466.68	517.40
467.05	512.12
467.42	507.07
467.78	501.71
468.15	496.95
468.52	493.33
468.88	487.17
469.25	482.50
469.62	479.07
469.98	475.26
470.35	471.60
470.72	467.93
471.08	462.88
471.45	459.81
471.82	457.14
472.18	453.10
472.55	450.83
472.92	446.69
473.28	443.76
473.65	441.00
474.02	438.60
474.38	436.21
474.75	434.36
475.11	431.88
475.48	430.12
475.85	428.36
476.21	426.10
476.58	424.83
476.94	423.40
477.31	422.17
477.67	420.69
478.04	419.69
478.41	419.17
478.77	420.55
479.14	419.43
479.50	418.74
479.87	419.19
480.23	418.50
480.60	418.07
480.96	417.67
481.33	418.26
481.69	418.69
482.06	418.98
482.42	419.43
482.79	419.90
483.15	420.14
483.52	420.79
483.88	421.14
484.25	421.40
484.61	422.14
484.98	422.71
485.34	424.36
485.71	425.64
486.07	426.74
486.44	426.38
486.80	427.90
487.17	429.43
487.53	431.43
487.90	433.76
488.26	436.81
488.62	439.74
488.99	441.86
489.35	444.07
489.72	447.07
490.08	449.71
490.44	452.83
490.81	456.33
491.17	459.12
491.54	463.12
491.90	467.10
492.26	470.95
492.63	474.93
492.99	478.64
493.36	482.43
493.72	486.69
494.08	491.38
494.45	496.79
494.81	501.95
495.17	506.10
495.54	510.95
495.90	515.67
496.26	520.64
496.63	526.12
496.99	531.81
497.35	537.60
497.72	543.40
498.08	549.38
498.44	555.52
498.80	562.21
499.17	567.79
499.53	574.10
499.89	581.14
500.26	587.83
500.62	594.52
500.98	602.38
501.34	609.48
501.71	617.29
502.07	624.00
502.43	630.86
502.79	638.10
503.16	645.48
503.52	652.43
503.88	659.33
504.24	667.05
504.60	674.29
504.97	682.21
505.33	690.21
505.69	698.52
506.05	705.86
506.41	714.45
506.78	722.02
507.14	729.74
507.50	737.43
507.86	745.24
508.22	753.76
508.59	760.21
508.95	768.62
509.31	776.45
509.67	784.55
510.03	792.36
510.39	800.60
510.75	808.74
511.12	816.50
511.48	824.36
511.84	832.02
512.20	839.81
512.56	847.24
512.92	855.43
513.28	862.86
513.64	870.71
514.00	878.05
514.37	886.02
514.73	893.79
515.09	901.57
515.45	908.43
515.81	915.05
516.17	923.17
516.53	929.50
516.89	935.74
517.25	942.76
517.61	950.57
517.97	957.02
518.33	963.26
518.69	970.36
519.05	977.38
519.41	983.64
519.77	991.31
520.13	997.38
520.49	1001.81
520.85	1007.62
521.21	1014.38
521.57	1020.14
521.93	1025.67
522.29	1031.14
522.65	1036.31
523.01	1042.50
523.37	1047.62
523.73	1053.29
524.09	1058.69
524.45	1064.21
524.81	1068.69
525.17	1073.45
525.53	1078.81
525.89	1083.60
526.25	1088.71
526.61	1093.21
526.97	1097.45
527.33	1101.31
527.68	1107.57
528.04	1112.88
528.40	1117.12
528.76	1120.74
529.12	1125.43
529.48	1130.83
529.84	1135.36
530.20	1140.07
530.56	1144.83
530.91	1150.14
531.27	1154.24
531.63	1158.93
531.99	1163.02
532.35	1167.52
532.71	1171.12
533.07	1175.69
533.42	1182.45
533.78	1187.40
534.14	1191.93
534.50	1196.12
534.86	1201.26
535.21	1204.57
535.57	1209.24
535.93	1213.31
536.29	1218.64
536.65	1222.81
537.00	1225.60
537.36	1229.14
537.72	1232.55
538.08	1236.24
538.44	1239.07
538.79	1242.21
539.15	1245.24
539.51	1248.83
539.87	1252.19
540.22	1255.95
540.58	1259.33
540.94	1260.43
541.29	1263.60
541.65	1266.76
542.01	1270.90
542.37	1273.24
542.72	1275.57
543.08	1278.00
543.44	1281.29
543.79	1282.83
544.15	1285.74
544.51	1289.40
544.87	1292.62
545.22	1296.36
545.58	1299.00
545.94	1302.00
546.29	1305.29
546.65	1308.24
547.01	1310.52
547.36	1314.00
547.72	1316.67
548.07	1320.12
548.43	1323.24
548.79	1324.95
549.14	1327.98
549.50	1331.14
549.86	1333.81
550.21	1336.64
550.57	1340.33
550.92	1343.07
551.28	1346.95
551.64	1350.24
551.99	1353.36
552.35	1356.88
552.70	1359.64
553.06	1363.48
553.41	1367.17
553.77	1371.98
554.13	1376.55
554.48	1381.38
554.84	1385.83
555.19	1390.14
555.55	1395.10
555.90	1399.29
556.26	1404.26
556.61	1407.62
556.97	1410.52
557.32	1414.52
557.68	1418.88
558.03	1422.69
558.39	1427.19
558.74	1431.81
559.10	1435.79
559.45	1439.98
559.81	1444.95
560.16	1448.24
560.52	1452.19
560.87	1456.86
561.23	1459.88
561.58	1465.76
561.94	1469.45
562.29	1473.17
562.64	1478.60
563.00	1482.12
563.35	1487.10
563.71	1492.00
564.06	1497.93
564.42	1503.81
564.77	1509.36
565.12	1515.60
565.48	1523.02
565.83	1529.45
566.19	1534.26
566.54	1539.43
566.89	1546.29
567.25	1552.76
567.60	1561.05
567.96	1568.79
568.31	1575.88
568.66	1582.67
569.02	1586.69
569.37	1593.05
569.72	1599.07
570.08	1603.12
570.43	1608.55
570.78	1614.21
571.14	1619.67
571.49	1625.31
571.84	1630.62
572.20	1634.83
572.55	1639.14
572.90	1642.00
573.26	1646.17
573.61	1650.48
573.96	1655.24
574.31	1658.29
574.67	1662.19
575.02	1665.00
575.37	1666.86
575.72	1669.24
576.08	1672.71
576.43	1676.00
576.78	1678.43
577.13	1681.62
577.49	1686.14
577.84	1689.17
578.19	1692.29
578.54	1695.24
578.90	1698.24
579.25	1701.36
579.60	1704.74
579.95	1706.67
580.30	1710.12
580.66	1714.02
581.01	1717.81
581.36	1719.67
581.71	1722.60
582.06	1725.69
582.42	1728.79
582.77	1731.98
583.12	1734.95
583.47	1737.29
583.82	1740.48
584.17	1743.81
584.53	1747.67
584.88	1749.24
585.23	1752.45
585.58	1754.60
585.93	1756.67
586.28	1757.90
586.63	1760.33
586.98	1762.62
587.34	1766.48
587.69	1767.52
588.04	1769.31
588.39	1771.10
588.74	1772.79
589.09	1775.69
589.44	1775.33
589.79	1777.00
590.14	1778.10
590.49	1778.69
590.84	1779.93
591.19	1781.12
591.54	1782.12
591.89	1781.57
592.25	1785.12
592.60	1785.05
592.95	1785.48
593.30	1787.10
593.65	1788.14
594.00	1787.21
594.35	1793.67
594.70	1792.76
595.05	1794.05
595.40	1793.45
595.75	1793.69
596.10	1795.69
596.45	1795.86
596.80	1797.07
597.15	1796.83
597.50	1796.83
597.85	1798.86
598.19	1799.60
598.54	1798.95
598.89	1798.98
599.24	1800.24
599.59	1799.07
599.94	1799.02
600.29	1799.02
600.64	1798.00
600.99	1797.76
601.34	1799.17
601.69	1793.98
602.04	1793.05
602.39	1792.17
602.74	1791.69
603.08	1789.98
603.43	1789.64
603.78	1787.71
604.13	1787.12
604.48	1786.33
604.83	1785.36
605.18	1783.52
605.53	1782.02
605.87	1780.29
606.22	1778.10
606.57	1776.07
606.92	1773.43
607.27	1772.17
607.62	1771.05
607.96	1770.93
608.31	1769.50
608.66	1767.98
609.01	1765.26
609.36	1764.02
609.70	1761.45
610.05	1758.83
610.40	1756.74
610.75	1752.48
611.10	1750.74
611.44	1746.40
611.79	1743.17
612.14	1740.50
612.49	1736.07
612.83	1732.69
613.18	1729.90
613.53	1726.24
613.88	1721.93
614.22	1718.14
614.57	1713.79
614.92	1708.90
615.27	1703.62
615.61	1699.31
615.96	1693.26
616.31	1688.38
616.65	1686.14
617.00	1683.21
617.35	1678.79
617.70	1674.90
618.04	1671.29
618.39	1666.05
618.74	1662.69
619.08	1657.60
619.43	1653.40
619.78	1649.79
620.12	1645.74
620.47	1641.55
620.82	1637.36
621.16	1631.95
621.51	1627.90
621.85	1622.93
622.20	1618.43
622.55	1612.81
622.89	1608.07
623.24	1604.71
623.59	1600.43
623.93	1594.05
624.28	1588.33
624.62	1585.86
624.97	1582.21
625.32	1577.45
625.66	1573.17
626.01	1568.19
626.35	1565.36
626.70	1560.40
627.04	1557.26
627.39	1552.05
627.73	1548.24
628.08	1545.29
628.43	1541.76
628.77	1537.69
629.12	1533.98
629.46	1530.21
629.81	1526.95
630.15	1521.38
630.50	1516.40
630.84	1511.71
631.19	1506.31
631.53	1501.02
631.88	1493.12
632.22	1486.45
632.57	1481.95
632.91	1476.98
633.26	1472.05
633.60	1465.93
633.95	1460.76
634.29	1453.95
634.64	1448.67
634.98	1442.24
635.32	1437.21
635.67	1432.71
636.01	1427.38
636.36	1421.74
636.70	1416.17
637.05	1410.88
637.39	1406.43
637.73	1400.55
638.08	1396.31
638.42	1391.62
638.77	1387.33
639.11	1382.50
639.45	1377.19
639.80	1370.93
640.14	1364.69
640.49	1358.76
640.83	1352.40
641.17	1347.05
641.52	1341.00
641.86	1335.64
642.20	1331.57
642.55	1324.29
642.89	1318.38
643.23	1312.00
643.58	1306.17
643.92	1298.74
644.26	1291.90
644.61	1285.98
644.95	1280.31
645.29	1272.86
645.64	1266.88
645.98	1260.36
646.32	1254.90
646.66	1248.24
647.01	1242.17
647.35	1237.48
647.69	1232.07
648.04	1226.45
648.38	1220.26
648.72	1214.19
649.06	1207.60
649.41	1199.71
649.75	1193.24
650.09	1185.52
650.43	1178.26
650.78	1170.90
651.12	1165.33
651.46	1158.60
651.80	1152.07
652.14	1145.74
652.49	1139.62
652.83	1132.64
653.17	1125.38
653.51	1117.40
653.85	1111.86
654.20	1104.71
654.54	1096.98
654.88	1089.79
655.22	1083.29
655.56	1075.83
655.90	1069.00
656.25	1062.02
656.59	1055.64
656.93	1049.21
657.27	1044.31
657.61	1037.79
657.95	1032.29
658.29	1025.74
658.64	1020.17
658.98	1013.43
659.32	1006.31
659.66	999.33
660.00	993.33
660.34	987.83
660.68	982.55
661.02	975.57
661.36	969.95
661.70	963.62
662.05	957.45
662.39	951.50
662.73	946.38
663.07	941.83
663.41	936.43
663.75	929.43
664.09	923.45
664.43	916.40
664.77	910.98
665.11	904.60
665.45	898.83
665.79	892.31
666.13	886.76
666.47	881.55
666.81	876.45
667.15	870.60
667.49	864.81
667.83	860.10
668.17	854.98
668.51	849.71
668.85	844.81
669.19	839.90
669.53	833.95
669.87	827.62
670.21	821.31
670.55	815.24
670.89	811.71
671.23	807.00
671.57	802.00
671.91	796.29
672.25	791.17
672.58	787.12
672.92	782.10
673.26	776.83
673.60	771.33
673.94	765.98
674.28	761.10
674.62	757.07
674.96	751.17
675.30	746.83
675.64	741.55
675.97	736.71
676.31	731.45
676.65	726.93
676.99	723.79
677.33	718.76
677.67	714.90
678.01	709.19
678.34	704.93
678.68	700.71
679.02	696.55
679.36	691.55
679.70	686.00
680.04	681.17
680.37	676.48
680.71	672.52
681.05	668.36
681.39	663.81
681.73	658.48
682.06	654.67
682.40	649.74
682.74	645.48
683.08	641.50
683.42	637.00
683.75	632.86
684.09	627.76
684.43	623.26
684.77	618.38
685.10	614.45
685.44	609.76
685.78	605.33
686.12	601.26
686.45	597.62
686.79	593.36
687.13	589.83
687.46	586.17
687.80	582.14
688.14	577.88
688.48	573.93
688.81	570.17
689.15	566.45
689.49	562.12
689.82	558.12
690.16	553.26
690.50	549.33
690.83	544.88
691.17	540.29
691.51	536.71
691.84	533.12
692.18	528.93
692.52	525.07
692.85	521.86
693.19	519.02
693.52	515.48
693.86	511.62
694.20	508.00
694.53	504.26
694.87	499.93
695.21	496.29
695.54	492.38
695.88	488.38
696.21	483.76
696.55	480.76
696.88	477.52
697.22	474.45
697.56	471.62
697.89	468.57
698.23	465.95
698.56	462.62
698.90	459.40
699.23	456.38
699.57	453.05
699.90	449.38
700.24	445.55
700.58	442.62
700.91	440.48
701.25	439.07
701.58	436.57
701.92	434.74
702.25	432.43
702.59	430.17
702.92	427.57
703.26	425.79
703.59	422.95
703.93	422.52
704.26	420.10
704.60	417.52
704.93	414.76
705.26	411.88
705.60	409.74
705.93	407.21
706.27	405.50
706.60	404.02
706.94	402.86
707.27	400.24
707.61	398.10
707.94	395.57
708.27	391.86
708.61	389.07
708.94	386.48
709.28	384.31
709.61	381.83
709.94	380.17
710.28	377.86
710.61	375.93
710.95	371.64
711.28	371.17
711.61	368.90
711.95	367.64
712.28	365.83
712.61	363.93
712.95	363.12
713.28	361.81
713.61	359.43
713.95	356.88
714.28	355.31
714.61	353.29
714.95	351.83
715.28	349.69
715.61	348.40
715.95	347.12
716.28	345.43
716.61	344.12
716.95	341.90
717.28	339.98
717.61	338.36
717.94	336.64
718.28	333.14
718.61	331.62
718.94	329.50
719.27	328.02
719.61	326.67
719.94	324.67
720.27	322.26
720.60	320.71
720.94	319.00
721.27	317.67
721.60	316.57
721.93	315.00
722.27	314.60
722.60	313.71
722.93	312.12
723.26	310.71
723.59	309.02
723.93	308.26
724.26	307.19
724.59	305.90
724.92	305.07
725.25	304.95
725.59	303.81
725.92	303.33
726.25	302.05
726.58	301.19
726.91	300.19
727.24	299.62
727.57	298.81
727.91	297.57
728.24	296.90
728.57	295.64
728.90	295.17
729.23	293.43
729.56	293.02
729.89	292.33
730.22	291.55
730.55	290.74
730.89	289.83
731.22	288.71
731.55	287.81
731.88	286.93
732.21	285.36
732.54	284.36
732.87	283.43
733.20	282.76
733.53	282.00
733.86	281.05
734.19	279.76
734.52	279.21
734.85	279.95
735.18	278.76
735.51	278.74
735.84	277.95
736.17	277.95
736.50	276.26
736.83	277.45
737.16	276.86
737.49	276.33
737.82	275.62
738.15	275.55
738.48	275.00
738.81	274.14
739.14	273.38
739.47	272.76
739.80	271.98
740.13	271.45
740.46	270.12
740.79	269.26
741.12	268.50
741.45	267.36
741.78	265.57
742.11	265.71
742.44	264.48
742.77	263.79
743.10	262.57
743.43	261.57
743.75	258.90
744.08	260.52
744.41	259.67
744.74	259.12
745.07	258.05
745.40	257.45
745.73	257.88
746.06	257.38
746.39	256.98
746.71	255.90
747.04	255.02
747.37	254.55
747.70	254.60
748.03	254.26
748.36	254.31
748.68	253.83
749.01	252.76
749.34	252.48
749.67	251.76
750.00	251.90
750.33	253.21
750.65	253.00
750.98	250.24
751.31	249.90
751.64	249.29
751.97	250.17
752.29	249.76
752.62	248.52
752.95	248.14
753.28	247.48
753.60	247.50
753.93	247.95
754.26	248.12
754.59	246.74
754.91	246.17
755.24	245.64
755.57	245.33
755.90	244.62
756.22	244.19
756.55	243.64
756.88	242.64
757.20	240.74
757.53	239.74
757.86	239.29
758.19	239.07
758.51	238.69
758.84	237.31
759.17	236.95
759.49	236.62
759.82	237.26
760.15	237.33
760.47	236.76
760.80	235.50
761.13	235.36
761.45	235.14
761.78	234.90
762.11	234.48
762.43	233.95
762.76	234.07
763.08	233.93
763.41	234.00
763.74	233.90
764.06	233.62
764.39	233.55
764.71	233.24
765.04	232.88
765.37	232.48
765.69	232.24
766.02	232.00
766.34	231.52
766.67	230.40
767.00	230.50
767.32	231.26
767.65	232.74
767.97	232.24
768.30	232.12
768.62	232.02
768.95	231.52
769.27	231.31
769.60	231.33
769.92	230.71
770.25	230.10
770.57	229.48
770.90	229.45
771.22	229.21
771.55	229.02
771.87	228.88
772.20	228.67
772.52	230.02
772.85	232.43
773.17	232.24
773.50	232.05
773.82	231.52
774.15	230.40
774.47	228.79
774.80	228.48
775.12	228.17
775.45	228.10
775.77	228.31
776.09	228.33
776.42	227.93
776.74	228.36
777.07	228.10
777.39	228.12
777.72	227.95
778.04	228.10
778.36	227.83
778.69	227.81
779.01	228.10
779.33	226.14
779.66	223.48
779.98	223.40
780.31	223.45
780.63	224.05
780.95	224.38
781.28	224.21
781.60	223.95
781.92	224.26
782.25	224.21
782.57	223.88
782.89	223.43
783.22	223.29
783.54	222.81
783.86	222.98
784.19	222.79
784.51	223.07
784.83	222.45
785.16	222.43
785.48	222.10
785.80	221.76
786.12	222.07
786.45	221.79
786.77	221.93
787.09	221.71
787.42	220.83
787.74	220.86
788.06	220.81
788.38	220.79
788.71	220.38
789.03	220.17
789.35	220.17
789.67	219.83
789.99	219.76
790.32	219.50
790.64	219.93
790.96	221.62
791.28	220.79
791.61	220.67
791.93	220.71
792.25	220.62
792.57	222.24
792.89	221.62
793.21	221.90
793.54	221.55
793.86	221.29
794.18	221.38
794.50	220.95
794.82	221.05
795.14	221.00
795.47	221.33
795.79	221.36
796.11	221.05
796.43	221.21
796.75	221.24
797.07	221.36
797.39	220.86
797.71	219.31
798.04	219.21
798.36	219.38
798.68	219.33
799.00	219.50
799.32	218.00
799.64	218.50
799.96	218.29
800.28	218.40
800.60	218.29
800.92	218.45
801.24	218.07
801.56	218.12
801.89	218.02
802.21	218.17
802.53	218.00
802.85	218.48
803.17	219.43
803.49	218.90
803.81	218.88
804.13	218.67
804.45	218.43
804.77	218.88
805.09	219.10
805.41	218.98
805.73	218.55
806.05	218.24
806.37	217.93
806.69	217.93
807.01	217.93
807.33	217.93
807.65	217.07
807.97	218.21
808.28	217.90
808.60	217.79
808.92	217.38
809.24	218.60
809.56	218.05
809.88	217.17
810.20	217.29
810.52	217.38
810.84	217.19
811.16	216.95
811.48	216.90
811.80	217.50
812.12	217.26
812.43	217.76
812.75	218.29
813.07	218.05
813.39	218.14
813.71	218.05
814.03	218.02
814.35	218.21
814.67	217.55
814.98	217.31
815.30	217.31
815.62	217.12
815.94	215.71
816.26	216.00
816.58	215.67
816.89	216.02
817.21	215.69
817.53	215.81
817.85	216.10
818.17	215.98
818.48	215.17
818.80	215.55
819.12	215.26
819.44	214.45
819.76	214.14
820.07	213.98
820.39	213.74
820.71	213.60
821.03	213.83
821.34	213.43
821.66	213.88
821.98	214.26
822.30	214.29
822.61	215.48
822.93	215.36
823.25	215.43
823.57	215.05
823.88	215.52
824.20	215.50
824.52	215.67
824.83	215.43
825.15	215.24
825.47	215.02
825.79	215.05
826.10	215.10
826.42	215.24
826.74	215.31
827.05	215.21
827.37	215.57
827.69	215.31
828.00	215.45
828.32	215.55
828.64	215.14
828.95	216.14
829.27	215.43
829.58	215.36
829.90	215.67
830.22	215.79
830.53	215.17
830.85	215.07
831.17	214.64
831.48	214.55
831.80	214.64
832.11	214.45
832.43	214.38
832.75	214.26
833.06	215.62
833.38	215.19
833.69	215.29
834.01	215.17
834.32	215.24
834.64	215.07
834.96	215.05
835.27	215.17
835.59	214.38
835.90	214.12
836.22	214.17
836.53	213.86
836.85	213.86
837.16	215.71
837.48	215.71
837.79	216.43
838.11	216.76
838.42	216.67
838.74	217.19
839.05	216.95
839.37	217.10
839.68	215.79
840.00	215.88
840.31	216.31
840.63	216.29
840.94	216.12
841.26	216.07
841.57	216.02
841.88	215.98
842.20	215.62
842.51	215.33
842.83	215.21
843.14	217.02
843.46	217.07
843.77	216.14
844.08	215.98
844.40	215.31
844.71	215.14
845.03	215.00
845.34	214.69
845.65	214.55
845.97	214.43
846.28	214.52
846.60	214.43
846.91	214.00
847.22	214.00
847.54	214.45
847.85	214.45
848.16	214.26
848.48	213.95
848.79	214.83
849.10	215.26
849.42	215.33
849.73	213.40
850.04	213.10
850.36	212.40
850.67	212.67
850.98	212.50
851.30	212.76
851.61	212.81
851.92	212.57
852.23	213.57
852.55	213.95
852.86	214.07
853.17	214.57
853.49	214.76
853.80	215.36
854.11	215.50
854.42	215.83
854.74	215.60
855.05	215.60
855.36	214.81
855.67	214.69
855.99	214.74
856.30	217.05
856.61	217.05
856.92	217.14
857.23	217.12
857.55	217.12
857.86	216.88
858.17	217.10
858.48	217.00
858.79	216.29
859.11	216.21
859.42	216.12
859.73	215.76
860.04	215.88
860.35	215.02
860.66	214.38
860.98	214.17
861.29	214.57
861.60	214.62
861.91	214.93
862.22	214.71
862.53	214.36
862.84	211.93
863.16	212.76
863.47	212.43
863.78	212.33
864.09	212.62
864.40	212.93
864.71	212.81
865.02	213.17
865.33	213.10
865.64	212.79
865.95	212.45
866.27	213.71
866.58	213.45
866.89	213.60
867.20	213.50
867.51	213.36
867.82	213.05
868.13	213.67
868.44	213.07
868.75	213.43
869.06	213.55
869.37	214.00
869.68	213.02
869.99	213.31
870.30	213.43
870.61	213.40
870.92	212.93
871.23	212.86
871.54	213.00
871.85	213.38
872.16	213.69
872.47	213.88
872.78	212.74
873.09	213.02
873.40	212.95
873.71	212.98
874.02	213.00
874.33	212.79
874.64	212.12
874.95	212.69
875.26	212.19
875.56	212.55
875.87	212.19
876.18	212.21
876.49	214.52
876.80	214.31
877.11	214.07
877.42	214.24
877.73	214.21
878.04	213.76
878.35	213.67
878.66	213.74
878.96	213.62
879.27	213.60
879.58	213.55
879.89	213.52
880.20	214.10
880.51	214.05
880.82	214.24
881.12	214.45
881.43	213.95
881.74	213.88
882.05	213.40
882.36	213.69
882.67	213.79
882.97	211.17
883.28	211.10
883.59	211.05
883.90	211.19
884.21	211.38
884.51	211.45
884.82	211.12
885.13	211.02
885.44	211.02
885.74	210.81
886.05	210.76
886.36	210.79
886.67	210.24
886.98	211.21
887.28	211.40
887.59	211.43
887.90	211.38
888.20	211.21
888.51	211.60
888.82	211.12
889.13	211.19
889.43	212.93
889.74	212.81
890.05	212.83
890.35	212.71
890.66	212.50
890.97	212.43
891.28	212.29
891.58	212.10
891.89	212.26
892.20	212.36
892.50	212.07
892.81	211.98
893.12	212.14
893.42	211.17
893.73	211.24
894.04	211.36
894.34	211.62
894.65	211.71
894.95	211.50
895.26	211.74
895.57	212.81
895.87	211.02
896.18	211.38
896.48	211.60
896.79	211.33
897.10	211.79
897.40	211.71
897.71	212.00
898.01	212.17
898.32	212.24
898.63	212.00
898.93	211.93
899.24	211.83
899.54	211.43
899.85	211.33
900.15	211.21
900.46	211.17
900.76	211.31
901.07	211.26
901.38	211.40
901.68	211.52
901.99	210.48
902.29	210.52
902.60	210.31
902.90	210.10
903.21	210.02
903.51	209.69
903.82	210.38
904.12	210.36
904.43	210.19
904.73	210.19
905.03	210.57
905.34	212.71
905.64	212.76
905.95	212.93
906.25	212.93
906.56	212.43
906.86	212.50
907.17	212.33
907.47	212.29
907.77	212.07
908.08	211.83
908.38	211.88
908.69	212.43
908.99	212.81
909.30	212.93
909.60	213.02
909.90	213.26
910.21	212.52
910.51	212.52
910.81	212.62
911.12	212.74
911.42	212.52
911.73	210.45
912.03	210.62
912.33	210.95
912.64	211.05
912.94	211.29
913.24	210.93
913.55	210.79
913.85	210.86
914.15	211.24
914.46	211.31
914.76	211.31
915.06	210.79
915.37	210.50
915.67	210.33
915.97	210.55
916.27	209.98
916.58	210.00
916.88	209.76
917.18	209.90
917.49	211.26
917.79	211.31
918.09	211.57
918.39	212.00
918.70	211.98
919.00	211.93
919.30	212.90
919.60	212.86
919.91	212.57
920.21	212.71
920.51	212.19
920.81	212.07
921.12	212.29
921.42	212.40
921.72	212.55
922.02	212.74
922.32	212.79
922.63	212.95
922.93	214.14
923.23	214.38
923.53	213.88
923.83	212.60
924.13	212.67
924.44	212.55
924.74	212.86
925.04	213.21
925.34	213.14
925.64	212.26
925.94	212.21
926.24	213.52
926.55	213.40
926.85	213.98
927.15	214.26
927.45	214.17
927.75	214.14
928.05	214.24
928.35	213.93
928.65	214.31
928.95	214.79
929.26	213.98
929.56	214.19
929.86	214.50
930.16	214.14
930.46	213.90
930.76	214.21
931.06	213.43
931.36	212.98
931.66	213.45
931.96	213.48
932.26	213.74
932.56	213.14
932.86	213.24
933.16	213.24
933.46	212.74
933.76	212.55
934.06	213.00
934.36	213.55
934.66	213.57
934.96	213.50
935.26	213.48
935.56	213.64
935.86	213.07
936.16	212.90
936.46	212.81
936.76	212.69
937.06	212.21
937.36	212.21
937.66	212.36
937.96	212.12
938.26	211.88
938.56	211.52
938.86	211.48
939.16	211.95
939.46	212.02
939.76	212.50
940.06	212.52
940.35	212.14
940.65	211.14
940.95	211.40
941.25	210.86
941.55	210.50
941.85	210.26
942.15	210.90
942.45	211.33
942.75	211.33
943.04	211.62
943.34	212.26
943.64	212.05
943.94	211.74
944.24	211.74
944.54	212.14
944.84	212.43
945.13	211.88
945.43	211.55
945.73	211.33
946.03	211.12
946.33	210.95
946.62	210.76
946.92	210.83
947.22	210.88
947.52	211.07
947.82	211.33
948.11	211.17
948.41	210.52
948.71	210.02
949.01	210.21
949.31	210.02
949.60	209.67
949.90	210.00
950.20	210.00
950.50	210.14
950.79	209.71
951.09	209.86
951.39	210.07
951.69	209.69
951.98	210.29
952.28	210.45
952.58	210.43
952.87	210.38
953.17	210.69
953.47	210.45
953.76	210.57
954.06	210.33
954.36	210.21
954.66	210.38
954.95	211.00
955.25	211.21
955.55	211.36
955.84	211.00
956.14	211.33
956.44	211.31
956.73	210.74
957.03	210.95
957.32	210.88
957.62	210.86
957.92	211.36
958.21	211.26
958.51	213.60
958.81	213.93
959.10	214.31
959.40	214.88
959.69	215.12
959.99	215.14
960.29	215.14
960.58	215.14
960.88	215.81
961.17	215.43
961.47	215.43
961.76	215.43
962.06	215.98
962.36	215.36
962.65	215.76
962.95	216.12
963.24	216.05
963.54	216.00
963.83	216.00
964.13	215.90
964.42	214.95
964.72	213.29
965.01	213.40
965.31	213.12
965.60	212.29
965.90	213.45
966.19	213.12
966.49	213.21
966.78	212.88
967.08	212.74
967.37	212.83
967.67	212.55
967.96	213.02
968.26	212.71
968.55	213.33
968.85	213.05
969.14	212.90
969.43	212.95
969.73	212.93
970.02	213.05
970.32	212.90
970.61	212.95
970.91	212.45
971.20	211.74
971.49	211.71
971.79	212.21
972.08	210.76
972.38	210.90
972.67	211.05
972.96	211.71
973.26	211.55
973.55	212.29
973.85	212.14
974.14	211.67
974.43	211.90
974.73	211.48
975.02	211.21
975.31	211.19
975.61	211.12
975.90	210.95
976.19	210.79
976.49	210.95
976.78	211.14
977.07	210.93
977.37	211.38
977.66	211.50
977.95	211.07
978.24	211.19
978.54	211.60
978.83	211.31
979.12	210.95
979.42	210.79
979.71	210.17
980.00	210.02
980.29	210.21
980.59	209.79
980.88	210.29
981.17	210.33
981.46	210.50
981.76	210.45
982.05	211.02
982.34	210.90
982.63	210.79
982.93	210.71
983.22	211.19
983.51	211.38
983.80	211.74
984.09	212.07
984.39	211.95
984.68	211.76
984.97	212.02
985.26	211.90
985.55	212.14
985.85	211.95
986.14	212.57
986.43	212.55
986.72	212.40
987.01	211.88
987.30	211.83
987.59	211.81
987.89	211.93
988.18	211.45
988.47	211.31
988.76	211.17
989.05	211.29
989.34	210.95
989.63	211.29
989.92	210.86
990.22	210.50
990.51	210.57
990.80	210.31
991.09	210.33
991.38	210.62
991.67	210.33
991.96	210.05
992.25	209.98
992.54	209.79
992.83	210.00
993.12	209.81
993.41	210.19
993.70	210.98
993.99	211.24
994.28	211.43
994.58	211.86
994.87	211.69
995.16	211.38
995.45	211.33
995.74	210.74
996.03	211.00
996.32	211.45
996.61	211.88
996.90	211.86
997.19	211.79
997.48	211.67
997.77	211.50
998.06	211.76
998.34	211.57
998.63	211.52
998.92	211.50
999.21	211.95
999.50	212.00
999.79	211.10
1000.08	211.12
1000.37	211.02
1000.66	210.71
1000.95	211.29
1001.24	211.57
1001.53	211.93
1001.82	211.79
1002.11	211.40
1002.40	211.55
1002.68	211.79
1002.97	213.38
1003.26	213.00
1003.55	212.93
1003.84	213.02
1004.13	213.57
1004.42	213.40
1004.71	213.36
1004.99	213.07
1005.28	213.24
1005.57	213.00
1005.86	212.88
1006.15	212.60
1006.44	212.21
1006.72	212.36
1007.01	212.07
1007.30	211.93
1007.59	211.40
1007.88	211.40
1008.17	211.67
1008.45	211.02
1008.74	210.24
1009.03	209.02
1009.32	209.00
1009.60	208.86
1009.89	208.93
1010.18	208.07
1010.47	208.10
1010.76	208.17
1011.04	208.48
1011.33	208.71
1011.62	208.93
1011.91	208.81
1012.19	208.74
1012.48	209.10
1012.77	209.12
1013.05	209.86
1013.34	210.00
1013.63	209.98
1013.92	210.17
1014.20	209.74
1014.49	210.02
1014.78	210.29
1015.06	209.83
1015.35	209.83
1015.64	210.26
1015.92	210.60
1016.21	210.86
1016.50	210.86
1016.78	211.10
1017.07	211.29
1017.36	210.88
1017.64	210.67
1017.93	211.19
1018.22	211.10
1018.50	211.05
1018.79	211.00
1019.08	210.38
1019.36	210.50
1019.65	210.31
1019.93	210.62
1020.22	211.14
1020.51	212.17
1020.79	211.88
1021.08	206.00
1021.36	209.50
1021.65	208.50
1021.94	213.50
1022.22	213.50
1022.51	203.50
1022.79	216.50
1023.08	214.50
1023.36	235.00
1023.65	204.50
>>>>>End Processed Spectral Data<<<<<
