SpectraSuite Data File
++++++++++++++++++++++++++++++++++++
Date: Tue Apr 02 18:39:52 EDT 2013
User: group
Dark Spectrum Present: No
Reference Spectrum Present: No
Number of Sampled Component Spectra: 1
Spectrometers: USB2E7196
Integration Time (usec): 580000 (USB2E7196)
Spectra Averaged: 2 (USB2E7196)
Boxcar Smoothing: 10 (USB2E7196)
Correct for Electrical Dark: No (USB2E7196)
Strobe/Lamp Enabled: No (USB2E7196)
Correct for Detector Non-linearity: No (USB2E7196)
Correct for Stray Light: No (USB2E7196)
Number of Pixels in Processed Spectrum: 2048
>>>>>Begin Processed Spectral Data<<<<<
339.09	0.00
339.48	195.00
339.86	194.00
340.24	196.00
340.63	198.50
341.01	230.50
341.39	198.00
341.78	205.50
342.16	213.00
342.54	205.00
342.93	197.79
343.31	207.60
343.69	208.17
344.07	208.76
344.46	209.71
344.84	210.40
345.22	209.33
345.60	209.93
345.99	210.21
346.37	210.10
346.75	210.26
347.13	210.52
347.52	210.64
347.90	211.36
348.28	211.29
348.66	211.86
349.05	211.36
349.43	211.74
349.81	212.07
350.19	212.36
350.57	212.64
350.96	212.48
351.34	212.86
351.72	213.07
352.10	213.12
352.48	212.79
352.87	212.55
353.25	212.50
353.63	212.40
354.01	212.57
354.39	212.81
354.77	212.81
355.15	213.33
355.54	213.02
355.92	212.38
356.30	212.48
356.68	213.83
357.06	214.00
357.44	213.74
357.82	213.43
358.20	214.26
358.58	214.02
358.97	214.55
359.35	214.93
359.73	215.21
360.11	215.33
360.49	215.57
360.87	215.90
361.25	216.33
361.63	217.26
362.01	217.21
362.39	216.88
362.77	217.17
363.15	217.07
363.53	217.24
363.91	217.57
364.29	217.62
364.67	215.64
365.05	215.69
365.43	216.12
365.81	216.52
366.19	216.62
366.57	217.88
366.95	217.60
367.33	217.02
367.71	217.00
368.09	217.43
368.47	217.62
368.85	217.71
369.23	218.19
369.61	217.48
369.99	218.12
370.37	218.76
370.75	219.83
371.13	219.43
371.51	219.07
371.89	219.19
372.27	219.19
372.65	219.21
373.03	219.19
373.41	218.93
373.78	218.93
374.16	217.83
374.54	216.88
374.92	216.62
375.30	216.76
375.68	216.26
376.06	216.29
376.44	216.02
376.82	215.86
377.19	215.71
377.57	215.60
377.95	214.95
378.33	214.67
378.71	213.26
379.09	213.43
379.47	213.83
379.84	213.50
380.22	213.52
380.60	213.50
380.98	213.52
381.36	213.45
381.73	213.07
382.11	213.50
382.49	213.57
382.87	213.40
383.25	213.45
383.62	216.14
384.00	216.00
384.38	215.86
384.76	216.31
385.13	216.95
385.51	217.05
385.89	216.86
386.27	216.93
386.64	217.19
387.02	217.12
387.40	216.88
387.78	217.05
388.15	217.10
388.53	217.00
388.91	217.24
389.29	217.14
389.66	217.50
390.04	217.29
390.42	217.55
390.79	217.74
391.17	217.52
391.55	215.07
391.92	214.98
392.30	215.31
392.68	214.90
393.05	214.74
393.43	214.69
393.81	214.76
394.18	214.43
394.56	214.52
394.94	214.86
395.31	214.74
395.69	215.24
396.06	215.64
396.44	215.79
396.82	215.40
397.19	216.40
397.57	216.24
397.95	216.60
398.32	216.07
398.70	216.62
399.07	217.21
399.45	217.12
399.82	217.05
400.20	216.76
400.58	216.76
400.95	216.00
401.33	216.36
401.70	217.67
402.08	218.00
402.45	218.02
402.83	218.52
403.20	218.81
403.58	218.74
403.95	218.95
404.33	219.48
404.71	219.86
405.08	221.14
405.46	221.21
405.83	221.52
406.21	221.86
406.58	222.02
406.96	222.33
407.33	223.33
407.70	224.12
408.08	226.60
408.45	227.40
408.83	228.60
409.20	229.21
409.58	228.90
409.95	229.88
410.33	230.81
410.70	231.43
411.08	232.79
411.45	233.93
411.82	234.62
412.20	236.05
412.57	238.55
412.95	238.33
413.32	240.48
413.69	242.24
414.07	244.05
414.44	246.02
414.82	248.07
415.19	250.67
415.56	253.12
415.94	254.24
416.31	257.40
416.68	260.45
417.06	264.00
417.43	267.71
417.81	271.60
418.18	275.62
418.55	279.71
418.93	283.79
419.30	288.33
419.67	293.55
420.04	298.43
420.42	302.93
420.79	310.40
421.16	316.38
421.54	323.62
421.91	330.67
422.28	337.45
422.66	344.40
423.03	352.62
423.40	359.98
423.77	368.05
424.15	375.93
424.52	384.00
424.89	393.05
425.26	401.76
425.64	410.14
426.01	419.52
426.38	429.00
426.75	439.57
427.13	449.83
427.50	460.36
427.87	471.17
428.24	481.95
428.61	491.62
428.99	503.86
429.36	515.36
429.73	527.55
430.10	539.74
430.47	552.40
430.85	563.95
431.22	577.48
431.59	593.21
431.96	607.17
432.33	622.57
432.70	637.45
433.08	654.90
433.45	671.64
433.82	687.95
434.19	706.38
434.56	725.00
434.93	742.14
435.30	759.55
435.68	778.57
436.05	797.55
436.42	815.81
436.79	832.86
437.16	851.50
437.53	870.43
437.90	890.48
438.27	910.21
438.64	930.07
439.01	949.07
439.38	964.38
439.75	980.31
440.13	999.26
440.50	1016.40
440.87	1029.79
441.24	1044.48
441.61	1060.14
441.98	1071.64
442.35	1084.19
442.72	1097.93
443.09	1111.86
443.46	1120.31
443.83	1126.17
444.20	1131.76
444.57	1138.60
444.94	1141.93
445.31	1146.93
445.68	1152.86
446.05	1154.57
446.42	1153.29
446.79	1152.02
447.16	1149.00
447.53	1147.76
447.90	1140.07
448.27	1133.26
448.64	1124.69
449.01	1117.29
449.37	1105.19
449.74	1093.21
450.11	1081.02
450.48	1065.48
450.85	1048.38
451.22	1034.50
451.59	1021.14
451.96	1007.71
452.33	990.38
452.70	975.31
453.07	955.67
453.43	934.02
453.80	915.76
454.17	898.86
454.54	882.10
454.91	865.24
455.28	847.83
455.65	831.55
456.02	818.64
456.38	804.29
456.75	786.95
457.12	772.83
457.49	758.79
457.86	742.83
458.23	731.83
458.59	719.45
458.96	706.62
459.33	695.33
459.70	684.26
460.07	675.26
460.43	664.36
460.80	655.33
461.17	647.57
461.54	638.45
461.91	629.29
462.27	619.90
462.64	612.14
463.01	604.10
463.38	596.93
463.74	585.24
464.11	578.26
464.48	572.64
464.85	565.86
465.21	561.43
465.58	556.14
465.95	548.71
466.32	543.45
466.68	537.62
467.05	531.81
467.42	526.12
467.78	520.10
468.15	514.74
468.52	510.57
468.88	504.17
469.25	499.24
469.62	495.26
469.98	490.81
470.35	487.12
470.72	483.21
471.08	478.52
471.45	475.67
471.82	472.40
472.18	468.05
472.55	465.14
472.92	461.02
473.28	457.95
473.65	455.07
474.02	451.74
474.38	449.64
474.75	447.76
475.11	445.33
475.48	443.45
475.85	441.67
476.21	439.50
476.58	438.02
476.94	436.95
477.31	435.52
477.67	434.50
478.04	433.07
478.41	432.00
478.77	433.14
479.14	431.57
479.50	430.90
479.87	431.14
480.23	430.83
480.60	430.43
480.96	430.55
481.33	430.90
481.69	431.26
482.06	431.40
482.42	431.67
482.79	432.17
483.15	433.17
483.52	434.17
483.88	434.48
484.25	435.38
484.61	436.33
484.98	437.21
485.34	439.26
485.71	441.10
486.07	442.76
486.44	442.60
486.80	444.86
487.17	446.50
487.53	448.88
487.90	451.29
488.26	454.45
488.62	456.71
488.99	458.83
489.35	461.60
489.72	464.60
490.08	467.62
490.44	470.81
490.81	474.67
491.17	477.74
491.54	482.12
491.90	486.33
492.26	489.86
492.63	494.31
492.99	497.67
493.36	502.40
493.72	506.67
494.08	511.55
494.45	516.93
494.81	522.57
495.17	527.64
495.54	533.07
495.90	538.21
496.26	544.36
496.63	550.52
496.99	556.45
497.35	562.74
497.72	569.33
498.08	575.76
498.44	581.69
498.80	589.12
499.17	595.55
499.53	602.07
499.89	609.79
500.26	617.05
500.62	624.60
500.98	632.50
501.34	640.21
501.71	648.14
502.07	655.33
502.43	662.98
502.79	670.12
503.16	678.24
503.52	686.45
503.88	694.12
504.24	702.50
504.60	711.14
504.97	719.88
505.33	727.93
505.69	737.17
506.05	745.74
506.41	754.60
506.78	763.62
507.14	772.10
507.50	780.86
507.86	789.14
508.22	798.50
508.59	806.52
508.95	815.38
509.31	825.57
509.67	834.69
510.03	843.21
510.39	852.98
510.75	861.79
511.12	870.48
511.48	879.21
511.84	888.00
512.20	896.52
512.56	905.17
512.92	913.79
513.28	922.00
513.64	930.36
514.00	938.69
514.37	946.45
514.73	955.48
515.09	964.00
515.45	972.69
515.81	980.74
516.17	988.21
516.53	995.93
516.89	1001.67
517.25	1009.69
517.61	1018.86
517.97	1026.74
518.33	1034.71
518.69	1042.52
519.05	1050.55
519.41	1058.71
519.77	1067.48
520.13	1074.57
520.49	1081.48
520.85	1088.69
521.21	1096.88
521.57	1103.83
521.93	1111.43
522.29	1118.33
522.65	1124.79
523.01	1132.38
523.37	1138.36
523.73	1146.12
524.09	1152.79
524.45	1159.93
524.81	1166.71
525.17	1172.02
525.53	1178.17
525.89	1183.40
526.25	1190.05
526.61	1195.14
526.97	1199.90
527.33	1204.79
527.68	1212.57
528.04	1218.93
528.40	1224.50
528.76	1230.26
529.12	1236.14
529.48	1242.60
529.84	1247.64
530.20	1253.79
530.56	1258.74
530.91	1265.67
531.27	1270.95
531.63	1276.60
531.99	1280.98
532.35	1285.40
532.71	1291.29
533.07	1296.48
533.42	1305.05
533.78	1310.29
534.14	1316.40
534.50	1322.14
534.86	1328.48
535.21	1331.40
535.57	1337.83
535.93	1343.43
536.29	1348.74
536.65	1353.86
537.00	1357.71
537.36	1362.69
537.72	1366.55
538.08	1371.50
538.44	1374.74
538.79	1380.43
539.15	1384.74
539.51	1390.86
539.87	1396.10
540.22	1399.69
540.58	1404.55
540.94	1406.83
541.29	1411.29
541.65	1414.88
542.01	1419.62
542.37	1422.93
542.72	1426.50
543.08	1428.64
543.44	1432.14
543.79	1433.98
544.15	1438.14
544.51	1442.36
544.87	1446.86
545.22	1451.50
545.58	1455.17
545.94	1459.19
546.29	1461.31
546.65	1465.55
547.01	1468.55
547.36	1471.45
547.72	1475.31
548.07	1478.95
548.43	1481.83
548.79	1483.88
549.14	1487.98
549.50	1491.40
549.86	1493.55
550.21	1497.86
550.57	1502.64
550.92	1506.14
551.28	1511.24
551.64	1515.10
551.99	1518.45
552.35	1521.79
552.70	1525.07
553.06	1528.55
553.41	1532.43
553.77	1537.81
554.13	1541.93
554.48	1547.57
554.84	1553.86
555.19	1557.57
555.55	1561.88
555.90	1566.60
556.26	1571.83
556.61	1575.14
556.97	1578.10
557.32	1583.17
557.68	1587.48
558.03	1591.36
558.39	1596.14
558.74	1600.38
559.10	1603.55
559.45	1608.38
559.81	1612.79
560.16	1617.31
560.52	1622.29
560.87	1627.45
561.23	1630.81
561.58	1636.62
561.94	1639.93
562.29	1642.48
562.64	1648.26
563.00	1652.36
563.35	1657.05
563.71	1662.17
564.06	1666.79
564.42	1671.83
564.77	1676.90
565.12	1682.81
565.48	1689.52
565.83	1694.57
566.19	1700.21
566.54	1706.12
566.89	1711.50
567.25	1717.43
567.60	1724.00
567.96	1730.14
568.31	1735.48
568.66	1741.93
569.02	1745.60
569.37	1749.79
569.72	1754.50
570.08	1758.31
570.43	1762.50
570.78	1766.71
571.14	1770.76
571.49	1775.17
571.84	1779.71
572.20	1782.90
572.55	1785.95
572.90	1787.50
573.26	1790.24
573.61	1792.21
573.96	1795.12
574.31	1797.10
574.67	1799.67
575.02	1800.76
575.37	1800.45
575.72	1801.50
576.08	1803.07
576.43	1805.29
576.78	1806.71
577.13	1808.88
577.49	1810.57
577.84	1812.90
578.19	1814.90
578.54	1816.60
578.90	1818.55
579.25	1819.67
579.60	1820.69
579.95	1821.00
580.30	1822.76
580.66	1825.05
581.01	1826.93
581.36	1826.98
581.71	1828.26
582.06	1828.93
582.42	1830.38
582.77	1830.90
583.12	1831.48
583.47	1830.81
583.82	1830.62
584.17	1831.57
584.53	1832.21
584.88	1832.26
585.23	1832.95
585.58	1832.21
585.93	1831.38
586.28	1831.17
586.63	1831.29
586.98	1831.76
587.34	1832.76
587.69	1831.95
588.04	1830.12
588.39	1828.31
588.74	1826.50
589.09	1825.38
589.44	1823.19
589.79	1822.07
590.14	1822.62
590.49	1820.95
590.84	1819.43
591.19	1817.93
591.54	1816.33
591.89	1814.36
592.25	1815.10
592.60	1811.98
592.95	1811.29
593.30	1810.95
593.65	1808.98
594.00	1805.76
594.35	1809.24
594.70	1804.86
595.05	1802.98
595.40	1800.93
595.75	1799.83
596.10	1799.62
596.45	1797.90
596.80	1797.17
597.15	1795.02
597.50	1792.29
597.85	1792.00
598.19	1790.24
598.54	1788.74
598.89	1786.55
599.24	1784.71
599.59	1780.24
599.94	1777.95
600.29	1775.21
600.64	1771.55
600.99	1769.26
601.34	1769.10
601.69	1761.14
602.04	1759.86
602.39	1756.64
602.74	1754.38
603.08	1751.17
603.43	1748.79
603.78	1745.29
604.13	1742.33
604.48	1739.05
604.83	1737.26
605.18	1733.36
605.53	1730.62
605.87	1726.79
606.22	1723.38
606.57	1719.36
606.92	1715.19
607.27	1712.52
607.62	1709.12
607.96	1706.31
608.31	1703.50
608.66	1698.69
609.01	1693.86
609.36	1690.33
609.70	1685.86
610.05	1681.40
610.40	1677.71
610.75	1672.12
611.10	1669.33
611.44	1664.21
611.79	1658.81
612.14	1653.86
612.49	1648.48
612.83	1642.95
613.18	1638.55
613.53	1633.50
613.88	1628.69
614.22	1624.76
614.57	1618.33
614.92	1612.14
615.27	1606.62
615.61	1600.88
615.96	1595.31
616.31	1590.50
616.65	1585.76
617.00	1581.93
617.35	1576.95
617.70	1570.71
618.04	1565.50
618.39	1558.14
618.74	1552.19
619.08	1547.14
619.43	1541.02
619.78	1536.19
620.12	1531.36
620.47	1526.14
620.82	1520.05
621.16	1513.57
621.51	1508.14
621.85	1502.88
622.20	1497.21
622.55	1490.52
622.89	1484.50
623.24	1479.31
623.59	1473.10
623.93	1466.36
624.28	1460.07
624.62	1456.43
624.97	1452.52
625.32	1447.17
625.66	1442.21
626.01	1436.79
626.35	1431.24
626.70	1425.24
627.04	1419.38
627.39	1413.43
627.73	1407.79
628.08	1402.86
628.43	1398.05
628.77	1390.81
629.12	1385.50
629.46	1380.24
629.81	1374.90
630.15	1369.00
630.50	1362.79
630.84	1356.88
631.19	1350.57
631.53	1344.36
631.88	1335.31
632.22	1327.50
632.57	1321.64
632.91	1315.02
633.26	1308.62
633.60	1302.48
633.95	1296.31
634.29	1289.98
634.64	1284.07
634.98	1276.64
635.32	1271.40
635.67	1265.57
636.01	1260.95
636.36	1253.83
636.70	1248.43
637.05	1242.64
637.39	1236.05
637.73	1230.02
638.08	1226.10
638.42	1220.50
638.77	1215.48
639.11	1210.24
639.45	1203.88
639.80	1197.24
640.14	1191.43
640.49	1185.60
640.83	1178.83
641.17	1172.76
641.52	1166.21
641.86	1159.90
642.20	1154.81
642.55	1147.14
642.89	1140.45
643.23	1133.55
643.58	1128.19
643.92	1120.33
644.26	1113.76
644.61	1108.12
644.95	1101.38
645.29	1093.19
645.64	1087.14
645.98	1079.64
646.32	1073.02
646.66	1066.07
647.01	1059.31
647.35	1053.14
647.69	1046.52
648.04	1041.00
648.38	1034.36
648.72	1027.48
649.06	1020.76
649.41	1013.81
649.75	1007.64
650.09	1000.81
650.43	993.98
650.78	987.38
651.12	981.02
651.46	974.57
651.80	967.17
652.14	960.93
652.49	955.40
652.83	949.21
653.17	942.52
653.51	935.79
653.85	930.71
654.20	924.62
654.54	917.12
654.88	910.74
655.22	904.24
655.56	898.57
655.90	892.79
656.25	886.40
656.59	880.17
656.93	874.55
657.27	870.00
657.61	864.10
657.95	858.17
658.29	852.29
658.64	846.79
658.98	841.38
659.32	835.52
659.66	829.00
660.00	822.71
660.34	817.38
660.68	811.52
661.02	804.79
661.36	798.48
661.70	794.24
662.05	788.90
662.39	783.67
662.73	778.48
663.07	774.64
663.41	769.38
663.75	763.95
664.09	758.02
664.43	751.02
664.77	745.88
665.11	740.50
665.45	735.67
665.79	729.57
666.13	724.71
666.47	719.40
666.81	714.26
667.15	708.57
667.49	703.19
667.83	699.71
668.17	695.45
668.51	690.45
668.85	685.29
669.19	681.60
669.53	675.79
669.87	670.29
670.21	664.14
670.55	659.21
670.89	655.19
671.23	650.79
671.57	647.12
671.91	642.71
672.25	637.71
672.58	633.79
672.92	629.55
673.26	625.10
673.60	620.98
673.94	616.93
674.28	613.29
674.62	609.71
674.96	604.33
675.30	600.45
675.64	597.17
675.97	593.19
676.31	588.26
676.65	584.43
676.99	581.17
677.33	577.36
677.67	573.45
678.01	568.69
678.34	565.24
678.68	561.50
679.02	557.21
679.36	554.05
679.70	549.98
680.04	546.40
680.37	542.43
680.71	538.62
681.05	535.24
681.39	531.60
681.73	527.43
682.06	524.07
682.40	520.48
682.74	517.33
683.08	514.50
683.42	510.76
683.75	507.69
684.09	503.50
684.43	499.95
684.77	496.95
685.10	494.21
685.44	491.00
685.78	487.33
686.12	484.17
686.45	480.67
686.79	477.17
687.13	474.00
687.46	471.17
687.80	468.86
688.14	465.57
688.48	462.86
688.81	459.71
689.15	457.19
689.49	453.88
689.82	450.90
690.16	447.12
690.50	444.50
690.83	440.90
691.17	438.21
691.51	435.26
691.84	432.45
692.18	429.55
692.52	426.60
692.85	424.19
693.19	422.64
693.52	420.17
693.86	417.40
694.20	414.90
694.53	412.29
694.87	408.95
695.21	406.43
695.54	403.43
695.88	401.02
696.21	397.95
696.55	395.38
696.88	392.98
697.22	390.43
697.56	388.19
697.89	386.55
698.23	384.62
698.56	382.48
698.90	380.31
699.23	377.86
699.57	375.55
699.90	373.38
700.24	370.69
700.58	368.52
700.91	366.98
701.25	366.69
701.58	365.26
701.92	363.79
702.25	362.02
702.59	360.14
702.92	358.24
703.26	356.81
703.59	355.29
703.93	355.21
704.26	354.02
704.60	352.21
704.93	350.31
705.26	348.05
705.60	346.74
705.93	344.86
706.27	343.64
706.60	342.48
706.94	341.71
707.27	339.95
707.61	338.60
707.94	336.83
708.27	333.64
708.61	331.36
708.94	329.83
709.28	328.12
709.61	326.79
709.94	325.69
710.28	324.17
710.61	322.93
710.95	319.45
711.28	319.40
711.61	318.33
711.95	317.57
712.28	316.40
712.61	314.90
712.95	314.79
713.28	314.43
713.61	312.93
713.95	310.95
714.28	309.67
714.61	308.19
714.95	307.10
715.28	305.62
715.61	304.83
715.95	303.76
716.28	302.83
716.61	302.05
716.95	300.76
717.28	299.64
717.61	298.45
717.94	297.55
718.28	294.74
718.61	293.33
718.94	292.10
719.27	291.24
719.61	290.21
719.94	288.52
720.27	286.48
720.60	285.21
720.94	284.17
721.27	283.62
721.60	283.12
721.93	282.00
722.27	282.21
722.60	281.52
722.93	280.10
723.26	279.43
723.59	278.17
723.93	277.64
724.26	276.90
724.59	276.21
724.92	275.45
725.25	275.38
725.59	274.71
725.92	273.90
726.25	273.07
726.58	272.62
726.91	271.88
727.24	271.38
727.57	271.10
727.91	270.10
728.24	269.62
728.57	268.81
728.90	268.24
729.23	266.76
729.56	266.88
729.89	266.64
730.22	265.69
730.55	265.24
730.89	264.57
731.22	263.93
731.55	263.24
731.88	262.93
732.21	261.95
732.54	261.33
732.87	260.67
733.20	260.40
733.53	260.12
733.86	259.76
734.19	259.00
734.52	258.36
734.85	259.40
735.18	258.48
735.51	258.50
735.84	258.33
736.17	258.67
736.50	257.31
736.83	259.24
737.16	258.83
737.49	258.60
737.82	257.79
738.15	257.69
738.48	257.36
738.81	256.60
739.14	256.14
739.47	255.62
739.80	255.24
740.13	254.93
740.46	253.90
740.79	253.33
741.12	253.02
741.45	252.52
741.78	250.81
742.11	250.83
742.44	250.10
742.77	249.79
743.10	248.81
743.43	248.21
743.75	245.71
744.08	248.02
744.41	247.36
744.74	247.10
745.07	246.10
745.40	246.17
745.73	246.88
746.06	246.38
746.39	246.40
746.71	245.90
747.04	245.05
747.37	244.88
747.70	244.98
748.03	244.69
748.36	244.69
748.68	244.40
749.01	243.88
749.34	243.69
749.67	243.36
750.00	243.33
750.33	244.64
750.65	244.62
750.98	241.69
751.31	241.52
751.64	241.26
751.97	242.07
752.29	241.38
752.62	240.17
752.95	240.00
753.28	239.26
753.60	239.00
753.93	239.43
754.26	239.24
754.59	238.07
754.91	237.71
755.24	237.24
755.57	236.98
755.90	236.52
756.22	235.93
756.55	235.31
756.88	234.57
757.20	232.81
757.53	231.74
757.86	231.57
758.19	231.55
758.51	231.64
758.84	230.36
759.17	229.95
759.49	229.98
759.82	230.88
760.15	231.07
760.47	230.67
760.80	229.98
761.13	230.14
761.45	229.95
761.78	229.71
762.11	229.60
762.43	229.40
762.76	229.21
763.08	229.43
763.41	229.55
763.74	229.60
764.06	229.43
764.39	229.45
764.71	229.38
765.04	228.79
765.37	228.33
765.69	228.26
766.02	228.12
766.34	227.67
766.67	226.55
767.00	226.43
767.32	227.69
767.65	228.81
767.97	228.24
768.30	228.43
768.62	228.17
768.95	227.71
769.27	227.55
769.60	227.76
769.92	227.07
770.25	226.67
770.57	226.40
770.90	226.31
771.22	226.14
771.55	225.98
771.87	226.02
772.20	225.81
772.52	227.52
772.85	229.86
773.17	229.71
773.50	229.64
773.82	229.40
774.15	228.17
774.47	226.71
774.80	226.62
775.12	226.29
775.45	226.31
775.77	226.48
776.09	226.38
776.42	226.21
776.74	226.71
777.07	226.48
777.39	226.12
777.72	225.83
778.04	226.02
778.36	225.67
778.69	225.67
779.01	225.57
779.33	223.69
779.66	221.38
779.98	221.05
780.31	220.81
780.63	221.64
780.95	221.76
781.28	221.69
781.60	221.45
781.92	221.29
782.25	221.29
782.57	221.07
782.89	221.07
783.22	220.43
783.54	219.93
783.86	220.12
784.19	220.21
784.51	220.90
784.83	220.29
785.16	220.12
785.48	220.07
785.80	220.31
786.12	220.57
786.45	220.36
786.77	220.62
787.09	220.55
787.42	219.43
787.74	219.74
788.06	219.79
788.38	219.57
788.71	219.45
789.03	219.21
789.35	219.48
789.67	218.93
789.99	219.38
790.32	219.29
790.64	219.38
790.96	220.98
791.28	220.10
791.61	220.21
791.93	220.48
792.25	220.43
792.57	221.52
792.89	220.88
793.21	220.93
793.54	220.69
793.86	220.60
794.18	220.83
794.50	220.14
794.82	219.90
795.14	220.43
795.47	220.95
795.79	221.02
796.11	220.67
796.43	220.95
796.75	220.76
797.07	220.62
797.39	220.33
797.71	218.74
798.04	218.90
798.36	218.79
798.68	218.43
799.00	218.29
799.32	217.19
799.64	217.64
799.96	217.79
800.28	218.00
800.60	217.83
800.92	218.14
801.24	217.98
801.56	218.19
801.89	217.83
802.21	217.90
802.53	217.93
802.85	218.12
803.17	218.83
803.49	218.67
803.81	218.50
804.13	218.33
804.45	218.19
804.77	218.24
805.09	218.07
805.41	217.98
805.73	217.83
806.05	217.38
806.37	217.33
806.69	217.00
807.01	216.93
807.33	217.12
807.65	216.10
807.97	217.21
808.28	216.98
808.60	217.00
808.92	216.64
809.24	217.60
809.56	217.36
809.88	216.71
810.20	216.86
810.52	217.31
810.84	217.19
811.16	217.12
811.48	217.00
811.80	217.74
812.12	217.74
812.43	217.95
812.75	218.26
813.07	218.05
813.39	218.07
813.71	217.88
814.03	217.57
814.35	217.74
814.67	216.60
814.98	216.40
815.30	216.33
815.62	216.00
815.94	214.64
816.26	214.69
816.58	214.21
816.89	214.17
817.21	214.00
817.53	214.12
817.85	214.24
818.17	214.24
818.48	213.71
818.80	214.21
819.12	213.81
819.44	213.17
819.76	212.81
820.07	212.79
820.39	212.79
820.71	213.00
821.03	212.98
821.34	213.00
821.66	213.50
821.98	213.71
822.30	213.48
822.61	214.81
822.93	214.67
823.25	214.67
823.57	214.43
823.88	214.76
824.20	214.67
824.52	214.86
824.83	214.79
825.15	214.62
825.47	214.60
825.79	214.83
826.10	214.90
826.42	215.14
826.74	215.43
827.05	215.21
827.37	215.24
827.69	215.17
828.00	215.38
828.32	215.19
828.64	215.02
828.95	216.33
829.27	215.71
829.58	215.83
829.90	216.31
830.22	216.62
830.53	216.02
830.85	215.86
831.17	215.29
831.48	215.24
831.80	215.52
832.11	215.00
832.43	214.90
832.75	214.79
833.06	215.90
833.38	215.29
833.69	215.31
834.01	215.26
834.32	215.26
834.64	214.95
834.96	214.79
835.27	214.64
835.59	213.90
835.90	213.38
836.22	213.19
836.53	212.71
836.85	212.26
837.16	214.26
837.48	214.29
837.79	215.17
838.11	215.31
838.42	215.12
838.74	215.45
839.05	215.12
839.37	215.40
839.68	214.00
840.00	213.98
840.31	214.19
840.63	213.90
840.94	213.69
841.26	213.55
841.57	213.64
841.88	213.98
842.20	213.83
842.51	213.79
842.83	213.76
843.14	215.57
843.46	215.95
843.77	214.88
844.08	214.88
844.40	214.12
844.71	214.05
845.03	213.81
845.34	213.67
845.65	213.93
845.97	213.79
846.28	214.02
846.60	214.05
846.91	213.67
847.22	213.64
847.54	214.26
847.85	214.55
848.16	214.43
848.48	213.86
848.79	214.62
849.10	214.83
849.42	215.00
849.73	213.33
850.04	213.14
850.36	212.24
850.67	212.52
850.98	212.64
851.30	212.74
851.61	212.74
851.92	213.10
852.23	213.55
852.55	213.67
852.86	213.50
853.17	213.83
853.49	214.67
853.80	215.45
854.11	215.38
854.42	215.60
854.74	215.40
855.05	215.45
855.36	214.45
855.67	214.43
855.99	214.29
856.30	216.45
856.61	216.52
856.92	216.79
857.23	216.69
857.55	216.45
857.86	216.24
858.17	216.62
858.48	216.12
858.79	215.83
859.11	216.17
859.42	216.10
859.73	215.76
860.04	215.45
860.35	214.45
860.66	213.88
860.98	213.90
861.29	214.29
861.60	214.10
861.91	214.52
862.22	214.26
862.53	214.07
862.84	211.79
863.16	212.07
863.47	211.62
863.78	211.71
864.09	212.00
864.40	212.12
864.71	211.98
865.02	212.29
865.33	211.93
865.64	211.55
865.95	211.60
866.27	213.10
866.58	212.88
866.89	213.40
867.20	213.52
867.51	213.02
867.82	212.71
868.13	213.76
868.44	213.10
868.75	213.55
869.06	213.64
869.37	213.86
869.68	213.29
869.99	213.60
870.30	213.67
870.61	213.88
870.92	213.62
871.23	213.43
871.54	213.50
871.85	213.81
872.16	214.12
872.47	214.10
872.78	212.86
873.09	212.83
873.40	212.43
873.71	212.64
874.02	212.90
874.33	212.74
874.64	211.98
874.95	212.62
875.26	212.29
875.56	212.38
875.87	212.14
876.18	212.07
876.49	214.29
876.80	213.79
877.11	213.26
877.42	213.48
877.73	213.60
878.04	213.48
878.35	213.76
878.66	213.98
878.96	214.02
879.27	213.93
879.58	213.83
879.89	213.90
880.20	214.29
880.51	214.17
880.82	214.40
881.12	214.48
881.43	214.10
881.74	213.81
882.05	213.67
882.36	213.93
882.67	214.24
882.97	212.10
883.28	212.14
883.59	212.10
883.90	212.24
884.21	212.81
884.51	212.67
884.82	212.33
885.13	212.17
885.44	212.00
885.74	211.98
886.05	212.17
886.36	212.24
886.67	211.45
886.98	212.33
887.28	212.62
887.59	212.74
887.90	212.93
888.20	213.07
888.51	213.60
888.82	213.31
889.13	213.38
889.43	215.10
889.74	215.17
890.05	215.38
890.35	215.05
890.66	214.36
890.97	214.40
891.28	214.05
891.58	213.95
891.89	214.02
892.20	213.71
892.50	213.48
892.81	213.40
893.12	213.36
893.42	212.76
893.73	212.57
894.04	212.40
894.34	212.40
894.65	212.24
894.95	212.05
895.26	212.05
895.57	212.93
895.87	210.79
896.18	210.98
896.48	211.00
896.79	211.12
897.10	211.38
897.40	211.14
897.71	211.67
898.01	211.55
898.32	211.64
898.63	211.81
898.93	212.00
899.24	212.17
899.54	212.21
899.85	211.79
900.15	211.67
900.46	211.86
900.76	212.07
901.07	212.02
901.38	211.88
901.68	212.12
901.99	210.90
902.29	211.00
902.60	210.69
902.90	210.26
903.21	210.36
903.51	210.31
903.82	210.83
904.12	210.71
904.43	210.88
904.73	210.98
905.03	211.21
905.34	213.14
905.64	212.93
905.95	213.05
906.25	213.19
906.56	213.12
906.86	213.24
907.17	212.90
907.47	213.12
907.77	213.02
908.08	212.62
908.38	212.95
908.69	213.24
908.99	213.76
909.30	214.12
909.60	214.02
909.90	213.86
910.21	213.21
910.51	212.71
910.81	212.74
911.12	212.86
911.42	212.60
911.73	210.38
912.03	210.74
912.33	211.12
912.64	211.10
912.94	210.88
913.24	210.43
913.55	210.43
913.85	210.26
914.15	210.45
914.46	210.50
914.76	210.36
915.06	210.12
915.37	209.88
915.67	209.62
915.97	209.69
916.27	209.57
916.58	209.83
916.88	209.98
917.18	209.81
917.49	211.10
917.79	211.14
918.09	211.40
918.39	211.71
918.70	211.57
919.00	211.69
919.30	212.74
919.60	212.60
919.91	212.36
920.21	212.57
920.51	212.38
920.81	212.64
921.12	212.88
921.42	212.83
921.72	212.88
922.02	213.10
922.32	213.38
922.63	213.48
922.93	214.24
923.23	214.45
923.53	214.26
923.83	212.98
924.13	213.29
924.44	213.14
924.74	213.12
925.04	213.48
925.34	213.29
925.64	212.67
925.94	212.81
926.24	213.98
926.55	213.67
926.85	213.83
927.15	213.74
927.45	213.69
927.75	213.83
928.05	213.95
928.35	213.83
928.65	214.17
928.95	214.33
929.26	213.57
929.56	213.93
929.86	214.05
930.16	213.86
930.46	213.64
930.76	213.83
931.06	213.24
931.36	213.00
931.66	213.40
931.96	213.48
932.26	213.76
932.56	212.88
932.86	213.17
933.16	213.36
933.46	213.19
933.76	213.17
934.06	213.55
934.36	213.95
934.66	213.88
934.96	213.45
935.26	213.76
935.56	214.36
935.86	213.86
936.16	213.71
936.46	213.48
936.76	213.26
937.06	213.02
937.36	213.14
937.66	212.93
937.96	212.98
938.26	212.50
938.56	212.29
938.86	212.43
939.16	212.98
939.46	213.00
939.76	213.33
940.06	213.14
940.35	212.86
940.65	212.10
940.95	212.38
941.25	211.88
941.55	211.38
941.85	211.02
942.15	211.71
942.45	212.07
942.75	212.21
943.04	212.24
943.34	212.83
943.64	212.71
943.94	212.67
944.24	212.40
944.54	212.52
944.84	212.40
945.13	212.10
945.43	211.60
945.73	211.36
946.03	211.12
946.33	211.05
946.62	211.02
946.92	210.93
947.22	210.98
947.52	211.24
947.82	211.48
948.11	211.24
948.41	210.40
948.71	209.86
949.01	209.93
949.31	209.76
949.60	209.36
949.90	209.67
950.20	209.60
950.50	209.81
950.79	209.81
951.09	210.10
951.39	210.02
951.69	209.69
951.98	210.07
952.28	210.21
952.58	210.21
952.87	210.19
953.17	210.48
953.47	210.26
953.76	210.17
954.06	209.76
954.36	209.55
954.66	209.55
954.95	210.43
955.25	210.69
955.55	211.17
955.84	210.76
956.14	210.88
956.44	211.17
956.73	210.60
957.03	210.69
957.32	210.60
957.62	210.64
957.92	210.95
958.21	210.74
958.51	213.12
958.81	213.36
959.10	213.57
959.40	213.95
959.69	214.07
959.99	214.57
960.29	214.74
960.58	214.83
960.88	215.71
961.17	215.33
961.47	215.43
961.76	215.26
962.06	215.95
962.36	215.52
962.65	215.33
962.95	215.38
963.24	215.19
963.54	215.52
963.83	215.67
964.13	215.83
964.42	215.33
964.72	213.60
965.01	213.52
965.31	213.29
965.60	212.98
965.90	214.29
966.19	213.79
966.49	213.88
966.78	213.93
967.08	213.74
967.37	213.62
967.67	213.31
967.96	213.52
968.26	213.29
968.55	213.81
968.85	213.79
969.14	214.00
969.43	214.05
969.73	213.50
970.02	213.52
970.32	213.24
970.61	213.38
970.91	212.74
971.20	212.62
971.49	212.45
971.79	212.60
972.08	211.05
972.38	211.24
972.67	211.17
972.96	211.24
973.26	210.69
973.55	211.45
973.85	211.43
974.14	211.07
974.43	211.14
974.73	210.86
975.02	210.71
975.31	210.57
975.61	210.52
975.90	210.38
976.19	210.07
976.49	210.19
976.78	210.43
977.07	210.36
977.37	210.57
977.66	210.67
977.95	210.33
978.24	210.67
978.54	211.02
978.83	210.74
979.12	210.64
979.42	210.69
979.71	210.14
980.00	209.90
980.29	210.17
980.59	209.83
980.88	210.17
981.17	210.19
981.46	210.38
981.76	210.31
982.05	211.17
982.34	211.48
982.63	211.45
982.93	211.31
983.22	211.74
983.51	211.76
983.80	212.19
984.09	212.40
984.39	212.19
984.68	211.83
984.97	212.07
985.26	211.98
985.55	212.17
985.85	211.88
986.14	212.33
986.43	212.52
986.72	212.62
987.01	211.69
987.30	211.57
987.59	211.29
987.89	211.36
988.18	210.76
988.47	210.33
988.76	210.17
989.05	210.14
989.34	210.10
989.63	210.33
989.92	209.88
990.22	209.86
990.51	209.76
990.80	209.48
991.09	209.64
991.38	209.79
991.67	209.67
991.96	209.40
992.25	209.48
992.54	209.21
992.83	209.05
993.12	209.19
993.41	209.60
993.70	210.33
993.99	210.76
994.28	210.83
994.58	211.17
994.87	211.17
995.16	210.86
995.45	210.50
995.74	209.88
996.03	210.36
996.32	210.19
996.61	210.67
996.90	210.79
997.19	210.57
997.48	210.64
997.77	210.60
998.06	210.71
998.34	210.33
998.63	210.43
998.92	210.60
999.21	211.02
999.50	210.83
999.79	210.33
1000.08	210.40
1000.37	210.52
1000.66	210.40
1000.95	210.86
1001.24	210.93
1001.53	210.98
1001.82	210.98
1002.11	210.43
1002.40	211.00
1002.68	211.52
1002.97	213.05
1003.26	212.79
1003.55	212.83
1003.84	212.81
1004.13	213.60
1004.42	213.52
1004.71	213.33
1004.99	213.12
1005.28	213.69
1005.57	213.76
1005.86	213.52
1006.15	213.17
1006.44	212.86
1006.72	213.02
1007.01	212.64
1007.30	212.79
1007.59	212.95
1007.88	212.95
1008.17	213.19
1008.45	212.86
1008.74	211.83
1009.03	210.88
1009.32	211.05
1009.60	210.74
1009.89	210.69
1010.18	209.69
1010.47	209.74
1010.76	209.55
1011.04	209.57
1011.33	209.36
1011.62	209.48
1011.91	209.62
1012.19	209.74
1012.48	209.83
1012.77	209.79
1013.05	210.81
1013.34	210.83
1013.63	210.81
1013.92	210.93
1014.20	210.60
1014.49	210.55
1014.78	210.88
1015.06	210.14
1015.35	210.29
1015.64	210.69
1015.92	210.86
1016.21	211.14
1016.50	211.10
1016.78	211.60
1017.07	211.86
1017.36	211.36
1017.64	210.95
1017.93	211.10
1018.22	210.98
1018.50	210.81
1018.79	210.86
1019.08	209.76
1019.36	209.81
1019.65	209.52
1019.93	210.14
1020.22	210.45
1020.51	211.36
1020.79	211.14
1021.08	209.00
1021.36	205.00
1021.65	211.50
1021.94	208.00
1022.22	210.50
1022.51	207.50
1022.79	222.00
1023.08	211.50
1023.36	233.00
1023.65	208.00
>>>>>End Processed Spectral Data<<<<<
