SpectraSuite Data File
++++++++++++++++++++++++++++++++++++
Date: Tue Apr 02 18:38:48 EDT 2013
User: group
Dark Spectrum Present: No
Reference Spectrum Present: No
Number of Sampled Component Spectra: 1
Spectrometers: USB2E7196
Integration Time (usec): 580000 (USB2E7196)
Spectra Averaged: 2 (USB2E7196)
Boxcar Smoothing: 10 (USB2E7196)
Correct for Electrical Dark: No (USB2E7196)
Strobe/Lamp Enabled: No (USB2E7196)
Correct for Detector Non-linearity: No (USB2E7196)
Correct for Stray Light: No (USB2E7196)
Number of Pixels in Processed Spectrum: 2048
>>>>>Begin Processed Spectral Data<<<<<
339.09	0.00
339.48	192.50
339.86	193.00
340.24	194.00
340.63	198.50
341.01	227.50
341.39	200.00
341.78	201.00
342.16	210.00
342.54	203.50
342.93	195.76
343.31	205.40
343.69	205.98
344.07	206.57
344.46	207.24
344.84	207.64
345.22	206.74
345.60	207.40
345.99	207.88
346.37	207.81
346.75	207.95
347.13	208.19
347.52	208.52
347.90	209.33
348.28	209.43
348.66	209.93
349.05	209.26
349.43	209.50
349.81	209.55
350.19	209.86
350.57	210.17
350.96	210.62
351.34	210.98
351.72	211.10
352.10	211.31
352.48	211.52
352.87	211.83
353.25	211.86
353.63	211.62
354.01	211.55
354.39	211.83
354.77	212.02
355.15	212.50
355.54	212.26
355.92	211.52
356.30	211.64
356.68	212.81
357.06	213.10
357.44	213.02
357.82	213.45
358.20	214.45
358.58	214.57
358.97	214.52
359.35	215.02
359.73	215.67
360.11	215.76
360.49	215.86
360.87	215.74
361.25	216.14
361.63	216.98
362.01	217.26
362.39	217.00
362.77	217.26
363.15	217.21
363.53	217.43
363.91	217.95
364.29	217.93
364.67	216.10
365.05	216.33
365.43	216.55
365.81	216.71
366.19	216.93
366.57	217.79
366.95	217.79
367.33	217.29
367.71	217.19
368.09	217.36
368.47	217.48
368.85	217.55
369.23	217.86
369.61	217.05
369.99	217.67
370.37	218.14
370.75	218.98
371.13	218.60
371.51	218.24
371.89	218.26
372.27	218.36
372.65	218.50
373.03	218.62
373.41	218.64
373.78	218.43
374.16	217.31
374.54	216.55
374.92	216.48
375.30	216.69
375.68	216.21
376.06	216.60
376.44	216.31
376.82	216.50
377.19	216.43
377.57	216.55
377.95	215.67
378.33	215.43
378.71	214.21
379.09	214.55
379.47	215.07
379.84	214.98
380.22	214.79
380.60	214.45
380.98	214.02
381.36	213.86
381.73	213.57
382.11	213.76
382.49	213.88
382.87	213.48
383.25	213.26
383.62	215.60
384.00	214.74
384.38	214.71
384.76	214.76
385.13	215.57
385.51	215.50
385.89	215.43
386.27	215.43
386.64	215.79
387.02	215.50
387.40	215.14
387.78	214.95
388.15	215.12
388.53	214.83
388.91	215.07
389.29	214.69
389.66	214.90
390.04	214.67
390.42	215.00
390.79	215.36
391.17	215.36
391.55	213.12
391.92	213.40
392.30	213.90
392.68	213.55
393.05	213.02
393.43	213.05
393.81	213.14
394.18	212.86
394.56	212.76
394.94	213.36
395.31	213.14
395.69	214.00
396.06	214.45
396.44	214.81
396.82	214.71
397.19	216.21
397.57	215.93
397.95	216.55
398.32	216.07
398.70	216.17
399.07	216.62
399.45	216.83
399.82	216.88
400.20	216.52
400.58	216.83
400.95	216.07
401.33	216.64
401.70	218.45
402.08	218.71
402.45	219.10
402.83	219.48
403.20	220.05
403.58	220.05
403.95	220.21
404.33	220.98
404.71	221.36
405.08	222.43
405.46	222.88
405.83	223.10
406.21	223.55
406.58	224.10
406.96	224.60
407.33	225.05
407.70	225.71
408.08	227.98
408.45	228.90
408.83	230.50
409.20	230.81
409.58	230.38
409.95	231.67
410.33	232.79
410.70	233.36
411.08	234.69
411.45	235.71
411.82	236.81
412.20	238.48
412.57	241.14
412.95	241.02
413.32	243.31
413.69	245.02
414.07	247.00
414.44	249.19
414.82	251.62
415.19	254.50
415.56	257.05
415.94	258.55
416.31	261.74
416.68	264.71
417.06	268.71
417.43	272.83
417.81	276.71
418.18	280.90
418.55	285.24
418.93	289.83
419.30	294.67
419.67	299.88
420.04	304.81
420.42	309.64
420.79	317.64
421.16	324.00
421.54	331.76
421.91	339.05
422.28	346.38
422.66	353.79
423.03	362.50
423.40	370.57
423.77	379.17
424.15	387.19
424.52	395.95
424.89	405.36
425.26	414.29
425.64	423.26
426.01	432.83
426.38	442.83
426.75	453.95
427.13	464.88
427.50	475.86
427.87	487.45
428.24	499.02
428.61	508.71
428.99	521.50
429.36	534.12
429.73	546.62
430.10	559.71
430.47	573.07
430.85	585.48
431.22	600.36
431.59	617.21
431.96	632.98
432.33	649.67
432.70	666.19
433.08	684.31
433.45	702.24
433.82	720.00
434.19	740.40
434.56	759.60
434.93	777.57
435.30	795.81
435.68	816.81
436.05	836.98
436.42	857.24
436.79	875.88
437.16	895.83
437.53	917.79
437.90	938.71
438.27	959.93
438.64	981.90
439.01	1002.31
439.38	1019.38
439.75	1036.48
440.13	1056.40
440.50	1074.74
440.87	1090.67
441.24	1106.79
441.61	1123.98
441.98	1136.93
442.35	1150.69
442.72	1166.17
443.09	1182.12
443.46	1191.12
443.83	1197.33
444.20	1202.74
444.57	1210.17
444.94	1213.93
445.31	1217.67
445.68	1223.50
446.05	1225.52
446.42	1223.83
446.79	1221.93
447.16	1218.98
447.53	1217.12
447.90	1209.24
448.27	1201.90
448.64	1191.19
449.01	1183.52
449.37	1170.43
449.74	1156.93
450.11	1144.02
450.48	1126.88
450.85	1108.79
451.22	1093.02
451.59	1079.38
451.96	1066.21
452.33	1048.17
452.70	1031.67
453.07	1011.12
453.43	988.71
453.80	968.76
454.17	949.81
454.54	931.43
454.91	912.38
455.28	893.98
455.65	876.43
456.02	861.76
456.38	846.86
456.75	828.64
457.12	813.24
457.49	798.17
457.86	781.81
458.23	770.00
458.59	756.07
458.96	742.67
459.33	729.67
459.70	717.12
460.07	706.88
460.43	695.12
460.80	685.43
461.17	676.83
461.54	667.52
461.91	658.36
462.27	649.19
462.64	641.12
463.01	632.43
463.38	624.69
463.74	613.29
464.11	606.00
464.48	599.26
464.85	591.71
465.21	586.74
465.58	580.76
465.95	573.07
466.32	567.36
466.68	561.26
467.05	555.67
467.42	549.60
467.78	543.62
468.15	538.60
468.52	534.07
468.88	527.64
469.25	521.83
469.62	518.14
469.98	513.36
470.35	509.48
470.72	504.79
471.08	499.81
471.45	496.40
471.82	493.05
472.18	488.88
472.55	485.93
472.92	481.40
473.28	478.05
473.65	474.57
474.02	471.36
474.38	468.69
474.75	466.50
475.11	464.24
475.48	461.83
475.85	459.43
476.21	457.12
476.58	455.76
476.94	454.88
477.31	453.19
477.67	452.05
478.04	450.67
478.41	450.07
478.77	451.17
479.14	450.10
479.50	449.60
479.87	449.29
480.23	449.36
480.60	449.24
480.96	449.10
481.33	450.31
481.69	450.40
482.06	450.50
482.42	450.67
482.79	451.26
483.15	452.12
483.52	453.81
483.88	454.48
484.25	455.50
484.61	456.24
484.98	457.36
485.34	459.19
485.71	461.50
486.07	463.33
486.44	463.52
486.80	465.33
487.17	466.98
487.53	469.81
487.90	472.43
488.26	475.88
488.62	478.93
488.99	481.21
489.35	484.52
489.72	488.57
490.08	492.38
490.44	495.19
490.81	499.17
491.17	502.62
491.54	507.21
491.90	511.79
492.26	516.10
492.63	520.62
492.99	524.95
493.36	529.45
493.72	534.71
494.08	539.93
494.45	545.81
494.81	552.26
495.17	557.93
495.54	563.93
495.90	569.88
496.26	576.24
496.63	582.69
496.99	589.95
497.35	596.81
497.72	603.48
498.08	611.19
498.44	618.29
498.80	626.02
499.17	633.93
499.53	641.33
499.89	650.07
500.26	658.12
500.62	666.26
500.98	675.17
501.34	684.33
501.71	693.90
502.07	702.67
502.43	711.36
502.79	720.24
503.16	729.81
503.52	738.52
503.88	747.57
504.24	757.29
504.60	767.00
504.97	776.86
505.33	787.00
505.69	797.48
506.05	807.43
506.41	817.52
506.78	826.57
507.14	836.48
507.50	846.79
507.86	857.48
508.22	867.55
508.59	877.17
508.95	887.74
509.31	898.62
509.67	908.67
510.03	918.71
510.39	929.40
510.75	939.88
511.12	950.57
511.48	961.45
511.84	972.45
512.20	982.19
512.56	992.36
512.92	1002.55
513.28	1012.86
513.64	1023.19
514.00	1033.24
514.37	1044.21
514.73	1055.62
515.09	1065.76
515.45	1075.64
515.81	1086.38
516.17	1096.24
516.53	1104.79
516.89	1113.07
517.25	1122.79
517.61	1132.62
517.97	1141.93
518.33	1150.76
518.69	1160.36
519.05	1169.64
519.41	1178.17
519.77	1188.79
520.13	1197.33
520.49	1206.19
520.85	1214.36
521.21	1224.76
521.57	1233.98
521.93	1242.40
522.29	1250.36
522.65	1258.52
523.01	1267.07
523.37	1274.69
523.73	1283.02
524.09	1291.76
524.45	1300.07
524.81	1307.95
525.17	1316.64
525.53	1324.43
525.89	1332.43
526.25	1340.36
526.61	1346.93
526.97	1353.98
527.33	1360.67
527.68	1370.43
528.04	1378.00
528.40	1385.21
528.76	1391.26
529.12	1398.40
529.48	1406.21
529.84	1413.95
530.20	1421.02
530.56	1428.33
530.91	1435.93
531.27	1442.98
531.63	1449.95
531.99	1456.79
532.35	1463.88
532.71	1469.62
533.07	1476.95
533.42	1486.29
533.78	1492.57
534.14	1500.36
534.50	1506.74
534.86	1513.60
535.21	1517.62
535.57	1524.64
535.93	1531.21
536.29	1538.60
536.65	1544.45
537.00	1549.81
537.36	1554.64
537.72	1560.10
538.08	1565.86
538.44	1571.43
538.79	1577.07
539.15	1581.86
539.51	1587.90
539.87	1592.98
540.22	1598.50
540.58	1604.07
540.94	1606.00
541.29	1611.60
541.65	1615.31
542.01	1621.60
542.37	1625.38
542.72	1629.45
543.08	1633.14
543.44	1638.69
543.79	1641.19
544.15	1645.45
544.51	1650.24
544.87	1655.31
545.22	1659.69
545.58	1663.26
545.94	1667.24
546.29	1671.67
546.65	1676.21
547.01	1679.10
547.36	1682.67
547.72	1685.83
548.07	1688.69
548.43	1692.98
548.79	1694.88
549.14	1698.55
549.50	1701.12
549.86	1704.12
550.21	1708.81
550.57	1711.76
550.92	1713.45
551.28	1717.07
551.64	1720.00
551.99	1722.38
552.35	1723.33
552.70	1726.43
553.06	1729.02
553.41	1730.95
553.77	1734.71
554.13	1737.55
554.48	1741.07
554.84	1745.10
555.19	1749.07
555.55	1753.74
555.90	1756.21
556.26	1759.67
556.61	1762.10
556.97	1765.19
557.32	1767.98
557.68	1769.71
558.03	1772.36
558.39	1774.57
558.74	1776.79
559.10	1778.86
559.45	1782.00
559.81	1785.43
560.16	1787.19
560.52	1789.98
560.87	1792.88
561.23	1793.98
561.58	1797.71
561.94	1800.38
562.29	1801.90
562.64	1804.00
563.00	1803.21
563.35	1805.43
563.71	1807.55
564.06	1810.19
564.42	1812.24
564.77	1814.57
565.12	1818.64
565.48	1823.83
565.83	1826.57
566.19	1829.62
566.54	1832.00
566.89	1833.90
567.25	1837.36
567.60	1841.93
567.96	1845.76
568.31	1848.71
568.66	1851.62
569.02	1852.31
569.37	1852.50
569.72	1854.57
570.08	1855.55
570.43	1857.76
570.78	1859.14
571.14	1860.95
571.49	1861.83
571.84	1862.79
572.20	1864.64
572.55	1864.52
572.90	1862.29
573.26	1863.24
573.61	1862.83
573.96	1863.57
574.31	1863.40
574.67	1862.38
575.02	1861.10
575.37	1859.07
575.72	1857.69
576.08	1856.43
576.43	1854.62
576.78	1854.67
577.13	1853.50
577.49	1852.07
577.84	1851.12
578.19	1850.14
578.54	1849.90
578.90	1849.93
579.25	1848.19
579.60	1845.29
579.95	1842.50
580.30	1840.43
580.66	1838.55
581.01	1837.10
581.36	1834.62
581.71	1832.21
582.06	1830.74
582.42	1827.95
582.77	1824.24
583.12	1821.64
583.47	1818.69
583.82	1816.43
584.17	1813.10
584.53	1811.02
584.88	1808.02
585.23	1805.21
585.58	1801.29
585.93	1796.21
586.28	1791.62
586.63	1788.29
586.98	1785.12
587.34	1782.17
587.69	1779.29
588.04	1775.17
588.39	1770.76
588.74	1766.24
589.09	1762.71
589.44	1757.05
589.79	1753.14
590.14	1750.88
590.49	1746.81
590.84	1742.83
591.19	1738.81
591.54	1735.45
591.89	1730.64
592.25	1728.90
592.60	1723.90
592.95	1720.48
593.30	1717.07
593.65	1712.40
594.00	1707.62
594.35	1709.05
594.70	1704.02
595.05	1698.76
595.40	1693.74
595.75	1689.40
596.10	1686.29
596.45	1682.17
596.80	1679.02
597.15	1674.90
597.50	1669.21
597.85	1665.33
598.19	1660.19
598.54	1654.69
598.89	1649.33
599.24	1645.17
599.59	1638.57
599.94	1633.86
600.29	1628.45
600.64	1623.14
600.99	1619.86
601.34	1615.81
601.69	1605.21
602.04	1600.88
602.39	1595.76
602.74	1592.45
603.08	1586.74
603.43	1582.21
603.78	1577.31
604.13	1572.24
604.48	1566.10
604.83	1560.76
605.18	1556.12
605.53	1551.17
605.87	1546.00
606.22	1540.43
606.57	1534.07
606.92	1529.05
607.27	1524.31
607.62	1519.60
607.96	1514.86
608.31	1509.14
608.66	1502.67
609.01	1496.69
609.36	1491.02
609.70	1486.26
610.05	1479.38
610.40	1473.98
610.75	1466.43
611.10	1460.10
611.44	1453.29
611.79	1447.64
612.14	1442.83
612.49	1434.98
612.83	1428.38
613.18	1422.93
613.53	1417.14
613.88	1410.17
614.22	1402.86
614.57	1396.24
614.92	1388.43
615.27	1381.88
615.61	1374.50
615.96	1368.52
616.31	1362.43
616.65	1356.81
617.00	1349.86
617.35	1343.19
617.70	1336.71
618.04	1330.79
618.39	1323.67
618.74	1317.93
619.08	1311.21
619.43	1304.19
619.78	1298.19
620.12	1292.40
620.47	1285.79
620.82	1279.50
621.16	1273.55
621.51	1268.24
621.85	1261.60
622.20	1255.36
622.55	1248.10
622.89	1241.81
623.24	1235.33
623.59	1228.76
623.93	1222.21
624.28	1216.17
624.62	1212.00
624.97	1207.48
625.32	1201.55
625.66	1196.52
626.01	1190.67
626.35	1184.57
626.70	1178.12
627.04	1172.40
627.39	1166.00
627.73	1160.95
628.08	1154.76
628.43	1149.10
628.77	1142.24
629.12	1137.00
629.46	1132.05
629.81	1126.88
630.15	1121.07
630.50	1115.38
630.84	1109.24
631.19	1102.24
631.53	1095.57
631.88	1087.33
632.22	1079.60
632.57	1073.40
632.91	1066.64
633.26	1060.64
633.60	1054.50
633.95	1048.52
634.29	1042.17
634.64	1036.10
634.98	1029.00
635.32	1023.79
635.67	1017.71
636.01	1012.14
636.36	1005.74
636.70	1000.19
637.05	993.90
637.39	987.93
637.73	982.02
638.08	976.45
638.42	971.12
638.77	966.10
639.11	960.48
639.45	954.98
639.80	948.83
640.14	943.12
640.49	936.50
640.83	930.26
641.17	924.57
641.52	919.26
641.86	914.17
642.20	909.45
642.55	903.12
642.89	897.40
643.23	891.60
643.58	886.17
643.92	879.38
644.26	873.52
644.61	868.36
644.95	862.21
645.29	856.74
645.64	851.45
645.98	845.74
646.32	840.71
646.66	834.64
647.01	828.79
647.35	823.50
647.69	817.83
648.04	812.98
648.38	806.98
648.72	801.17
649.06	794.79
649.41	788.83
649.75	783.17
650.09	777.86
650.43	771.40
650.78	765.69
651.12	760.12
651.46	754.60
651.80	748.81
652.14	743.60
652.49	738.71
652.83	732.88
653.17	727.40
653.51	722.62
653.85	717.83
654.20	713.12
654.54	707.40
654.88	702.14
655.22	697.55
655.56	692.79
655.90	687.48
656.25	682.98
656.59	678.36
656.93	673.40
657.27	669.07
657.61	664.83
657.95	659.93
658.29	655.10
658.64	650.62
658.98	645.71
659.32	641.00
659.66	635.81
660.00	631.76
660.34	627.40
660.68	622.02
661.02	617.81
661.36	613.31
661.70	608.83
662.05	604.67
662.39	600.29
662.73	597.17
663.07	594.55
663.41	590.24
663.75	585.14
664.09	580.83
664.43	576.45
664.77	572.38
665.11	568.24
665.45	564.86
665.79	561.50
666.13	557.62
666.47	553.83
666.81	550.21
667.15	545.64
667.49	542.17
667.83	539.69
668.17	536.10
668.51	532.81
668.85	529.60
669.19	527.14
669.53	523.36
669.87	519.19
670.21	514.88
670.55	511.60
670.89	509.67
671.23	506.57
671.57	503.24
671.91	500.14
672.25	497.50
672.58	495.21
672.92	491.48
673.26	488.55
673.60	485.88
673.94	483.38
674.28	480.69
674.62	478.10
674.96	474.36
675.30	471.57
675.64	468.50
675.97	465.93
676.31	462.83
676.65	459.86
676.99	457.88
677.33	454.62
677.67	452.05
678.01	448.88
678.34	446.67
678.68	444.52
679.02	442.07
679.36	439.21
679.70	435.83
680.04	433.74
680.37	431.52
680.71	429.17
681.05	426.48
681.39	424.36
681.73	421.38
682.06	418.74
682.40	415.81
682.74	413.62
683.08	411.81
683.42	408.90
683.75	407.00
684.09	404.00
684.43	402.14
684.77	399.64
685.10	397.26
685.44	394.93
685.78	392.24
686.12	390.12
686.45	388.12
686.79	386.05
687.13	384.12
687.46	381.93
687.80	380.02
688.14	377.95
688.48	375.81
688.81	374.24
689.15	373.29
689.49	371.64
689.82	369.69
690.16	367.10
690.50	365.29
690.83	362.95
691.17	360.93
691.51	358.98
691.84	357.62
692.18	355.67
692.52	354.12
692.85	352.90
693.19	352.02
693.52	350.29
693.86	348.38
694.20	346.55
694.53	344.95
694.87	343.05
695.21	341.31
695.54	340.07
695.88	338.21
696.21	335.67
696.55	334.36
696.88	333.17
697.22	331.76
697.56	330.67
697.89	329.17
698.23	328.05
698.56	326.79
698.90	325.38
699.23	323.86
699.57	322.60
699.90	321.00
700.24	319.12
700.58	317.71
700.91	317.14
701.25	317.38
701.58	316.57
701.92	315.71
702.25	314.60
702.59	312.98
702.92	311.90
703.26	311.02
703.59	309.88
703.93	310.64
704.26	309.60
704.60	308.45
704.93	307.36
705.26	306.24
705.60	305.71
705.93	304.38
706.27	304.07
706.60	303.21
706.94	303.02
707.27	301.74
707.61	301.00
707.94	299.74
708.27	297.40
708.61	295.98
708.94	295.02
709.28	293.95
709.61	292.81
709.94	292.12
710.28	291.26
710.61	290.19
710.95	287.14
711.28	287.71
711.61	286.79
711.95	286.33
712.28	285.33
712.61	284.24
712.95	284.55
713.28	284.43
713.61	283.26
713.95	281.88
714.28	281.38
714.61	280.36
714.95	279.52
715.28	278.50
715.61	277.57
715.95	276.69
716.28	275.79
716.61	275.81
716.95	274.81
717.28	274.12
717.61	273.71
717.94	272.86
718.28	270.60
718.61	269.74
718.94	268.67
719.27	267.81
719.61	267.14
719.94	265.79
720.27	264.05
720.60	263.26
720.94	262.31
721.27	261.69
721.60	261.45
721.93	260.81
722.27	260.86
722.60	260.76
722.93	260.14
723.26	259.88
723.59	258.88
723.93	258.71
724.26	258.31
724.59	257.40
724.92	257.05
725.25	257.07
725.59	256.71
725.92	256.60
726.25	256.40
726.58	255.88
726.91	255.12
727.24	255.17
727.57	254.81
727.91	254.19
728.24	253.90
728.57	253.33
728.90	253.12
729.23	252.17
729.56	252.55
729.89	252.21
730.22	251.50
730.55	251.07
730.89	250.48
731.22	250.00
731.55	249.69
731.88	249.38
732.21	248.62
732.54	247.98
732.87	247.83
733.20	247.55
733.53	247.38
733.86	247.60
734.19	246.74
734.52	246.67
734.85	247.95
735.18	247.26
735.51	247.62
735.84	247.31
736.17	247.50
736.50	246.14
736.83	248.10
737.16	247.95
737.49	247.98
737.82	247.67
738.15	247.57
738.48	247.24
738.81	246.90
739.14	246.62
739.47	246.45
739.80	245.81
740.13	245.81
740.46	245.02
740.79	244.24
741.12	243.93
741.45	243.60
741.78	242.05
742.11	242.33
742.44	241.50
742.77	241.40
743.10	240.90
743.43	240.52
743.75	238.14
744.08	240.45
744.41	240.02
744.74	239.55
745.07	238.81
745.40	239.00
745.73	239.71
746.06	239.57
746.39	239.60
746.71	239.24
747.04	238.52
747.37	238.40
747.70	238.69
748.03	238.50
748.36	238.33
748.68	238.21
749.01	237.50
749.34	237.17
749.67	237.10
750.00	236.88
750.33	238.00
750.65	237.86
750.98	235.17
751.31	234.83
751.64	234.93
751.97	235.93
752.29	235.55
752.62	234.17
752.95	233.98
753.28	233.69
753.60	233.64
753.93	234.33
754.26	234.29
754.59	233.36
754.91	233.00
755.24	232.40
755.57	231.93
755.90	231.79
756.22	231.48
756.55	230.95
756.88	230.55
757.20	229.26
757.53	228.50
757.86	228.57
758.19	228.57
758.51	228.29
758.84	226.86
759.17	226.62
759.49	226.86
759.82	227.60
760.15	227.50
760.47	227.05
760.80	226.02
761.13	226.40
761.45	226.40
761.78	226.36
762.11	226.43
762.43	226.38
762.76	226.02
763.08	226.21
763.41	226.43
763.74	226.19
764.06	226.17
764.39	226.24
764.71	225.76
765.04	225.48
765.37	224.90
765.69	224.86
766.02	224.60
766.34	224.29
766.67	223.33
767.00	223.43
767.32	224.62
767.65	225.74
767.97	225.21
768.30	224.98
768.62	224.81
768.95	224.52
769.27	224.38
769.60	224.52
769.92	224.14
770.25	223.38
770.57	223.29
770.90	222.79
771.22	222.52
771.55	222.67
771.87	222.88
772.20	222.98
772.52	224.71
772.85	227.14
773.17	227.24
773.50	226.88
773.82	226.62
774.15	225.43
774.47	224.12
774.80	223.88
775.12	223.81
775.45	223.93
775.77	224.17
776.09	224.26
776.42	224.50
776.74	224.79
777.07	224.67
777.39	224.64
777.72	224.57
778.04	224.79
778.36	224.24
778.69	223.93
779.01	223.93
779.33	222.00
779.66	219.57
779.98	219.14
780.31	219.33
780.63	220.12
780.95	220.29
781.28	220.29
781.60	220.14
781.92	220.21
782.25	220.00
782.57	219.81
782.89	219.26
783.22	218.74
783.54	218.43
783.86	218.57
784.19	218.38
784.51	219.00
784.83	218.55
785.16	218.64
785.48	218.48
785.80	218.43
786.12	218.79
786.45	218.64
786.77	218.90
787.09	218.60
787.42	217.67
787.74	217.90
788.06	217.83
788.38	217.57
788.71	217.33
789.03	217.43
789.35	217.64
789.67	217.52
789.99	217.60
790.32	217.24
790.64	217.81
790.96	219.38
791.28	218.57
791.61	218.76
791.93	218.98
792.25	219.00
792.57	220.45
792.89	219.79
793.21	219.95
793.54	219.60
793.86	219.57
794.18	219.79
794.50	219.21
794.82	219.40
795.14	219.86
795.47	220.24
795.79	220.17
796.11	219.67
796.43	219.79
796.75	219.74
797.07	220.00
797.39	219.69
797.71	218.17
798.04	218.38
798.36	218.36
798.68	218.40
799.00	218.48
799.32	217.31
799.64	217.71
799.96	217.52
800.28	217.90
800.60	217.57
800.92	217.40
801.24	217.48
801.56	217.50
801.89	217.12
802.21	217.19
802.53	217.00
802.85	217.40
803.17	218.48
803.49	218.40
803.81	218.14
804.13	217.95
804.45	217.98
804.77	218.36
805.09	218.40
805.41	217.93
805.73	217.64
806.05	217.38
806.37	217.29
806.69	217.21
807.01	216.93
807.33	217.14
807.65	216.55
807.97	217.31
808.28	217.10
808.60	217.02
808.92	216.86
809.24	218.19
809.56	218.02
809.88	217.33
810.20	217.24
810.52	217.67
810.84	217.19
811.16	216.88
811.48	216.45
811.80	217.05
812.12	217.00
812.43	217.40
812.75	217.50
813.07	217.55
813.39	217.74
813.71	217.64
814.03	217.64
814.35	217.81
814.67	217.12
814.98	216.67
815.30	216.71
815.62	216.38
815.94	214.88
816.26	214.86
816.58	214.26
816.89	214.45
817.21	214.07
817.53	214.29
817.85	214.48
818.17	214.43
818.48	213.69
818.80	213.93
819.12	213.60
819.44	213.05
819.76	212.69
820.07	212.69
820.39	212.50
820.71	212.40
821.03	212.55
821.34	212.10
821.66	212.90
821.98	213.00
822.30	212.95
822.61	214.26
822.93	214.14
823.25	214.17
823.57	213.95
823.88	214.10
824.20	214.19
824.52	214.33
824.83	214.21
825.15	213.81
825.47	214.00
825.79	214.07
826.10	214.19
826.42	214.14
826.74	214.29
827.05	214.19
827.37	214.38
827.69	213.88
828.00	214.26
828.32	214.07
828.64	213.76
828.95	214.95
829.27	214.38
829.58	214.31
829.90	214.74
830.22	214.93
830.53	214.48
830.85	214.21
831.17	213.79
831.48	213.69
831.80	214.36
832.11	214.00
832.43	213.90
832.75	213.76
833.06	215.29
833.38	214.60
833.69	214.69
834.01	214.64
834.32	214.90
834.64	214.86
834.96	214.74
835.27	215.05
835.59	214.38
835.90	213.90
836.22	214.02
836.53	213.52
836.85	213.26
837.16	215.57
837.48	215.64
837.79	216.40
838.11	216.69
838.42	216.62
838.74	217.02
839.05	216.86
839.37	217.00
839.68	215.50
840.00	215.50
840.31	216.00
840.63	216.05
840.94	215.71
841.26	215.43
841.57	215.24
841.88	215.43
842.20	214.93
842.51	214.79
842.83	214.74
843.14	216.60
843.46	216.79
843.77	215.52
844.08	215.62
844.40	214.79
844.71	214.55
845.03	214.21
845.34	214.00
845.65	214.05
845.97	214.14
846.28	214.40
846.60	214.38
846.91	213.95
847.22	213.79
847.54	214.31
847.85	214.55
848.16	214.83
848.48	214.31
848.79	215.21
849.10	215.40
849.42	215.50
849.73	213.60
850.04	213.45
850.36	212.71
850.67	213.00
850.98	213.24
851.30	213.45
851.61	213.26
851.92	213.26
852.23	213.98
852.55	213.95
852.86	213.90
853.17	214.19
853.49	214.57
853.80	215.00
854.11	215.26
854.42	215.26
854.74	214.88
855.05	215.10
855.36	213.95
855.67	214.26
855.99	214.26
856.30	216.69
856.61	216.64
856.92	216.76
857.23	216.52
857.55	216.38
857.86	216.17
858.17	216.64
858.48	216.33
858.79	215.50
859.11	215.62
859.42	215.45
859.73	215.26
860.04	215.02
860.35	214.48
860.66	213.81
860.98	213.88
861.29	214.05
861.60	213.86
861.91	214.36
862.22	213.83
862.53	213.38
862.84	211.05
863.16	211.69
863.47	211.36
863.78	211.31
864.09	211.24
864.40	211.52
864.71	211.40
865.02	211.62
865.33	211.52
865.64	211.17
865.95	211.10
866.27	212.31
866.58	212.19
866.89	212.50
867.20	212.40
867.51	212.10
867.82	211.90
868.13	212.67
868.44	212.10
868.75	212.48
869.06	212.62
869.37	212.86
869.68	212.07
869.99	212.43
870.30	212.31
870.61	212.57
870.92	212.14
871.23	211.95
871.54	212.19
871.85	212.86
872.16	213.17
872.47	213.17
872.78	211.98
873.09	212.10
873.40	211.83
873.71	212.17
874.02	212.31
874.33	212.36
874.64	211.62
874.95	212.33
875.26	211.83
875.56	211.79
875.87	211.64
876.18	211.52
876.49	213.50
876.80	213.50
877.11	213.26
877.42	213.40
877.73	213.57
878.04	213.26
878.35	213.07
878.66	213.17
878.96	213.17
879.27	213.43
879.58	213.33
879.89	213.29
880.20	213.79
880.51	213.71
880.82	213.86
881.12	213.90
881.43	213.38
881.74	213.29
882.05	213.50
882.36	213.62
882.67	213.93
882.97	211.76
883.28	211.62
883.59	211.76
883.90	212.24
884.21	212.45
884.51	212.31
884.82	212.05
885.13	211.76
885.44	211.67
885.74	211.60
886.05	211.52
886.36	211.45
886.67	210.64
886.98	211.95
887.28	211.95
887.59	212.24
887.90	212.26
888.20	212.14
888.51	212.45
888.82	212.12
889.13	212.07
889.43	213.69
889.74	213.69
890.05	213.55
890.35	212.95
890.66	212.43
890.97	212.31
891.28	212.12
891.58	212.48
891.89	212.40
892.20	211.95
892.50	211.90
892.81	211.81
893.12	211.95
893.42	210.60
893.73	210.60
894.04	210.48
894.34	210.64
894.65	210.79
894.95	210.52
895.26	210.79
895.57	211.67
895.87	209.67
896.18	210.02
896.48	210.17
896.79	210.36
897.10	211.00
897.40	211.10
897.71	211.12
898.01	210.69
898.32	211.14
898.63	211.07
898.93	210.95
899.24	211.17
899.54	211.21
899.85	211.33
900.15	211.05
900.46	211.02
900.76	211.33
901.07	211.07
901.38	210.95
901.68	211.07
901.99	210.17
902.29	210.74
902.60	210.43
902.90	210.17
903.21	210.17
903.51	209.81
903.82	210.29
904.12	210.57
904.43	210.79
904.73	210.57
905.03	211.00
905.34	213.21
905.64	213.00
905.95	212.93
906.25	212.83
906.56	212.90
906.86	212.69
907.17	212.45
907.47	212.88
907.77	212.60
908.08	212.19
908.38	212.14
908.69	212.14
908.99	212.71
909.30	212.90
909.60	212.76
909.90	212.98
910.21	212.48
910.51	212.29
910.81	212.26
911.12	212.31
911.42	212.19
911.73	210.05
912.03	210.14
912.33	210.67
912.64	210.67
912.94	210.64
913.24	210.60
913.55	210.29
913.85	210.19
914.15	210.81
914.46	211.10
914.76	211.24
915.06	211.12
915.37	210.67
915.67	210.36
915.97	210.38
916.27	209.86
916.58	209.88
916.88	209.79
917.18	209.64
917.49	211.21
917.79	211.29
918.09	211.69
918.39	212.31
918.70	211.98
919.00	212.07
919.30	213.00
919.60	212.90
919.91	212.98
920.21	212.88
920.51	212.38
920.81	212.31
921.12	212.81
921.42	212.67
921.72	212.81
922.02	213.12
922.32	213.38
922.63	213.55
922.93	214.69
923.23	214.98
923.53	214.86
923.83	213.48
924.13	213.67
924.44	213.67
924.74	214.00
925.04	214.57
925.34	214.48
925.64	213.60
925.94	213.64
926.24	214.67
926.55	214.62
926.85	214.95
927.15	214.93
927.45	214.50
927.75	214.50
928.05	214.67
928.35	214.52
928.65	214.79
928.95	215.00
929.26	214.36
929.56	214.55
929.86	214.76
930.16	214.57
930.46	214.26
930.76	213.93
931.06	212.81
931.36	212.21
931.66	212.52
931.96	212.69
932.26	212.98
932.56	212.17
932.86	212.36
933.16	212.31
933.46	212.12
933.76	211.76
934.06	212.31
934.36	212.76
934.66	212.83
934.96	212.64
935.26	212.71
935.56	212.90
935.86	212.31
936.16	212.31
936.46	212.05
936.76	212.17
937.06	212.14
937.36	212.38
937.66	212.40
937.96	212.40
938.26	211.76
938.56	211.74
938.86	211.76
939.16	212.19
939.46	212.60
939.76	212.86
940.06	213.17
940.35	212.62
940.65	211.62
940.95	211.64
941.25	211.29
941.55	210.98
941.85	210.71
942.15	211.33
942.45	211.71
942.75	212.02
943.04	212.07
943.34	212.21
943.64	212.12
943.94	211.90
944.24	211.90
944.54	212.57
944.84	212.48
945.13	212.26
945.43	212.10
945.73	211.64
946.03	211.45
946.33	211.19
946.62	211.19
946.92	211.29
947.22	211.48
947.52	211.57
947.82	211.64
948.11	211.62
948.41	211.24
948.71	210.69
949.01	210.67
949.31	210.40
949.60	210.48
949.90	210.88
950.20	210.95
950.50	210.81
950.79	210.69
951.09	211.02
951.39	211.10
951.69	210.71
951.98	211.05
952.28	211.31
952.58	211.19
952.87	211.26
953.17	211.55
953.47	211.31
953.76	211.31
954.06	211.24
954.36	210.83
954.66	210.71
954.95	211.31
955.25	211.43
955.55	211.71
955.84	211.52
956.14	211.57
956.44	211.62
956.73	211.36
957.03	211.36
957.32	211.24
957.62	211.31
957.92	211.64
958.21	211.45
958.51	213.43
958.81	213.76
959.10	213.79
959.40	214.43
959.69	214.43
959.99	214.74
960.29	214.69
960.58	214.88
960.88	215.90
961.17	215.55
961.47	215.79
961.76	215.45
962.06	215.88
962.36	215.71
962.65	215.86
962.95	216.00
963.24	215.83
963.54	215.90
963.83	215.95
964.13	215.90
964.42	215.55
964.72	213.88
965.01	214.07
965.31	213.88
965.60	212.98
965.90	214.55
966.19	214.14
966.49	214.26
966.78	213.98
967.08	213.40
967.37	213.67
967.67	213.26
967.96	213.67
968.26	213.67
968.55	213.64
968.85	213.33
969.14	213.33
969.43	213.31
969.73	213.05
970.02	212.74
970.32	212.62
970.61	212.67
970.91	212.19
971.20	211.71
971.49	211.76
971.79	211.90
972.08	210.12
972.38	210.05
972.67	209.90
972.96	210.31
973.26	210.05
973.55	210.67
973.85	210.62
974.14	210.38
974.43	210.33
974.73	210.00
975.02	210.00
975.31	209.81
975.61	209.74
975.90	209.67
976.19	209.67
976.49	209.93
976.78	210.07
977.07	210.26
977.37	210.38
977.66	210.43
977.95	210.48
978.24	210.67
978.54	211.21
978.83	211.12
979.12	211.05
979.42	210.93
979.71	210.36
980.00	210.17
980.29	210.21
980.59	209.81
980.88	210.64
981.17	210.62
981.46	210.83
981.76	210.98
982.05	211.40
982.34	211.62
982.63	211.60
982.93	211.38
983.22	211.69
983.51	211.57
983.80	211.93
984.09	211.98
984.39	212.31
984.68	212.12
984.97	212.19
985.26	211.81
985.55	211.81
985.85	211.36
986.14	211.74
986.43	211.95
986.72	211.98
987.01	211.26
987.30	211.33
987.59	211.17
987.89	211.29
988.18	210.74
988.47	210.50
988.76	210.36
989.05	210.24
989.34	209.98
989.63	210.64
989.92	210.21
990.22	210.12
990.51	209.62
990.80	209.40
991.09	209.52
991.38	209.79
991.67	209.90
991.96	209.71
992.25	209.71
992.54	209.38
992.83	209.29
993.12	209.19
993.41	209.45
993.70	210.21
993.99	210.40
994.28	210.83
994.58	211.19
994.87	211.02
995.16	211.12
995.45	210.86
995.74	210.26
996.03	210.79
996.32	210.95
996.61	211.62
996.90	211.64
997.19	211.64
997.48	211.64
997.77	211.36
998.06	211.43
998.34	211.36
998.63	211.36
998.92	211.57
999.21	211.83
999.50	211.86
999.79	211.14
1000.08	211.07
1000.37	211.00
1000.66	210.69
1000.95	211.10
1001.24	211.31
1001.53	211.55
1001.82	211.36
1002.11	210.79
1002.40	210.93
1002.68	211.19
1002.97	212.71
1003.26	212.48
1003.55	212.48
1003.84	212.81
1004.13	213.69
1004.42	213.50
1004.71	213.64
1004.99	213.31
1005.28	214.07
1005.57	213.88
1005.86	213.74
1006.15	213.79
1006.44	213.48
1006.72	213.74
1007.01	213.38
1007.30	213.24
1007.59	213.21
1007.88	213.29
1008.17	213.31
1008.45	212.90
1008.74	212.07
1009.03	211.05
1009.32	211.02
1009.60	210.79
1009.89	210.55
1010.18	209.57
1010.47	209.45
1010.76	209.52
1011.04	209.55
1011.33	209.24
1011.62	209.64
1011.91	209.76
1012.19	209.62
1012.48	209.83
1012.77	210.10
1013.05	210.95
1013.34	211.00
1013.63	211.02
1013.92	211.19
1014.20	211.05
1014.49	211.45
1014.78	211.71
1015.06	210.88
1015.35	210.98
1015.64	211.36
1015.92	211.55
1016.21	211.83
1016.50	212.07
1016.78	212.12
1017.07	212.43
1017.36	211.95
1017.64	211.40
1017.93	211.83
1018.22	211.76
1018.50	211.64
1018.79	211.21
1019.08	210.29
1019.36	210.45
1019.65	210.07
1019.93	210.60
1020.22	211.12
1020.51	211.90
1020.79	211.48
1021.08	210.00
1021.36	209.00
1021.65	210.00
1021.94	209.00
1022.22	213.00
1022.51	206.00
1022.79	219.50
1023.08	216.00
1023.36	234.00
1023.65	202.50
>>>>>End Processed Spectral Data<<<<<
