SpectraSuite Data File
++++++++++++++++++++++++++++++++++++
Date: Tue Apr 02 18:40:55 EDT 2013
User: group
Dark Spectrum Present: No
Reference Spectrum Present: No
Number of Sampled Component Spectra: 1
Spectrometers: USB2E7196
Integration Time (usec): 580000 (USB2E7196)
Spectra Averaged: 2 (USB2E7196)
Boxcar Smoothing: 10 (USB2E7196)
Correct for Electrical Dark: No (USB2E7196)
Strobe/Lamp Enabled: No (USB2E7196)
Correct for Detector Non-linearity: No (USB2E7196)
Correct for Stray Light: No (USB2E7196)
Number of Pixels in Processed Spectrum: 2048
>>>>>Begin Processed Spectral Data<<<<<
339.09	0.00
339.48	194.00
339.86	196.00
340.24	196.00
340.63	199.50
341.01	228.50
341.39	204.50
341.78	212.00
342.16	215.50
342.54	205.50
342.93	198.62
343.31	208.38
343.69	208.98
344.07	209.55
344.46	210.48
344.84	210.93
345.22	209.83
345.60	210.17
345.99	209.93
346.37	209.76
346.75	209.79
347.13	210.14
347.52	210.24
347.90	210.90
348.28	210.86
348.66	211.38
349.05	210.83
349.43	211.26
349.81	211.76
350.19	211.81
350.57	211.98
350.96	212.10
351.34	212.79
351.72	212.98
352.10	212.90
352.48	212.52
352.87	212.43
353.25	212.60
353.63	212.38
354.01	212.55
354.39	212.60
354.77	212.86
355.15	213.19
355.54	213.19
355.92	212.38
356.30	212.36
356.68	213.74
357.06	213.93
357.44	213.55
357.82	213.36
358.20	214.29
358.58	214.21
358.97	214.31
359.35	214.36
359.73	214.79
360.11	214.95
360.49	215.14
360.87	215.17
361.25	215.50
361.63	216.26
362.01	216.21
362.39	216.07
362.77	216.05
363.15	216.02
363.53	216.10
363.91	216.40
364.29	216.26
364.67	214.48
365.05	214.45
365.43	214.50
365.81	214.64
366.19	214.74
366.57	215.50
366.95	215.43
367.33	214.95
367.71	214.86
368.09	215.14
368.47	215.17
368.85	215.36
369.23	215.74
369.61	215.12
369.99	215.62
370.37	215.95
370.75	217.07
371.13	216.64
371.51	216.26
371.89	216.50
372.27	216.67
372.65	216.55
373.03	216.67
373.41	216.60
373.78	216.48
374.16	215.52
374.54	214.93
374.92	214.62
375.30	214.60
375.68	214.26
376.06	214.55
376.44	214.43
376.82	214.57
377.19	214.36
377.57	214.17
377.95	213.71
378.33	213.79
378.71	212.45
379.09	212.93
379.47	213.38
379.84	213.02
380.22	213.14
380.60	212.95
380.98	212.81
381.36	213.02
381.73	212.67
382.11	212.90
382.49	212.98
382.87	212.76
383.25	213.05
383.62	215.57
384.00	214.95
384.38	214.95
384.76	215.38
385.13	216.29
385.51	216.45
385.89	216.26
386.27	216.07
386.64	216.57
387.02	216.24
387.40	216.00
387.78	216.33
388.15	216.21
388.53	216.12
388.91	216.21
389.29	215.88
389.66	216.24
390.04	216.19
390.42	216.36
390.79	216.64
391.17	216.57
391.55	214.14
391.92	214.12
392.30	214.48
392.68	213.86
393.05	213.38
393.43	213.40
393.81	213.40
394.18	213.05
394.56	212.98
394.94	213.26
395.31	213.17
395.69	213.60
396.06	213.98
396.44	214.26
396.82	214.02
397.19	215.21
397.57	215.12
397.95	215.45
398.32	215.10
398.70	215.24
399.07	215.36
399.45	215.24
399.82	215.29
400.20	214.93
400.58	215.05
400.95	214.31
401.33	214.90
401.70	216.52
402.08	216.57
402.45	216.64
402.83	217.31
403.20	217.74
403.58	217.69
403.95	218.14
404.33	218.45
404.71	218.95
405.08	220.10
405.46	220.40
405.83	220.79
406.21	221.21
406.58	221.69
406.96	222.05
407.33	222.90
407.70	223.86
408.08	226.17
408.45	226.98
408.83	228.43
409.20	228.62
409.58	228.21
409.95	229.55
410.33	230.55
410.70	230.74
411.08	231.69
411.45	232.60
411.82	233.24
412.20	235.02
412.57	237.36
412.95	236.95
413.32	238.81
413.69	240.36
414.07	242.02
414.44	243.98
414.82	246.10
415.19	248.62
415.56	250.74
415.94	251.98
416.31	255.00
416.68	257.55
417.06	260.95
417.43	264.93
417.81	268.71
418.18	272.62
418.55	276.67
418.93	280.79
419.30	285.19
419.67	290.33
420.04	294.69
420.42	299.31
420.79	306.81
421.16	312.74
421.54	319.69
421.91	326.29
422.28	332.64
422.66	339.93
423.03	347.74
423.40	354.83
423.77	362.29
424.15	369.93
424.52	377.90
424.89	387.07
425.26	394.83
425.64	402.79
426.01	411.55
426.38	420.71
426.75	430.93
427.13	440.71
427.50	450.38
427.87	460.64
428.24	470.90
428.61	479.83
428.99	491.19
429.36	502.31
429.73	513.69
430.10	525.67
430.47	537.93
430.85	549.24
431.22	562.71
431.59	578.57
431.96	591.48
432.33	606.07
432.70	620.26
433.08	636.43
433.45	652.43
433.82	668.60
434.19	686.88
434.56	704.36
434.93	720.95
435.30	737.67
435.68	756.43
436.05	774.55
436.42	792.21
436.79	809.40
437.16	827.88
437.53	847.07
437.90	865.88
438.27	884.05
438.64	902.76
439.01	920.90
439.38	934.98
439.75	951.02
440.13	969.55
440.50	985.55
440.87	999.10
441.24	1013.19
441.61	1028.19
441.98	1038.74
442.35	1050.98
442.72	1065.33
443.09	1079.48
443.46	1087.31
443.83	1092.95
444.20	1098.21
444.57	1104.21
444.94	1107.62
445.31	1111.45
445.68	1117.38
446.05	1118.88
446.42	1117.79
446.79	1116.17
447.16	1114.45
447.53	1113.24
447.90	1106.14
448.27	1099.93
448.64	1091.79
449.01	1085.36
449.37	1073.79
449.74	1062.50
450.11	1051.00
450.48	1034.40
450.85	1017.79
451.22	1004.40
451.59	991.95
451.96	979.83
452.33	963.29
452.70	947.64
453.07	929.64
453.43	909.07
453.80	891.86
454.17	875.76
454.54	859.14
454.91	842.07
455.28	825.02
455.65	809.14
456.02	796.95
456.38	783.48
456.75	766.88
457.12	752.43
457.49	738.86
457.86	723.62
458.23	713.31
458.59	701.17
458.96	689.10
459.33	677.79
459.70	665.88
460.07	656.98
460.43	647.00
460.80	637.86
461.17	630.00
461.54	621.43
461.91	612.67
462.27	604.52
462.64	597.50
463.01	589.69
463.38	583.19
463.74	572.29
464.11	565.14
464.48	559.12
464.85	553.14
465.21	548.95
465.58	544.07
465.95	537.07
466.32	531.43
466.68	525.81
467.05	520.71
467.42	516.31
467.78	510.79
468.15	505.69
468.52	501.83
468.88	495.98
469.25	491.17
469.62	487.69
469.98	483.83
470.35	479.64
470.72	476.00
471.08	470.88
471.45	467.74
471.82	464.76
472.18	461.14
472.55	458.45
472.92	454.21
473.28	450.83
473.65	448.12
474.02	445.33
474.38	442.93
474.75	440.71
475.11	437.93
475.48	436.36
475.85	434.69
476.21	432.50
476.58	431.43
476.94	430.02
477.31	428.40
477.67	426.88
478.04	425.62
478.41	424.48
478.77	425.60
479.14	424.24
479.50	423.57
479.87	422.98
480.23	422.69
480.60	422.74
480.96	423.07
481.33	424.05
481.69	424.29
482.06	424.60
482.42	425.19
482.79	425.98
483.15	426.40
483.52	427.38
483.88	427.79
484.25	428.33
484.61	428.76
484.98	429.38
485.34	431.36
485.71	433.17
486.07	434.60
486.44	434.62
486.80	436.38
487.17	437.90
487.53	440.62
487.90	442.69
488.26	445.52
488.62	448.14
488.99	449.98
489.35	452.76
489.72	455.31
490.08	457.17
490.44	459.79
490.81	462.95
491.17	465.83
491.54	469.69
491.90	473.52
492.26	477.88
492.63	482.07
492.99	485.57
493.36	489.88
493.72	494.33
494.08	498.52
494.45	503.74
494.81	508.95
495.17	513.67
495.54	518.81
495.90	523.90
496.26	528.40
496.63	533.83
496.99	539.31
497.35	545.19
497.72	551.74
498.08	557.83
498.44	564.17
498.80	570.83
499.17	577.14
499.53	583.62
499.89	590.62
500.26	597.67
500.62	604.52
500.98	611.74
501.34	618.98
501.71	626.64
502.07	633.69
502.43	641.14
502.79	648.14
503.16	655.62
503.52	662.81
503.88	670.71
504.24	678.19
504.60	686.29
504.97	694.50
505.33	702.83
505.69	711.45
506.05	719.45
506.41	727.50
506.78	735.17
507.14	743.38
507.50	751.48
507.86	759.38
508.22	767.88
508.59	775.21
508.95	783.48
509.31	792.52
509.67	801.02
510.03	809.14
510.39	817.57
510.75	825.74
511.12	833.64
511.48	842.17
511.84	850.52
512.20	858.76
512.56	866.95
512.92	874.74
513.28	883.21
513.64	891.21
514.00	899.12
514.37	907.43
514.73	915.14
515.09	922.86
515.45	930.60
515.81	937.43
516.17	945.36
516.53	952.43
516.89	958.52
517.25	965.02
517.61	972.69
517.97	979.52
518.33	986.36
518.69	994.17
519.05	1000.95
519.41	1008.52
519.77	1015.98
520.13	1022.40
520.49	1029.00
520.85	1035.17
521.21	1042.05
521.57	1048.71
521.93	1054.50
522.29	1061.07
522.65	1066.69
523.01	1072.79
523.37	1078.52
523.73	1084.48
524.09	1090.31
524.45	1095.60
524.81	1101.76
525.17	1107.26
525.53	1112.71
525.89	1117.79
526.25	1123.12
526.61	1127.74
526.97	1131.71
527.33	1136.10
527.68	1142.50
528.04	1147.48
528.40	1151.81
528.76	1155.24
529.12	1159.24
529.48	1164.12
529.84	1168.17
530.20	1173.29
530.56	1178.45
530.91	1183.45
531.27	1188.45
531.63	1193.38
531.99	1198.31
532.35	1202.10
532.71	1206.40
533.07	1212.40
533.42	1219.90
533.78	1224.17
534.14	1229.21
534.50	1233.79
534.86	1238.67
535.21	1241.57
535.57	1246.38
535.93	1249.98
536.29	1256.64
536.65	1261.60
537.00	1266.14
537.36	1270.52
537.72	1274.14
538.08	1278.38
538.44	1281.98
538.79	1285.81
539.15	1289.79
539.51	1294.31
539.87	1298.38
540.22	1302.17
540.58	1304.69
540.94	1306.50
541.29	1310.60
541.65	1313.60
542.01	1318.17
542.37	1321.29
542.72	1323.90
543.08	1326.90
543.44	1330.45
543.79	1332.05
544.15	1335.55
544.51	1339.57
544.87	1343.14
545.22	1346.69
545.58	1349.33
545.94	1352.67
546.29	1355.69
546.65	1359.50
547.01	1361.83
547.36	1365.26
547.72	1368.29
548.07	1371.52
548.43	1373.64
548.79	1376.45
549.14	1379.57
549.50	1382.26
549.86	1384.81
550.21	1388.76
550.57	1392.43
550.92	1396.05
551.28	1400.86
551.64	1403.86
551.99	1406.98
552.35	1410.19
552.70	1413.60
553.06	1417.38
553.41	1421.38
553.77	1426.98
554.13	1430.76
554.48	1436.05
554.84	1441.12
555.19	1445.40
555.55	1451.12
555.90	1456.10
556.26	1460.19
556.61	1464.26
556.97	1468.67
557.32	1473.79
557.68	1477.86
558.03	1481.79
558.39	1485.67
558.74	1489.83
559.10	1494.19
559.45	1499.00
559.81	1504.24
560.16	1508.93
560.52	1513.40
560.87	1519.24
561.23	1521.76
561.58	1528.12
561.94	1532.55
562.29	1535.67
562.64	1541.38
563.00	1545.10
563.35	1550.40
563.71	1555.33
564.06	1561.48
564.42	1566.76
564.77	1572.45
565.12	1579.17
565.48	1587.07
565.83	1594.33
566.19	1599.90
566.54	1605.55
566.89	1611.07
567.25	1617.45
567.60	1624.21
567.96	1632.57
568.31	1638.93
568.66	1645.93
569.02	1649.19
569.37	1654.24
569.72	1660.40
570.08	1664.36
570.43	1669.24
570.78	1674.29
571.14	1679.17
571.49	1683.50
571.84	1688.21
572.20	1692.02
572.55	1696.45
572.90	1698.43
573.26	1702.14
573.61	1705.14
573.96	1709.29
574.31	1713.52
574.67	1716.57
575.02	1720.64
575.37	1721.62
575.72	1723.19
576.08	1726.10
576.43	1729.33
576.78	1732.12
577.13	1735.52
577.49	1738.69
577.84	1742.07
578.19	1744.95
578.54	1748.52
578.90	1752.38
579.25	1755.74
579.60	1757.52
579.95	1759.69
580.30	1762.69
580.66	1766.33
581.01	1769.57
581.36	1771.57
581.71	1773.45
582.06	1776.07
582.42	1777.64
582.77	1779.40
583.12	1781.98
583.47	1784.38
583.82	1786.76
584.17	1789.40
584.53	1791.86
584.88	1793.88
585.23	1796.33
585.58	1797.55
585.93	1799.05
586.28	1800.76
586.63	1801.90
586.98	1804.74
587.34	1807.83
587.69	1808.45
588.04	1808.50
588.39	1809.45
588.74	1810.00
589.09	1811.14
589.44	1810.31
589.79	1811.19
590.14	1813.10
590.49	1813.17
590.84	1813.17
591.19	1813.95
591.54	1814.10
591.89	1813.98
592.25	1816.17
592.60	1815.88
592.95	1815.67
593.30	1816.48
593.65	1816.33
594.00	1815.07
594.35	1820.43
594.70	1817.43
595.05	1817.10
595.40	1816.26
595.75	1816.21
596.10	1817.60
596.45	1817.40
596.80	1818.02
597.15	1817.60
597.50	1815.93
597.85	1816.64
598.19	1815.64
598.54	1814.12
598.89	1812.21
599.24	1811.60
599.59	1809.14
599.94	1807.71
600.29	1807.19
600.64	1804.81
600.99	1802.62
601.34	1802.52
601.69	1794.88
602.04	1793.74
602.39	1792.69
602.74	1792.14
603.08	1790.33
603.43	1789.07
603.78	1786.69
604.13	1784.71
604.48	1782.29
604.83	1780.69
605.18	1778.90
605.53	1776.86
605.87	1774.21
606.22	1772.90
606.57	1770.67
606.92	1768.12
607.27	1766.33
607.62	1764.19
607.96	1762.07
608.31	1760.31
608.66	1757.90
609.01	1755.64
609.36	1754.07
609.70	1751.02
610.05	1747.52
610.40	1744.10
610.75	1740.26
611.10	1736.86
611.44	1734.17
611.79	1730.67
612.14	1725.98
612.49	1720.17
612.83	1716.31
613.18	1712.88
613.53	1708.60
613.88	1703.17
614.22	1698.52
614.57	1692.93
614.92	1688.21
615.27	1683.50
615.61	1677.76
615.96	1672.93
616.31	1668.10
616.65	1663.79
617.00	1659.38
617.35	1654.33
617.70	1649.95
618.04	1644.26
618.39	1639.57
618.74	1633.52
619.08	1628.36
619.43	1624.45
619.78	1620.12
620.12	1615.38
620.47	1610.62
620.82	1605.43
621.16	1600.31
621.51	1596.60
621.85	1591.07
622.20	1585.67
622.55	1579.52
622.89	1575.14
623.24	1570.00
623.59	1564.45
623.93	1558.33
624.28	1553.83
624.62	1551.48
624.97	1547.76
625.32	1543.33
625.66	1538.36
626.01	1533.62
626.35	1528.86
626.70	1523.81
627.04	1519.98
627.39	1515.55
627.73	1511.12
628.08	1507.95
628.43	1503.17
628.77	1497.62
629.12	1493.62
629.46	1489.62
629.81	1485.95
630.15	1480.24
630.50	1474.45
630.84	1470.10
631.19	1464.19
631.53	1458.29
631.88	1448.90
632.22	1441.67
632.57	1435.55
632.91	1429.19
633.26	1424.10
633.60	1418.24
633.95	1412.19
634.29	1405.81
634.64	1399.50
634.98	1393.45
635.32	1387.48
635.67	1382.90
636.01	1377.69
636.36	1372.07
636.70	1366.52
637.05	1360.71
637.39	1355.95
637.73	1350.76
638.08	1346.31
638.42	1342.10
638.77	1336.43
639.11	1331.93
639.45	1326.07
639.80	1320.07
640.14	1314.31
640.49	1307.57
640.83	1301.05
641.17	1295.21
641.52	1288.60
641.86	1282.93
642.20	1278.02
642.55	1270.45
642.89	1263.31
643.23	1255.64
643.58	1250.05
643.92	1242.05
644.26	1235.02
644.61	1228.31
644.95	1220.79
645.29	1212.31
645.64	1205.81
645.98	1199.33
646.32	1193.36
646.66	1186.71
647.01	1179.86
647.35	1173.98
647.69	1167.71
648.04	1161.86
648.38	1155.52
648.72	1149.14
649.06	1141.93
649.41	1133.60
649.75	1126.62
650.09	1120.57
650.43	1113.67
650.78	1105.57
651.12	1099.31
651.46	1092.86
651.80	1086.36
652.14	1080.36
652.49	1074.79
652.83	1067.19
653.17	1059.98
653.51	1052.76
653.85	1046.55
654.20	1040.45
654.54	1033.17
654.88	1026.43
655.22	1020.50
655.56	1013.76
655.90	1007.14
656.25	1000.45
656.59	994.64
656.93	989.10
657.27	983.17
657.61	977.43
657.95	972.24
658.29	966.05
658.64	960.14
658.98	953.83
659.32	947.88
659.66	941.21
660.00	935.67
660.34	929.45
660.68	923.40
661.02	917.24
661.36	911.17
661.70	905.95
662.05	900.40
662.39	894.12
662.73	889.24
663.07	884.64
663.41	879.05
663.75	873.02
664.09	867.19
664.43	860.71
664.77	854.50
665.11	848.48
665.45	843.45
665.79	837.88
666.13	831.55
666.47	825.74
666.81	820.71
667.15	814.81
667.49	809.79
667.83	804.86
668.17	799.26
668.51	793.62
668.85	787.67
669.19	783.02
669.53	776.88
669.87	771.14
670.21	765.43
670.55	759.62
670.89	755.33
671.23	750.36
671.57	745.02
671.91	740.50
672.25	735.26
672.58	730.33
672.92	724.62
673.26	719.95
673.60	715.33
673.94	710.24
674.28	705.55
674.62	701.07
674.96	696.43
675.30	692.43
675.64	688.14
675.97	684.26
676.31	679.40
676.65	675.12
676.99	670.93
677.33	666.12
677.67	662.71
678.01	657.88
678.34	653.60
678.68	650.19
679.02	645.95
679.36	641.88
679.70	636.93
680.04	633.50
680.37	628.83
680.71	624.17
681.05	620.02
681.39	616.14
681.73	611.64
682.06	607.14
682.40	602.69
682.74	599.02
683.08	595.17
683.42	590.64
683.75	587.17
684.09	582.60
684.43	578.52
684.77	574.07
685.10	569.81
685.44	565.31
685.78	561.26
686.12	557.14
686.45	553.29
686.79	549.43
687.13	545.67
687.46	542.64
687.80	539.69
688.14	535.71
688.48	532.19
688.81	528.57
689.15	525.36
689.49	521.29
689.82	517.31
690.16	513.14
690.50	509.17
690.83	505.31
691.17	501.48
691.51	497.86
691.84	494.55
692.18	491.29
692.52	488.29
692.85	484.95
693.19	482.36
693.52	478.93
693.86	475.52
694.20	471.90
694.53	468.71
694.87	464.67
695.21	461.26
695.54	457.14
695.88	453.74
696.21	449.88
696.55	446.95
696.88	444.31
697.22	441.26
697.56	438.74
697.89	435.62
698.23	433.40
698.56	430.69
698.90	427.98
699.23	424.88
699.57	422.17
699.90	419.29
700.24	415.83
700.58	413.02
700.91	410.83
701.25	409.88
701.58	407.71
701.92	406.14
702.25	403.86
702.59	401.36
702.92	399.05
703.26	396.93
703.59	394.50
703.93	393.81
704.26	392.19
704.60	390.12
704.93	387.81
705.26	385.12
705.60	383.43
705.93	381.00
706.27	379.57
706.60	377.60
706.94	376.60
707.27	374.67
707.61	372.88
707.94	370.93
708.27	367.31
708.61	364.98
708.94	362.71
709.28	361.12
709.61	359.64
709.94	357.95
710.28	356.43
710.61	354.95
710.95	351.26
711.28	350.17
711.61	348.57
711.95	347.55
712.28	345.67
712.61	343.52
712.95	343.00
713.28	342.02
713.61	340.17
713.95	337.62
714.28	336.36
714.61	334.71
714.95	333.10
715.28	331.60
715.61	330.07
715.95	328.69
716.28	326.98
716.61	326.00
716.95	324.52
717.28	322.90
717.61	321.29
717.94	319.86
718.28	317.29
718.61	315.57
718.94	313.98
719.27	312.86
719.61	311.90
719.94	310.12
720.27	307.71
720.60	306.40
720.94	305.21
721.27	303.67
721.60	302.83
721.93	301.60
722.27	301.17
722.60	300.02
722.93	298.74
723.26	297.86
723.59	296.31
723.93	295.57
724.26	294.62
724.59	293.40
724.92	292.74
725.25	292.31
725.59	291.26
725.92	290.40
726.25	289.52
726.58	288.86
726.91	287.83
727.24	287.60
727.57	287.00
727.91	285.69
728.24	285.00
728.57	283.86
728.90	283.43
729.23	282.17
729.56	282.19
729.89	281.43
730.22	280.40
730.55	279.74
730.89	278.83
731.22	277.79
731.55	277.24
731.88	276.52
732.21	275.43
732.54	275.02
732.87	274.29
733.20	273.67
733.53	272.86
733.86	272.29
734.19	271.00
734.52	270.67
734.85	271.50
735.18	271.02
735.51	271.12
735.84	270.62
736.17	270.33
736.50	268.76
736.83	270.79
737.16	270.36
737.49	269.81
737.82	269.14
738.15	269.07
738.48	268.79
738.81	267.90
739.14	266.93
739.47	266.21
739.80	265.43
740.13	265.00
740.46	264.00
740.79	263.29
741.12	262.74
741.45	261.79
741.78	260.24
742.11	260.19
742.44	259.17
742.77	258.76
743.10	258.07
743.43	257.57
743.75	254.57
744.08	256.26
744.41	255.62
744.74	254.90
745.07	253.90
745.40	253.57
745.73	253.95
746.06	253.88
746.39	253.50
746.71	252.98
747.04	252.17
747.37	251.62
747.70	251.31
748.03	251.05
748.36	250.88
748.68	250.50
749.01	249.40
749.34	248.81
749.67	248.10
750.00	247.90
750.33	248.95
750.65	248.90
750.98	246.31
751.31	246.12
751.64	245.88
751.97	246.67
752.29	245.88
752.62	244.62
752.95	244.19
753.28	243.67
753.60	243.33
753.93	243.62
754.26	243.48
754.59	242.64
754.91	242.24
755.24	241.71
755.57	241.02
755.90	240.60
756.22	240.07
756.55	239.64
756.88	238.79
757.20	237.29
757.53	236.17
757.86	235.81
758.19	235.52
758.51	235.31
758.84	234.10
759.17	233.79
759.49	233.55
759.82	234.19
760.15	233.93
760.47	233.55
760.80	232.88
761.13	233.05
761.45	232.98
761.78	232.62
762.11	232.36
762.43	232.19
762.76	232.12
763.08	232.43
763.41	232.21
763.74	232.10
764.06	231.67
764.39	232.02
764.71	231.64
765.04	231.05
765.37	230.74
765.69	230.62
766.02	230.57
766.34	230.36
766.67	229.38
767.00	229.69
767.32	230.69
767.65	231.67
767.97	231.38
768.30	231.19
768.62	230.93
768.95	230.60
769.27	230.29
769.60	230.19
769.92	229.71
770.25	229.19
770.57	228.90
770.90	228.74
771.22	228.07
771.55	228.19
771.87	228.31
772.20	227.98
772.52	229.29
772.85	231.52
773.17	231.36
773.50	231.24
773.82	230.83
774.15	229.81
774.47	228.17
774.80	227.62
775.12	227.45
775.45	227.38
775.77	227.45
776.09	227.45
776.42	227.40
776.74	227.90
777.07	227.83
777.39	227.88
777.72	227.57
778.04	227.67
778.36	227.19
778.69	227.31
779.01	227.36
779.33	225.62
779.66	223.02
779.98	222.81
780.31	222.67
780.63	223.45
780.95	223.67
781.28	223.81
781.60	223.60
781.92	223.52
782.25	223.48
782.57	223.43
782.89	223.24
783.22	223.00
783.54	222.05
783.86	222.19
784.19	221.98
784.51	222.45
784.83	222.31
785.16	222.38
785.48	222.07
785.80	221.88
786.12	222.19
786.45	222.05
786.77	222.31
787.09	221.83
787.42	220.88
787.74	220.81
788.06	220.71
788.38	220.52
788.71	220.21
789.03	220.12
789.35	220.07
789.67	219.90
789.99	219.88
790.32	219.93
790.64	219.74
790.96	221.31
791.28	220.74
791.61	220.45
791.93	220.45
792.25	220.31
792.57	221.81
792.89	221.07
793.21	221.21
793.54	220.98
793.86	221.17
794.18	221.17
794.50	220.86
794.82	220.93
795.14	221.33
795.47	221.71
795.79	221.67
796.11	220.93
796.43	220.69
796.75	220.79
797.07	220.83
797.39	221.00
797.71	219.31
798.04	219.45
798.36	219.74
798.68	219.48
799.00	219.88
799.32	218.45
799.64	219.05
799.96	218.88
800.28	219.02
800.60	218.62
800.92	218.81
801.24	218.45
801.56	218.60
801.89	218.31
802.21	218.38
802.53	218.02
802.85	218.76
803.17	220.00
803.49	219.57
803.81	219.57
804.13	219.38
804.45	219.38
804.77	219.12
805.09	218.95
805.41	218.69
805.73	218.12
806.05	218.10
806.37	217.81
806.69	217.76
807.01	217.48
807.33	217.55
807.65	216.88
807.97	218.17
808.28	217.74
808.60	217.79
808.92	217.21
809.24	218.52
809.56	218.24
809.88	217.24
810.20	217.36
810.52	217.50
810.84	217.26
811.16	217.00
811.48	217.05
811.80	217.74
812.12	217.64
812.43	218.19
812.75	218.29
813.07	217.93
813.39	218.19
813.71	217.88
814.03	218.07
814.35	218.07
814.67	216.83
814.98	216.71
815.30	216.50
815.62	216.36
815.94	214.98
816.26	214.81
816.58	214.60
816.89	214.81
817.21	214.29
817.53	214.14
817.85	214.31
818.17	214.45
818.48	213.60
818.80	213.98
819.12	213.40
819.44	213.12
819.76	212.98
820.07	212.88
820.39	213.17
820.71	212.95
821.03	212.90
821.34	212.81
821.66	213.17
821.98	213.52
822.30	213.36
822.61	214.90
822.93	214.81
823.25	214.62
823.57	214.36
823.88	214.88
824.20	215.17
824.52	215.31
824.83	215.38
825.15	215.17
825.47	215.38
825.79	215.55
826.10	215.36
826.42	215.48
826.74	215.62
827.05	215.55
827.37	215.60
827.69	215.45
828.00	215.57
828.32	215.60
828.64	215.31
828.95	216.55
829.27	215.74
829.58	215.79
829.90	216.36
830.22	216.36
830.53	215.76
830.85	215.40
831.17	214.93
831.48	214.71
831.80	214.81
832.11	214.57
832.43	214.43
832.75	214.33
833.06	215.40
833.38	214.74
833.69	214.67
834.01	214.76
834.32	214.79
834.64	214.55
834.96	214.64
835.27	214.57
835.59	213.95
835.90	213.52
836.22	213.36
836.53	212.69
836.85	212.69
837.16	214.98
837.48	215.19
837.79	215.79
838.11	215.74
838.42	215.79
838.74	215.93
839.05	215.64
839.37	215.55
839.68	214.33
840.00	214.26
840.31	214.40
840.63	214.40
840.94	214.36
841.26	214.17
841.57	213.88
841.88	214.21
842.20	214.02
842.51	213.74
842.83	213.86
843.14	216.19
843.46	215.95
843.77	214.76
844.08	214.88
844.40	214.38
844.71	214.19
845.03	214.14
845.34	214.07
845.65	214.07
845.97	214.21
846.28	214.21
846.60	214.38
846.91	213.95
847.22	213.76
847.54	214.21
847.85	214.33
848.16	214.31
848.48	213.71
848.79	214.48
849.10	214.93
849.42	215.07
849.73	213.00
850.04	213.12
850.36	212.48
850.67	212.60
850.98	212.48
851.30	212.79
851.61	212.55
851.92	212.43
852.23	213.02
852.55	213.31
852.86	213.62
853.17	213.79
853.49	214.31
853.80	214.71
854.11	214.86
854.42	215.31
854.74	215.02
855.05	215.45
855.36	214.29
855.67	214.29
855.99	214.24
856.30	216.52
856.61	216.31
856.92	216.19
857.23	215.90
857.55	215.64
857.86	215.62
858.17	216.29
858.48	216.02
858.79	215.57
859.11	215.69
859.42	215.43
859.73	215.12
860.04	215.05
860.35	214.67
860.66	214.00
860.98	213.76
861.29	214.17
861.60	213.69
861.91	214.29
862.22	213.76
862.53	213.74
862.84	211.31
863.16	211.88
863.47	211.40
863.78	211.48
864.09	211.93
864.40	212.05
864.71	211.90
865.02	212.14
865.33	212.21
865.64	211.74
865.95	211.90
866.27	213.19
866.58	213.07
866.89	213.29
867.20	213.60
867.51	213.40
867.82	213.07
868.13	213.93
868.44	213.60
868.75	214.12
869.06	213.95
869.37	214.21
869.68	213.60
869.99	214.00
870.30	214.00
870.61	214.02
870.92	213.67
871.23	213.40
871.54	213.69
871.85	213.95
872.16	214.40
872.47	214.33
872.78	213.38
873.09	213.57
873.40	213.29
873.71	213.21
874.02	213.21
874.33	213.26
874.64	212.60
874.95	212.88
875.26	212.52
875.56	212.43
875.87	212.33
876.18	212.12
876.49	214.02
876.80	214.05
877.11	213.86
877.42	214.07
877.73	214.26
878.04	213.86
878.35	213.98
878.66	213.83
878.96	213.60
879.27	213.50
879.58	213.38
879.89	213.43
880.20	213.93
880.51	213.98
880.82	213.83
881.12	214.14
881.43	213.95
881.74	213.76
882.05	213.79
882.36	213.98
882.67	214.48
882.97	212.55
883.28	212.33
883.59	212.10
883.90	212.26
884.21	212.57
884.51	212.57
884.82	212.26
885.13	212.19
885.44	212.14
885.74	212.00
886.05	211.67
886.36	211.64
886.67	210.83
886.98	211.98
887.28	212.31
887.59	212.19
887.90	211.95
888.20	211.74
888.51	212.02
888.82	211.64
889.13	211.74
889.43	213.26
889.74	213.36
890.05	213.48
890.35	213.14
890.66	212.76
890.97	212.74
891.28	212.55
891.58	212.38
891.89	212.62
892.20	212.57
892.50	212.48
892.81	212.26
893.12	212.17
893.42	211.14
893.73	211.10
894.04	211.14
894.34	211.38
894.65	211.52
894.95	211.43
895.26	211.76
895.57	212.45
895.87	210.64
896.18	210.67
896.48	210.74
896.79	210.83
897.10	210.88
897.40	210.81
897.71	211.00
898.01	211.00
898.32	211.17
898.63	211.21
898.93	211.57
899.24	211.86
899.54	211.93
899.85	211.81
900.15	211.67
900.46	211.69
900.76	211.81
901.07	211.69
901.38	211.71
901.68	211.86
901.99	210.86
902.29	211.12
902.60	211.21
902.90	211.02
903.21	210.95
903.51	210.98
903.82	211.52
904.12	211.48
904.43	211.76
904.73	211.43
905.03	211.45
905.34	213.17
905.64	212.98
905.95	213.07
906.25	213.00
906.56	213.19
906.86	213.24
907.17	213.21
907.47	213.43
907.77	213.26
908.08	212.76
908.38	213.02
908.69	213.19
908.99	213.43
909.30	213.60
909.60	213.64
909.90	213.60
910.21	212.90
910.51	212.79
910.81	212.74
911.12	212.90
911.42	212.95
911.73	210.95
912.03	211.07
912.33	211.50
912.64	211.55
912.94	211.29
913.24	210.67
913.55	210.43
913.85	210.43
914.15	210.81
914.46	211.10
914.76	210.95
915.06	210.88
915.37	210.57
915.67	210.55
915.97	210.57
916.27	210.33
916.58	210.48
916.88	210.38
917.18	210.26
917.49	211.86
917.79	211.79
918.09	212.17
918.39	212.74
918.70	212.38
919.00	212.43
919.30	213.33
919.60	213.55
919.91	213.40
920.21	213.33
920.51	212.88
920.81	212.64
921.12	212.81
921.42	212.81
921.72	213.12
922.02	213.29
922.32	213.83
922.63	213.98
922.93	215.12
923.23	215.02
923.53	214.71
923.83	213.29
924.13	213.38
924.44	213.31
924.74	213.57
925.04	214.31
925.34	214.12
925.64	213.38
925.94	213.24
926.24	214.60
926.55	214.64
926.85	214.90
927.15	215.10
927.45	215.24
927.75	215.05
928.05	214.71
928.35	214.52
928.65	214.60
928.95	214.62
929.26	213.74
929.56	214.31
929.86	215.05
930.16	214.81
930.46	214.74
930.76	214.90
931.06	214.10
931.36	213.64
931.66	214.29
931.96	214.43
932.26	214.57
932.56	213.50
932.86	213.64
933.16	213.64
933.46	213.50
933.76	213.14
934.06	213.79
934.36	214.69
934.66	214.64
934.96	214.31
935.26	214.36
935.56	214.69
935.86	214.38
936.16	213.69
936.46	213.36
936.76	213.21
937.06	212.95
937.36	212.90
937.66	212.86
937.96	212.71
938.26	212.29
938.56	212.55
938.86	212.76
939.16	213.05
939.46	213.21
939.76	213.19
940.06	213.43
940.35	212.76
940.65	211.50
940.95	211.62
941.25	210.69
941.55	210.43
941.85	210.12
942.15	210.55
942.45	211.17
942.75	211.38
943.04	211.64
943.34	211.81
943.64	211.71
943.94	211.40
944.24	211.24
944.54	211.31
944.84	211.12
945.13	210.76
945.43	210.50
945.73	210.48
946.03	210.21
946.33	209.93
946.62	209.76
946.92	209.98
947.22	210.17
947.52	210.86
947.82	211.31
948.11	211.45
948.41	210.79
948.71	210.02
949.01	210.12
949.31	209.90
949.60	209.93
949.90	210.14
950.20	210.07
950.50	210.10
950.79	210.05
951.09	210.19
951.39	210.05
951.69	209.74
951.98	210.05
952.28	210.29
952.58	210.26
952.87	210.33
953.17	210.67
953.47	210.60
953.76	210.57
954.06	210.07
954.36	209.50
954.66	209.26
954.95	210.21
955.25	210.48
955.55	210.52
955.84	210.17
956.14	210.38
956.44	210.64
956.73	210.31
957.03	210.62
957.32	210.55
957.62	210.62
957.92	211.12
958.21	210.79
958.51	213.19
958.81	213.55
959.10	213.71
959.40	214.19
959.69	214.07
959.99	214.48
960.29	214.57
960.58	214.71
960.88	215.83
961.17	215.38
961.47	215.48
961.76	215.33
962.06	215.76
962.36	215.55
962.65	215.55
962.95	215.74
963.24	215.29
963.54	215.48
963.83	215.60
964.13	215.40
964.42	214.93
964.72	213.02
965.01	212.86
965.31	212.74
965.60	212.07
965.90	213.38
966.19	212.64
966.49	212.90
966.78	212.98
967.08	212.86
967.37	213.10
967.67	212.71
967.96	213.05
968.26	212.88
968.55	213.17
968.85	213.12
969.14	212.83
969.43	212.90
969.73	212.55
970.02	212.31
970.32	212.05
970.61	212.19
970.91	211.76
971.20	211.57
971.49	211.57
971.79	211.76
972.08	210.19
972.38	210.74
972.67	210.43
972.96	210.60
973.26	210.02
973.55	210.50
973.85	210.52
974.14	210.31
974.43	210.50
974.73	210.17
975.02	210.05
975.31	210.26
975.61	210.29
975.90	210.17
976.19	210.14
976.49	210.36
976.78	210.48
977.07	210.55
977.37	210.55
977.66	210.64
977.95	210.36
978.24	210.71
978.54	210.81
978.83	210.79
979.12	210.45
979.42	210.43
979.71	209.93
980.00	209.86
980.29	210.12
980.59	209.74
980.88	210.26
981.17	210.14
981.46	210.43
981.76	210.19
982.05	210.83
982.34	211.02
982.63	211.14
982.93	211.19
983.22	211.81
983.51	212.14
983.80	212.45
984.09	212.81
984.39	212.67
984.68	212.40
984.97	212.60
985.26	212.60
985.55	212.71
985.85	212.24
986.14	212.60
986.43	212.76
986.72	212.83
987.01	212.21
987.30	212.21
987.59	211.71
987.89	212.07
988.18	211.76
988.47	211.64
988.76	211.40
989.05	211.05
989.34	210.55
989.63	210.76
989.92	210.48
990.22	210.29
990.51	210.24
990.80	210.14
991.09	210.43
991.38	210.74
991.67	210.67
991.96	210.50
992.25	210.71
992.54	210.33
992.83	210.07
993.12	210.02
993.41	210.31
993.70	211.36
993.99	211.52
994.28	211.76
994.58	211.88
994.87	211.86
995.16	211.95
995.45	211.88
995.74	211.14
996.03	211.45
996.32	211.55
996.61	212.05
996.90	212.12
997.19	211.90
997.48	211.98
997.77	211.90
998.06	212.17
998.34	211.93
998.63	212.02
998.92	212.29
999.21	212.76
999.50	213.02
999.79	212.12
1000.08	212.31
1000.37	212.29
1000.66	212.12
1000.95	212.62
1001.24	212.74
1001.53	212.90
1001.82	212.90
1002.11	212.45
1002.40	212.86
1002.68	213.24
1002.97	214.48
1003.26	214.24
1003.55	213.90
1003.84	214.00
1004.13	214.74
1004.42	214.48
1004.71	214.48
1004.99	214.45
1005.28	214.81
1005.57	214.48
1005.86	214.43
1006.15	214.24
1006.44	213.76
1006.72	214.10
1007.01	213.69
1007.30	213.60
1007.59	213.40
1007.88	213.52
1008.17	213.76
1008.45	213.31
1008.74	212.50
1009.03	211.60
1009.32	211.48
1009.60	211.50
1009.89	211.19
1010.18	210.21
1010.47	210.05
1010.76	209.69
1011.04	209.48
1011.33	211.62
1011.62	211.76
1011.91	211.81
1012.19	211.81
1012.48	211.88
1012.77	211.81
1013.05	212.90
1013.34	212.95
1013.63	212.64
1013.92	212.93
1014.20	212.60
1014.49	212.57
1014.78	212.74
1015.06	212.10
1015.35	211.98
1015.64	212.10
1015.92	212.62
1016.21	212.93
1016.50	212.98
1016.78	213.48
1017.07	213.90
1017.36	211.21
1017.64	210.74
1017.93	211.07
1018.22	210.74
1018.50	210.62
1018.79	210.60
1019.08	209.33
1019.36	209.45
1019.65	209.52
1019.93	209.90
1020.22	210.26
1020.51	211.14
1020.79	210.69
1021.08	205.00
1021.36	205.00
1021.65	212.00
1021.94	207.00
1022.22	210.50
1022.51	206.50
1022.79	221.00
1023.08	213.50
1023.36	230.50
1023.65	201.50
>>>>>End Processed Spectral Data<<<<<
