SpectraSuite Data File
++++++++++++++++++++++++++++++++++++
Date: Tue Apr 02 18:41:41 EDT 2013
User: group
Dark Spectrum Present: No
Reference Spectrum Present: No
Number of Sampled Component Spectra: 1
Spectrometers: USB2E7196
Integration Time (usec): 580000 (USB2E7196)
Spectra Averaged: 2 (USB2E7196)
Boxcar Smoothing: 10 (USB2E7196)
Correct for Electrical Dark: No (USB2E7196)
Strobe/Lamp Enabled: No (USB2E7196)
Correct for Detector Non-linearity: No (USB2E7196)
Correct for Stray Light: No (USB2E7196)
Number of Pixels in Processed Spectrum: 2048
>>>>>Begin Processed Spectral Data<<<<<
339.09	0.00
339.48	194.00
339.86	196.00
340.24	196.00
340.63	197.00
341.01	231.00
341.39	201.00
341.78	208.00
342.16	206.50
342.54	207.00
342.93	198.17
343.31	208.00
343.69	208.64
344.07	209.36
344.46	210.36
344.84	211.02
345.22	209.81
345.60	210.33
345.99	210.60
346.37	210.83
346.75	210.74
347.13	210.93
347.52	210.74
347.90	211.50
348.28	211.64
348.66	211.90
349.05	211.40
349.43	211.71
349.81	211.74
350.19	211.93
350.57	211.81
350.96	211.95
351.34	212.21
351.72	212.24
352.10	212.14
352.48	211.60
352.87	211.45
353.25	211.86
353.63	211.69
354.01	211.48
354.39	211.76
354.77	211.98
355.15	212.50
355.54	212.55
355.92	212.00
356.30	211.98
356.68	213.43
357.06	213.57
357.44	213.24
357.82	213.07
358.20	214.14
358.58	214.10
358.97	214.26
359.35	214.69
359.73	215.14
360.11	215.12
360.49	215.45
360.87	215.43
361.25	215.50
361.63	216.24
362.01	216.67
362.39	216.31
362.77	216.52
363.15	216.29
363.53	216.55
363.91	216.71
364.29	216.81
364.67	214.90
365.05	214.90
365.43	215.29
365.81	215.71
366.19	215.64
366.57	216.64
366.95	216.52
367.33	216.17
367.71	216.10
368.09	216.60
368.47	216.62
368.85	216.52
369.23	216.71
369.61	216.07
369.99	216.38
370.37	216.62
370.75	217.62
371.13	217.19
371.51	216.88
371.89	217.00
372.27	217.07
372.65	217.19
373.03	217.38
373.41	217.29
373.78	217.07
374.16	216.14
374.54	215.60
374.92	215.31
375.30	215.24
375.68	214.86
376.06	214.90
376.44	214.88
376.82	215.17
377.19	214.93
377.57	214.93
377.95	214.21
378.33	214.19
378.71	212.95
379.09	213.31
379.47	213.50
379.84	213.17
380.22	212.83
380.60	212.48
380.98	212.36
381.36	212.26
381.73	211.90
382.11	212.26
382.49	212.29
382.87	212.12
383.25	212.12
383.62	214.79
384.00	214.26
384.38	214.12
384.76	214.55
385.13	215.55
385.51	215.57
385.89	215.50
386.27	215.29
386.64	215.52
387.02	215.24
387.40	214.98
387.78	215.05
388.15	215.24
388.53	215.29
388.91	215.38
389.29	215.10
389.66	215.40
390.04	215.02
390.42	215.10
390.79	215.33
391.17	215.29
391.55	212.93
391.92	212.95
392.30	213.17
392.68	212.98
393.05	212.81
393.43	212.79
393.81	212.86
394.18	212.76
394.56	212.76
394.94	213.24
395.31	213.26
395.69	213.88
396.06	214.19
396.44	214.33
396.82	214.12
397.19	215.40
397.57	215.45
397.95	215.74
398.32	215.36
398.70	215.43
399.07	215.88
399.45	215.76
399.82	215.71
400.20	215.55
400.58	215.21
400.95	214.52
401.33	214.98
401.70	216.57
402.08	216.71
402.45	216.74
402.83	217.07
403.20	217.14
403.58	217.00
403.95	217.55
404.33	218.17
404.71	218.36
405.08	219.36
405.46	219.69
405.83	220.14
406.21	220.48
406.58	221.05
406.96	221.31
407.33	221.95
407.70	223.10
408.08	225.36
408.45	226.33
408.83	227.45
409.20	227.83
409.58	227.21
409.95	228.57
410.33	229.57
410.70	230.12
411.08	231.67
411.45	232.74
411.82	233.45
412.20	234.76
412.57	237.45
412.95	237.10
413.32	238.93
413.69	240.07
414.07	241.98
414.44	243.71
414.82	245.60
415.19	247.79
415.56	249.71
415.94	250.98
416.31	253.69
416.68	256.21
417.06	259.48
417.43	263.24
417.81	266.50
418.18	270.24
418.55	274.19
418.93	278.14
419.30	282.48
419.67	287.02
420.04	291.76
420.42	296.12
420.79	303.64
421.16	309.60
421.54	316.57
421.91	322.69
422.28	328.98
422.66	335.93
423.03	343.95
423.40	350.67
423.77	357.83
424.15	365.26
424.52	373.10
424.89	382.02
425.26	389.74
425.64	397.76
426.01	405.83
426.38	414.81
426.75	424.38
427.13	433.95
427.50	443.88
427.87	453.57
428.24	463.86
428.61	472.36
428.99	483.71
429.36	494.90
429.73	506.60
430.10	518.52
430.47	530.45
430.85	541.33
431.22	554.43
431.59	569.29
431.96	582.36
432.33	597.10
432.70	611.07
433.08	627.43
433.45	642.98
433.82	659.17
434.19	676.10
434.56	692.93
434.93	709.50
435.30	725.71
435.68	743.93
436.05	762.02
436.42	778.79
436.79	794.76
437.16	812.64
437.53	830.81
437.90	848.88
438.27	867.02
438.64	885.79
439.01	903.45
439.38	917.79
439.75	933.21
440.13	950.05
440.50	965.79
440.87	979.21
441.24	992.76
441.61	1007.26
441.98	1018.69
442.35	1031.17
442.72	1044.29
443.09	1057.38
443.46	1065.31
443.83	1070.43
444.20	1076.38
444.57	1082.33
444.94	1085.33
445.31	1089.21
445.68	1094.69
446.05	1096.29
446.42	1094.90
446.79	1093.48
447.16	1091.83
447.53	1090.43
447.90	1084.62
448.27	1077.93
448.64	1068.93
449.01	1062.81
449.37	1052.07
449.74	1040.55
450.11	1028.88
450.48	1013.86
450.85	998.19
451.22	985.26
451.59	972.76
451.96	960.40
452.33	944.76
452.70	930.24
453.07	912.81
453.43	893.05
453.80	875.98
454.17	859.95
454.54	843.90
454.91	827.17
455.28	810.48
455.65	794.52
456.02	783.07
456.38	770.69
456.75	754.86
457.12	740.90
457.49	727.71
457.86	713.26
458.23	703.05
458.59	691.07
458.96	679.07
459.33	668.07
459.70	657.07
460.07	648.52
460.43	638.62
460.80	629.38
461.17	622.07
461.54	613.57
461.91	605.07
462.27	596.98
462.64	589.93
463.01	582.90
463.38	576.43
463.74	565.43
464.11	558.14
464.48	551.95
464.85	544.98
465.21	540.90
465.58	535.95
465.95	528.60
466.32	523.52
466.68	517.79
467.05	512.62
467.42	507.64
467.78	502.21
468.15	497.17
468.52	493.45
468.88	487.67
469.25	482.88
469.62	479.71
469.98	475.88
470.35	472.12
470.72	468.36
471.08	463.86
471.45	461.40
471.82	458.45
472.18	454.95
472.55	453.19
472.92	449.26
473.28	446.12
473.65	443.38
474.02	440.43
474.38	438.62
474.75	436.62
475.11	434.55
475.48	432.88
475.85	431.00
476.21	428.83
476.58	427.40
476.94	426.31
477.31	424.71
477.67	423.55
478.04	422.60
478.41	421.81
478.77	422.76
479.14	421.33
479.50	420.74
479.87	420.69
480.23	420.12
480.60	419.81
480.96	419.52
481.33	420.45
481.69	420.57
482.06	420.31
482.42	420.52
482.79	420.83
483.15	421.00
483.52	421.93
483.88	422.40
484.25	423.26
484.61	424.10
484.98	424.81
485.34	426.64
485.71	427.83
486.07	429.02
486.44	428.74
486.80	430.33
487.17	431.95
487.53	434.21
487.90	436.81
488.26	439.93
488.62	442.81
488.99	444.69
489.35	447.57
489.72	450.00
490.08	452.50
490.44	455.21
490.81	458.62
491.17	461.33
491.54	465.29
491.90	468.74
492.26	472.52
492.63	476.50
492.99	479.45
493.36	483.86
493.72	488.29
494.08	492.93
494.45	498.07
494.81	503.02
495.17	507.36
495.54	512.33
495.90	516.83
496.26	521.64
496.63	526.86
496.99	532.33
497.35	538.52
497.72	544.64
498.08	550.55
498.44	556.67
498.80	563.62
499.17	569.40
499.53	575.48
499.89	582.55
500.26	588.83
500.62	596.05
500.98	603.50
501.34	610.48
501.71	617.69
502.07	624.10
502.43	631.26
502.79	638.19
503.16	644.81
503.52	652.40
503.88	659.79
504.24	667.90
504.60	675.69
504.97	683.86
505.33	691.55
505.69	700.52
506.05	708.05
506.41	715.76
506.78	723.88
507.14	731.64
507.50	739.33
507.86	748.14
508.22	756.64
508.59	763.36
508.95	771.17
509.31	780.21
509.67	788.55
510.03	796.31
510.39	804.93
510.75	812.90
511.12	820.90
511.48	828.98
511.84	836.17
512.20	843.74
512.56	850.93
512.92	859.02
513.28	865.79
513.64	873.48
514.00	880.83
514.37	888.62
514.73	896.67
515.09	903.95
515.45	910.40
515.81	917.26
516.17	925.12
516.53	932.14
516.89	938.14
517.25	945.12
517.61	952.36
517.97	958.52
518.33	965.45
518.69	972.45
519.05	979.50
519.41	985.19
519.77	992.33
520.13	998.69
520.49	1003.88
520.85	1010.19
521.21	1016.48
521.57	1022.57
521.93	1028.17
522.29	1033.76
522.65	1039.07
523.01	1045.24
523.37	1049.88
523.73	1055.07
524.09	1061.14
524.45	1065.71
524.81	1069.98
525.17	1075.26
525.53	1080.38
525.89	1085.57
526.25	1090.00
526.61	1093.83
526.97	1099.14
527.33	1103.71
527.68	1110.52
528.04	1115.67
528.40	1119.48
528.76	1124.10
529.12	1128.52
529.48	1133.43
529.84	1138.57
530.20	1143.69
530.56	1148.36
530.91	1153.83
531.27	1158.43
531.63	1163.21
531.99	1167.74
532.35	1172.71
532.71	1176.86
533.07	1181.36
533.42	1187.69
533.78	1192.12
534.14	1197.02
534.50	1201.93
534.86	1205.81
535.21	1208.40
535.57	1213.31
535.93	1217.48
536.29	1222.24
536.65	1226.64
537.00	1229.33
537.36	1233.21
537.72	1236.45
538.08	1240.14
538.44	1242.93
538.79	1246.19
539.15	1248.74
539.51	1252.40
539.87	1256.31
540.22	1259.40
540.58	1263.76
540.94	1265.36
541.29	1268.55
541.65	1270.71
542.01	1273.48
542.37	1276.40
542.72	1278.60
543.08	1280.81
543.44	1284.76
543.79	1286.69
544.15	1289.95
544.51	1294.05
544.87	1296.62
545.22	1300.24
545.58	1302.71
545.94	1306.02
546.29	1309.10
546.65	1312.29
547.01	1315.29
547.36	1317.76
547.72	1321.02
548.07	1323.02
548.43	1325.98
548.79	1328.38
549.14	1331.69
549.50	1335.05
549.86	1338.07
550.21	1341.43
550.57	1344.79
550.92	1347.33
551.28	1351.12
551.64	1353.79
551.99	1356.93
552.35	1359.79
552.70	1362.76
553.06	1367.07
553.41	1370.83
553.77	1376.19
554.13	1380.07
554.48	1384.62
554.84	1389.60
555.19	1393.62
555.55	1399.69
555.90	1403.38
556.26	1407.79
556.61	1411.60
556.97	1415.76
557.32	1420.50
557.68	1424.81
558.03	1429.19
558.39	1433.76
558.74	1437.60
559.10	1441.74
559.45	1446.45
559.81	1451.19
560.16	1455.57
560.52	1459.33
560.87	1464.14
561.23	1466.93
561.58	1472.98
561.94	1477.36
562.29	1482.02
562.64	1486.64
563.00	1490.19
563.35	1495.21
563.71	1500.93
564.06	1507.31
564.42	1512.57
564.77	1518.64
565.12	1524.38
565.48	1532.19
565.83	1537.93
566.19	1543.33
566.54	1549.69
566.89	1555.26
567.25	1561.98
567.60	1569.26
567.96	1576.79
568.31	1583.02
568.66	1590.00
569.02	1593.36
569.37	1597.76
569.72	1602.74
570.08	1607.67
570.43	1612.21
570.78	1617.31
571.14	1622.21
571.49	1626.57
571.84	1631.76
572.20	1634.93
572.55	1640.12
572.90	1642.33
573.26	1646.14
573.61	1652.19
573.96	1656.33
574.31	1659.43
574.67	1663.05
575.02	1665.67
575.37	1667.55
575.72	1669.76
576.08	1672.17
576.43	1676.05
576.78	1680.45
577.13	1684.00
577.49	1687.38
577.84	1691.81
578.19	1695.26
578.54	1699.24
578.90	1702.86
579.25	1705.12
579.60	1708.19
579.95	1710.64
580.30	1715.02
580.66	1719.00
581.01	1720.93
581.36	1722.71
581.71	1725.88
582.06	1729.07
582.42	1732.33
582.77	1735.88
583.12	1738.40
583.47	1742.05
583.82	1745.10
584.17	1748.05
584.53	1750.57
584.88	1753.48
585.23	1755.71
585.58	1758.10
585.93	1759.02
586.28	1761.62
586.63	1764.14
586.98	1766.55
587.34	1769.81
587.69	1770.05
588.04	1771.62
588.39	1773.17
588.74	1774.38
589.09	1777.43
589.44	1777.33
589.79	1777.71
590.14	1778.81
590.49	1780.43
590.84	1780.55
591.19	1781.83
591.54	1782.33
591.89	1782.26
592.25	1785.10
592.60	1784.76
592.95	1785.60
593.30	1786.88
593.65	1786.55
594.00	1785.69
594.35	1791.36
594.70	1789.81
595.05	1790.45
595.40	1789.93
595.75	1790.05
596.10	1791.71
596.45	1790.79
596.80	1791.95
597.15	1793.67
597.50	1792.90
597.85	1793.71
598.19	1794.93
598.54	1794.60
598.89	1794.48
599.24	1796.02
599.59	1793.93
599.94	1794.60
600.29	1794.40
600.64	1793.76
600.99	1793.38
601.34	1794.45
601.69	1788.19
602.04	1787.12
602.39	1785.98
602.74	1785.88
603.08	1785.02
603.43	1784.14
603.78	1784.00
604.13	1782.50
604.48	1780.10
604.83	1780.74
605.18	1779.81
605.53	1777.98
605.87	1776.90
606.22	1774.86
606.57	1772.24
606.92	1770.81
607.27	1769.12
607.62	1767.83
607.96	1766.45
608.31	1765.29
608.66	1763.69
609.01	1762.38
609.36	1761.79
609.70	1759.38
610.05	1755.95
610.40	1753.62
610.75	1751.36
611.10	1748.48
611.44	1745.12
611.79	1742.02
612.14	1738.36
612.49	1733.17
612.83	1729.05
613.18	1725.26
613.53	1722.10
613.88	1717.60
614.22	1713.07
614.57	1708.21
614.92	1703.74
615.27	1699.71
615.61	1694.71
615.96	1690.67
616.31	1685.57
616.65	1681.98
617.00	1678.83
617.35	1675.95
617.70	1672.02
618.04	1666.76
618.39	1662.21
618.74	1658.50
619.08	1653.74
619.43	1648.38
619.78	1645.14
620.12	1641.33
620.47	1636.88
620.82	1631.88
621.16	1627.40
621.51	1623.57
621.85	1619.50
622.20	1614.21
622.55	1608.64
622.89	1604.55
623.24	1599.88
623.59	1595.95
623.93	1590.12
624.28	1584.90
624.62	1581.88
624.97	1578.10
625.32	1573.88
625.66	1568.31
626.01	1563.29
626.35	1559.33
626.70	1555.40
627.04	1552.14
627.39	1547.10
627.73	1542.86
628.08	1538.48
628.43	1534.31
628.77	1530.21
629.12	1525.93
629.46	1521.64
629.81	1517.26
630.15	1512.83
630.50	1507.24
630.84	1502.02
631.19	1496.55
631.53	1491.12
631.88	1483.50
632.22	1476.45
632.57	1471.60
632.91	1466.83
633.26	1462.31
633.60	1457.31
633.95	1452.10
634.29	1444.81
634.64	1440.26
634.98	1434.19
635.32	1429.69
635.67	1425.76
636.01	1420.81
636.36	1415.31
636.70	1410.95
637.05	1406.05
637.39	1400.69
637.73	1395.95
638.08	1391.69
638.42	1386.69
638.77	1382.40
639.11	1377.43
639.45	1372.57
639.80	1366.17
640.14	1360.86
640.49	1354.95
640.83	1348.43
641.17	1342.19
641.52	1336.69
641.86	1330.55
642.20	1326.38
642.55	1319.48
642.89	1312.64
643.23	1305.79
643.58	1300.07
643.92	1291.98
644.26	1285.33
644.61	1278.98
644.95	1271.98
645.29	1264.45
645.64	1258.90
645.98	1251.79
646.32	1245.62
646.66	1237.98
647.01	1231.86
647.35	1225.64
647.69	1219.00
648.04	1213.71
648.38	1207.81
648.72	1202.55
649.06	1196.38
649.41	1188.55
649.75	1181.90
650.09	1175.52
650.43	1168.36
650.78	1161.07
651.12	1155.14
651.46	1148.79
651.80	1141.76
652.14	1135.62
652.49	1129.71
652.83	1123.05
653.17	1116.36
653.51	1109.29
653.85	1103.60
654.20	1097.10
654.54	1090.14
654.88	1082.98
655.22	1076.24
655.56	1069.10
655.90	1061.60
656.25	1054.79
656.59	1048.00
656.93	1042.10
657.27	1036.31
657.61	1030.05
657.95	1023.50
658.29	1017.64
658.64	1011.12
658.98	1004.76
659.32	997.93
659.66	991.48
660.00	984.81
660.34	978.10
660.68	972.24
661.02	966.00
661.36	959.24
661.70	953.26
662.05	947.90
662.39	941.79
662.73	936.43
663.07	931.83
663.41	925.93
663.75	920.14
664.09	914.43
664.43	907.62
664.77	901.69
665.11	895.81
665.45	890.43
665.79	885.10
666.13	879.31
666.47	873.64
666.81	867.93
667.15	861.95
667.49	857.24
667.83	852.52
668.17	846.93
668.51	841.81
668.85	836.10
669.19	831.17
669.53	825.02
669.87	818.79
670.21	812.90
670.55	807.02
670.89	802.52
671.23	797.17
671.57	791.45
671.91	786.48
672.25	781.71
672.58	776.79
672.92	771.10
673.26	766.55
673.60	761.79
673.94	756.98
674.28	752.26
674.62	747.86
674.96	742.48
675.30	737.83
675.64	733.36
675.97	729.38
676.31	724.17
676.65	719.38
676.99	716.14
677.33	711.19
677.67	707.02
678.01	701.52
678.34	697.24
678.68	693.52
679.02	688.60
679.36	683.90
679.70	678.38
680.04	674.10
680.37	669.31
680.71	664.69
681.05	660.45
681.39	656.12
681.73	651.05
682.06	645.98
682.40	641.62
682.74	637.02
683.08	633.00
683.42	628.50
683.75	624.86
684.09	619.67
684.43	615.12
684.77	610.62
685.10	606.45
685.44	601.95
685.78	597.36
686.12	593.21
686.45	588.60
686.79	584.64
687.13	580.88
687.46	576.52
687.80	573.43
688.14	569.07
688.48	565.05
688.81	561.40
689.15	558.76
689.49	554.86
689.82	551.14
690.16	546.07
690.50	542.07
690.83	537.67
691.17	533.33
691.51	529.40
691.84	526.21
692.18	522.45
692.52	518.48
692.85	515.62
693.19	513.07
693.52	510.05
693.86	506.31
694.20	502.40
694.53	499.12
694.87	494.64
695.21	490.98
695.54	487.55
695.88	483.57
696.21	479.02
696.55	475.98
696.88	472.71
697.22	469.74
697.56	467.31
697.89	464.24
698.23	461.40
698.56	457.74
698.90	454.67
699.23	451.69
699.57	448.98
699.90	445.24
700.24	441.33
700.58	437.62
700.91	435.02
701.25	433.95
701.58	432.24
701.92	430.07
702.25	427.79
702.59	424.90
702.92	422.21
703.26	419.76
703.59	416.93
703.93	416.31
704.26	414.33
704.60	411.81
704.93	409.45
705.26	406.90
705.60	405.64
705.93	402.38
706.27	400.86
706.60	399.00
706.94	397.79
707.27	395.69
707.61	393.93
707.94	391.52
708.27	387.71
708.61	384.48
708.94	382.62
709.28	380.52
709.61	378.48
709.94	377.02
710.28	375.02
710.61	373.14
710.95	369.14
711.28	368.31
711.61	366.10
711.95	364.57
712.28	362.67
712.61	360.69
712.95	360.00
713.28	358.76
713.61	356.64
713.95	354.17
714.28	352.43
714.61	351.07
714.95	349.62
715.28	347.93
715.61	346.38
715.95	344.38
716.28	342.52
716.61	341.26
716.95	339.24
717.28	337.69
717.61	335.71
717.94	334.21
718.28	330.98
718.61	329.31
718.94	327.38
719.27	326.00
719.61	324.26
719.94	322.38
720.27	319.57
720.60	318.12
720.94	316.60
721.27	315.45
721.60	314.19
721.93	312.93
722.27	312.48
722.60	311.57
722.93	310.10
723.26	309.07
723.59	307.40
723.93	306.36
724.26	305.43
724.59	304.50
724.92	303.60
725.25	303.43
725.59	302.21
725.92	301.55
726.25	300.40
726.58	299.55
726.91	298.55
727.24	298.14
727.57	297.07
727.91	296.19
728.24	295.10
728.57	293.93
728.90	293.31
729.23	291.38
729.56	291.12
729.89	290.31
730.22	289.17
730.55	288.38
730.89	287.74
731.22	286.52
731.55	285.45
731.88	284.74
732.21	283.33
732.54	282.48
732.87	281.57
733.20	281.07
733.53	280.21
733.86	279.43
734.19	278.19
734.52	277.74
734.85	278.05
735.18	277.12
735.51	277.10
735.84	276.21
736.17	276.05
736.50	274.26
736.83	275.93
737.16	275.14
737.49	274.60
737.82	273.76
738.15	273.38
738.48	272.86
738.81	271.93
739.14	271.14
739.47	270.38
739.80	269.67
740.13	269.12
740.46	268.14
740.79	267.17
741.12	266.43
741.45	265.36
741.78	263.55
742.11	263.60
742.44	262.17
742.77	261.79
743.10	261.07
743.43	260.50
743.75	257.76
744.08	260.00
744.41	259.21
744.74	258.60
745.07	257.76
745.40	257.14
745.73	257.36
746.06	256.74
746.39	256.52
746.71	255.93
747.04	254.90
747.37	254.55
747.70	254.48
748.03	254.12
748.36	254.14
748.68	253.62
749.01	252.43
749.34	252.07
749.67	251.62
750.00	251.36
750.33	252.36
750.65	251.95
750.98	249.00
751.31	248.88
751.64	248.40
751.97	249.14
752.29	248.83
752.62	247.81
752.95	247.67
753.28	246.86
753.60	246.50
753.93	246.69
754.26	246.43
754.59	245.40
754.91	244.83
755.24	244.21
755.57	244.12
755.90	243.71
756.22	243.36
756.55	242.48
756.88	241.62
757.20	239.90
757.53	239.14
757.86	238.76
758.19	238.57
758.51	238.14
758.84	236.62
759.17	236.24
759.49	235.86
759.82	236.17
760.15	236.50
760.47	235.95
760.80	235.26
761.13	235.31
761.45	235.14
761.78	235.02
762.11	234.93
762.43	234.48
762.76	234.24
763.08	234.26
763.41	234.36
763.74	234.45
764.06	234.40
764.39	234.31
764.71	233.93
765.04	233.31
765.37	233.00
765.69	233.00
766.02	232.55
766.34	231.95
766.67	230.83
767.00	230.69
767.32	231.57
767.65	232.60
767.97	232.19
768.30	232.05
768.62	231.98
768.95	231.33
769.27	230.86
769.60	231.07
769.92	230.36
770.25	229.76
770.57	229.14
770.90	228.86
771.22	228.55
771.55	228.55
771.87	228.52
772.20	228.52
772.52	229.83
772.85	232.45
773.17	232.76
773.50	232.64
773.82	232.02
774.15	231.02
774.47	229.71
774.80	229.33
775.12	229.21
775.45	229.10
775.77	228.98
776.09	228.93
776.42	228.64
776.74	229.29
777.07	229.21
777.39	229.33
777.72	229.00
778.04	229.07
778.36	228.62
778.69	228.76
779.01	228.62
779.33	226.81
779.66	224.31
779.98	223.83
780.31	224.05
780.63	224.93
780.95	225.19
781.28	224.98
781.60	224.81
781.92	224.81
782.25	224.38
782.57	224.48
782.89	224.43
783.22	224.29
783.54	223.74
783.86	223.76
784.19	223.36
784.51	224.02
784.83	223.64
785.16	223.69
785.48	223.29
785.80	223.26
786.12	223.48
786.45	223.29
786.77	223.40
787.09	223.00
787.42	222.36
787.74	222.24
788.06	222.26
788.38	222.12
788.71	221.67
789.03	222.00
789.35	222.07
789.67	221.55
789.99	221.60
790.32	221.12
790.64	221.17
790.96	223.02
791.28	222.00
791.61	221.74
791.93	221.76
792.25	221.67
792.57	222.95
792.89	222.48
793.21	222.60
793.54	222.31
793.86	222.24
794.18	222.07
794.50	221.74
794.82	221.79
795.14	222.14
795.47	222.60
795.79	222.21
796.11	221.81
796.43	222.00
796.75	221.88
797.07	222.02
797.39	221.67
797.71	219.88
798.04	219.95
798.36	220.19
798.68	220.17
799.00	220.24
799.32	219.02
799.64	219.43
799.96	219.38
800.28	219.79
800.60	219.43
800.92	219.62
801.24	219.29
801.56	219.33
801.89	218.69
802.21	218.83
802.53	218.55
802.85	218.79
803.17	219.57
803.49	219.19
803.81	219.05
804.13	219.17
804.45	219.21
804.77	219.52
805.09	219.26
805.41	218.90
805.73	218.76
806.05	218.17
806.37	217.93
806.69	218.00
807.01	217.83
807.33	218.17
807.65	217.31
807.97	218.26
808.28	217.74
808.60	217.88
808.92	217.36
809.24	218.79
809.56	218.60
809.88	217.95
810.20	218.05
810.52	218.48
810.84	217.95
811.16	217.45
811.48	217.12
811.80	217.79
812.12	217.83
812.43	218.21
812.75	218.52
813.07	218.40
813.39	218.17
813.71	217.86
814.03	217.48
814.35	217.64
814.67	216.86
814.98	216.81
815.30	216.57
815.62	216.17
815.94	214.60
816.26	214.60
816.58	214.17
816.89	214.21
817.21	213.76
817.53	214.24
817.85	214.31
818.17	214.31
818.48	213.50
818.80	214.10
819.12	213.48
819.44	213.29
819.76	212.81
820.07	212.71
820.39	212.55
820.71	212.88
821.03	212.95
821.34	212.64
821.66	213.02
821.98	213.38
822.30	213.40
822.61	214.69
822.93	214.36
823.25	214.43
823.57	214.33
823.88	214.83
824.20	214.57
824.52	215.10
824.83	215.21
825.15	214.95
825.47	214.52
825.79	214.86
826.10	214.62
826.42	214.67
826.74	215.17
827.05	215.05
827.37	214.86
827.69	214.57
828.00	214.69
828.32	214.62
828.64	214.26
828.95	215.48
829.27	215.10
829.58	215.17
829.90	215.55
830.22	215.57
830.53	214.86
830.85	214.64
831.17	214.02
831.48	213.71
831.80	214.05
832.11	213.90
832.43	213.50
832.75	213.67
833.06	215.05
833.38	214.00
833.69	214.17
834.01	214.48
834.32	214.67
834.64	214.55
834.96	214.52
835.27	214.52
835.59	213.88
835.90	213.12
836.22	213.02
836.53	212.52
836.85	212.48
837.16	214.60
837.48	214.74
837.79	215.48
838.11	215.83
838.42	216.00
838.74	216.45
839.05	216.24
839.37	216.02
839.68	214.74
840.00	214.93
840.31	215.36
840.63	214.95
840.94	214.79
841.26	214.64
841.57	214.57
841.88	214.79
842.20	214.26
842.51	214.31
842.83	214.50
843.14	216.62
843.46	216.48
843.77	215.38
844.08	215.36
844.40	214.67
844.71	214.26
845.03	213.86
845.34	213.50
845.65	213.57
845.97	213.81
846.28	213.67
846.60	213.88
846.91	213.31
847.22	213.33
847.54	213.71
847.85	213.79
848.16	213.81
848.48	213.50
848.79	214.36
849.10	214.62
849.42	214.74
849.73	212.60
850.04	212.69
850.36	212.00
850.67	212.33
850.98	212.48
851.30	212.81
851.61	212.90
851.92	212.83
852.23	213.55
852.55	213.43
852.86	213.95
853.17	214.17
853.49	214.45
853.80	214.98
854.11	215.31
854.42	215.83
854.74	215.81
855.05	216.24
855.36	215.19
855.67	215.33
855.99	215.26
856.30	217.88
856.61	217.76
856.92	217.98
857.23	217.79
857.55	217.67
857.86	217.40
858.17	217.79
858.48	217.57
858.79	217.21
859.11	217.48
859.42	217.12
859.73	216.67
860.04	216.62
860.35	215.93
860.66	215.10
860.98	214.95
861.29	215.00
861.60	214.52
861.91	215.12
862.22	214.71
862.53	214.62
862.84	212.14
863.16	212.88
863.47	212.40
863.78	212.26
864.09	212.19
864.40	212.45
864.71	212.38
865.02	212.69
865.33	212.36
865.64	211.95
865.95	212.02
866.27	213.43
866.58	213.07
866.89	213.19
867.20	213.17
867.51	212.79
867.82	212.45
868.13	213.17
868.44	212.74
868.75	213.00
869.06	212.93
869.37	213.17
869.68	212.36
869.99	212.55
870.30	212.76
870.61	213.14
870.92	212.83
871.23	212.67
871.54	212.90
871.85	213.29
872.16	213.71
872.47	213.45
872.78	212.21
873.09	212.64
873.40	212.62
873.71	213.05
874.02	213.00
874.33	213.02
874.64	212.50
874.95	212.76
875.26	212.26
875.56	212.05
875.87	211.71
876.18	211.81
876.49	213.62
876.80	213.38
877.11	212.98
877.42	213.14
877.73	213.17
878.04	212.93
878.35	212.98
878.66	212.86
878.96	212.81
879.27	212.83
879.58	212.79
879.89	212.79
880.20	213.19
880.51	213.19
880.82	213.26
881.12	213.43
881.43	212.98
881.74	213.10
882.05	213.43
882.36	213.74
882.67	213.69
882.97	211.79
883.28	211.79
883.59	211.83
883.90	211.93
884.21	212.26
884.51	212.14
884.82	211.90
885.13	211.83
885.44	211.90
885.74	211.88
886.05	211.83
886.36	211.90
886.67	211.05
886.98	212.26
887.28	212.36
887.59	212.24
887.90	212.60
888.20	212.62
888.51	212.76
888.82	212.26
889.13	212.50
889.43	214.21
889.74	214.07
890.05	213.83
890.35	213.38
890.66	213.00
890.97	212.95
891.28	212.67
891.58	212.71
891.89	212.69
892.20	212.31
892.50	212.17
892.81	212.05
893.12	212.02
893.42	210.83
893.73	210.71
894.04	210.76
894.34	210.93
894.65	210.83
894.95	210.50
895.26	210.60
895.57	211.64
895.87	209.64
896.18	210.00
896.48	210.26
896.79	210.40
897.10	210.76
897.40	210.64
897.71	211.10
898.01	211.05
898.32	211.33
898.63	211.40
898.93	211.48
899.24	211.38
899.54	211.52
899.85	211.26
900.15	211.40
900.46	211.21
900.76	211.26
901.07	211.26
901.38	211.43
901.68	211.76
901.99	210.55
902.29	210.83
902.60	210.67
902.90	210.60
903.21	210.88
903.51	210.74
903.82	211.29
904.12	211.12
904.43	211.19
904.73	211.07
905.03	211.31
905.34	213.19
905.64	213.07
905.95	213.00
906.25	213.48
906.56	213.38
906.86	213.48
907.17	213.36
907.47	213.43
907.77	213.21
908.08	212.74
908.38	212.95
908.69	213.12
908.99	213.50
909.30	213.31
909.60	213.36
909.90	213.26
910.21	212.67
910.51	212.60
910.81	212.64
911.12	212.81
911.42	212.95
911.73	210.81
912.03	211.19
912.33	211.79
912.64	211.57
912.94	211.40
913.24	211.38
913.55	211.17
913.85	211.00
914.15	211.38
914.46	211.74
914.76	211.48
915.06	211.24
915.37	210.90
915.67	211.10
915.97	211.05
916.27	210.62
916.58	210.62
916.88	210.48
917.18	210.33
917.49	211.69
917.79	211.83
918.09	212.33
918.39	212.76
918.70	212.40
919.00	212.55
919.30	213.33
919.60	213.00
919.91	212.95
920.21	213.17
920.51	212.76
920.81	212.74
921.12	213.14
921.42	213.17
921.72	213.05
922.02	213.19
922.32	213.38
922.63	213.81
922.93	214.88
923.23	214.83
923.53	214.52
923.83	213.14
924.13	213.17
924.44	213.12
924.74	213.64
925.04	214.14
925.34	213.90
925.64	213.33
925.94	213.64
926.24	214.81
926.55	214.57
926.85	214.88
927.15	214.86
927.45	214.90
927.75	214.95
928.05	215.19
928.35	215.07
928.65	215.38
928.95	215.29
929.26	214.55
929.56	215.10
929.86	215.52
930.16	215.40
930.46	214.98
930.76	214.81
931.06	213.57
931.36	213.00
931.66	213.31
931.96	213.12
932.26	213.07
932.56	212.00
932.86	212.26
933.16	212.14
933.46	212.00
933.76	211.55
934.06	212.21
934.36	212.95
934.66	213.07
934.96	212.67
935.26	212.88
935.56	212.93
935.86	212.43
936.16	212.24
936.46	212.05
936.76	212.19
937.06	212.07
937.36	212.21
937.66	212.17
937.96	212.12
938.26	212.10
938.56	211.95
938.86	212.19
939.16	212.60
939.46	212.76
939.76	212.98
940.06	213.14
940.35	212.43
940.65	211.31
940.95	211.24
941.25	211.05
941.55	210.71
941.85	210.88
942.15	211.45
942.45	212.07
942.75	212.19
943.04	212.02
943.34	212.43
943.64	212.24
943.94	211.95
944.24	212.02
944.54	211.90
944.84	211.88
945.13	211.62
945.43	211.17
945.73	211.07
946.03	210.64
946.33	210.36
946.62	210.17
946.92	210.21
947.22	210.38
947.52	210.33
947.82	210.76
948.11	210.48
948.41	209.93
948.71	209.24
949.01	209.19
949.31	209.12
949.60	208.95
949.90	209.38
950.20	209.33
950.50	209.38
950.79	209.38
951.09	209.83
951.39	209.95
951.69	209.81
951.98	210.38
952.28	210.62
952.58	210.50
952.87	210.74
953.17	211.00
953.47	210.52
953.76	210.33
954.06	209.81
954.36	209.45
954.66	209.52
954.95	209.95
955.25	210.19
955.55	210.50
955.84	210.43
956.14	210.45
956.44	210.74
956.73	210.43
957.03	210.69
957.32	210.60
957.62	210.55
957.92	210.98
958.21	210.50
958.51	212.95
958.81	213.40
959.10	213.55
959.40	214.02
959.69	214.26
959.99	214.67
960.29	214.81
960.58	214.93
960.88	215.64
961.17	215.74
961.47	215.81
961.76	215.74
962.06	215.86
962.36	215.74
962.65	215.76
962.95	215.71
963.24	215.31
963.54	215.31
963.83	215.45
964.13	215.43
964.42	215.12
964.72	213.17
965.01	213.14
965.31	212.90
965.60	212.38
965.90	213.81
966.19	213.29
966.49	213.26
966.78	213.19
967.08	213.05
967.37	212.90
967.67	212.43
967.96	212.62
968.26	212.45
968.55	212.62
968.85	212.40
969.14	212.55
969.43	212.67
969.73	212.36
970.02	212.10
970.32	211.86
970.61	211.98
970.91	211.38
971.20	211.07
971.49	210.93
971.79	210.98
972.08	209.40
972.38	209.60
972.67	209.76
972.96	210.02
973.26	209.71
973.55	210.48
973.85	210.67
974.14	210.38
974.43	210.81
974.73	210.67
975.02	210.60
975.31	210.57
975.61	210.74
975.90	210.55
976.19	210.33
976.49	210.40
976.78	210.45
977.07	210.64
977.37	210.98
977.66	211.12
977.95	210.98
978.24	211.29
978.54	212.05
978.83	211.57
979.12	211.57
979.42	211.45
979.71	210.83
980.00	210.81
980.29	211.05
980.59	210.52
980.88	210.90
981.17	210.90
981.46	211.05
981.76	211.05
982.05	211.74
982.34	212.10
982.63	212.21
982.93	212.14
983.22	212.71
983.51	212.50
983.80	213.00
984.09	213.36
984.39	213.19
984.68	212.48
984.97	212.79
985.26	212.40
985.55	212.36
985.85	212.10
986.14	212.38
986.43	212.40
986.72	212.31
987.01	211.62
987.30	211.76
987.59	211.43
987.89	211.40
988.18	210.90
988.47	210.62
988.76	210.40
989.05	210.19
989.34	209.81
989.63	210.36
989.92	209.93
990.22	209.52
990.51	209.40
990.80	209.50
991.09	209.71
991.38	210.07
991.67	209.98
991.96	209.67
992.25	209.55
992.54	209.31
992.83	209.31
993.12	209.55
993.41	210.19
993.70	211.05
993.99	211.36
994.28	211.62
994.58	212.07
994.87	211.88
995.16	211.81
995.45	211.62
995.74	210.95
996.03	211.19
996.32	211.55
996.61	212.05
996.90	212.00
997.19	211.86
997.48	211.79
997.77	211.57
998.06	211.71
998.34	211.55
998.63	211.57
998.92	211.62
999.21	211.67
999.50	211.19
999.79	210.33
1000.08	210.40
1000.37	210.55
1000.66	210.33
1000.95	210.88
1001.24	211.17
1001.53	211.50
1001.82	211.43
1002.11	211.00
1002.40	211.40
1002.68	211.93
1002.97	213.40
1003.26	213.26
1003.55	213.14
1003.84	213.45
1004.13	214.19
1004.42	214.19
1004.71	214.24
1004.99	214.19
1005.28	214.55
1005.57	214.45
1005.86	214.55
1006.15	214.17
1006.44	213.60
1006.72	213.76
1007.01	213.38
1007.30	213.38
1007.59	213.12
1007.88	213.05
1008.17	213.29
1008.45	212.48
1008.74	211.64
1009.03	210.69
1009.32	210.57
1009.60	210.60
1009.89	210.33
1010.18	209.43
1010.47	209.26
1010.76	209.21
1011.04	209.19
1011.33	209.52
1011.62	209.86
1011.91	209.90
1012.19	210.17
1012.48	210.71
1012.77	210.45
1013.05	211.29
1013.34	211.17
1013.63	211.05
1013.92	211.40
1014.20	211.14
1014.49	211.50
1014.78	211.45
1015.06	210.74
1015.35	210.81
1015.64	210.88
1015.92	211.26
1016.21	211.33
1016.50	211.21
1016.78	211.36
1017.07	211.50
1017.36	210.98
1017.64	210.57
1017.93	210.83
1018.22	210.60
1018.50	210.33
1018.79	210.33
1019.08	209.45
1019.36	209.81
1019.65	209.69
1019.93	210.02
1020.22	210.50
1020.51	211.36
1020.79	211.26
1021.08	208.50
1021.36	209.00
1021.65	209.50
1021.94	209.00
1022.22	215.50
1022.51	207.00
1022.79	218.50
1023.08	216.00
1023.36	233.00
1023.65	206.50
>>>>>End Processed Spectral Data<<<<<
