SpectraSuite Data File
++++++++++++++++++++++++++++++++++++
Date: Tue Apr 02 18:45:15 EDT 2013
User: group
Dark Spectrum Present: No
Reference Spectrum Present: No
Number of Sampled Component Spectra: 1
Spectrometers: USB2E7196
Integration Time (usec): 580000 (USB2E7196)
Spectra Averaged: 2 (USB2E7196)
Boxcar Smoothing: 10 (USB2E7196)
Correct for Electrical Dark: No (USB2E7196)
Strobe/Lamp Enabled: No (USB2E7196)
Correct for Detector Non-linearity: No (USB2E7196)
Correct for Stray Light: No (USB2E7196)
Number of Pixels in Processed Spectrum: 2048
>>>>>Begin Processed Spectral Data<<<<<
339.09	0.00
339.48	189.00
339.86	194.00
340.24	191.00
340.63	197.50
341.01	229.00
341.39	198.50
341.78	205.50
342.16	209.00
342.54	201.50
342.93	195.86
343.31	205.52
343.69	206.14
344.07	206.67
344.46	207.57
344.84	207.98
345.22	206.86
345.60	207.50
345.99	207.67
346.37	207.74
346.75	208.14
347.13	208.12
347.52	208.33
347.90	209.36
348.28	209.48
348.66	210.24
349.05	209.62
349.43	209.71
349.81	209.74
350.19	209.93
350.57	210.02
350.96	210.29
351.34	210.57
351.72	210.90
352.10	211.07
352.48	211.05
352.87	211.19
353.25	211.26
353.63	211.00
354.01	210.93
354.39	211.19
354.77	211.14
355.15	211.81
355.54	211.95
355.92	211.24
356.30	211.29
356.68	212.60
357.06	212.79
357.44	212.67
357.82	212.83
358.20	213.81
358.58	214.07
358.97	214.14
359.35	214.79
359.73	215.36
360.11	215.67
360.49	215.88
360.87	215.93
361.25	216.38
361.63	217.36
362.01	217.50
362.39	217.36
362.77	217.67
363.15	217.67
363.53	217.67
363.91	218.02
364.29	218.26
364.67	216.29
365.05	216.64
365.43	217.17
365.81	217.74
366.19	217.86
366.57	218.60
366.95	218.62
367.33	218.19
367.71	218.05
368.09	218.07
368.47	218.17
368.85	218.19
369.23	218.52
369.61	217.83
369.99	218.60
370.37	218.86
370.75	219.81
371.13	219.19
371.51	218.79
371.89	218.88
372.27	218.95
372.65	218.90
373.03	218.74
373.41	218.38
373.78	218.02
374.16	216.95
374.54	216.24
374.92	216.05
375.30	215.98
375.68	215.71
376.06	216.05
376.44	215.62
376.82	215.62
377.19	215.69
377.57	215.26
377.95	214.57
378.33	214.50
378.71	213.17
379.09	213.67
379.47	214.10
379.84	213.95
380.22	213.64
380.60	213.43
380.98	213.07
381.36	213.19
381.73	212.90
382.11	213.19
382.49	213.40
382.87	213.19
383.25	213.12
383.62	215.57
384.00	215.02
384.38	215.19
384.76	215.88
385.13	216.36
385.51	216.76
385.89	216.50
386.27	216.43
386.64	216.71
387.02	216.48
387.40	216.38
387.78	216.55
388.15	216.76
388.53	216.60
388.91	216.67
389.29	216.29
389.66	216.50
390.04	216.40
390.42	216.62
390.79	216.57
391.17	216.60
391.55	214.10
391.92	213.95
392.30	214.21
392.68	213.64
393.05	213.52
393.43	213.31
393.81	213.57
394.18	213.21
394.56	213.55
394.94	213.86
395.31	213.52
395.69	213.38
396.06	213.79
396.44	214.21
396.82	214.17
397.19	215.38
397.57	215.26
397.95	215.50
398.32	215.10
398.70	215.45
399.07	215.69
399.45	215.71
399.82	215.71
400.20	215.36
400.58	215.29
400.95	214.43
401.33	215.12
401.70	216.36
402.08	216.62
402.45	216.60
402.83	216.93
403.20	217.05
403.58	217.14
403.95	217.33
404.33	217.74
404.71	218.38
405.08	219.50
405.46	219.81
405.83	220.17
406.21	220.31
406.58	220.86
406.96	221.19
407.33	221.86
407.70	222.67
408.08	224.95
408.45	225.86
408.83	227.07
409.20	227.33
409.58	226.95
409.95	227.90
410.33	228.69
410.70	229.14
411.08	230.45
411.45	231.71
411.82	232.38
412.20	233.76
412.57	235.93
412.95	235.67
413.32	237.57
413.69	238.83
414.07	240.67
414.44	242.43
414.82	244.52
415.19	246.55
415.56	249.12
415.94	250.38
416.31	253.02
416.68	255.55
417.06	258.79
417.43	262.48
417.81	265.95
418.18	269.62
418.55	273.55
418.93	277.83
419.30	282.19
419.67	286.86
420.04	291.24
420.42	295.31
420.79	302.33
421.16	307.79
421.54	314.57
421.91	320.57
422.28	326.57
422.66	332.93
423.03	341.21
423.40	347.74
423.77	354.71
424.15	361.86
424.52	369.38
424.89	378.48
425.26	385.98
425.64	393.90
426.01	402.05
426.38	410.90
426.75	420.10
427.13	429.02
427.50	438.88
427.87	448.48
428.24	458.74
428.61	467.38
428.99	478.45
429.36	488.93
429.73	500.33
430.10	511.21
430.47	523.43
430.85	533.79
431.22	546.00
431.59	560.71
431.96	573.98
432.33	588.14
432.70	600.83
433.08	617.43
433.45	632.36
433.82	647.64
434.19	664.26
434.56	680.81
434.93	696.29
435.30	711.24
435.68	729.52
436.05	745.88
436.42	762.24
436.79	777.95
437.16	795.14
437.53	812.86
437.90	831.55
438.27	849.05
438.64	867.31
439.01	884.33
439.38	898.55
439.75	913.07
440.13	930.24
440.50	945.98
440.87	957.90
441.24	971.12
441.61	985.33
441.98	996.26
442.35	1007.88
442.72	1020.79
443.09	1034.74
443.46	1041.45
443.83	1046.76
444.20	1051.33
444.57	1057.24
444.94	1060.81
445.31	1064.33
445.68	1069.60
446.05	1070.45
446.42	1069.00
446.79	1068.24
447.16	1065.95
447.53	1064.62
447.90	1058.29
448.27	1051.55
448.64	1043.29
449.01	1037.31
449.37	1026.86
449.74	1015.98
450.11	1004.81
450.48	990.52
450.85	974.74
451.22	962.52
451.59	951.19
451.96	939.67
452.33	924.17
452.70	909.90
453.07	892.98
453.43	873.45
453.80	857.45
454.17	841.76
454.54	826.12
454.91	809.64
455.28	793.55
455.65	777.93
456.02	767.07
456.38	754.50
456.75	738.83
457.12	725.10
457.49	712.02
457.86	698.21
458.23	688.10
458.59	676.40
458.96	664.40
459.33	653.57
459.70	643.79
460.07	635.88
460.43	626.07
460.80	617.69
461.17	610.62
461.54	602.40
461.91	594.26
462.27	585.95
462.64	579.14
463.01	572.12
463.38	565.90
463.74	555.07
464.11	548.67
464.48	543.19
464.85	536.98
465.21	532.57
465.58	527.48
465.95	520.69
466.32	515.69
466.68	510.86
467.05	506.17
467.42	501.00
467.78	495.43
468.15	490.45
468.52	486.57
468.88	480.79
469.25	476.05
469.62	472.67
469.98	469.07
470.35	465.69
470.72	462.12
471.08	457.64
471.45	455.14
471.82	452.17
472.18	448.31
472.55	446.07
472.92	442.74
473.28	439.83
473.65	437.48
474.02	434.62
474.38	432.55
474.75	430.12
475.11	427.43
475.48	425.60
475.85	423.98
476.21	421.90
476.58	420.60
476.94	419.62
477.31	418.21
477.67	417.05
478.04	416.21
478.41	415.55
478.77	416.93
479.14	415.86
479.50	415.24
479.87	415.00
480.23	414.55
480.60	414.31
480.96	414.31
481.33	415.19
481.69	415.24
482.06	415.45
482.42	416.24
482.79	416.93
483.15	417.62
483.52	418.45
483.88	418.69
484.25	419.10
484.61	419.62
484.98	420.17
485.34	421.81
485.71	423.19
486.07	424.05
486.44	423.60
486.80	424.71
487.17	426.24
487.53	428.74
487.90	431.07
488.26	433.62
488.62	436.31
488.99	437.86
489.35	440.95
489.72	443.26
490.08	445.57
490.44	448.00
490.81	451.14
491.17	454.05
491.54	457.79
491.90	461.98
492.26	465.95
492.63	470.00
492.99	473.26
493.36	477.07
493.72	481.86
494.08	486.12
494.45	491.07
494.81	496.00
495.17	500.62
495.54	506.29
495.90	511.10
496.26	516.24
496.63	521.62
496.99	527.02
497.35	532.67
497.72	538.95
498.08	545.38
498.44	551.00
498.80	557.95
499.17	564.14
499.53	570.45
499.89	576.95
500.26	583.88
500.62	590.83
500.98	597.93
501.34	604.29
501.71	612.00
502.07	618.81
502.43	625.29
502.79	631.90
503.16	638.29
503.52	645.43
503.88	651.50
504.24	659.14
504.60	666.74
504.97	674.88
505.33	681.76
505.69	689.93
506.05	697.81
506.41	704.95
506.78	712.74
507.14	719.81
507.50	727.69
507.86	735.90
508.22	743.88
508.59	751.17
508.95	759.74
509.31	768.19
509.67	776.26
510.03	784.67
510.39	792.55
510.75	799.88
511.12	807.29
511.48	815.79
511.84	823.19
512.20	830.76
512.56	838.21
512.92	846.33
513.28	853.43
513.64	860.12
514.00	867.52
514.37	874.50
514.73	882.31
515.09	889.76
515.45	896.29
515.81	902.64
516.17	909.36
516.53	915.31
516.89	921.02
517.25	928.24
517.61	934.71
517.97	941.60
518.33	948.60
518.69	955.33
519.05	961.67
519.41	968.55
519.77	975.19
520.13	980.60
520.49	986.19
520.85	992.48
521.21	999.81
521.57	1005.19
521.93	1010.83
522.29	1016.00
522.65	1020.38
523.01	1025.55
523.37	1030.74
523.73	1036.40
524.09	1041.57
524.45	1045.67
524.81	1049.71
525.17	1054.52
525.53	1058.98
525.89	1063.86
526.25	1068.31
526.61	1072.05
526.97	1075.60
527.33	1078.83
527.68	1085.74
528.04	1090.81
528.40	1094.60
528.76	1098.24
529.12	1102.64
529.48	1107.48
529.84	1111.71
530.20	1116.10
530.56	1120.62
530.91	1125.83
531.27	1129.98
531.63	1134.55
531.99	1138.83
532.35	1143.10
532.71	1147.50
533.07	1152.36
533.42	1157.98
533.78	1162.69
534.14	1167.48
534.50	1171.10
534.86	1176.36
535.21	1177.76
535.57	1181.17
535.93	1183.76
536.29	1188.05
536.65	1191.83
537.00	1195.17
537.36	1199.24
537.72	1202.88
538.08	1206.36
538.44	1208.43
538.79	1211.71
539.15	1213.95
539.51	1217.76
539.87	1221.17
540.22	1223.57
540.58	1226.48
540.94	1227.93
541.29	1230.60
541.65	1232.55
542.01	1236.40
542.37	1238.55
542.72	1241.50
543.08	1243.93
543.44	1247.69
543.79	1249.10
544.15	1252.00
544.51	1255.07
544.87	1257.02
545.22	1260.62
545.58	1263.02
545.94	1265.50
546.29	1267.93
546.65	1271.45
547.01	1274.40
547.36	1276.98
547.72	1279.26
548.07	1282.36
548.43	1284.29
548.79	1286.50
549.14	1289.33
549.50	1291.90
549.86	1294.07
550.21	1296.43
550.57	1299.71
550.92	1301.55
551.28	1305.02
551.64	1307.38
551.99	1309.12
552.35	1312.12
552.70	1313.95
553.06	1317.10
553.41	1320.90
553.77	1325.60
554.13	1328.88
554.48	1332.67
554.84	1337.33
555.19	1342.05
555.55	1345.69
555.90	1349.69
556.26	1353.24
556.61	1357.07
556.97	1360.29
557.32	1363.98
557.68	1367.88
558.03	1371.31
558.39	1376.29
558.74	1380.57
559.10	1385.02
559.45	1389.60
559.81	1394.05
560.16	1398.60
560.52	1402.38
560.87	1407.29
561.23	1409.95
561.58	1415.74
561.94	1419.26
562.29	1422.64
562.64	1427.10
563.00	1431.17
563.35	1435.98
563.71	1440.67
564.06	1446.24
564.42	1452.00
564.77	1458.40
565.12	1464.62
565.48	1472.10
565.83	1477.81
566.19	1483.17
566.54	1488.62
566.89	1494.74
567.25	1501.05
567.60	1507.98
567.96	1516.48
568.31	1522.19
568.66	1529.21
569.02	1533.43
569.37	1539.00
569.72	1544.21
570.08	1549.36
570.43	1554.55
570.78	1559.95
571.14	1565.90
571.49	1570.86
571.84	1576.36
572.20	1580.88
572.55	1586.24
572.90	1588.93
573.26	1593.33
573.61	1598.36
573.96	1602.93
574.31	1606.95
574.67	1610.83
575.02	1613.93
575.37	1615.69
575.72	1618.81
576.08	1622.88
576.43	1626.81
576.78	1630.64
577.13	1634.83
577.49	1638.74
577.84	1642.79
578.19	1646.45
578.54	1650.38
578.90	1654.71
579.25	1657.95
579.60	1660.93
579.95	1663.12
580.30	1667.52
580.66	1672.07
581.01	1675.00
581.36	1678.50
581.71	1681.76
582.06	1686.24
582.42	1690.02
582.77	1693.24
583.12	1697.31
583.47	1699.64
583.82	1703.36
584.17	1707.14
584.53	1711.07
584.88	1713.43
585.23	1716.55
585.58	1719.95
585.93	1722.50
586.28	1724.38
586.63	1726.81
586.98	1730.26
587.34	1734.71
587.69	1736.55
588.04	1738.50
588.39	1740.45
588.74	1741.31
589.09	1743.86
589.44	1744.36
589.79	1746.69
590.14	1749.10
590.49	1749.93
590.84	1752.10
591.19	1752.93
591.54	1753.52
591.89	1753.98
592.25	1758.24
592.60	1759.00
592.95	1760.64
593.30	1762.12
593.65	1763.67
594.00	1763.86
594.35	1769.76
594.70	1769.81
595.05	1771.00
595.40	1771.43
595.75	1773.05
596.10	1774.76
596.45	1776.43
596.80	1777.88
597.15	1778.45
597.50	1778.52
597.85	1780.98
598.19	1781.45
598.54	1781.93
598.89	1783.19
599.24	1784.60
599.59	1782.74
599.94	1782.76
600.29	1782.50
600.64	1782.48
600.99	1783.05
601.34	1785.52
601.69	1780.71
602.04	1779.26
602.39	1778.69
602.74	1779.45
603.08	1779.33
603.43	1780.45
603.78	1779.45
604.13	1778.71
604.48	1778.00
604.83	1777.95
605.18	1777.33
605.53	1776.48
605.87	1775.19
606.22	1774.33
606.57	1773.02
606.92	1771.60
607.27	1770.83
607.62	1769.90
607.96	1769.88
608.31	1769.55
608.66	1767.14
609.01	1765.69
609.36	1765.38
609.70	1765.02
610.05	1761.81
610.40	1759.69
610.75	1756.60
611.10	1754.71
611.44	1752.36
611.79	1749.67
612.14	1746.95
612.49	1742.90
612.83	1740.74
613.18	1738.79
613.53	1736.00
613.88	1732.21
614.22	1729.64
614.57	1725.98
614.92	1722.26
615.27	1718.02
615.61	1712.90
615.96	1708.88
616.31	1705.02
616.65	1703.07
617.00	1699.07
617.35	1696.43
617.70	1693.71
618.04	1689.40
618.39	1686.17
618.74	1683.48
619.08	1680.29
619.43	1678.21
619.78	1676.00
620.12	1672.67
620.47	1669.31
620.82	1664.69
621.16	1660.79
621.51	1657.24
621.85	1653.86
622.20	1650.40
622.55	1646.62
622.89	1643.79
623.24	1641.50
623.59	1638.12
623.93	1632.71
624.28	1628.50
624.62	1626.21
624.97	1623.17
625.32	1620.98
625.66	1616.86
626.01	1612.57
626.35	1609.07
626.70	1604.26
627.04	1600.12
627.39	1595.90
627.73	1593.12
628.08	1591.14
628.43	1588.33
628.77	1584.95
629.12	1582.74
629.46	1579.83
629.81	1576.00
630.15	1571.55
630.50	1566.57
630.84	1562.00
631.19	1557.60
631.53	1553.62
631.88	1547.38
632.22	1540.60
632.57	1536.52
632.91	1530.81
633.26	1525.07
633.60	1519.74
633.95	1514.40
634.29	1509.60
634.64	1504.62
634.98	1498.36
635.32	1492.69
635.67	1488.38
636.01	1484.02
636.36	1477.79
636.70	1472.79
637.05	1468.29
637.39	1464.12
637.73	1459.88
638.08	1456.02
638.42	1452.33
638.77	1447.98
639.11	1443.14
639.45	1439.36
639.80	1433.88
640.14	1429.33
640.49	1425.45
640.83	1420.33
641.17	1415.98
641.52	1410.40
641.86	1405.74
642.20	1402.57
642.55	1397.50
642.89	1391.81
643.23	1385.95
643.58	1381.93
643.92	1375.69
644.26	1370.38
644.61	1365.71
644.95	1359.81
645.29	1353.12
645.64	1347.19
645.98	1341.24
646.32	1336.88
646.66	1330.62
647.01	1324.26
647.35	1319.57
647.69	1313.69
648.04	1308.40
648.38	1303.12
648.72	1297.88
649.06	1292.29
649.41	1285.14
649.75	1278.55
650.09	1271.81
650.43	1265.10
650.78	1258.05
651.12	1251.76
651.46	1244.74
651.80	1237.40
652.14	1231.38
652.49	1226.45
652.83	1219.93
653.17	1213.02
653.51	1206.33
653.85	1200.33
654.20	1194.88
654.54	1187.60
654.88	1181.21
655.22	1175.40
655.56	1168.19
655.90	1161.98
656.25	1155.24
656.59	1149.36
656.93	1143.60
657.27	1138.57
657.61	1133.02
657.95	1127.19
658.29	1121.31
658.64	1115.95
658.98	1110.00
659.32	1103.12
659.66	1096.50
660.00	1090.29
660.34	1084.64
660.68	1077.74
661.02	1071.76
661.36	1064.86
661.70	1059.64
662.05	1053.55
662.39	1047.05
662.73	1042.55
663.07	1037.64
663.41	1031.95
663.75	1025.64
664.09	1020.64
664.43	1014.74
664.77	1008.62
665.11	1002.07
665.45	996.48
665.79	991.36
666.13	985.57
666.47	979.93
666.81	973.36
667.15	967.55
667.49	962.45
667.83	957.29
668.17	951.40
668.51	945.79
668.85	939.88
669.19	935.76
669.53	929.81
669.87	923.00
670.21	916.07
670.55	910.17
670.89	906.02
671.23	899.79
671.57	893.74
671.91	888.62
672.25	883.90
672.58	878.83
672.92	872.26
673.26	867.31
673.60	862.60
673.94	857.67
674.28	852.74
674.62	847.33
674.96	842.26
675.30	837.79
675.64	832.64
675.97	827.90
676.31	820.93
676.65	816.33
676.99	811.93
677.33	806.95
677.67	802.26
678.01	795.48
678.34	790.90
678.68	786.86
679.02	781.64
679.36	776.43
679.70	770.95
680.04	765.79
680.37	760.36
680.71	754.83
681.05	750.88
681.39	746.02
681.73	741.00
682.06	736.10
682.40	731.14
682.74	727.02
683.08	722.57
683.42	718.57
683.75	713.05
684.09	708.12
684.43	703.50
684.77	698.60
685.10	694.57
685.44	689.50
685.78	684.45
686.12	680.24
686.45	675.52
686.79	670.86
687.13	666.76
687.46	661.86
687.80	658.31
688.14	653.31
688.48	649.43
688.81	644.60
689.15	640.50
689.49	635.57
689.82	631.31
690.16	626.24
690.50	621.98
690.83	618.64
691.17	613.33
691.51	609.17
691.84	604.98
692.18	600.76
692.52	596.93
692.85	593.24
693.19	589.64
693.52	585.76
693.86	581.69
694.20	577.83
694.53	574.43
694.87	570.00
695.21	565.88
695.54	561.64
695.88	557.62
696.21	552.95
696.55	549.33
696.88	545.43
697.22	541.38
697.56	538.07
697.89	533.62
698.23	531.17
698.56	527.00
698.90	523.36
699.23	519.33
699.57	515.76
699.90	511.69
700.24	507.86
700.58	504.19
700.91	501.24
701.25	499.50
701.58	496.57
701.92	493.98
702.25	491.29
702.59	487.52
702.92	484.81
703.26	482.00
703.59	478.95
703.93	477.62
704.26	475.40
704.60	472.57
704.93	469.81
705.26	466.36
705.60	464.00
705.93	460.98
706.27	458.79
706.60	456.36
706.94	454.14
707.27	450.50
707.61	447.71
707.94	444.81
708.27	440.43
708.61	437.17
708.94	433.98
709.28	430.81
709.61	428.26
709.94	425.93
710.28	423.24
710.61	420.69
710.95	416.48
711.28	415.33
711.61	412.45
711.95	410.81
712.28	408.19
712.61	405.57
712.95	403.88
713.28	402.45
713.61	399.50
713.95	396.64
714.28	394.69
714.61	392.36
714.95	390.10
715.28	387.64
715.61	385.48
715.95	383.29
716.28	381.00
716.61	379.43
716.95	376.81
717.28	375.05
717.61	372.62
717.94	370.31
718.28	366.57
718.61	364.50
718.94	361.83
719.27	359.88
719.61	357.90
719.94	355.79
720.27	352.64
720.60	350.57
720.94	348.83
721.27	347.43
721.60	346.45
721.93	344.76
722.27	344.14
722.60	342.76
722.93	340.76
723.26	339.76
723.59	337.62
723.93	336.48
724.26	335.07
724.59	333.95
724.92	332.52
725.25	331.74
725.59	330.31
725.92	329.33
726.25	328.17
726.58	327.10
726.91	325.60
727.24	324.81
727.57	323.98
727.91	322.24
728.24	321.26
728.57	319.55
728.90	318.48
729.23	316.43
729.56	316.02
729.89	314.95
730.22	313.33
730.55	312.36
730.89	311.14
731.22	309.55
731.55	308.17
731.88	307.14
732.21	305.64
732.54	304.57
732.87	303.26
733.20	302.48
733.53	301.48
733.86	300.33
734.19	298.90
734.52	298.00
734.85	298.55
735.18	297.12
735.51	296.67
735.84	295.79
736.17	295.48
736.50	293.71
736.83	295.62
737.16	294.90
737.49	294.10
737.82	293.21
738.15	292.71
738.48	292.17
738.81	291.55
739.14	290.45
739.47	289.48
739.80	288.95
740.13	288.17
740.46	286.83
740.79	286.19
741.12	285.40
741.45	284.07
741.78	282.29
742.11	281.83
742.44	280.60
742.77	279.86
743.10	278.57
743.43	277.33
743.75	274.00
744.08	275.69
744.41	274.64
744.74	273.74
745.07	272.71
745.40	272.24
745.73	272.05
746.06	271.36
746.39	270.67
746.71	269.79
747.04	268.90
747.37	268.43
747.70	267.98
748.03	267.21
748.36	267.31
748.68	266.69
749.01	265.57
749.34	265.10
749.67	264.62
750.00	264.43
750.33	265.76
750.65	265.60
750.98	262.48
751.31	261.86
751.64	261.81
751.97	262.74
752.29	261.98
752.62	260.90
752.95	260.43
753.28	259.86
753.60	259.10
753.93	258.88
754.26	258.40
754.59	257.17
754.91	256.50
755.24	255.60
755.57	255.07
755.90	254.67
756.22	253.90
756.55	253.14
756.88	252.26
757.20	250.48
757.53	249.36
757.86	249.12
758.19	248.90
758.51	247.79
758.84	245.86
759.17	245.43
759.49	244.74
759.82	245.29
760.15	245.19
760.47	244.86
760.80	243.95
761.13	244.17
761.45	243.88
761.78	243.48
762.11	243.00
762.43	242.36
762.76	241.98
763.08	242.00
763.41	241.64
763.74	241.33
764.06	240.67
764.39	240.38
764.71	239.95
765.04	239.55
765.37	239.21
765.69	238.90
766.02	238.31
766.34	237.93
766.67	236.62
767.00	236.64
767.32	237.26
767.65	238.14
767.97	237.55
768.30	237.43
768.62	237.33
768.95	237.02
769.27	236.69
769.60	236.64
769.92	235.81
770.25	235.26
770.57	234.57
770.90	234.29
771.22	233.71
771.55	233.57
771.87	233.38
772.20	233.26
772.52	234.76
772.85	237.21
773.17	236.95
773.50	236.71
773.82	235.88
774.15	234.98
774.47	233.64
774.80	233.26
775.12	233.38
775.45	233.29
775.77	233.02
776.09	233.10
776.42	232.81
776.74	233.48
777.07	233.38
777.39	233.43
777.72	233.07
778.04	233.26
778.36	232.83
778.69	232.67
779.01	232.29
779.33	230.45
779.66	227.57
779.98	227.55
780.31	227.50
780.63	228.21
780.95	228.48
781.28	228.07
781.60	227.74
781.92	227.38
782.25	227.02
782.57	226.98
782.89	226.74
783.22	226.36
783.54	225.60
783.86	225.71
784.19	225.50
784.51	226.14
784.83	225.79
785.16	225.52
785.48	225.36
785.80	225.69
786.12	225.93
786.45	226.00
786.77	225.86
787.09	225.57
787.42	224.71
787.74	224.29
788.06	224.40
788.38	224.19
788.71	223.69
789.03	223.60
789.35	223.79
789.67	223.19
789.99	223.29
790.32	223.10
790.64	223.21
790.96	224.95
791.28	224.19
791.61	224.00
791.93	224.05
792.25	223.79
792.57	225.02
792.89	224.21
793.21	224.21
793.54	223.93
793.86	223.83
794.18	223.88
794.50	223.55
794.82	223.48
795.14	223.52
795.47	223.93
795.79	223.81
796.11	223.12
796.43	223.33
796.75	223.24
797.07	223.40
797.39	222.88
797.71	221.38
798.04	221.31
798.36	221.40
798.68	221.38
799.00	221.93
799.32	220.57
799.64	221.14
799.96	220.98
800.28	221.17
800.60	220.95
800.92	220.90
801.24	220.81
801.56	220.81
801.89	220.90
802.21	220.71
802.53	220.67
802.85	221.14
803.17	221.98
803.49	221.60
803.81	221.33
804.13	221.14
804.45	220.67
804.77	220.90
805.09	220.83
805.41	220.52
805.73	219.95
806.05	219.55
806.37	219.31
806.69	219.26
807.01	219.31
807.33	219.40
807.65	218.88
807.97	219.81
808.28	219.71
808.60	219.50
808.92	219.31
809.24	220.48
809.56	220.19
809.88	219.29
810.20	219.52
810.52	219.79
810.84	219.64
811.16	219.60
811.48	219.29
811.80	219.95
812.12	219.76
812.43	219.86
812.75	220.10
813.07	219.79
813.39	219.83
813.71	219.29
814.03	219.21
814.35	219.38
814.67	218.33
814.98	217.98
815.30	217.81
815.62	217.60
815.94	216.19
816.26	216.26
816.58	215.88
816.89	215.79
817.21	215.17
817.53	215.40
817.85	215.36
818.17	215.40
818.48	214.67
818.80	215.26
819.12	215.12
819.44	214.71
819.76	214.31
820.07	214.36
820.39	214.45
820.71	214.52
821.03	214.38
821.34	214.29
821.66	214.76
821.98	215.05
822.30	214.93
822.61	216.12
822.93	215.67
823.25	215.60
823.57	215.36
823.88	215.79
824.20	215.76
824.52	215.95
824.83	215.83
825.15	215.33
825.47	215.10
825.79	215.26
826.10	215.17
826.42	215.50
826.74	215.71
827.05	215.50
827.37	215.67
827.69	215.69
828.00	215.93
828.32	215.69
828.64	215.52
828.95	216.45
829.27	215.83
829.58	215.81
829.90	216.31
830.22	216.52
830.53	216.24
830.85	215.90
831.17	215.48
831.48	215.57
831.80	215.88
832.11	215.74
832.43	215.55
832.75	215.69
833.06	216.88
833.38	216.12
833.69	216.14
834.01	215.79
834.32	215.60
834.64	215.62
834.96	215.76
835.27	215.45
835.59	214.76
835.90	214.36
836.22	214.43
836.53	214.14
836.85	214.00
837.16	215.81
837.48	215.83
837.79	216.60
838.11	216.52
838.42	216.40
838.74	216.52
839.05	216.10
839.37	216.00
839.68	214.64
840.00	214.52
840.31	215.05
840.63	215.19
840.94	215.05
841.26	214.55
841.57	214.38
841.88	214.67
842.20	214.67
842.51	214.38
842.83	214.40
843.14	216.00
843.46	216.02
843.77	215.10
844.08	215.07
844.40	214.45
844.71	214.45
845.03	214.31
845.34	213.93
845.65	214.12
845.97	214.07
846.28	214.31
846.60	214.55
846.91	214.12
847.22	214.07
847.54	214.57
847.85	214.76
848.16	214.45
848.48	214.26
848.79	214.95
849.10	215.12
849.42	215.26
849.73	213.48
850.04	213.33
850.36	212.55
850.67	212.98
850.98	212.90
851.30	212.86
851.61	212.90
851.92	213.12
852.23	213.48
852.55	213.50
852.86	213.33
853.17	213.60
853.49	213.88
853.80	214.10
854.11	214.12
854.42	214.14
854.74	213.95
855.05	214.07
855.36	213.14
855.67	213.29
855.99	213.19
856.30	215.62
856.61	215.67
856.92	215.79
857.23	215.52
857.55	215.62
857.86	215.57
858.17	215.83
858.48	215.60
858.79	215.43
859.11	215.52
859.42	215.24
859.73	214.74
860.04	214.62
860.35	214.31
860.66	213.74
860.98	213.86
861.29	214.26
861.60	214.05
861.91	214.55
862.22	214.26
862.53	213.86
862.84	211.45
863.16	211.79
863.47	211.36
863.78	211.19
864.09	210.93
864.40	211.10
864.71	211.19
865.02	211.60
865.33	211.29
865.64	210.90
865.95	211.14
866.27	212.48
866.58	212.38
866.89	212.48
867.20	212.52
867.51	212.14
867.82	211.90
868.13	212.48
868.44	211.95
868.75	212.55
869.06	212.93
869.37	213.31
869.68	212.71
869.99	212.98
870.30	213.17
870.61	213.43
870.92	213.26
871.23	213.02
871.54	213.19
871.85	213.62
872.16	214.07
872.47	213.93
872.78	212.90
873.09	212.90
873.40	212.62
873.71	212.71
874.02	212.88
874.33	212.62
874.64	212.31
874.95	212.52
875.26	211.98
875.56	211.88
875.87	211.62
876.18	211.71
876.49	213.74
876.80	213.69
877.11	213.19
877.42	213.19
877.73	213.29
878.04	213.17
878.35	213.17
878.66	213.02
878.96	213.02
879.27	212.90
879.58	212.90
879.89	212.88
880.20	213.43
880.51	213.33
880.82	213.29
881.12	213.38
881.43	212.93
881.74	212.57
882.05	212.55
882.36	212.48
882.67	212.55
882.97	210.48
883.28	210.24
883.59	210.48
883.90	210.67
884.21	210.98
884.51	210.45
884.82	210.24
885.13	210.21
885.44	210.05
885.74	210.17
886.05	210.02
886.36	210.26
886.67	209.50
886.98	210.55
887.28	211.05
887.59	210.88
887.90	211.24
888.20	211.33
888.51	211.57
888.82	211.64
889.13	211.69
889.43	213.31
889.74	213.33
890.05	213.43
890.35	213.24
890.66	212.86
890.97	213.10
891.28	212.93
891.58	213.10
891.89	213.31
892.20	213.02
892.50	213.02
892.81	212.64
893.12	212.71
893.42	211.76
893.73	211.79
894.04	211.74
894.34	211.81
894.65	211.76
894.95	211.55
895.26	211.29
895.57	212.43
895.87	210.52
896.18	211.02
896.48	211.00
896.79	210.86
897.10	211.33
897.40	211.29
897.71	211.64
898.01	211.38
898.32	211.62
898.63	211.52
898.93	211.52
899.24	211.76
899.54	211.69
899.85	211.64
900.15	211.74
900.46	211.71
900.76	211.98
901.07	211.95
901.38	212.07
901.68	212.43
901.99	211.31
902.29	211.50
902.60	211.21
902.90	211.12
903.21	211.19
903.51	211.00
903.82	211.33
904.12	211.26
904.43	211.36
904.73	211.36
905.03	211.57
905.34	213.74
905.64	213.57
905.95	213.62
906.25	213.52
906.56	213.48
906.86	213.57
907.17	213.14
907.47	213.26
907.77	213.07
908.08	212.67
908.38	212.95
908.69	213.24
908.99	213.29
909.30	213.48
909.60	213.45
909.90	213.43
910.21	212.90
910.51	212.60
910.81	212.74
911.12	212.67
911.42	212.76
911.73	210.57
912.03	210.79
912.33	211.17
912.64	211.10
912.94	210.83
913.24	210.62
913.55	210.55
913.85	210.64
914.15	210.88
914.46	211.14
914.76	210.76
915.06	210.57
915.37	210.43
915.67	210.29
915.97	210.36
916.27	209.88
916.58	209.98
916.88	210.02
917.18	209.95
917.49	211.40
917.79	211.38
918.09	211.81
918.39	212.29
918.70	212.19
919.00	212.45
919.30	213.21
919.60	213.12
919.91	213.14
920.21	213.26
920.51	212.95
920.81	212.98
921.12	213.33
921.42	213.29
921.72	213.43
922.02	213.45
922.32	213.74
922.63	213.81
922.93	214.71
923.23	214.76
923.53	214.48
923.83	213.07
924.13	213.31
924.44	213.21
924.74	213.38
925.04	213.76
925.34	213.62
925.64	212.83
925.94	212.67
926.24	213.79
926.55	213.33
926.85	213.64
927.15	213.64
927.45	213.43
927.75	213.43
928.05	213.52
928.35	213.45
928.65	213.71
928.95	213.95
929.26	213.40
929.56	213.55
929.86	213.81
930.16	213.57
930.46	213.29
930.76	213.05
931.06	212.05
931.36	211.67
931.66	211.81
931.96	212.24
932.26	212.52
932.56	211.57
932.86	212.07
933.16	212.05
933.46	211.74
933.76	211.50
934.06	212.14
934.36	212.69
934.66	212.74
934.96	212.40
935.26	212.64
935.56	212.69
935.86	212.19
936.16	211.86
936.46	211.83
936.76	211.79
937.06	211.95
937.36	212.26
937.66	212.29
937.96	212.40
938.26	211.98
938.56	212.02
938.86	212.10
939.16	212.40
939.46	212.60
939.76	212.86
940.06	212.88
940.35	212.05
940.65	211.07
940.95	211.00
941.25	210.50
941.55	209.98
941.85	209.88
942.15	210.52
942.45	211.17
942.75	210.93
943.04	211.00
943.34	211.17
943.64	210.93
943.94	210.43
944.24	210.21
944.54	210.38
944.84	210.14
945.13	209.69
945.43	209.36
945.73	209.12
946.03	208.93
946.33	208.74
946.62	208.69
946.92	208.50
947.22	208.76
947.52	208.90
947.82	209.29
948.11	209.10
948.41	208.95
948.71	208.50
949.01	208.81
949.31	208.69
949.60	208.50
949.90	208.86
950.20	209.10
950.50	209.24
950.79	208.98
951.09	209.31
951.39	209.60
951.69	209.07
951.98	209.52
952.28	209.71
952.58	209.83
952.87	209.88
953.17	210.31
953.47	210.05
953.76	210.17
954.06	209.76
954.36	209.45
954.66	209.17
954.95	209.60
955.25	209.69
955.55	209.93
955.84	209.67
956.14	209.71
956.44	209.90
956.73	209.48
957.03	209.45
957.32	209.31
957.62	209.14
957.92	209.86
958.21	209.83
958.51	212.17
958.81	212.33
959.10	212.64
959.40	213.26
959.69	213.38
959.99	213.50
960.29	213.36
960.58	213.36
960.88	214.19
961.17	214.02
961.47	214.33
961.76	214.02
962.06	214.19
962.36	214.07
962.65	214.00
962.95	214.24
963.24	214.33
963.54	214.52
963.83	214.60
964.13	214.31
964.42	213.55
964.72	211.95
965.01	212.26
965.31	212.10
965.60	211.43
965.90	212.86
966.19	212.43
966.49	212.69
966.78	212.86
967.08	212.52
967.37	212.69
967.67	212.14
967.96	212.71
968.26	212.88
968.55	213.10
968.85	213.36
969.14	213.12
969.43	213.12
969.73	212.90
970.02	213.00
970.32	213.12
970.61	213.29
970.91	212.52
971.20	212.26
971.49	212.02
971.79	212.40
972.08	210.71
972.38	211.17
972.67	211.12
972.96	211.45
973.26	211.29
973.55	211.76
973.85	211.69
974.14	211.38
974.43	211.55
974.73	211.29
975.02	210.79
975.31	210.90
975.61	210.86
975.90	210.74
976.19	210.79
976.49	210.86
976.78	211.00
977.07	211.10
977.37	211.14
977.66	211.86
977.95	211.38
978.24	211.71
978.54	212.12
978.83	212.10
979.12	211.81
979.42	211.57
979.71	211.21
980.00	211.24
980.29	211.36
980.59	210.98
980.88	211.40
981.17	211.64
981.46	211.81
981.76	211.69
982.05	212.33
982.34	212.33
982.63	212.31
982.93	212.21
983.22	212.79
983.51	212.83
983.80	212.69
984.09	212.95
984.39	212.95
984.68	212.38
984.97	212.60
985.26	212.57
985.55	212.90
985.85	212.36
986.14	212.76
986.43	212.93
986.72	212.76
987.01	212.14
987.30	212.07
987.59	211.76
987.89	211.93
988.18	211.26
988.47	211.12
988.76	210.95
989.05	210.81
989.34	210.29
989.63	210.79
989.92	210.48
990.22	210.14
990.51	209.98
990.80	210.02
991.09	209.74
991.38	209.64
991.67	209.10
991.96	209.10
992.25	209.21
992.54	208.67
992.83	208.71
993.12	208.64
993.41	208.81
993.70	209.93
993.99	210.19
994.28	210.33
994.58	210.71
994.87	210.60
995.16	210.67
995.45	210.67
995.74	210.10
996.03	210.40
996.32	210.88
996.61	211.36
996.90	211.17
997.19	211.57
997.48	211.64
997.77	211.69
998.06	211.88
998.34	211.62
998.63	211.64
998.92	211.71
999.21	212.17
999.50	212.31
999.79	211.50
1000.08	211.55
1000.37	211.90
1000.66	211.55
1000.95	211.88
1001.24	211.76
1001.53	211.81
1001.82	211.79
1002.11	211.38
1002.40	211.45
1002.68	211.86
1002.97	213.52
1003.26	213.00
1003.55	212.88
1003.84	213.10
1004.13	213.67
1004.42	213.52
1004.71	213.67
1004.99	213.76
1005.28	214.36
1005.57	213.95
1005.86	213.69
1006.15	213.48
1006.44	213.05
1006.72	213.33
1007.01	213.07
1007.30	213.14
1007.59	212.98
1007.88	212.90
1008.17	212.98
1008.45	212.69
1008.74	211.74
1009.03	210.79
1009.32	210.98
1009.60	210.88
1009.89	210.69
1010.18	209.71
1010.47	209.76
1010.76	209.57
1011.04	209.29
1011.33	209.17
1011.62	209.52
1011.91	209.74
1012.19	209.76
1012.48	209.83
1012.77	209.71
1013.05	210.67
1013.34	210.86
1013.63	210.74
1013.92	210.95
1014.20	210.62
1014.49	210.74
1014.78	211.05
1015.06	210.12
1015.35	210.07
1015.64	210.64
1015.92	210.86
1016.21	211.12
1016.50	211.12
1016.78	211.36
1017.07	211.55
1017.36	211.14
1017.64	210.69
1017.93	210.79
1018.22	210.81
1018.50	210.76
1018.79	210.57
1019.08	209.57
1019.36	209.50
1019.65	209.45
1019.93	209.83
1020.22	210.48
1020.51	211.26
1020.79	210.95
1021.08	211.00
1021.36	208.00
1021.65	208.50
1021.94	208.50
1022.22	209.50
1022.51	207.00
1022.79	221.50
1023.08	216.00
1023.36	231.50
1023.65	205.00
>>>>>End Processed Spectral Data<<<<<
