SpectraSuite Data File
++++++++++++++++++++++++++++++++++++
Date: Tue Apr 02 18:45:28 EDT 2013
User: group
Dark Spectrum Present: No
Reference Spectrum Present: No
Number of Sampled Component Spectra: 1
Spectrometers: USB2E7196
Integration Time (usec): 580000 (USB2E7196)
Spectra Averaged: 2 (USB2E7196)
Boxcar Smoothing: 10 (USB2E7196)
Correct for Electrical Dark: No (USB2E7196)
Strobe/Lamp Enabled: No (USB2E7196)
Correct for Detector Non-linearity: No (USB2E7196)
Correct for Stray Light: No (USB2E7196)
Number of Pixels in Processed Spectrum: 2048
>>>>>Begin Processed Spectral Data<<<<<
339.09	0.00
339.48	194.00
339.86	194.50
340.24	197.00
340.63	198.00
341.01	227.00
341.39	201.50
341.78	207.00
342.16	212.50
342.54	205.50
342.93	198.02
343.31	207.90
343.69	208.64
344.07	209.43
344.46	210.24
344.84	210.93
345.22	209.88
345.60	210.33
345.99	210.74
346.37	210.67
346.75	211.12
347.13	211.26
347.52	211.19
347.90	211.98
348.28	212.12
348.66	212.74
349.05	212.10
349.43	212.67
349.81	212.93
350.19	212.95
350.57	213.33
350.96	213.55
351.34	213.67
351.72	213.67
352.10	213.36
352.48	213.26
352.87	213.10
353.25	213.21
353.63	213.02
354.01	212.79
354.39	213.00
354.77	212.83
355.15	213.36
355.54	213.21
355.92	212.50
356.30	212.38
356.68	213.31
357.06	213.50
357.44	213.02
357.82	212.95
358.20	213.74
358.58	213.36
358.97	213.45
359.35	214.02
359.73	214.36
360.11	214.62
360.49	214.55
360.87	214.60
361.25	214.98
361.63	215.52
362.01	215.60
362.39	215.24
362.77	215.10
363.15	215.05
363.53	214.93
363.91	215.05
364.29	215.10
364.67	213.17
365.05	213.14
365.43	213.31
365.81	213.62
366.19	213.69
366.57	214.64
366.95	214.52
367.33	213.98
367.71	214.14
368.09	214.38
368.47	214.52
368.85	214.26
369.23	214.90
369.61	214.17
369.99	214.93
370.37	215.31
370.75	216.52
371.13	215.93
371.51	215.69
371.89	216.00
372.27	216.07
372.65	216.33
373.03	216.29
373.41	216.17
373.78	215.95
374.16	214.76
374.54	214.07
374.92	213.83
375.30	213.93
375.68	213.26
376.06	213.43
376.44	213.14
376.82	213.50
377.19	213.24
377.57	213.31
377.95	212.52
378.33	212.17
378.71	211.00
379.09	211.55
379.47	212.02
379.84	211.79
380.22	211.64
380.60	211.33
380.98	211.26
381.36	211.12
381.73	210.79
382.11	211.21
382.49	211.26
382.87	211.05
383.25	210.67
383.62	213.24
384.00	212.76
384.38	212.90
384.76	213.43
385.13	213.98
385.51	214.21
385.89	214.26
386.27	214.62
386.64	214.86
387.02	214.38
387.40	214.07
387.78	214.21
388.15	214.57
388.53	214.50
388.91	214.57
389.29	214.52
389.66	214.90
390.04	214.55
390.42	214.95
390.79	215.07
391.17	215.21
391.55	212.88
391.92	213.05
392.30	213.19
392.68	212.62
393.05	212.31
393.43	212.38
393.81	212.21
394.18	211.81
394.56	212.00
394.94	212.88
395.31	213.14
395.69	213.64
396.06	213.71
396.44	214.12
396.82	214.00
397.19	215.10
397.57	214.81
397.95	215.36
398.32	214.74
398.70	215.02
399.07	215.60
399.45	215.60
399.82	215.62
400.20	215.29
400.58	214.98
400.95	214.29
401.33	214.74
401.70	216.31
402.08	216.36
402.45	216.33
402.83	216.38
403.20	216.45
403.58	216.43
403.95	216.71
404.33	217.14
404.71	217.45
405.08	218.76
405.46	219.10
405.83	219.60
406.21	220.17
406.58	220.60
406.96	221.07
407.33	221.57
407.70	222.38
408.08	224.83
408.45	225.95
408.83	227.10
409.20	227.74
409.58	227.36
409.95	228.76
410.33	229.81
410.70	230.24
411.08	231.29
411.45	232.50
411.82	233.38
412.20	234.79
412.57	237.14
412.95	236.60
413.32	238.29
413.69	239.43
414.07	241.07
414.44	242.86
414.82	244.60
415.19	247.14
415.56	249.38
415.94	250.45
416.31	253.48
416.68	256.19
417.06	259.14
417.43	262.55
417.81	265.79
418.18	269.17
418.55	272.88
418.93	276.76
419.30	280.60
419.67	285.19
420.04	289.29
420.42	293.69
420.79	300.86
421.16	306.60
421.54	313.55
421.91	319.71
422.28	325.62
422.66	332.26
423.03	339.93
423.40	346.52
423.77	353.69
424.15	360.52
424.52	368.29
424.89	376.88
425.26	384.38
425.64	391.88
426.01	400.07
426.38	409.21
426.75	418.93
427.13	428.17
427.50	437.55
427.87	447.86
428.24	457.74
428.61	466.38
428.99	477.71
429.36	487.74
429.73	498.62
430.10	510.64
430.47	522.43
430.85	533.00
431.22	545.55
431.59	559.86
431.96	572.52
432.33	586.33
432.70	600.14
433.08	616.52
433.45	631.45
433.82	647.50
434.19	664.48
434.56	681.00
434.93	696.62
435.30	712.62
435.68	729.74
436.05	746.45
436.42	762.95
436.79	778.79
437.16	796.17
437.53	813.38
437.90	830.62
438.27	847.93
438.64	866.21
439.01	883.45
439.38	897.07
439.75	912.26
440.13	929.24
440.50	944.12
440.87	956.83
441.24	970.76
441.61	984.86
441.98	995.52
442.35	1006.98
442.72	1020.29
443.09	1033.14
443.46	1040.93
443.83	1046.45
444.20	1052.12
444.57	1057.55
444.94	1060.71
445.31	1065.48
445.68	1070.60
446.05	1072.40
446.42	1071.07
446.79	1069.95
447.16	1068.98
447.53	1068.12
447.90	1061.64
448.27	1055.86
448.64	1046.83
449.01	1039.79
449.37	1028.36
449.74	1017.26
450.11	1006.55
450.48	991.38
450.85	976.40
451.22	963.93
451.59	952.50
451.96	939.93
452.33	924.60
452.70	910.74
453.07	893.57
453.43	874.62
453.80	858.02
454.17	841.86
454.54	826.10
454.91	809.55
455.28	792.79
455.65	777.79
456.02	766.07
456.38	754.21
456.75	739.38
457.12	726.24
457.49	713.79
457.86	699.00
458.23	689.10
458.59	676.88
458.96	665.48
459.33	654.81
459.70	644.83
460.07	636.83
460.43	627.17
460.80	618.21
461.17	611.00
461.54	602.71
461.91	594.76
462.27	586.98
462.64	579.95
463.01	572.74
463.38	566.33
463.74	555.64
464.11	548.31
464.48	542.60
464.85	536.45
465.21	531.90
465.58	527.55
465.95	521.14
466.32	516.26
466.68	510.60
467.05	505.43
467.42	500.17
467.78	494.57
468.15	489.64
468.52	486.07
468.88	480.24
469.25	476.00
469.62	473.19
469.98	468.98
470.35	465.50
470.72	461.83
471.08	456.81
471.45	453.98
471.82	451.74
472.18	448.26
472.55	445.55
472.92	442.00
473.28	439.24
473.65	436.55
474.02	434.29
474.38	432.43
474.75	430.40
475.11	427.64
475.48	426.33
475.85	424.76
476.21	423.10
476.58	422.31
476.94	420.76
477.31	419.19
477.67	418.00
478.04	416.86
478.41	416.40
478.77	418.14
479.14	417.10
479.50	416.26
479.87	415.95
480.23	415.81
480.60	415.07
480.96	414.95
481.33	415.57
481.69	415.07
482.06	414.74
482.42	414.52
482.79	415.86
483.15	415.67
483.52	416.71
483.88	416.76
484.25	417.40
484.61	418.31
484.98	419.17
485.34	420.93
485.71	422.26
486.07	423.48
486.44	422.90
486.80	424.95
487.17	426.19
487.53	427.83
487.90	430.00
488.26	433.24
488.62	435.81
488.99	437.74
489.35	441.05
489.72	444.12
490.08	447.29
490.44	449.69
490.81	453.17
491.17	455.69
491.54	459.33
491.90	462.79
492.26	466.43
492.63	469.98
492.99	473.00
493.36	477.31
493.72	481.83
494.08	486.64
494.45	491.17
494.81	496.38
495.17	501.76
495.54	507.05
495.90	511.33
496.26	516.00
496.63	521.45
496.99	526.24
497.35	531.98
497.72	538.19
498.08	544.31
498.44	550.48
498.80	557.05
499.17	562.95
499.53	569.05
499.89	575.90
500.26	582.45
500.62	589.74
500.98	596.98
501.34	603.64
501.71	611.26
502.07	618.86
502.43	625.93
502.79	632.69
503.16	639.43
503.52	646.64
503.88	653.60
504.24	661.14
504.60	668.71
504.97	676.52
505.33	683.62
505.69	691.52
506.05	699.02
506.41	706.90
506.78	715.17
507.14	723.05
507.50	730.86
507.86	738.69
508.22	746.50
508.59	753.90
508.95	762.02
509.31	769.88
509.67	777.12
510.03	784.79
510.39	792.55
510.75	800.31
511.12	808.05
511.48	816.60
511.84	824.38
512.20	832.40
512.56	839.86
512.92	847.50
513.28	855.24
513.64	862.88
514.00	869.60
514.37	876.24
514.73	883.45
515.09	890.17
515.45	897.05
515.81	903.79
516.17	910.55
516.53	916.88
516.89	922.45
517.25	929.02
517.61	936.29
517.97	942.57
518.33	949.07
518.69	955.19
519.05	961.38
519.41	967.48
519.77	974.86
520.13	980.57
520.49	986.21
520.85	991.79
521.21	998.24
521.57	1004.29
521.93	1009.74
522.29	1015.90
522.65	1020.93
523.01	1026.64
523.37	1031.19
523.73	1035.90
524.09	1040.86
524.45	1045.69
524.81	1050.45
525.17	1054.83
525.53	1058.86
525.89	1063.21
526.25	1068.48
526.61	1071.83
526.97	1075.90
527.33	1079.38
527.68	1084.86
528.04	1089.79
528.40	1093.57
528.76	1097.07
529.12	1101.79
529.48	1107.19
529.84	1110.71
530.20	1115.52
530.56	1120.02
530.91	1124.98
531.27	1129.57
531.63	1134.50
531.99	1138.57
532.35	1141.88
532.71	1145.02
533.07	1150.71
533.42	1157.55
533.78	1161.38
534.14	1166.24
534.50	1170.02
534.86	1174.64
535.21	1177.14
535.57	1180.88
535.93	1184.60
536.29	1189.98
536.65	1193.12
537.00	1196.38
537.36	1200.38
537.72	1203.29
538.08	1206.55
538.44	1209.00
538.79	1212.38
539.15	1214.48
539.51	1218.26
539.87	1222.07
540.22	1225.79
540.58	1228.74
540.94	1229.88
541.29	1233.00
541.65	1235.21
542.01	1238.52
542.37	1240.55
542.72	1242.79
543.08	1244.36
543.44	1246.81
543.79	1246.64
544.15	1250.10
544.51	1253.14
544.87	1256.00
545.22	1259.33
545.58	1260.95
545.94	1263.52
546.29	1265.88
546.65	1269.21
547.01	1271.10
547.36	1274.74
547.72	1277.57
548.07	1279.98
548.43	1282.29
548.79	1283.93
549.14	1286.98
549.50	1289.67
549.86	1291.48
550.21	1295.24
550.57	1298.93
550.92	1301.93
551.28	1306.19
551.64	1308.48
551.99	1310.69
552.35	1312.98
552.70	1315.62
553.06	1319.24
553.41	1322.83
553.77	1328.17
554.13	1331.55
554.48	1335.83
554.84	1339.52
555.19	1342.71
555.55	1347.86
555.90	1351.45
556.26	1355.83
556.61	1359.26
556.97	1362.57
557.32	1366.12
557.68	1368.74
558.03	1372.38
558.39	1376.33
558.74	1380.14
559.10	1383.95
559.45	1388.10
559.81	1392.33
560.16	1396.31
560.52	1400.60
560.87	1405.64
561.23	1408.14
561.58	1413.76
561.94	1417.86
562.29	1420.36
562.64	1425.00
563.00	1427.93
563.35	1432.62
563.71	1437.60
564.06	1443.55
564.42	1448.69
564.77	1455.29
565.12	1462.24
565.48	1469.74
565.83	1474.86
566.19	1480.76
566.54	1486.98
566.89	1492.14
567.25	1498.29
567.60	1504.86
567.96	1513.10
568.31	1519.50
568.66	1526.45
569.02	1529.64
569.37	1534.45
569.72	1540.64
570.08	1546.12
570.43	1550.95
570.78	1556.45
571.14	1562.48
571.49	1566.83
571.84	1571.95
572.20	1576.12
572.55	1580.55
572.90	1583.19
573.26	1588.64
573.61	1592.21
573.96	1596.29
574.31	1600.45
574.67	1604.40
575.02	1608.36
575.37	1609.52
575.72	1613.14
576.08	1616.76
576.43	1621.93
576.78	1625.48
577.13	1629.12
577.49	1632.67
577.84	1637.74
578.19	1641.45
578.54	1644.88
578.90	1649.19
579.25	1653.02
579.60	1655.86
579.95	1658.17
580.30	1661.67
580.66	1664.64
581.01	1668.76
581.36	1671.55
581.71	1675.10
582.06	1679.33
582.42	1683.00
582.77	1686.71
583.12	1689.98
583.47	1693.52
583.82	1695.86
584.17	1699.64
584.53	1704.21
584.88	1707.67
585.23	1710.55
585.58	1713.00
585.93	1715.26
586.28	1718.19
586.63	1721.26
586.98	1725.38
587.34	1729.38
587.69	1731.48
588.04	1734.48
588.39	1736.48
588.74	1738.12
589.09	1741.29
589.44	1741.90
589.79	1743.50
590.14	1745.05
590.49	1746.50
590.84	1746.71
591.19	1748.62
591.54	1750.71
591.89	1750.95
592.25	1754.05
592.60	1754.90
592.95	1756.90
593.30	1759.21
593.65	1760.45
594.00	1760.93
594.35	1767.40
594.70	1767.57
595.05	1769.29
595.40	1770.05
595.75	1771.64
596.10	1773.93
596.45	1775.17
596.80	1777.14
597.15	1778.10
597.50	1779.81
597.85	1780.79
598.19	1781.29
598.54	1782.57
598.89	1783.36
599.24	1784.38
599.59	1783.45
599.94	1784.19
600.29	1784.69
600.64	1784.81
600.99	1784.86
601.34	1785.93
601.69	1779.81
602.04	1779.79
602.39	1779.64
602.74	1780.69
603.08	1779.38
603.43	1779.36
603.78	1778.26
604.13	1777.24
604.48	1776.33
604.83	1775.81
605.18	1775.79
605.53	1776.12
605.87	1774.86
606.22	1773.21
606.57	1772.64
606.92	1771.48
607.27	1770.48
607.62	1769.67
607.96	1768.86
608.31	1768.12
608.66	1767.29
609.01	1766.60
609.36	1766.12
609.70	1764.43
610.05	1761.26
610.40	1760.64
610.75	1758.69
611.10	1756.93
611.44	1754.19
611.79	1752.43
612.14	1750.00
612.49	1745.55
612.83	1743.29
613.18	1741.55
613.53	1739.98
613.88	1736.14
614.22	1732.31
614.57	1727.81
614.92	1724.07
615.27	1720.26
615.61	1715.95
615.96	1711.50
616.31	1708.02
616.65	1705.36
617.00	1702.29
617.35	1700.07
617.70	1696.50
618.04	1693.02
618.39	1688.76
618.74	1685.55
619.08	1681.38
619.43	1677.26
619.78	1674.00
620.12	1669.67
620.47	1665.14
620.82	1661.10
621.16	1657.21
621.51	1655.62
621.85	1652.19
622.20	1648.60
622.55	1644.36
622.89	1641.64
623.24	1639.21
623.59	1635.55
623.93	1630.48
624.28	1626.95
624.62	1624.12
624.97	1621.00
625.32	1616.83
625.66	1613.69
626.01	1610.24
626.35	1607.24
626.70	1604.93
627.04	1602.33
627.39	1598.60
627.73	1595.93
628.08	1592.69
628.43	1588.86
628.77	1583.33
629.12	1580.76
629.46	1577.17
629.81	1573.81
630.15	1568.48
630.50	1562.83
630.84	1558.21
631.19	1553.95
631.53	1548.86
631.88	1541.76
632.22	1535.69
632.57	1531.67
632.91	1527.07
633.26	1522.71
633.60	1517.45
633.95	1511.19
634.29	1505.26
634.64	1501.19
634.98	1496.50
635.32	1492.00
635.67	1488.29
636.01	1485.02
636.36	1479.48
636.70	1474.69
637.05	1470.24
637.39	1466.19
637.73	1462.64
638.08	1459.21
638.42	1454.55
638.77	1450.90
639.11	1447.55
639.45	1443.43
639.80	1437.74
640.14	1433.36
640.49	1428.26
640.83	1423.07
641.17	1419.17
641.52	1415.12
641.86	1409.98
642.20	1405.86
642.55	1400.48
642.89	1395.12
643.23	1388.52
643.58	1383.98
643.92	1377.83
644.26	1371.55
644.61	1366.57
644.95	1360.33
645.29	1353.83
645.64	1349.31
645.98	1343.24
646.32	1337.48
646.66	1331.45
647.01	1326.31
647.35	1320.62
647.69	1315.07
648.04	1309.98
648.38	1304.24
648.72	1298.57
649.06	1292.98
649.41	1285.71
649.75	1279.12
650.09	1273.02
650.43	1267.31
650.78	1261.17
651.12	1255.07
651.46	1249.10
651.80	1242.38
652.14	1236.07
652.49	1230.81
652.83	1224.05
653.17	1216.76
653.51	1210.21
653.85	1204.55
654.20	1198.12
654.54	1191.07
654.88	1184.36
655.22	1178.07
655.56	1170.90
655.90	1164.24
656.25	1157.48
656.59	1151.17
656.93	1145.93
657.27	1141.33
657.61	1134.74
657.95	1128.36
658.29	1122.60
658.64	1116.71
658.98	1110.24
659.32	1104.00
659.66	1097.69
660.00	1091.29
660.34	1086.71
660.68	1080.93
661.02	1074.26
661.36	1067.90
661.70	1062.33
662.05	1056.29
662.39	1050.62
662.73	1045.98
663.07	1040.98
663.41	1035.31
663.75	1029.33
664.09	1022.98
664.43	1015.43
664.77	1010.33
665.11	1004.40
665.45	998.50
665.79	992.76
666.13	987.36
666.47	981.21
666.81	975.24
667.15	969.79
667.49	963.74
667.83	958.40
668.17	953.19
668.51	947.57
668.85	941.95
669.19	937.69
669.53	931.81
669.87	925.17
670.21	918.81
670.55	912.50
670.89	907.60
671.23	902.12
671.57	896.69
671.91	890.67
672.25	885.36
672.58	880.98
672.92	875.02
673.26	870.14
673.60	865.48
673.94	860.55
674.28	855.57
674.62	851.31
674.96	845.98
675.30	841.48
675.64	837.10
675.97	831.95
676.31	826.14
676.65	820.88
676.99	816.74
677.33	811.90
677.67	807.50
678.01	802.05
678.34	796.67
678.68	792.69
679.02	787.98
679.36	782.71
679.70	777.19
680.04	772.26
680.37	767.00
680.71	762.12
681.05	756.86
681.39	751.57
681.73	745.57
682.06	740.45
682.40	735.33
682.74	730.81
683.08	726.83
683.42	721.71
683.75	717.60
684.09	712.14
684.43	707.55
684.77	701.88
685.10	697.24
685.44	692.64
685.78	687.57
686.12	682.98
686.45	678.29
686.79	673.19
687.13	669.24
687.46	664.86
687.80	660.74
688.14	656.14
688.48	652.50
688.81	648.88
689.15	645.29
689.49	640.57
689.82	635.52
690.16	630.19
690.50	625.83
690.83	621.02
691.17	616.40
691.51	612.21
691.84	608.86
692.18	604.50
692.52	600.50
692.85	596.31
693.19	593.33
693.52	589.48
693.86	585.17
694.20	580.83
694.53	576.95
694.87	572.50
695.21	567.95
695.54	563.12
695.88	558.48
696.21	553.81
696.55	549.81
696.88	546.07
697.22	542.07
697.56	539.12
697.89	535.50
698.23	532.67
698.56	528.86
698.90	525.55
699.23	521.95
699.57	517.88
699.90	514.43
700.24	509.90
700.58	506.62
700.91	503.57
701.25	502.02
701.58	499.38
701.92	496.93
702.25	494.19
702.59	491.07
702.92	487.93
703.26	484.76
703.59	481.52
703.93	480.24
704.26	477.50
704.60	474.17
704.93	470.57
705.26	467.24
705.60	464.76
705.93	461.07
706.27	458.62
706.60	456.88
706.94	454.48
707.27	451.62
707.61	448.83
707.94	446.21
708.27	441.64
708.61	437.74
708.94	434.98
709.28	432.17
709.61	429.36
709.94	426.79
710.28	424.12
710.61	421.95
710.95	417.36
711.28	416.45
711.61	413.90
711.95	412.21
712.28	409.76
712.61	406.88
712.95	405.69
713.28	403.93
713.61	400.86
713.95	397.98
714.28	395.79
714.61	393.38
714.95	390.98
715.28	388.90
715.61	387.12
715.95	384.57
716.28	382.14
716.61	380.60
716.95	378.26
717.28	376.26
717.61	374.21
717.94	372.64
718.28	369.17
718.61	366.98
718.94	364.79
719.27	362.69
719.61	360.90
719.94	358.69
720.27	355.76
720.60	353.81
720.94	352.10
721.27	350.69
721.60	349.33
721.93	347.69
722.27	346.45
722.60	344.90
722.93	343.36
723.26	342.02
723.59	339.67
723.93	338.62
724.26	337.55
724.59	336.10
724.92	334.69
725.25	333.93
725.59	332.74
725.92	331.62
726.25	330.40
726.58	329.00
726.91	327.40
727.24	326.52
727.57	325.24
727.91	323.71
728.24	322.26
728.57	320.64
728.90	319.64
729.23	318.07
729.56	317.79
729.89	316.62
730.22	315.50
730.55	314.74
730.89	313.43
731.22	311.86
731.55	310.19
731.88	309.05
732.21	307.76
732.54	306.52
732.87	305.29
733.20	304.24
733.53	303.33
733.86	302.50
734.19	301.40
734.52	301.00
734.85	301.45
735.18	300.48
735.51	300.57
735.84	299.86
736.17	299.33
736.50	297.19
736.83	298.40
737.16	297.43
737.49	296.71
737.82	295.57
738.15	294.69
738.48	293.90
738.81	292.95
739.14	291.40
739.47	290.33
739.80	289.33
740.13	288.50
740.46	287.31
740.79	286.07
741.12	284.79
741.45	283.29
741.78	281.43
742.11	281.24
742.44	279.69
742.77	278.64
743.10	277.31
743.43	276.40
743.75	273.57
744.08	275.55
744.41	274.45
744.74	273.81
745.07	272.88
745.40	272.79
745.73	272.93
746.06	272.40
746.39	271.86
746.71	271.07
747.04	270.21
747.37	269.55
747.70	269.24
748.03	268.83
748.36	268.90
748.68	267.95
749.01	266.40
749.34	265.93
749.67	265.52
750.00	265.45
750.33	266.57
750.65	266.21
750.98	262.67
751.31	262.10
751.64	261.69
751.97	262.48
752.29	261.50
752.62	260.10
752.95	259.50
753.28	258.90
753.60	258.52
753.93	258.43
754.26	257.93
754.59	256.71
754.91	256.14
755.24	254.95
755.57	254.52
755.90	253.74
756.22	252.74
756.55	251.83
756.88	250.90
757.20	248.93
757.53	247.71
757.86	247.55
758.19	247.55
758.51	246.93
758.84	245.36
759.17	244.88
759.49	244.79
759.82	245.26
760.15	245.29
760.47	244.64
760.80	243.88
761.13	243.90
761.45	243.40
761.78	243.14
762.11	243.05
762.43	242.71
762.76	242.52
763.08	242.52
763.41	242.21
763.74	241.79
764.06	241.52
764.39	241.40
764.71	240.95
765.04	239.98
765.37	239.45
765.69	238.90
766.02	238.48
766.34	237.64
766.67	236.45
767.00	236.31
767.32	237.14
767.65	237.98
767.97	237.33
768.30	237.50
768.62	237.19
768.95	237.00
769.27	236.71
769.60	237.07
769.92	236.52
770.25	236.05
770.57	235.71
770.90	235.48
771.22	234.98
771.55	234.74
771.87	234.81
772.20	234.64
772.52	236.10
772.85	238.26
773.17	238.14
773.50	238.17
773.82	237.64
774.15	236.64
774.47	235.17
774.80	235.00
775.12	235.02
775.45	234.71
775.77	234.40
776.09	234.26
776.42	233.83
776.74	234.33
777.07	234.07
777.39	234.10
777.72	233.76
778.04	233.86
778.36	233.64
778.69	233.60
779.01	233.40
779.33	231.62
779.66	229.26
779.98	228.95
780.31	228.57
780.63	228.93
780.95	228.69
781.28	228.62
781.60	228.17
781.92	227.48
782.25	227.19
782.57	226.95
782.89	226.64
783.22	226.45
783.54	225.86
783.86	225.81
784.19	225.45
784.51	225.86
784.83	225.31
785.16	224.98
785.48	225.02
785.80	224.98
786.12	225.26
786.45	225.02
786.77	224.98
787.09	224.74
787.42	223.93
787.74	223.95
788.06	223.69
788.38	223.40
788.71	223.38
789.03	223.45
789.35	223.69
789.67	223.38
789.99	223.19
790.32	223.10
790.64	223.31
790.96	224.88
791.28	223.90
791.61	224.02
791.93	223.90
792.25	223.40
792.57	224.86
792.89	224.19
793.21	224.24
793.54	224.19
793.86	224.07
794.18	224.26
794.50	223.74
794.82	223.81
795.14	224.24
795.47	224.55
795.79	224.36
796.11	223.88
796.43	223.43
796.75	223.33
797.07	223.12
797.39	222.76
797.71	220.98
798.04	221.14
798.36	221.07
798.68	221.05
799.00	221.12
799.32	219.62
799.64	219.95
799.96	219.83
800.28	220.07
800.60	219.98
800.92	220.14
801.24	220.19
801.56	220.14
801.89	219.86
802.21	220.00
802.53	219.71
802.85	219.74
803.17	221.02
803.49	220.55
803.81	220.38
804.13	220.29
804.45	220.14
804.77	220.33
805.09	220.29
805.41	220.07
805.73	219.71
806.05	219.21
806.37	219.02
806.69	218.81
807.01	218.52
807.33	218.71
807.65	217.86
807.97	218.76
808.28	218.67
808.60	218.62
808.92	218.14
809.24	219.29
809.56	219.19
809.88	218.62
810.20	218.95
810.52	219.31
810.84	219.12
811.16	219.10
811.48	218.93
811.80	219.67
812.12	219.88
812.43	220.21
812.75	220.31
813.07	219.95
813.39	220.00
813.71	219.69
814.03	219.29
814.35	219.38
814.67	218.40
814.98	218.10
815.30	217.93
815.62	217.38
815.94	216.19
816.26	216.12
816.58	215.57
816.89	215.55
817.21	214.95
817.53	215.14
817.85	215.00
818.17	214.67
818.48	213.90
818.80	214.24
819.12	214.02
819.44	214.02
819.76	213.79
820.07	213.74
820.39	213.79
820.71	213.81
821.03	213.79
821.34	213.76
821.66	214.21
821.98	214.62
822.30	214.69
822.61	215.81
822.93	215.57
823.25	215.36
823.57	215.36
823.88	215.74
824.20	215.62
824.52	216.00
824.83	216.14
825.15	215.69
825.47	215.45
825.79	215.50
826.10	215.12
826.42	215.14
826.74	215.62
827.05	215.43
827.37	215.55
827.69	215.40
828.00	215.50
828.32	215.48
828.64	214.98
828.95	216.07
829.27	215.38
829.58	215.57
829.90	215.95
830.22	215.90
830.53	215.40
830.85	215.31
831.17	215.12
831.48	214.93
831.80	215.19
832.11	215.02
832.43	214.81
832.75	215.19
833.06	216.50
833.38	215.60
833.69	215.64
834.01	215.76
834.32	215.67
834.64	215.52
834.96	215.36
835.27	215.31
835.59	214.86
835.90	214.55
836.22	214.43
836.53	214.12
836.85	213.83
837.16	215.71
837.48	215.67
837.79	216.07
838.11	216.31
838.42	216.12
838.74	216.31
839.05	216.43
839.37	216.07
839.68	214.74
840.00	214.79
840.31	214.93
840.63	214.45
840.94	214.38
841.26	214.17
841.57	214.10
841.88	214.50
842.20	214.07
842.51	213.95
842.83	213.67
843.14	215.45
843.46	215.45
843.77	214.76
844.08	214.76
844.40	214.10
844.71	214.00
845.03	213.81
845.34	213.45
845.65	213.10
845.97	213.36
846.28	213.52
846.60	213.64
846.91	213.40
847.22	213.79
847.54	214.14
847.85	213.98
848.16	213.98
848.48	213.40
848.79	214.21
849.10	214.31
849.42	214.52
849.73	212.69
850.04	212.88
850.36	212.14
850.67	212.55
850.98	212.64
851.30	212.76
851.61	212.86
851.92	213.02
852.23	213.71
852.55	213.60
852.86	213.57
853.17	213.67
853.49	214.12
853.80	214.40
854.11	214.62
854.42	215.05
854.74	214.67
855.05	214.83
855.36	213.76
855.67	213.86
855.99	214.00
856.30	216.29
856.61	216.02
856.92	216.07
857.23	215.90
857.55	215.86
857.86	215.69
858.17	215.93
858.48	215.69
858.79	215.24
859.11	215.38
859.42	215.40
859.73	215.14
860.04	215.14
860.35	214.40
860.66	213.90
860.98	213.79
861.29	213.95
861.60	213.79
861.91	214.43
862.22	214.05
862.53	213.60
862.84	211.21
863.16	211.83
863.47	211.40
863.78	211.17
864.09	211.17
864.40	211.38
864.71	211.36
865.02	211.69
865.33	211.50
865.64	211.31
865.95	211.29
866.27	212.95
866.58	212.64
866.89	212.90
867.20	213.02
867.51	212.79
867.82	212.79
868.13	213.67
868.44	213.00
868.75	213.40
869.06	213.60
869.37	213.86
869.68	213.29
869.99	213.64
870.30	213.88
870.61	214.02
870.92	213.50
871.23	213.43
871.54	213.79
871.85	214.38
872.16	214.62
872.47	214.45
872.78	212.98
873.09	213.29
873.40	213.21
873.71	213.26
874.02	213.40
874.33	213.36
874.64	212.60
874.95	213.14
875.26	212.79
875.56	212.88
875.87	212.69
876.18	212.62
876.49	214.50
876.80	214.38
877.11	214.05
877.42	214.07
877.73	214.24
878.04	213.74
878.35	213.60
878.66	213.76
878.96	213.62
879.27	213.55
879.58	213.31
879.89	213.26
880.20	213.76
880.51	213.90
880.82	214.02
881.12	214.36
881.43	213.90
881.74	213.83
882.05	213.76
882.36	214.12
882.67	214.29
882.97	212.21
883.28	212.05
883.59	212.10
883.90	212.64
884.21	213.00
884.51	212.98
884.82	212.60
885.13	212.40
885.44	212.48
885.74	212.55
886.05	212.62
886.36	212.57
886.67	211.71
886.98	212.50
887.28	212.60
887.59	212.40
887.90	212.40
888.20	212.29
888.51	212.57
888.82	212.31
889.13	212.50
889.43	214.00
889.74	214.00
890.05	213.88
890.35	213.55
890.66	213.12
890.97	212.98
891.28	213.02
891.58	213.19
891.89	213.05
892.20	212.83
892.50	212.43
892.81	212.43
893.12	212.40
893.42	211.45
893.73	211.38
894.04	211.50
894.34	211.86
894.65	211.90
894.95	211.79
895.26	211.62
895.57	212.33
895.87	210.55
896.18	210.81
896.48	210.86
896.79	210.86
897.10	211.21
897.40	211.17
897.71	211.40
898.01	211.17
898.32	211.64
898.63	211.55
898.93	211.95
899.24	212.00
899.54	211.93
899.85	211.79
900.15	211.86
900.46	211.86
900.76	211.79
901.07	211.81
901.38	211.74
901.68	212.14
901.99	211.07
902.29	211.17
902.60	211.00
902.90	210.86
903.21	210.98
903.51	210.74
903.82	211.29
904.12	211.00
904.43	211.14
904.73	211.10
905.03	211.24
905.34	212.98
905.64	212.81
905.95	212.95
906.25	213.00
906.56	212.93
906.86	212.90
907.17	212.62
907.47	212.69
907.77	212.64
908.08	212.26
908.38	212.33
908.69	212.64
908.99	212.86
909.30	213.19
909.60	213.10
909.90	213.31
910.21	212.50
910.51	212.33
910.81	212.31
911.12	212.38
911.42	212.31
911.73	210.36
912.03	210.76
912.33	211.33
912.64	211.43
912.94	211.10
913.24	210.86
913.55	210.98
913.85	210.93
914.15	211.24
914.46	211.57
914.76	211.64
915.06	211.48
915.37	211.17
915.67	211.12
915.97	211.19
916.27	210.64
916.58	211.02
916.88	211.12
917.18	210.71
917.49	211.90
917.79	211.95
918.09	212.05
918.39	212.29
918.70	212.00
919.00	211.90
919.30	213.26
919.60	213.00
919.91	212.76
920.21	212.88
920.51	212.38
920.81	212.21
921.12	212.38
921.42	212.45
921.72	212.57
922.02	212.50
922.32	212.50
922.63	212.50
922.93	213.48
923.23	213.45
923.53	213.43
923.83	212.02
924.13	212.26
924.44	212.33
924.74	212.60
925.04	213.07
925.34	213.14
925.64	211.95
925.94	212.19
926.24	213.24
926.55	212.90
926.85	213.10
927.15	213.07
927.45	213.12
927.75	213.00
928.05	213.12
928.35	213.10
928.65	213.67
928.95	214.02
929.26	213.12
929.56	213.81
929.86	214.17
930.16	214.10
930.46	213.98
930.76	214.05
931.06	213.29
931.36	212.74
931.66	213.02
931.96	213.31
932.26	213.38
932.56	212.62
932.86	212.74
933.16	212.86
933.46	212.67
933.76	212.29
934.06	212.64
934.36	213.26
934.66	213.24
934.96	212.79
935.26	212.67
935.56	213.02
935.86	212.19
936.16	211.93
936.46	211.95
936.76	211.76
937.06	211.55
937.36	211.62
937.66	211.79
937.96	211.74
938.26	211.12
938.56	211.05
938.86	211.19
939.16	211.83
939.46	211.98
939.76	211.93
940.06	212.12
940.35	211.57
940.65	210.55
940.95	210.48
941.25	210.19
941.55	210.12
941.85	209.93
942.15	210.38
942.45	210.79
942.75	210.69
943.04	210.67
943.34	211.12
943.64	210.86
943.94	210.86
944.24	210.69
944.54	211.10
944.84	210.88
945.13	210.50
945.43	210.02
945.73	209.93
946.03	210.10
946.33	209.76
946.62	209.95
946.92	210.00
947.22	210.33
947.52	210.19
947.82	210.38
948.11	210.17
948.41	209.86
948.71	209.50
949.01	209.64
949.31	209.50
949.60	209.24
949.90	209.74
950.20	209.10
950.50	208.98
950.79	208.93
951.09	209.38
951.39	209.48
951.69	209.40
951.98	209.95
952.28	210.05
952.58	210.31
952.87	210.10
953.17	210.29
953.47	209.90
953.76	210.17
954.06	209.74
954.36	209.50
954.66	209.50
954.95	210.05
955.25	210.10
955.55	210.60
955.84	210.14
956.14	210.05
956.44	210.14
956.73	209.93
957.03	209.90
957.32	209.57
957.62	209.52
957.92	209.83
958.21	209.43
958.51	211.57
958.81	211.71
959.10	212.19
959.40	212.81
959.69	212.98
959.99	213.31
960.29	213.71
960.58	213.81
960.88	214.67
961.17	214.57
961.47	214.76
961.76	214.45
962.06	214.83
962.36	214.69
962.65	214.90
962.95	215.07
963.24	215.12
963.54	215.55
963.83	215.52
964.13	215.19
964.42	214.71
964.72	213.21
965.01	213.26
965.31	212.88
965.60	212.10
965.90	213.31
966.19	212.74
966.49	212.48
966.78	212.40
967.08	212.17
967.37	212.07
967.67	211.64
967.96	212.10
968.26	212.21
968.55	212.64
968.85	212.69
969.14	212.64
969.43	212.69
969.73	212.38
970.02	212.50
970.32	212.55
970.61	212.60
970.91	211.83
971.20	211.33
971.49	211.17
971.79	211.60
972.08	210.05
972.38	210.12
972.67	210.21
972.96	210.62
973.26	209.98
973.55	210.45
973.85	210.33
974.14	210.26
974.43	210.50
974.73	209.86
975.02	209.67
975.31	209.69
975.61	209.52
975.90	209.48
976.19	209.19
976.49	209.40
976.78	209.62
977.07	209.71
977.37	210.17
977.66	210.57
977.95	210.29
978.24	210.76
978.54	211.36
978.83	211.02
979.12	210.52
979.42	210.60
979.71	210.12
980.00	210.19
980.29	210.12
980.59	209.57
980.88	210.33
981.17	210.43
981.46	210.38
981.76	210.14
982.05	210.76
982.34	211.14
982.63	211.38
982.93	211.24
983.22	211.64
983.51	211.88
983.80	211.95
984.09	212.26
984.39	212.10
984.68	211.81
984.97	212.00
985.26	212.10
985.55	212.50
985.85	212.17
986.14	212.67
986.43	212.76
986.72	212.67
987.01	211.93
987.30	211.69
987.59	211.69
987.89	211.88
988.18	211.14
988.47	210.88
988.76	210.50
989.05	210.45
989.34	210.12
989.63	210.43
989.92	210.19
990.22	209.95
990.51	209.83
990.80	209.79
991.09	209.93
991.38	210.21
991.67	209.81
991.96	209.62
992.25	209.50
992.54	209.17
992.83	209.40
993.12	209.55
993.41	210.10
993.70	210.95
993.99	211.24
994.28	211.57
994.58	211.79
994.87	211.55
995.16	211.40
995.45	211.19
995.74	210.33
996.03	210.55
996.32	210.81
996.61	211.50
996.90	211.36
997.19	211.50
997.48	211.55
997.77	211.45
998.06	211.71
998.34	211.64
998.63	211.69
998.92	211.60
999.21	211.88
999.50	212.07
999.79	211.29
1000.08	211.29
1000.37	211.14
1000.66	211.05
1000.95	211.69
1001.24	211.93
1001.53	212.38
1001.82	212.29
1002.11	211.93
1002.40	212.10
1002.68	212.26
1002.97	213.74
1003.26	213.45
1003.55	213.19
1003.84	213.26
1004.13	214.02
1004.42	213.81
1004.71	213.76
1004.99	213.64
1005.28	214.17
1005.57	213.79
1005.86	213.62
1006.15	213.74
1006.44	213.40
1006.72	213.62
1007.01	213.24
1007.30	213.38
1007.59	213.21
1007.88	213.36
1008.17	213.69
1008.45	213.12
1008.74	212.48
1009.03	211.43
1009.32	211.38
1009.60	211.29
1009.89	211.10
1010.18	209.95
1010.47	209.83
1010.76	209.93
1011.04	209.86
1011.33	209.71
1011.62	209.93
1011.91	210.12
1012.19	209.88
1012.48	210.12
1012.77	210.07
1013.05	210.76
1013.34	210.64
1013.63	210.62
1013.92	210.69
1014.20	210.45
1014.49	210.55
1014.78	210.62
1015.06	210.00
1015.35	209.95
1015.64	210.19
1015.92	210.62
1016.21	211.19
1016.50	211.33
1016.78	211.45
1017.07	211.55
1017.36	211.14
1017.64	210.60
1017.93	210.86
1018.22	210.79
1018.50	210.79
1018.79	210.60
1019.08	209.83
1019.36	209.86
1019.65	209.60
1019.93	210.10
1020.22	210.31
1020.51	211.33
1020.79	211.10
1021.08	207.50
1021.36	207.50
1021.65	209.50
1021.94	209.50
1022.22	211.50
1022.51	207.50
1022.79	219.50
1023.08	213.00
1023.36	232.00
1023.65	206.00
>>>>>End Processed Spectral Data<<<<<
