SpectraSuite Data File
++++++++++++++++++++++++++++++++++++
Date: Tue Apr 02 18:44:18 EDT 2013
User: group
Dark Spectrum Present: No
Reference Spectrum Present: No
Number of Sampled Component Spectra: 1
Spectrometers: USB2E7196
Integration Time (usec): 580000 (USB2E7196)
Spectra Averaged: 2 (USB2E7196)
Boxcar Smoothing: 10 (USB2E7196)
Correct for Electrical Dark: No (USB2E7196)
Strobe/Lamp Enabled: No (USB2E7196)
Correct for Detector Non-linearity: No (USB2E7196)
Correct for Stray Light: No (USB2E7196)
Number of Pixels in Processed Spectrum: 2048
>>>>>Begin Processed Spectral Data<<<<<
339.09	0.00
339.48	194.50
339.86	193.00
340.24	193.50
340.63	200.50
341.01	235.50
341.39	202.50
341.78	203.50
342.16	210.00
342.54	208.00
342.93	197.83
343.31	207.57
343.69	208.19
344.07	208.86
344.46	209.74
344.84	210.17
345.22	208.74
345.60	209.24
345.99	209.57
346.37	209.74
346.75	209.79
347.13	209.60
347.52	209.74
347.90	210.31
348.28	210.50
348.66	211.17
349.05	210.60
349.43	210.90
349.81	211.14
350.19	211.26
350.57	211.26
350.96	211.43
351.34	211.90
351.72	211.95
352.10	211.86
352.48	211.69
352.87	211.40
353.25	211.60
353.63	211.40
354.01	211.24
354.39	211.21
354.77	211.17
355.15	211.86
355.54	211.45
355.92	210.88
356.30	210.88
356.68	211.90
357.06	212.10
357.44	211.83
357.82	211.64
358.20	212.62
358.58	212.43
358.97	212.12
359.35	212.26
359.73	212.57
360.11	212.71
360.49	212.67
360.87	213.14
361.25	213.43
361.63	214.02
362.01	214.26
362.39	214.05
362.77	214.17
363.15	214.10
363.53	214.10
363.91	214.38
364.29	214.26
364.67	212.19
365.05	212.19
365.43	212.57
365.81	212.88
366.19	213.12
366.57	213.98
366.95	214.02
367.33	213.57
367.71	213.52
368.09	213.90
368.47	214.12
368.85	213.88
369.23	214.40
369.61	213.98
369.99	214.81
370.37	215.29
370.75	216.45
371.13	216.10
371.51	215.90
371.89	216.07
372.27	216.12
372.65	216.67
373.03	216.83
373.41	216.52
373.78	216.50
374.16	215.40
374.54	214.76
374.92	214.81
375.30	215.02
375.68	214.67
376.06	214.83
376.44	214.57
376.82	214.67
377.19	214.36
377.57	214.17
377.95	213.38
378.33	213.14
378.71	211.62
379.09	211.79
379.47	212.26
379.84	212.26
380.22	212.40
380.60	211.98
380.98	211.90
381.36	211.93
381.73	211.64
382.11	212.05
382.49	212.33
382.87	211.90
383.25	212.00
383.62	214.45
384.00	213.95
384.38	214.24
384.76	214.71
385.13	215.55
385.51	215.52
385.89	215.26
386.27	215.31
386.64	216.07
387.02	215.83
387.40	215.57
387.78	215.45
388.15	215.69
388.53	215.69
388.91	215.67
389.29	215.62
389.66	215.98
390.04	215.79
390.42	216.02
390.79	216.36
391.17	216.31
391.55	214.17
391.92	214.19
392.30	214.26
392.68	213.86
393.05	213.40
393.43	213.62
393.81	213.71
394.18	213.45
394.56	213.55
394.94	214.10
395.31	213.95
395.69	214.60
396.06	214.60
396.44	214.76
396.82	214.45
397.19	215.67
397.57	215.33
397.95	215.60
398.32	214.95
398.70	215.14
399.07	215.33
399.45	215.14
399.82	215.21
400.20	215.00
400.58	214.98
400.95	214.50
401.33	214.81
401.70	216.45
402.08	216.52
402.45	216.19
402.83	216.71
403.20	217.14
403.58	216.86
403.95	217.55
404.33	218.17
404.71	218.64
405.08	219.74
405.46	220.07
405.83	220.50
406.21	220.88
406.58	221.45
406.96	221.83
407.33	222.71
407.70	223.31
408.08	225.50
408.45	226.45
408.83	227.31
409.20	227.88
409.58	227.17
409.95	228.29
410.33	229.31
410.70	229.45
411.08	230.69
411.45	231.83
411.82	232.33
412.20	233.90
412.57	236.43
412.95	236.00
413.32	237.83
413.69	238.95
414.07	240.69
414.44	242.38
414.82	244.69
415.19	247.00
415.56	249.50
415.94	250.88
416.31	253.95
416.68	256.71
417.06	259.83
417.43	263.81
417.81	267.38
418.18	270.98
418.55	274.83
418.93	278.79
419.30	283.19
419.67	287.81
420.04	291.88
420.42	295.86
420.79	302.79
421.16	308.43
421.54	315.36
421.91	321.43
422.28	327.71
422.66	334.21
423.03	341.79
423.40	348.60
423.77	355.48
424.15	362.26
424.52	369.83
424.89	378.50
425.26	385.88
425.64	393.55
426.01	401.76
426.38	410.64
426.75	420.10
427.13	428.76
427.50	438.38
427.87	448.31
428.24	458.33
428.61	466.98
428.99	478.17
429.36	488.67
429.73	499.81
430.10	511.19
430.47	522.86
430.85	533.48
431.22	545.83
431.59	561.12
431.96	574.00
432.33	588.62
432.70	602.17
433.08	617.79
433.45	633.07
433.82	648.29
434.19	665.02
434.56	681.31
434.93	697.38
435.30	713.93
435.68	731.67
436.05	749.76
436.42	766.19
436.79	781.83
437.16	799.00
437.53	816.74
437.90	834.52
438.27	852.67
438.64	870.98
439.01	888.12
439.38	901.71
439.75	916.79
440.13	932.86
440.50	947.67
440.87	961.10
441.24	974.14
441.61	989.07
441.98	1000.17
442.35	1012.62
442.72	1025.90
443.09	1038.71
443.46	1046.33
443.83	1050.55
444.20	1056.33
444.57	1061.69
444.94	1064.55
445.31	1068.57
445.68	1074.29
446.05	1075.55
446.42	1074.02
446.79	1072.52
447.16	1070.74
447.53	1069.64
447.90	1063.26
448.27	1057.36
448.64	1048.38
449.01	1042.40
449.37	1030.98
449.74	1020.14
450.11	1008.43
450.48	992.88
450.85	977.05
451.22	964.00
451.59	952.33
451.96	939.83
452.33	924.81
452.70	911.07
453.07	893.81
453.43	874.14
453.80	857.36
454.17	841.74
454.54	826.62
454.91	810.33
455.28	793.98
455.65	779.26
456.02	768.29
456.38	755.93
456.75	740.17
457.12	727.05
457.49	713.90
457.86	700.00
458.23	690.43
458.59	678.24
458.96	666.79
459.33	656.24
459.70	645.98
460.07	637.83
460.43	627.83
460.80	619.45
461.17	612.02
461.54	603.60
461.91	595.64
462.27	587.10
462.64	579.83
463.01	572.62
463.38	565.95
463.74	555.29
464.11	548.26
464.48	542.79
464.85	536.57
465.21	532.29
465.58	527.31
465.95	520.71
466.32	516.12
466.68	510.64
467.05	506.02
467.42	501.00
467.78	495.71
468.15	491.29
468.52	487.36
468.88	482.07
469.25	477.69
469.62	474.19
469.98	470.55
470.35	467.07
470.72	463.38
471.08	458.98
471.45	456.14
471.82	453.81
472.18	449.95
472.55	447.60
472.92	444.24
473.28	441.12
473.65	438.48
474.02	435.95
474.38	434.31
474.75	432.02
475.11	429.71
475.48	427.98
475.85	426.12
476.21	424.00
476.58	422.45
476.94	421.10
477.31	419.55
477.67	418.55
478.04	417.50
478.41	416.86
478.77	418.12
479.14	416.83
479.50	415.98
479.87	416.24
480.23	415.57
480.60	414.86
480.96	414.81
481.33	415.43
481.69	415.57
482.06	415.62
482.42	415.93
482.79	416.50
483.15	417.05
483.52	417.95
483.88	418.64
484.25	419.71
484.61	420.38
484.98	421.17
485.34	422.64
485.71	424.10
486.07	424.98
486.44	424.86
486.80	426.45
487.17	427.74
487.53	430.00
487.90	432.71
488.26	436.00
488.62	438.71
488.99	440.95
489.35	443.45
489.72	446.05
490.08	448.55
490.44	451.21
490.81	454.26
491.17	457.14
491.54	460.67
491.90	464.31
492.26	467.90
492.63	472.05
492.99	475.74
493.36	479.86
493.72	484.48
494.08	488.69
494.45	493.76
494.81	498.71
495.17	502.98
495.54	507.81
495.90	512.10
496.26	517.52
496.63	522.43
496.99	527.98
497.35	533.88
497.72	539.88
498.08	545.95
498.44	551.95
498.80	558.79
499.17	565.10
499.53	571.05
499.89	578.21
500.26	584.83
500.62	591.62
500.98	598.67
501.34	605.21
501.71	612.81
502.07	619.55
502.43	626.60
502.79	633.55
503.16	640.40
503.52	647.83
503.88	654.38
504.24	662.12
504.60	669.62
504.97	677.38
505.33	684.60
505.69	693.29
506.05	700.69
506.41	707.95
506.78	715.50
507.14	723.29
507.50	730.60
507.86	738.12
508.22	745.81
508.59	752.83
508.95	761.07
509.31	769.21
509.67	777.02
510.03	784.81
510.39	792.43
510.75	800.10
511.12	807.40
511.48	815.29
511.84	822.55
512.20	830.40
512.56	837.45
512.92	845.21
513.28	852.02
513.64	859.95
514.00	867.21
514.37	874.52
514.73	882.07
515.09	890.02
515.45	896.98
515.81	903.88
516.17	911.36
516.53	917.90
516.89	923.76
517.25	930.45
517.61	937.67
517.97	944.50
518.33	950.50
518.69	957.64
519.05	964.45
519.41	970.86
519.77	977.29
520.13	983.57
520.49	989.40
520.85	995.14
521.21	1001.62
521.57	1007.50
521.93	1013.02
522.29	1018.17
522.65	1022.26
523.01	1028.19
523.37	1033.33
523.73	1038.24
524.09	1043.17
524.45	1047.83
524.81	1052.14
525.17	1056.67
525.53	1061.19
525.89	1066.60
526.25	1070.55
526.61	1073.43
526.97	1077.48
527.33	1081.55
527.68	1087.24
528.04	1091.81
528.40	1095.71
528.76	1099.71
529.12	1103.98
529.48	1108.95
529.84	1113.21
530.20	1118.29
530.56	1122.88
530.91	1126.83
531.27	1131.81
531.63	1136.26
531.99	1140.52
532.35	1144.43
532.71	1147.67
533.07	1151.64
533.42	1157.93
533.78	1162.00
534.14	1167.31
534.50	1171.26
534.86	1176.07
535.21	1178.02
535.57	1182.76
535.93	1186.31
536.29	1190.33
536.65	1194.36
537.00	1197.26
537.36	1200.38
537.72	1202.93
538.08	1206.43
538.44	1209.69
538.79	1212.17
539.15	1215.52
539.51	1219.33
539.87	1223.71
540.22	1227.55
540.58	1231.55
540.94	1231.50
541.29	1234.81
541.65	1237.02
542.01	1240.12
542.37	1242.02
542.72	1245.12
543.08	1246.38
543.44	1249.67
543.79	1251.93
544.15	1254.69
544.51	1257.95
544.87	1261.55
545.22	1265.00
545.58	1266.81
545.94	1268.93
546.29	1271.86
546.65	1274.05
547.01	1275.69
547.36	1277.67
547.72	1280.55
548.07	1282.83
548.43	1285.64
548.79	1287.36
549.14	1290.40
549.50	1293.69
549.86	1295.55
550.21	1299.00
550.57	1302.81
550.92	1304.69
551.28	1307.48
551.64	1309.98
551.99	1312.67
552.35	1315.02
552.70	1317.81
553.06	1320.74
553.41	1324.67
553.77	1329.26
554.13	1332.69
554.48	1337.79
554.84	1342.29
555.19	1345.79
555.55	1350.31
555.90	1354.86
556.26	1359.79
556.61	1363.43
556.97	1366.40
557.32	1370.26
557.68	1372.90
558.03	1375.90
558.39	1380.50
558.74	1383.88
559.10	1387.98
559.45	1391.45
559.81	1395.57
560.16	1399.21
560.52	1403.88
560.87	1408.19
561.23	1410.98
561.58	1416.71
561.94	1420.21
562.29	1424.48
562.64	1428.60
563.00	1431.69
563.35	1436.19
563.71	1440.43
564.06	1445.57
564.42	1450.76
564.77	1457.14
565.12	1464.67
565.48	1472.21
565.83	1478.12
566.19	1483.93
566.54	1488.83
566.89	1494.38
567.25	1501.10
567.60	1508.55
567.96	1516.88
568.31	1523.60
568.66	1530.79
569.02	1535.12
569.37	1540.31
569.72	1544.88
570.08	1551.02
570.43	1557.40
570.78	1563.36
571.14	1569.29
571.49	1574.36
571.84	1580.74
572.20	1585.79
572.55	1589.93
572.90	1593.07
573.26	1598.48
573.61	1601.90
573.96	1607.67
574.31	1613.14
574.67	1617.02
575.02	1619.93
575.37	1621.95
575.72	1625.19
576.08	1628.79
576.43	1633.07
576.78	1637.74
577.13	1642.36
577.49	1645.69
577.84	1649.19
578.19	1652.05
578.54	1655.95
578.90	1660.88
579.25	1663.79
579.60	1666.86
579.95	1669.79
580.30	1673.88
580.66	1676.93
581.01	1681.93
581.36	1683.98
581.71	1686.60
582.06	1690.83
582.42	1694.93
582.77	1697.62
583.12	1700.52
583.47	1703.10
583.82	1706.24
584.17	1709.05
584.53	1712.69
584.88	1715.81
585.23	1719.81
585.58	1723.00
585.93	1724.88
586.28	1727.14
586.63	1730.00
586.98	1732.71
587.34	1736.12
587.69	1737.76
588.04	1740.12
588.39	1741.95
588.74	1743.95
589.09	1747.00
589.44	1748.29
589.79	1750.02
590.14	1752.12
590.49	1753.50
590.84	1753.95
591.19	1755.60
591.54	1756.95
591.89	1757.31
592.25	1761.00
592.60	1761.95
592.95	1763.74
593.30	1765.95
593.65	1765.90
594.00	1766.10
594.35	1772.83
594.70	1772.10
595.05	1772.69
595.40	1773.57
595.75	1773.64
596.10	1774.95
596.45	1775.36
596.80	1775.62
597.15	1776.95
597.50	1777.43
597.85	1779.71
598.19	1781.60
598.54	1781.79
598.89	1782.07
599.24	1783.07
599.59	1781.55
599.94	1781.43
600.29	1780.81
600.64	1779.83
600.99	1781.29
601.34	1782.48
601.69	1776.93
602.04	1776.62
602.39	1776.40
602.74	1775.81
603.08	1776.17
603.43	1776.40
603.78	1775.36
604.13	1775.12
604.48	1773.76
604.83	1774.17
605.18	1773.52
605.53	1772.50
605.87	1772.40
606.22	1771.17
606.57	1769.33
606.92	1768.19
607.27	1766.69
607.62	1766.52
607.96	1766.33
608.31	1765.07
608.66	1763.00
609.01	1761.38
609.36	1761.21
609.70	1759.86
610.05	1757.55
610.40	1755.90
610.75	1754.36
611.10	1752.48
611.44	1749.88
611.79	1748.12
612.14	1744.86
612.49	1740.36
612.83	1737.48
613.18	1733.79
613.53	1731.38
613.88	1728.52
614.22	1724.52
614.57	1720.10
614.92	1715.86
615.27	1712.19
615.61	1707.10
615.96	1704.21
616.31	1700.86
616.65	1698.62
617.00	1695.93
617.35	1693.71
617.70	1691.60
618.04	1687.24
618.39	1683.79
618.74	1680.90
619.08	1676.57
619.43	1673.50
619.78	1670.67
620.12	1667.88
620.47	1664.83
620.82	1660.55
621.16	1656.76
621.51	1654.62
621.85	1651.62
622.20	1648.00
622.55	1643.76
622.89	1641.19
623.24	1637.93
623.59	1634.12
623.93	1628.57
624.28	1625.57
624.62	1622.64
624.97	1618.52
625.32	1615.29
625.66	1611.17
626.01	1606.26
626.35	1603.74
626.70	1599.90
627.04	1597.02
627.39	1591.98
627.73	1588.38
628.08	1585.43
628.43	1582.21
628.77	1577.19
629.12	1574.19
629.46	1570.71
629.81	1566.93
630.15	1562.36
630.50	1557.36
630.84	1552.95
631.19	1548.07
631.53	1542.36
631.88	1535.76
632.22	1530.43
632.57	1526.31
632.91	1522.52
633.26	1517.88
633.60	1511.71
633.95	1505.93
634.29	1500.21
634.64	1496.45
634.98	1491.57
635.32	1487.48
635.67	1482.90
636.01	1479.62
636.36	1474.38
636.70	1470.60
637.05	1466.60
637.39	1462.14
637.73	1457.52
638.08	1453.33
638.42	1450.17
638.77	1446.21
639.11	1441.76
639.45	1435.93
639.80	1430.14
640.14	1424.36
640.49	1419.67
640.83	1413.90
641.17	1409.93
641.52	1404.90
641.86	1400.52
642.20	1396.36
642.55	1390.36
642.89	1384.81
643.23	1378.36
643.58	1373.93
643.92	1367.81
644.26	1361.88
644.61	1356.71
644.95	1351.00
645.29	1344.81
645.64	1338.76
645.98	1332.57
646.32	1327.57
646.66	1321.90
647.01	1315.81
647.35	1310.88
647.69	1305.19
648.04	1300.67
648.38	1294.17
648.72	1288.88
649.06	1282.14
649.41	1275.33
649.75	1269.12
650.09	1262.52
650.43	1255.62
650.78	1248.74
651.12	1242.02
651.46	1235.55
651.80	1229.05
652.14	1223.07
652.49	1217.33
652.83	1210.81
653.17	1203.62
653.51	1196.74
653.85	1191.31
654.20	1184.93
654.54	1177.36
654.88	1170.74
655.22	1164.17
655.56	1158.00
655.90	1151.48
656.25	1145.14
656.59	1138.24
656.93	1131.74
657.27	1126.79
657.61	1120.50
657.95	1114.57
658.29	1108.45
658.64	1102.10
658.98	1095.81
659.32	1088.33
659.66	1081.45
660.00	1074.71
660.34	1069.05
660.68	1063.00
661.02	1056.48
661.36	1050.62
661.70	1045.14
662.05	1039.55
662.39	1033.67
662.73	1027.90
663.07	1022.52
663.41	1016.29
663.75	1009.71
664.09	1003.69
664.43	996.62
664.77	990.95
665.11	984.17
665.45	977.93
665.79	972.14
666.13	965.62
666.47	960.57
666.81	954.43
667.15	949.02
667.49	943.55
667.83	938.17
668.17	932.38
668.51	926.40
668.85	920.69
669.19	915.57
669.53	909.29
669.87	903.14
670.21	896.83
670.55	890.69
670.89	886.36
671.23	881.40
671.57	876.10
671.91	870.83
672.25	865.00
672.58	860.57
672.92	854.52
673.26	849.86
673.60	844.57
673.94	839.57
674.28	834.33
674.62	829.48
674.96	824.29
675.30	818.83
675.64	814.31
675.97	809.24
676.31	803.14
676.65	798.31
676.99	794.10
677.33	789.10
677.67	784.43
678.01	778.57
678.34	773.10
678.68	768.64
679.02	763.57
679.36	759.29
679.70	753.60
680.04	749.33
680.37	743.93
680.71	739.02
681.05	734.12
681.39	729.55
681.73	724.31
682.06	719.24
682.40	715.07
682.74	710.60
683.08	706.76
683.42	702.17
683.75	697.52
684.09	692.00
684.43	687.14
684.77	682.38
685.10	678.00
685.44	674.00
685.78	669.12
686.12	664.86
686.45	660.33
686.79	655.74
687.13	651.43
687.46	647.21
687.80	643.14
688.14	639.31
688.48	634.88
688.81	630.67
689.15	627.00
689.49	621.86
689.82	616.95
690.16	611.50
690.50	607.07
690.83	603.21
691.17	598.52
691.51	594.45
691.84	590.57
692.18	586.29
692.52	582.05
692.85	578.24
693.19	574.98
693.52	571.12
693.86	566.52
694.20	562.62
694.53	558.79
694.87	554.64
695.21	549.81
695.54	545.60
695.88	541.55
696.21	536.71
696.55	533.52
696.88	529.86
697.22	526.36
697.56	523.36
697.89	519.05
698.23	516.26
698.56	512.21
698.90	508.67
699.23	504.98
699.57	501.14
699.90	497.29
700.24	493.36
700.58	489.76
700.91	487.38
701.25	485.21
701.58	482.76
701.92	480.00
702.25	477.19
702.59	473.62
702.92	470.62
703.26	467.79
703.59	464.69
703.93	463.74
704.26	460.81
704.60	457.45
704.93	454.69
705.26	451.55
705.60	449.10
705.93	445.88
706.27	444.14
706.60	442.02
706.94	440.50
707.27	437.69
707.61	435.10
707.94	432.12
708.27	428.17
708.61	424.36
708.94	421.98
709.28	420.02
709.61	417.52
709.94	414.86
710.28	412.17
710.61	409.64
710.95	405.43
711.28	404.67
711.61	402.76
711.95	400.95
712.28	398.55
712.61	396.40
712.95	395.38
713.28	393.74
713.61	391.26
713.95	388.14
714.28	385.79
714.61	383.55
714.95	381.62
715.28	379.48
715.61	377.83
715.95	375.24
716.28	372.81
716.61	371.48
716.95	369.07
717.28	367.45
717.61	365.69
717.94	363.67
718.28	360.14
718.61	357.90
718.94	355.83
719.27	354.19
719.61	352.36
719.94	350.14
720.27	347.38
720.60	345.31
720.94	343.55
721.27	342.10
721.60	341.00
721.93	339.10
722.27	338.79
722.60	337.52
722.93	336.02
723.26	334.86
723.59	333.00
723.93	332.07
724.26	330.60
724.59	329.29
724.92	327.95
725.25	327.52
725.59	326.21
725.92	325.24
726.25	323.76
726.58	322.62
726.91	321.02
727.24	319.90
727.57	318.90
727.91	317.45
728.24	316.45
728.57	314.90
728.90	313.88
729.23	311.67
729.56	311.19
729.89	309.93
730.22	308.50
730.55	307.62
730.89	306.33
731.22	305.14
731.55	303.71
731.88	302.81
732.21	301.31
732.54	300.17
732.87	299.00
733.20	298.21
733.53	297.33
733.86	296.76
734.19	295.57
734.52	294.88
734.85	295.48
735.18	294.31
735.51	294.05
735.84	293.45
736.17	292.98
736.50	291.21
736.83	292.71
737.16	292.12
737.49	291.14
737.82	290.33
738.15	289.81
738.48	289.17
738.81	288.19
739.14	287.10
739.47	286.24
739.80	285.38
740.13	284.52
740.46	283.31
740.79	281.98
741.12	281.10
741.45	280.10
741.78	278.02
742.11	277.83
742.44	276.38
742.77	275.71
743.10	274.69
743.43	273.62
743.75	270.81
744.08	272.50
744.41	271.83
744.74	271.17
745.07	269.86
745.40	269.71
745.73	269.67
746.06	269.21
746.39	268.86
746.71	267.90
747.04	267.24
747.37	266.48
747.70	266.26
748.03	265.81
748.36	265.48
748.68	264.90
749.01	263.67
749.34	263.19
749.67	262.76
750.00	262.36
750.33	263.48
750.65	263.17
750.98	260.07
751.31	259.71
751.64	259.12
751.97	260.00
752.29	258.81
752.62	257.50
752.95	256.67
753.28	255.81
753.60	255.45
753.93	255.29
754.26	255.29
754.59	254.31
754.91	253.71
755.24	252.93
755.57	252.60
755.90	252.07
756.22	251.50
756.55	250.69
756.88	249.67
757.20	247.81
757.53	246.74
757.86	246.26
758.19	245.83
758.51	245.57
758.84	243.93
759.17	243.67
759.49	243.33
759.82	243.90
760.15	243.79
760.47	243.29
760.80	242.45
761.13	242.40
761.45	241.79
761.78	241.50
762.11	241.17
762.43	240.33
762.76	240.02
763.08	240.07
763.41	239.93
763.74	240.12
764.06	239.81
764.39	239.67
764.71	239.38
765.04	238.52
765.37	237.88
765.69	237.64
766.02	237.26
766.34	237.14
766.67	236.00
767.00	236.29
767.32	237.10
767.65	238.02
767.97	237.38
768.30	237.38
768.62	236.93
768.95	236.40
769.27	236.50
769.60	236.38
769.92	235.57
770.25	234.93
770.57	234.14
770.90	233.88
771.22	233.24
771.55	233.05
771.87	233.10
772.20	233.02
772.52	234.38
772.85	236.62
773.17	236.29
773.50	236.19
773.82	235.26
774.15	234.21
774.47	232.67
774.80	232.26
775.12	231.90
775.45	231.83
775.77	231.88
776.09	231.71
776.42	231.64
776.74	232.26
777.07	232.12
777.39	232.24
777.72	232.05
778.04	232.17
778.36	231.71
778.69	231.57
779.01	231.50
779.33	229.67
779.66	227.43
779.98	227.02
780.31	226.55
780.63	227.40
780.95	227.24
781.28	227.31
781.60	226.90
781.92	226.83
782.25	226.55
782.57	226.43
782.89	226.07
783.22	225.67
783.54	225.14
783.86	225.14
784.19	224.67
784.51	225.17
784.83	224.93
785.16	224.69
785.48	224.79
785.80	224.40
786.12	224.55
786.45	224.14
786.77	224.26
787.09	224.52
787.42	223.60
787.74	223.74
788.06	223.45
788.38	223.45
788.71	223.26
789.03	223.21
789.35	223.40
789.67	223.17
789.99	223.29
790.32	222.93
790.64	223.10
790.96	224.86
791.28	223.86
791.61	223.69
791.93	224.00
792.25	223.67
792.57	225.21
792.89	224.79
793.21	224.81
793.54	224.45
793.86	223.81
794.18	223.88
794.50	223.52
794.82	223.52
795.14	223.98
795.47	224.36
795.79	224.36
796.11	223.71
796.43	223.55
796.75	223.43
797.07	223.36
797.39	223.05
797.71	221.29
798.04	221.48
798.36	221.55
798.68	221.10
799.00	221.29
799.32	220.14
799.64	220.62
799.96	220.81
800.28	221.07
800.60	221.10
800.92	221.02
801.24	220.81
801.56	220.67
801.89	220.05
802.21	219.86
802.53	219.57
802.85	219.93
803.17	220.88
803.49	220.36
803.81	220.48
804.13	220.21
804.45	220.12
804.77	220.19
805.09	220.14
805.41	220.12
805.73	219.52
806.05	218.83
806.37	218.31
806.69	217.86
807.01	217.74
807.33	217.93
807.65	217.21
807.97	218.05
808.28	218.02
808.60	218.17
808.92	217.95
809.24	219.26
809.56	219.02
809.88	218.24
810.20	218.40
810.52	218.33
810.84	218.10
811.16	218.00
811.48	217.93
811.80	218.64
812.12	218.71
812.43	219.12
812.75	219.48
813.07	219.38
813.39	219.60
813.71	219.19
814.03	218.69
814.35	218.79
814.67	217.90
814.98	217.71
815.30	217.50
815.62	217.12
815.94	215.57
816.26	215.50
816.58	215.05
816.89	215.24
817.21	214.86
817.53	215.00
817.85	215.05
818.17	215.00
818.48	214.19
818.80	214.48
819.12	213.90
819.44	213.40
819.76	213.24
820.07	212.98
820.39	212.81
820.71	213.14
821.03	213.38
821.34	213.17
821.66	213.52
821.98	213.90
822.30	213.86
822.61	215.05
822.93	214.86
823.25	214.71
823.57	214.40
823.88	215.00
824.20	214.95
824.52	215.40
824.83	215.24
825.15	214.62
825.47	214.36
825.79	214.79
826.10	214.43
826.42	214.62
826.74	215.19
827.05	215.40
827.37	215.52
827.69	215.19
828.00	215.17
828.32	214.98
828.64	214.55
828.95	215.67
829.27	215.17
829.58	215.14
829.90	215.86
830.22	216.02
830.53	215.31
830.85	215.29
831.17	214.64
831.48	214.79
831.80	215.21
832.11	215.17
832.43	214.88
832.75	215.24
833.06	216.19
833.38	215.33
833.69	215.40
834.01	215.48
834.32	215.57
834.64	215.55
834.96	215.52
835.27	215.40
835.59	214.90
835.90	214.57
836.22	214.64
836.53	213.98
836.85	213.76
837.16	215.81
837.48	215.83
837.79	216.48
838.11	216.36
838.42	216.36
838.74	216.79
839.05	216.60
839.37	216.45
839.68	215.24
840.00	215.21
840.31	215.52
840.63	215.33
840.94	215.17
841.26	215.31
841.57	215.29
841.88	215.45
842.20	215.19
842.51	215.02
842.83	214.98
843.14	216.90
843.46	216.90
843.77	215.98
844.08	215.86
844.40	215.07
844.71	214.86
845.03	214.79
845.34	214.29
845.65	214.33
845.97	214.36
846.28	214.52
846.60	214.74
846.91	214.33
847.22	214.24
847.54	214.48
847.85	214.38
848.16	214.29
848.48	213.90
848.79	214.81
849.10	214.93
849.42	215.05
849.73	212.98
850.04	212.98
850.36	212.12
850.67	212.55
850.98	212.81
851.30	213.07
851.61	212.93
851.92	212.86
852.23	213.50
852.55	213.71
852.86	213.88
853.17	214.07
853.49	214.40
853.80	214.81
854.11	215.17
854.42	215.50
854.74	215.38
855.05	215.62
855.36	214.45
855.67	214.60
855.99	214.50
856.30	217.26
856.61	217.14
856.92	217.36
857.23	217.10
857.55	216.74
857.86	216.71
858.17	217.21
858.48	216.93
858.79	216.43
859.11	216.45
859.42	216.02
859.73	215.52
860.04	215.48
860.35	214.79
860.66	214.00
860.98	213.81
861.29	213.88
861.60	213.69
861.91	214.12
862.22	213.69
862.53	213.40
862.84	210.83
863.16	211.45
863.47	210.90
863.78	210.95
864.09	211.29
864.40	211.36
864.71	211.26
865.02	211.62
865.33	211.48
865.64	211.33
865.95	211.45
866.27	212.76
866.58	212.40
866.89	212.74
867.20	212.90
867.51	212.62
867.82	212.64
868.13	213.40
868.44	212.93
868.75	213.48
869.06	213.60
869.37	214.02
869.68	213.43
869.99	213.81
870.30	213.98
870.61	214.07
870.92	213.71
871.23	213.31
871.54	213.45
871.85	214.02
872.16	214.12
872.47	214.05
872.78	212.86
873.09	213.29
873.40	213.05
873.71	213.29
874.02	213.48
874.33	213.31
874.64	212.62
874.95	213.14
875.26	212.67
875.56	212.69
875.87	212.33
876.18	212.14
876.49	214.26
876.80	213.98
877.11	213.62
877.42	213.76
877.73	214.02
878.04	213.76
878.35	213.69
878.66	213.62
878.96	213.62
879.27	213.57
879.58	213.29
879.89	213.17
880.20	213.52
880.51	213.40
880.82	213.48
881.12	213.69
881.43	212.95
881.74	212.79
882.05	212.81
882.36	213.00
882.67	213.26
882.97	210.98
883.28	210.90
883.59	210.76
883.90	210.95
884.21	211.31
884.51	211.24
884.82	210.79
885.13	210.86
885.44	210.79
885.74	210.76
886.05	210.93
886.36	210.90
886.67	210.14
886.98	211.19
887.28	211.45
887.59	211.52
887.90	211.88
888.20	211.86
888.51	212.19
888.82	211.69
889.13	212.05
889.43	213.62
889.74	213.43
890.05	213.67
890.35	213.45
890.66	213.07
890.97	213.07
891.28	212.83
891.58	212.86
891.89	212.76
892.20	212.74
892.50	212.55
892.81	212.74
893.12	212.81
893.42	211.71
893.73	211.33
894.04	211.40
894.34	211.79
894.65	211.74
894.95	211.60
895.26	212.07
895.57	212.79
895.87	211.05
896.18	211.19
896.48	211.26
896.79	211.21
897.10	211.36
897.40	211.40
897.71	211.76
898.01	211.55
898.32	212.12
898.63	212.17
898.93	212.19
899.24	212.12
899.54	212.21
899.85	212.36
900.15	212.57
900.46	212.43
900.76	212.19
901.07	212.36
901.38	212.02
901.68	211.90
901.99	210.69
902.29	210.81
902.60	210.69
902.90	210.48
903.21	210.43
903.51	210.26
903.82	210.71
904.12	210.64
904.43	210.90
904.73	210.71
905.03	210.81
905.34	212.57
905.64	212.24
905.95	212.26
906.25	212.00
906.56	211.76
906.86	211.62
907.17	211.40
907.47	211.50
907.77	211.52
908.08	211.45
908.38	211.83
908.69	211.98
908.99	212.38
909.30	212.64
909.60	212.83
909.90	213.21
910.21	212.31
910.51	212.14
910.81	212.12
911.12	211.83
911.42	212.10
911.73	210.10
912.03	210.50
912.33	210.76
912.64	210.90
912.94	211.07
913.24	210.95
913.55	210.98
913.85	210.81
914.15	211.21
914.46	211.26
914.76	211.00
915.06	210.79
915.37	210.57
915.67	210.36
915.97	210.26
916.27	209.64
916.58	210.05
916.88	210.00
917.18	209.86
917.49	211.50
917.79	211.26
918.09	211.64
918.39	212.21
918.70	212.14
919.00	212.17
919.30	212.95
919.60	212.83
919.91	212.60
920.21	212.55
920.51	212.17
920.81	211.98
921.12	212.31
921.42	212.40
921.72	212.50
922.02	212.43
922.32	212.69
922.63	212.88
922.93	213.74
923.23	213.79
923.53	213.64
923.83	212.29
924.13	212.50
924.44	212.21
924.74	212.24
925.04	212.52
925.34	212.64
925.64	211.62
925.94	211.76
926.24	213.02
926.55	212.79
926.85	213.17
927.15	213.33
927.45	213.52
927.75	213.60
928.05	213.67
928.35	213.76
928.65	214.07
928.95	214.12
929.26	213.50
929.56	213.86
929.86	214.02
930.16	213.88
930.46	213.62
930.76	213.88
931.06	213.17
931.36	212.81
931.66	212.67
931.96	213.19
932.26	213.29
932.56	212.33
932.86	212.76
933.16	212.60
933.46	212.40
933.76	211.86
934.06	212.07
934.36	212.83
934.66	212.76
934.96	212.50
935.26	212.60
935.56	212.88
935.86	212.55
936.16	212.55
936.46	212.24
936.76	212.00
937.06	211.69
937.36	211.69
937.66	211.69
937.96	211.71
938.26	211.14
938.56	211.07
938.86	211.12
939.16	211.17
939.46	211.33
939.76	211.60
940.06	211.60
940.35	211.21
940.65	210.05
940.95	210.02
941.25	209.36
941.55	209.12
941.85	208.95
942.15	209.36
942.45	209.81
942.75	209.76
943.04	209.98
943.34	210.55
943.64	210.52
943.94	210.21
944.24	210.43
944.54	210.67
944.84	210.38
945.13	210.26
945.43	210.21
945.73	209.95
946.03	209.57
946.33	209.33
946.62	209.29
946.92	209.21
947.22	209.36
947.52	209.69
947.82	210.10
948.11	209.95
948.41	209.45
948.71	208.95
949.01	209.24
949.31	209.00
949.60	208.79
949.90	209.21
950.20	209.40
950.50	209.29
950.79	209.26
951.09	209.62
951.39	209.52
951.69	209.17
951.98	209.67
952.28	209.95
952.58	210.07
952.87	210.00
953.17	210.40
953.47	210.31
953.76	210.48
954.06	210.05
954.36	210.02
954.66	210.33
954.95	210.90
955.25	210.98
955.55	211.31
955.84	210.90
956.14	211.17
956.44	211.21
956.73	211.12
957.03	211.14
957.32	211.14
957.62	211.10
957.92	211.55
958.21	211.24
958.51	213.90
958.81	214.12
959.10	214.38
959.40	214.88
959.69	215.12
959.99	215.24
960.29	215.29
960.58	214.98
960.88	215.69
961.17	215.31
961.47	215.55
961.76	215.43
962.06	215.93
962.36	215.36
962.65	215.38
962.95	215.36
963.24	215.33
963.54	215.50
963.83	215.62
964.13	215.60
964.42	215.19
964.72	213.05
965.01	213.10
965.31	213.00
965.60	212.14
965.90	213.38
966.19	213.02
966.49	213.43
966.78	213.31
967.08	212.83
967.37	212.86
967.67	212.60
967.96	212.55
968.26	212.14
968.55	212.50
968.85	212.29
969.14	212.33
969.43	212.24
969.73	212.02
970.02	212.10
970.32	212.10
970.61	212.10
970.91	211.45
971.20	211.12
971.49	210.95
971.79	211.45
972.08	210.00
972.38	210.10
972.67	209.74
972.96	210.10
973.26	209.64
973.55	210.43
973.85	210.38
974.14	210.40
974.43	210.95
974.73	210.62
975.02	210.50
975.31	210.36
975.61	210.40
975.90	210.33
976.19	210.02
976.49	210.19
976.78	210.52
977.07	210.62
977.37	210.90
977.66	211.45
977.95	211.17
978.24	211.12
978.54	211.64
978.83	211.74
979.12	211.40
979.42	211.74
979.71	211.21
980.00	210.86
980.29	211.02
980.59	210.67
980.88	211.33
981.17	211.45
981.46	211.62
981.76	211.33
982.05	211.95
982.34	212.12
982.63	211.95
982.93	211.62
983.22	212.05
983.51	211.81
983.80	211.83
984.09	212.12
984.39	212.17
984.68	211.79
984.97	211.74
985.26	211.76
985.55	211.74
985.85	211.29
986.14	211.86
986.43	211.83
986.72	211.57
987.01	210.79
987.30	210.74
987.59	210.40
987.89	210.67
988.18	209.71
988.47	209.33
988.76	209.19
989.05	209.36
989.34	209.17
989.63	209.71
989.92	209.38
990.22	209.10
990.51	209.10
990.80	209.12
991.09	209.33
991.38	209.64
991.67	209.60
991.96	209.48
992.25	209.64
992.54	209.57
992.83	209.60
993.12	209.69
993.41	210.17
993.70	211.31
993.99	211.60
994.28	212.12
994.58	212.55
994.87	212.31
995.16	212.19
995.45	212.12
995.74	211.69
996.03	212.10
996.32	212.26
996.61	212.74
996.90	212.64
997.19	212.55
997.48	212.67
997.77	212.40
998.06	212.71
998.34	212.43
998.63	212.43
998.92	212.57
999.21	212.86
999.50	212.74
999.79	211.98
1000.08	212.10
1000.37	212.12
1000.66	211.88
1000.95	212.48
1001.24	212.62
1001.53	212.76
1001.82	212.69
1002.11	211.98
1002.40	212.14
1002.68	212.26
1002.97	213.60
1003.26	213.21
1003.55	212.79
1003.84	213.07
1004.13	213.31
1004.42	213.19
1004.71	213.02
1004.99	212.95
1005.28	213.57
1005.57	213.43
1005.86	212.88
1006.15	212.71
1006.44	212.43
1006.72	212.76
1007.01	212.33
1007.30	212.60
1007.59	212.43
1007.88	212.38
1008.17	212.74
1008.45	212.48
1008.74	211.71
1009.03	210.76
1009.32	210.62
1009.60	210.45
1009.89	210.05
1010.18	209.19
1010.47	209.12
1010.76	209.21
1011.04	209.12
1011.33	209.60
1011.62	209.76
1011.91	210.12
1012.19	210.17
1012.48	210.31
1012.77	210.07
1013.05	210.93
1013.34	210.40
1013.63	210.12
1013.92	210.26
1014.20	210.07
1014.49	210.31
1014.78	210.62
1015.06	210.12
1015.35	210.33
1015.64	210.71
1015.92	211.24
1016.21	211.69
1016.50	211.86
1016.78	212.38
1017.07	212.64
1017.36	211.19
1017.64	210.90
1017.93	211.19
1018.22	211.05
1018.50	211.02
1018.79	211.21
1019.08	210.17
1019.36	210.50
1019.65	210.45
1019.93	210.98
1020.22	211.10
1020.51	211.81
1020.79	211.50
1021.08	210.50
1021.36	208.50
1021.65	211.00
1021.94	205.00
1022.22	212.00
1022.51	205.00
1022.79	220.50
1023.08	210.00
1023.36	232.00
1023.65	204.00
>>>>>End Processed Spectral Data<<<<<
