SpectraSuite Data File
++++++++++++++++++++++++++++++++++++
Date: Tue Apr 02 18:40:12 EDT 2013
User: group
Dark Spectrum Present: No
Reference Spectrum Present: No
Number of Sampled Component Spectra: 1
Spectrometers: USB2E7196
Integration Time (usec): 580000 (USB2E7196)
Spectra Averaged: 2 (USB2E7196)
Boxcar Smoothing: 10 (USB2E7196)
Correct for Electrical Dark: No (USB2E7196)
Strobe/Lamp Enabled: No (USB2E7196)
Correct for Detector Non-linearity: No (USB2E7196)
Correct for Stray Light: No (USB2E7196)
Number of Pixels in Processed Spectrum: 2048
>>>>>Begin Processed Spectral Data<<<<<
339.09	0.00
339.48	192.50
339.86	193.50
340.24	195.00
340.63	197.50
341.01	225.50
341.39	200.50
341.78	204.00
342.16	211.00
342.54	204.50
342.93	196.55
343.31	206.29
343.69	206.88
344.07	207.45
344.46	208.36
344.84	208.83
345.22	207.88
345.60	208.17
345.99	208.29
346.37	208.26
346.75	208.43
347.13	208.81
347.52	208.93
347.90	209.64
348.28	209.71
348.66	210.29
349.05	209.79
349.43	210.24
349.81	210.24
350.19	210.50
350.57	210.76
350.96	210.86
351.34	211.21
351.72	211.52
352.10	211.69
352.48	211.60
352.87	211.67
353.25	211.86
353.63	212.19
354.01	212.40
354.39	212.48
354.77	212.71
355.15	213.24
355.54	213.29
355.92	212.74
356.30	212.90
356.68	214.31
357.06	214.62
357.44	214.10
357.82	214.19
358.20	215.10
358.58	214.83
358.97	215.02
359.35	215.36
359.73	215.76
360.11	215.86
360.49	215.98
360.87	216.29
361.25	216.69
361.63	217.31
362.01	217.40
362.39	217.31
362.77	217.57
363.15	217.36
363.53	217.29
363.91	217.36
364.29	217.31
364.67	215.29
365.05	215.24
365.43	215.81
365.81	215.74
366.19	215.95
366.57	216.95
366.95	216.90
367.33	216.43
367.71	216.29
368.09	216.67
368.47	216.62
368.85	216.45
369.23	216.88
369.61	216.19
369.99	217.02
370.37	217.38
370.75	218.17
371.13	217.83
371.51	217.81
371.89	218.02
372.27	218.17
372.65	218.50
373.03	218.86
373.41	218.40
373.78	218.45
374.16	217.38
374.54	216.57
374.92	216.48
375.30	216.55
375.68	216.21
376.06	216.17
376.44	216.00
376.82	216.07
377.19	215.62
377.57	215.76
377.95	214.79
378.33	214.60
378.71	213.36
379.09	213.62
379.47	213.76
379.84	213.67
380.22	213.45
380.60	213.12
380.98	212.81
381.36	213.17
381.73	212.88
382.11	213.00
382.49	213.14
382.87	212.88
383.25	212.98
383.62	215.48
384.00	215.10
384.38	215.10
384.76	215.60
385.13	216.40
385.51	216.19
385.89	216.02
386.27	216.00
386.64	216.26
387.02	216.02
387.40	215.76
387.78	215.74
388.15	215.86
388.53	215.69
388.91	215.98
389.29	215.50
389.66	216.12
390.04	216.19
390.42	216.67
390.79	216.71
391.17	216.83
391.55	214.43
391.92	214.60
392.30	214.93
392.68	214.24
393.05	213.90
393.43	213.74
393.81	213.86
394.18	213.74
394.56	213.71
394.94	214.31
395.31	214.31
395.69	214.81
396.06	214.93
396.44	215.21
396.82	214.86
397.19	216.07
397.57	215.76
397.95	215.98
398.32	215.31
398.70	215.67
399.07	215.74
399.45	215.86
399.82	215.90
400.20	215.48
400.58	215.43
400.95	215.14
401.33	215.76
401.70	217.48
402.08	217.48
402.45	217.57
402.83	218.07
403.20	218.12
403.58	218.05
403.95	218.67
404.33	219.19
404.71	219.43
405.08	220.50
405.46	220.76
405.83	221.02
406.21	221.43
406.58	221.81
406.96	222.24
407.33	222.71
407.70	223.38
408.08	225.98
408.45	227.12
408.83	228.17
409.20	228.71
409.58	228.24
409.95	229.45
410.33	230.38
410.70	230.40
411.08	232.05
411.45	233.48
411.82	234.45
412.20	235.95
412.57	238.52
412.95	238.38
413.32	240.12
413.69	241.52
414.07	243.17
414.44	244.95
414.82	247.12
415.19	249.57
415.56	252.05
415.94	253.24
416.31	256.31
416.68	258.95
417.06	262.76
417.43	266.55
417.81	270.26
418.18	274.26
418.55	278.57
418.93	282.26
419.30	286.19
419.67	290.81
420.04	295.38
420.42	299.86
420.79	307.19
421.16	312.98
421.54	320.45
421.91	327.17
422.28	333.88
422.66	340.83
423.03	349.19
423.40	356.45
423.77	364.43
424.15	371.95
424.52	380.38
424.89	388.98
425.26	397.00
425.64	405.19
426.01	413.98
426.38	423.67
426.75	434.29
427.13	444.36
427.50	455.05
427.87	466.14
428.24	477.24
428.61	486.62
428.99	498.76
429.36	509.69
429.73	521.98
430.10	534.17
430.47	546.83
430.85	558.07
431.22	571.48
431.59	587.02
431.96	600.71
432.33	615.38
432.70	629.64
433.08	646.86
433.45	663.00
433.82	679.40
434.19	697.24
434.56	715.00
434.93	732.00
435.30	749.33
435.68	767.52
436.05	786.00
436.42	804.26
436.79	821.10
437.16	840.00
437.53	858.88
437.90	878.07
438.27	897.10
438.64	917.19
439.01	935.86
439.38	950.79
439.75	966.95
440.13	984.83
440.50	1001.60
440.87	1015.64
441.24	1030.24
441.61	1045.98
441.98	1057.52
442.35	1071.21
442.72	1085.31
443.09	1099.24
443.46	1107.43
443.83	1113.19
444.20	1118.24
444.57	1125.12
444.94	1128.40
445.31	1132.60
445.68	1138.98
446.05	1140.55
446.42	1139.14
446.79	1137.43
447.16	1135.00
447.53	1133.83
447.90	1127.31
448.27	1120.86
448.64	1111.12
449.01	1104.40
449.37	1092.26
449.74	1080.36
450.11	1067.40
450.48	1051.24
450.85	1033.83
451.22	1020.71
451.59	1007.38
451.96	994.88
452.33	978.00
452.70	962.79
453.07	944.26
453.43	923.07
453.80	904.90
454.17	888.12
454.54	871.21
454.91	854.43
455.28	836.95
455.65	820.93
456.02	808.52
456.38	794.98
456.75	778.29
457.12	764.19
457.49	750.81
457.86	735.38
458.23	725.05
458.59	712.43
458.96	699.71
459.33	688.19
459.70	677.02
460.07	667.64
460.43	656.86
460.80	647.24
461.17	639.02
461.54	630.81
461.91	621.60
462.27	613.48
462.64	605.45
463.01	597.60
463.38	590.81
463.74	579.62
464.11	573.10
464.48	567.05
464.85	560.38
465.21	555.69
465.58	550.64
465.95	543.29
466.32	538.12
466.68	532.71
467.05	527.43
467.42	521.86
467.78	516.55
468.15	511.79
468.52	508.29
468.88	502.50
469.25	497.52
469.62	493.95
469.98	489.24
470.35	485.14
470.72	481.29
471.08	476.50
471.45	473.10
471.82	469.88
472.18	465.74
472.55	463.00
472.92	458.81
473.28	455.60
473.65	452.55
474.02	449.88
474.38	447.50
474.75	445.36
475.11	442.98
475.48	441.29
475.85	439.55
476.21	437.57
476.58	436.40
476.94	435.07
477.31	433.50
477.67	432.64
478.04	432.00
478.41	431.14
478.77	432.33
479.14	431.55
479.50	430.93
479.87	430.81
480.23	430.74
480.60	430.50
480.96	430.17
481.33	431.17
481.69	431.24
482.06	431.24
482.42	431.45
482.79	432.31
483.15	432.36
483.52	433.55
483.88	433.90
484.25	434.60
484.61	435.19
484.98	436.05
485.34	437.79
485.71	439.36
486.07	440.62
486.44	439.98
486.80	441.60
487.17	442.83
487.53	445.62
487.90	447.95
488.26	451.14
488.62	454.21
488.99	455.88
489.35	458.55
489.72	461.43
490.08	464.24
490.44	466.52
490.81	470.50
491.17	473.12
491.54	477.26
491.90	481.24
492.26	485.40
492.63	489.45
492.99	492.98
493.36	497.36
493.72	502.17
494.08	507.17
494.45	512.36
494.81	517.64
495.17	522.57
495.54	528.21
495.90	533.29
496.26	538.55
496.63	544.38
496.99	550.40
497.35	556.12
497.72	562.69
498.08	568.76
498.44	575.14
498.80	582.14
499.17	588.12
499.53	594.79
499.89	602.10
500.26	609.60
500.62	617.07
500.98	624.26
501.34	631.31
501.71	639.33
502.07	646.76
502.43	654.69
502.79	661.83
503.16	668.86
503.52	676.36
503.88	684.10
504.24	692.76
504.60	700.98
504.97	710.14
505.33	717.74
505.69	727.81
506.05	736.40
506.41	744.76
506.78	753.40
507.14	761.43
507.50	769.55
507.86	778.69
508.22	787.62
508.59	796.10
508.95	804.76
509.31	813.95
509.67	822.50
510.03	830.52
510.39	839.12
510.75	848.02
511.12	856.64
511.48	866.40
511.84	874.69
512.20	882.74
512.56	890.50
512.92	900.10
513.28	908.19
513.64	916.48
514.00	924.60
514.37	932.60
514.73	940.90
515.09	949.74
515.45	956.88
515.81	964.17
516.17	971.81
516.53	979.33
516.89	986.14
517.25	993.57
517.61	1002.55
517.97	1010.60
518.33	1018.17
518.69	1026.10
519.05	1032.14
519.41	1039.12
519.77	1047.43
520.13	1054.95
520.49	1060.31
520.85	1066.29
521.21	1073.88
521.57	1081.26
521.93	1087.64
522.29	1094.48
522.65	1100.26
523.01	1106.93
523.37	1112.98
523.73	1119.60
524.09	1125.45
524.45	1131.67
524.81	1138.02
525.17	1143.26
525.53	1149.43
525.89	1154.98
526.25	1160.62
526.61	1165.93
526.97	1170.62
527.33	1175.60
527.68	1182.31
528.04	1188.88
528.40	1193.95
528.76	1197.90
529.12	1202.60
529.48	1209.02
529.84	1214.17
530.20	1220.17
530.56	1225.74
530.91	1231.88
531.27	1236.90
531.63	1242.33
531.99	1246.95
532.35	1252.24
532.71	1256.88
533.07	1261.71
533.42	1268.67
533.78	1273.95
534.14	1280.24
534.50	1285.74
534.86	1291.19
535.21	1294.76
535.57	1300.00
535.93	1305.86
536.29	1311.93
536.65	1317.33
537.00	1320.74
537.36	1326.40
537.72	1329.67
538.08	1334.31
538.44	1338.17
538.79	1343.00
539.15	1347.40
539.51	1352.52
539.87	1356.55
540.22	1361.05
540.58	1365.88
540.94	1368.29
541.29	1371.93
541.65	1374.40
542.01	1379.00
542.37	1382.69
542.72	1386.12
543.08	1389.74
543.44	1392.83
543.79	1395.31
544.15	1399.14
544.51	1404.02
544.87	1407.67
545.22	1412.33
545.58	1415.55
545.94	1419.55
546.29	1423.19
546.65	1427.57
547.01	1430.67
547.36	1433.95
547.72	1437.90
548.07	1441.48
548.43	1445.29
548.79	1448.83
549.14	1452.76
549.50	1456.26
549.86	1458.93
550.21	1462.74
550.57	1466.12
550.92	1469.60
551.28	1474.62
551.64	1477.86
551.99	1481.38
552.35	1484.60
552.70	1487.29
553.06	1490.93
553.41	1494.29
553.77	1499.02
554.13	1504.07
554.48	1509.05
554.84	1514.43
555.19	1519.10
555.55	1524.50
555.90	1528.57
556.26	1533.12
556.61	1537.07
556.97	1540.62
557.32	1545.10
557.68	1549.24
558.03	1553.81
558.39	1558.36
558.74	1562.26
559.10	1566.43
559.45	1571.12
559.81	1575.71
560.16	1581.02
560.52	1586.38
560.87	1591.45
561.23	1594.98
561.58	1599.36
561.94	1603.21
562.29	1606.74
562.64	1611.29
563.00	1613.74
563.35	1618.69
563.71	1623.88
564.06	1630.36
564.42	1636.33
564.77	1641.76
565.12	1648.67
565.48	1655.57
565.83	1661.74
566.19	1667.02
566.54	1672.21
566.89	1676.69
567.25	1683.33
567.60	1689.76
567.96	1696.17
568.31	1702.60
568.66	1709.10
569.02	1714.26
569.37	1718.64
569.72	1723.88
570.08	1728.12
570.43	1732.71
570.78	1737.14
571.14	1740.31
571.49	1743.69
571.84	1748.55
572.20	1752.98
572.55	1756.43
572.90	1758.50
573.26	1761.74
573.61	1764.48
573.96	1768.02
574.31	1771.40
574.67	1773.14
575.02	1775.17
575.37	1775.95
575.72	1777.21
576.08	1779.62
576.43	1780.36
576.78	1782.17
577.13	1784.40
577.49	1787.38
577.84	1790.33
578.19	1792.38
578.54	1795.52
578.90	1798.45
579.25	1799.86
579.60	1801.26
579.95	1801.52
580.30	1804.07
580.66	1805.90
581.01	1808.10
581.36	1809.60
581.71	1811.83
582.06	1814.60
582.42	1816.12
582.77	1818.24
583.12	1819.60
583.47	1819.71
583.82	1821.64
584.17	1824.00
584.53	1825.57
584.88	1825.83
585.23	1827.26
585.58	1827.60
585.93	1828.26
586.28	1828.88
586.63	1829.10
586.98	1829.76
587.34	1831.26
587.69	1831.07
588.04	1830.67
588.39	1830.83
588.74	1830.81
589.09	1830.12
589.44	1827.40
589.79	1826.86
590.14	1826.76
590.49	1826.21
590.84	1825.26
591.19	1824.55
591.54	1823.86
591.89	1822.74
592.25	1823.36
592.60	1820.98
592.95	1821.26
593.30	1820.64
593.65	1818.98
594.00	1817.07
594.35	1821.76
594.70	1819.14
595.05	1817.45
595.40	1816.60
595.75	1814.69
596.10	1814.36
596.45	1812.86
596.80	1812.26
597.15	1811.24
597.50	1808.38
597.85	1807.26
598.19	1806.67
598.54	1805.76
598.89	1803.81
599.24	1802.19
599.59	1798.69
599.94	1797.10
600.29	1794.19
600.64	1791.98
600.99	1790.07
601.34	1789.33
601.69	1780.79
602.04	1778.90
602.39	1777.00
602.74	1775.05
603.08	1772.83
603.43	1770.50
603.78	1769.14
604.13	1767.31
604.48	1764.12
604.83	1762.83
605.18	1760.88
605.53	1757.71
605.87	1753.64
606.22	1750.33
606.57	1747.93
606.92	1745.38
607.27	1742.90
607.62	1739.88
607.96	1737.21
608.31	1733.88
608.66	1730.62
609.01	1727.64
609.36	1724.02
609.70	1719.93
610.05	1715.17
610.40	1712.02
610.75	1706.71
611.10	1702.21
611.44	1697.31
611.79	1692.74
612.14	1688.10
612.49	1682.10
612.83	1677.21
613.18	1673.05
613.53	1668.93
613.88	1662.93
614.22	1657.64
614.57	1652.07
614.92	1647.52
615.27	1641.93
615.61	1636.52
615.96	1630.50
616.31	1625.07
616.65	1621.24
617.00	1616.74
617.35	1612.07
617.70	1605.76
618.04	1601.14
618.39	1595.76
618.74	1589.76
619.08	1584.55
619.43	1579.19
619.78	1574.76
620.12	1570.26
620.47	1565.05
620.82	1558.79
621.16	1553.24
621.51	1548.57
621.85	1542.52
622.20	1536.79
622.55	1530.83
622.89	1524.74
623.24	1519.26
623.59	1513.24
623.93	1506.64
624.28	1500.67
624.62	1497.71
624.97	1494.14
625.32	1488.17
625.66	1482.00
626.01	1477.00
626.35	1472.12
626.70	1465.71
627.04	1460.21
627.39	1453.43
627.73	1448.43
628.08	1444.19
628.43	1439.07
628.77	1433.14
629.12	1428.93
629.46	1423.60
629.81	1417.62
630.15	1412.52
630.50	1406.21
630.84	1400.60
631.19	1395.12
631.53	1389.36
631.88	1380.50
632.22	1372.69
632.57	1367.95
632.91	1362.24
633.26	1356.55
633.60	1350.26
633.95	1344.93
634.29	1338.52
634.64	1333.71
634.98	1326.81
635.32	1320.26
635.67	1314.67
636.01	1308.48
636.36	1301.45
636.70	1296.26
637.05	1290.93
637.39	1284.57
637.73	1279.64
638.08	1275.14
638.42	1269.19
638.77	1263.31
639.11	1257.67
639.45	1252.24
639.80	1245.57
640.14	1239.79
640.49	1233.31
640.83	1226.71
641.17	1220.45
641.52	1213.81
641.86	1206.93
642.20	1201.88
642.55	1195.17
642.89	1188.26
643.23	1182.12
643.58	1177.60
643.92	1170.00
644.26	1163.79
644.61	1158.10
644.95	1150.93
645.29	1143.12
645.64	1136.45
645.98	1129.12
646.32	1122.48
646.66	1115.36
647.01	1108.38
647.35	1101.83
647.69	1095.79
648.04	1089.93
648.38	1083.81
648.72	1078.00
649.06	1071.14
649.41	1064.00
649.75	1057.52
650.09	1051.19
650.43	1044.33
650.78	1036.43
651.12	1029.45
651.46	1022.29
651.80	1015.95
652.14	1009.88
652.49	1003.98
652.83	997.71
653.17	991.88
653.51	984.88
653.85	978.60
654.20	972.50
654.54	965.67
654.88	958.43
655.22	952.62
655.56	945.31
655.90	938.57
656.25	932.64
656.59	926.07
656.93	920.69
657.27	915.31
657.61	909.38
657.95	903.62
658.29	897.33
658.64	891.29
658.98	884.67
659.32	878.26
659.66	872.24
660.00	866.71
660.34	860.67
660.68	855.21
661.02	849.10
661.36	842.67
661.70	836.93
662.05	831.88
662.39	825.69
662.73	821.21
663.07	817.05
663.41	811.93
663.75	805.64
664.09	799.57
664.43	793.55
664.77	787.83
665.11	781.64
665.45	776.95
665.79	772.62
666.13	766.83
666.47	761.98
666.81	757.07
667.15	751.26
667.49	746.17
667.83	742.00
668.17	737.07
668.51	732.31
668.85	727.50
669.19	723.24
669.53	717.93
669.87	712.14
670.21	705.86
670.55	700.38
670.89	697.26
671.23	692.12
671.57	687.50
671.91	682.79
672.25	678.76
672.58	674.79
672.92	669.07
673.26	664.79
673.60	660.29
673.94	655.57
674.28	651.26
674.62	647.31
674.96	642.33
675.30	638.62
675.64	634.40
675.97	630.38
676.31	625.50
676.65	621.14
676.99	617.57
677.33	613.62
677.67	609.83
678.01	604.69
678.34	601.10
678.68	597.21
679.02	592.93
679.36	588.67
679.70	584.07
680.04	580.48
680.37	576.31
680.71	572.29
681.05	568.48
681.39	564.29
681.73	559.90
682.06	555.64
682.40	551.31
682.74	547.71
683.08	543.93
683.42	539.86
683.75	536.31
684.09	531.88
684.43	528.00
684.77	524.00
685.10	520.52
685.44	516.60
685.78	512.90
686.12	509.43
686.45	505.74
686.79	501.86
687.13	498.64
687.46	495.60
687.80	492.71
688.14	489.10
688.48	486.21
688.81	483.10
689.15	480.38
689.49	477.26
689.82	474.12
690.16	470.48
690.50	467.60
690.83	464.24
691.17	461.05
691.51	457.93
691.84	455.05
692.18	452.12
692.52	449.43
692.85	446.57
693.19	444.40
693.52	441.76
693.86	438.98
694.20	435.81
694.53	433.05
694.87	429.71
695.21	426.62
695.54	423.55
695.88	420.45
696.21	417.02
696.55	414.17
696.88	411.02
697.22	408.02
697.56	405.36
697.89	402.67
698.23	400.48
698.56	397.90
698.90	395.74
699.23	393.02
699.57	391.07
699.90	388.48
700.24	385.69
700.58	383.36
700.91	381.43
701.25	380.83
701.58	379.21
701.92	377.50
702.25	375.55
702.59	373.33
702.92	371.52
703.26	370.14
703.59	368.19
703.93	368.19
704.26	367.05
704.60	365.33
704.93	363.67
705.26	361.76
705.60	360.43
705.93	357.81
706.27	356.64
706.60	354.90
706.94	353.95
707.27	351.62
707.61	349.71
707.94	347.88
708.27	344.57
708.61	341.98
708.94	340.31
709.28	338.90
709.61	337.36
709.94	335.64
710.28	334.19
710.61	332.90
710.95	329.62
711.28	329.14
711.61	327.57
711.95	326.52
712.28	325.00
712.61	323.40
712.95	323.29
713.28	322.19
713.61	320.36
713.95	318.36
714.28	317.55
714.61	316.48
714.95	315.12
715.28	313.45
715.61	312.48
715.95	311.40
716.28	309.76
716.61	309.00
716.95	307.81
717.28	306.38
717.61	305.00
717.94	303.90
718.28	301.33
718.61	300.05
718.94	298.52
719.27	297.43
719.61	296.26
719.94	294.79
720.27	292.86
720.60	291.79
720.94	290.74
721.27	289.71
721.60	288.81
721.93	288.00
722.27	287.90
722.60	287.24
722.93	285.86
723.26	285.26
723.59	283.90
723.93	283.40
724.26	282.55
724.59	281.69
724.92	280.83
725.25	280.64
725.59	280.00
725.92	279.79
726.25	279.10
726.58	278.33
726.91	277.55
727.24	277.43
727.57	276.55
727.91	275.50
728.24	274.93
728.57	273.90
728.90	273.33
729.23	272.19
729.56	272.24
729.89	271.60
730.22	270.88
730.55	270.26
730.89	269.31
731.22	268.40
731.55	267.43
731.88	266.93
732.21	266.00
732.54	264.90
732.87	264.07
733.20	263.69
733.53	263.38
733.86	262.83
734.19	261.90
734.52	261.74
734.85	262.45
735.18	261.76
735.51	262.07
735.84	261.64
736.17	261.81
736.50	260.43
736.83	262.48
737.16	261.90
737.49	261.55
737.82	260.86
738.15	260.76
738.48	260.48
738.81	259.83
739.14	258.81
739.47	258.29
739.80	257.60
740.13	257.12
740.46	256.26
740.79	255.48
741.12	254.93
741.45	254.24
741.78	252.64
742.11	252.71
742.44	251.40
742.77	251.33
743.10	250.43
743.43	249.90
743.75	247.02
744.08	249.38
744.41	248.86
744.74	248.48
745.07	247.43
745.40	247.62
745.73	247.98
746.06	248.05
746.39	247.98
746.71	247.60
747.04	246.74
747.37	246.14
747.70	246.50
748.03	246.31
748.36	246.10
748.68	245.93
749.01	244.83
749.34	244.93
749.67	244.36
750.00	244.24
750.33	245.50
750.65	245.38
750.98	242.31
751.31	242.12
751.64	241.81
751.97	242.74
752.29	242.21
752.62	241.21
752.95	240.69
753.28	240.57
753.60	240.21
753.93	240.60
754.26	240.67
754.59	239.55
754.91	238.69
755.24	238.43
755.57	238.12
755.90	238.17
756.22	237.69
756.55	237.10
756.88	236.36
757.20	234.69
757.53	234.12
757.86	233.81
758.19	233.50
758.51	233.33
758.84	232.05
759.17	231.38
759.49	231.02
759.82	231.98
760.15	232.05
760.47	231.86
760.80	230.74
761.13	230.69
761.45	230.36
761.78	230.74
762.11	230.31
762.43	230.12
762.76	229.71
763.08	229.55
763.41	229.43
763.74	229.40
764.06	229.05
764.39	228.86
764.71	228.57
765.04	228.29
765.37	227.76
765.69	227.62
766.02	227.62
766.34	227.40
766.67	226.26
767.00	225.93
767.32	226.88
767.65	228.38
767.97	228.17
768.30	228.19
768.62	227.76
768.95	227.60
769.27	227.14
769.60	227.14
769.92	226.76
770.25	226.24
770.57	225.67
770.90	225.55
771.22	225.24
771.55	225.33
771.87	225.31
772.20	225.45
772.52	227.14
772.85	229.29
773.17	229.38
773.50	229.43
773.82	229.14
774.15	227.81
774.47	226.36
774.80	226.02
775.12	225.88
775.45	225.71
775.77	225.71
776.09	225.83
776.42	225.83
776.74	226.33
777.07	226.29
777.39	226.29
777.72	226.14
778.04	226.24
778.36	225.93
778.69	225.93
779.01	225.83
779.33	224.07
779.66	221.81
779.98	221.67
780.31	221.60
780.63	222.19
780.95	222.48
781.28	222.48
781.60	222.24
781.92	222.19
782.25	222.19
782.57	222.19
782.89	221.83
783.22	221.60
783.54	221.24
783.86	221.36
784.19	221.52
784.51	221.81
784.83	221.36
785.16	221.43
785.48	221.26
785.80	221.31
786.12	221.43
786.45	221.29
786.77	221.12
787.09	220.95
787.42	220.40
787.74	220.33
788.06	220.29
788.38	220.31
788.71	220.31
789.03	220.36
789.35	220.36
789.67	220.12
789.99	220.38
790.32	220.33
790.64	220.45
790.96	221.74
791.28	221.14
791.61	221.17
791.93	221.24
792.25	221.10
792.57	222.74
792.89	222.38
793.21	222.52
793.54	222.55
793.86	222.19
794.18	222.29
794.50	222.02
794.82	222.05
795.14	222.12
795.47	222.24
795.79	222.19
796.11	221.76
796.43	221.88
796.75	221.67
797.07	221.45
797.39	221.19
797.71	219.88
798.04	220.02
798.36	220.05
798.68	219.60
799.00	219.90
799.32	218.64
799.64	218.95
799.96	218.81
800.28	218.95
800.60	218.95
800.92	218.88
801.24	218.79
801.56	218.79
801.89	218.67
802.21	218.74
802.53	218.33
802.85	218.90
803.17	219.93
803.49	219.43
803.81	219.19
804.13	219.12
804.45	218.76
804.77	219.10
805.09	219.02
805.41	218.98
805.73	218.45
806.05	217.83
806.37	217.29
806.69	217.12
807.01	217.00
807.33	217.07
807.65	216.43
807.97	217.48
808.28	217.19
808.60	217.02
808.92	216.83
809.24	218.21
809.56	217.67
809.88	216.83
810.20	217.07
810.52	217.67
810.84	217.38
811.16	217.21
811.48	216.90
811.80	217.67
812.12	217.67
812.43	218.14
812.75	218.55
813.07	218.62
813.39	218.93
813.71	218.76
814.03	218.50
814.35	218.64
814.67	217.64
814.98	217.48
815.30	217.38
815.62	217.00
815.94	215.48
816.26	215.64
816.58	215.12
816.89	214.98
817.21	214.48
817.53	214.95
817.85	215.10
818.17	214.93
818.48	214.26
818.80	214.74
819.12	214.29
819.44	213.74
819.76	213.52
820.07	213.38
820.39	213.33
820.71	213.67
821.03	213.64
821.34	213.36
821.66	213.83
821.98	214.19
822.30	214.05
822.61	215.52
822.93	215.29
823.25	215.31
823.57	215.33
823.88	215.62
824.20	215.21
824.52	215.52
824.83	215.45
825.15	215.07
825.47	214.83
825.79	215.12
826.10	214.95
826.42	215.02
826.74	215.26
827.05	215.07
827.37	215.12
827.69	215.10
828.00	215.33
828.32	215.21
828.64	215.00
828.95	216.17
829.27	215.57
829.58	215.60
829.90	215.95
830.22	216.10
830.53	215.60
830.85	215.31
831.17	214.90
831.48	214.90
831.80	214.90
832.11	214.93
832.43	214.57
832.75	214.60
833.06	215.86
833.38	215.05
833.69	215.12
834.01	214.98
834.32	214.93
834.64	215.02
834.96	214.95
835.27	214.81
835.59	213.83
835.90	213.21
836.22	213.10
836.53	212.76
836.85	212.60
837.16	214.90
837.48	215.02
837.79	215.67
838.11	215.74
838.42	216.00
838.74	216.02
839.05	216.07
839.37	216.19
839.68	214.71
840.00	214.57
840.31	214.79
840.63	214.57
840.94	214.31
841.26	213.79
841.57	214.07
841.88	214.29
842.20	214.36
842.51	214.17
842.83	214.36
843.14	216.21
843.46	216.10
843.77	214.64
844.08	214.45
844.40	213.71
844.71	213.69
845.03	213.50
845.34	213.43
845.65	213.31
845.97	213.40
846.28	213.64
846.60	213.93
846.91	213.55
847.22	213.57
847.54	213.93
847.85	214.05
848.16	213.38
848.48	213.05
848.79	213.69
849.10	213.93
849.42	213.79
849.73	211.81
850.04	211.76
850.36	210.98
850.67	211.69
850.98	211.81
851.30	211.74
851.61	211.71
851.92	211.81
852.23	212.57
852.55	212.48
852.86	212.55
853.17	212.76
853.49	213.36
853.80	213.81
854.11	214.14
854.42	214.67
854.74	214.45
855.05	214.62
855.36	213.64
855.67	213.69
855.99	213.88
856.30	216.57
856.61	216.43
856.92	216.55
857.23	216.48
857.55	216.31
857.86	216.38
858.17	216.67
858.48	216.24
858.79	215.64
859.11	215.90
859.42	215.64
859.73	215.40
860.04	215.17
860.35	214.57
860.66	213.83
860.98	213.71
861.29	214.29
861.60	214.17
861.91	214.79
862.22	214.43
862.53	214.10
862.84	211.36
863.16	212.17
863.47	211.90
863.78	211.55
864.09	211.52
864.40	211.67
864.71	211.45
865.02	211.74
865.33	211.29
865.64	210.79
865.95	210.86
866.27	212.38
866.58	212.00
866.89	212.36
867.20	212.48
867.51	211.93
867.82	211.74
868.13	212.29
868.44	211.81
868.75	212.45
869.06	212.67
869.37	213.00
869.68	212.40
869.99	212.69
870.30	212.93
870.61	213.43
870.92	213.00
871.23	213.21
871.54	213.33
871.85	213.86
872.16	214.24
872.47	214.24
872.78	212.79
873.09	213.14
873.40	212.88
873.71	213.00
874.02	213.31
874.33	213.02
874.64	212.62
874.95	212.98
875.26	212.50
875.56	212.43
875.87	212.50
876.18	212.50
876.49	214.57
876.80	214.31
877.11	213.67
877.42	213.79
877.73	213.71
878.04	213.55
878.35	213.74
878.66	213.79
878.96	213.76
879.27	213.71
879.58	213.67
879.89	213.48
880.20	214.17
880.51	214.10
880.82	214.24
881.12	214.33
881.43	213.81
881.74	213.60
882.05	213.36
882.36	213.14
882.67	213.05
882.97	210.93
883.28	211.07
883.59	211.10
883.90	211.43
884.21	211.81
884.51	211.74
884.82	211.60
885.13	211.55
885.44	211.33
885.74	211.52
886.05	211.40
886.36	211.50
886.67	210.88
886.98	211.74
887.28	211.93
887.59	211.95
887.90	212.07
888.20	211.95
888.51	212.55
888.82	212.33
889.13	212.55
889.43	214.10
889.74	213.79
890.05	213.74
890.35	213.24
890.66	212.43
890.97	212.12
891.28	211.79
891.58	211.79
891.89	211.95
892.20	211.64
892.50	211.79
892.81	211.62
893.12	211.45
893.42	210.33
893.73	210.67
894.04	210.38
894.34	210.79
894.65	210.93
894.95	210.43
895.26	210.71
895.57	211.60
895.87	209.64
896.18	209.88
896.48	210.21
896.79	210.26
897.10	210.98
897.40	211.10
897.71	211.29
898.01	211.05
898.32	211.48
898.63	211.38
898.93	211.29
899.24	211.55
899.54	211.48
899.85	211.93
900.15	211.60
900.46	211.83
900.76	211.79
901.07	211.83
901.38	211.95
901.68	212.21
901.99	211.14
902.29	211.48
902.60	211.36
902.90	210.95
903.21	211.10
903.51	210.86
903.82	211.57
904.12	211.57
904.43	211.69
904.73	211.52
905.03	211.76
905.34	213.69
905.64	213.33
905.95	213.29
906.25	212.93
906.56	212.93
906.86	212.76
907.17	212.43
907.47	212.43
907.77	212.29
908.08	211.86
908.38	212.29
908.69	212.36
908.99	212.88
909.30	213.00
909.60	213.17
909.90	213.26
910.21	212.40
910.51	212.33
910.81	212.38
911.12	212.57
911.42	212.36
911.73	210.24
912.03	210.55
912.33	211.14
912.64	211.29
912.94	211.12
913.24	210.90
913.55	211.05
913.85	210.90
914.15	211.33
914.46	211.45
914.76	211.10
915.06	210.95
915.37	210.36
915.67	210.36
915.97	210.43
916.27	210.05
916.58	210.21
916.88	210.12
917.18	210.02
917.49	211.24
917.79	211.31
918.09	211.76
918.39	212.50
918.70	212.21
919.00	212.33
919.30	213.43
919.60	213.43
919.91	213.05
920.21	213.17
920.51	212.71
920.81	212.67
921.12	212.79
921.42	212.67
921.72	212.95
922.02	213.00
922.32	213.19
922.63	213.43
922.93	214.62
923.23	214.76
923.53	214.55
923.83	213.17
924.13	213.57
924.44	213.33
924.74	213.36
925.04	213.88
925.34	213.86
925.64	213.00
925.94	212.95
926.24	214.26
926.55	214.10
926.85	214.40
927.15	214.48
927.45	214.64
927.75	214.81
928.05	214.69
928.35	214.50
928.65	214.79
928.95	215.02
929.26	214.10
929.56	214.36
929.86	214.52
930.16	214.24
930.46	213.81
930.76	213.81
931.06	213.00
931.36	212.33
931.66	212.38
931.96	212.43
932.26	212.86
932.56	211.95
932.86	212.45
933.16	212.45
933.46	212.31
933.76	212.14
934.06	212.71
934.36	213.48
934.66	213.76
934.96	213.19
935.26	213.24
935.56	213.50
935.86	212.95
936.16	212.88
936.46	212.81
936.76	212.83
937.06	212.64
937.36	212.71
937.66	212.93
937.96	212.83
938.26	212.52
938.56	212.14
938.86	212.31
939.16	212.43
939.46	212.55
939.76	212.60
940.06	212.40
940.35	211.88
940.65	210.86
940.95	210.98
941.25	210.74
941.55	210.26
941.85	210.33
942.15	210.88
942.45	211.38
942.75	211.14
943.04	211.36
943.34	211.90
943.64	211.74
943.94	211.38
944.24	211.50
944.54	211.62
944.84	211.62
945.13	211.21
945.43	210.81
945.73	210.86
946.03	210.67
946.33	210.67
946.62	210.45
946.92	210.64
947.22	210.74
947.52	210.93
947.82	211.24
948.11	210.88
948.41	210.21
948.71	209.74
949.01	210.19
949.31	209.98
949.60	209.83
949.90	210.21
950.20	210.14
950.50	210.31
950.79	210.05
951.09	210.14
951.39	210.21
951.69	210.00
951.98	210.31
952.28	210.55
952.58	210.36
952.87	210.48
953.17	210.74
953.47	210.50
953.76	210.48
954.06	210.07
954.36	209.71
954.66	209.93
954.95	210.45
955.25	210.76
955.55	210.95
955.84	210.67
956.14	210.81
956.44	210.95
956.73	210.48
957.03	210.69
957.32	210.88
957.62	210.86
957.92	211.40
958.21	210.83
958.51	213.24
958.81	213.43
959.10	213.60
959.40	213.79
959.69	213.86
959.99	214.17
960.29	214.31
960.58	214.52
960.88	215.31
961.17	215.07
961.47	214.93
961.76	214.67
962.06	215.02
962.36	214.83
962.65	214.88
962.95	214.79
963.24	214.67
963.54	214.86
963.83	215.00
964.13	214.88
964.42	214.64
964.72	212.98
965.01	213.21
965.31	212.93
965.60	212.62
965.90	214.05
966.19	213.36
966.49	213.52
966.78	213.38
967.08	213.33
967.37	213.45
967.67	213.07
967.96	213.48
968.26	213.31
968.55	213.55
968.85	213.71
969.14	214.02
969.43	214.05
969.73	213.67
970.02	213.60
970.32	213.62
970.61	213.50
970.91	213.07
971.20	212.83
971.49	212.86
971.79	213.10
972.08	211.57
972.38	212.00
972.67	211.67
972.96	212.21
973.26	211.55
973.55	212.12
973.85	212.29
974.14	211.98
974.43	211.90
974.73	211.67
975.02	211.14
975.31	210.93
975.61	210.81
975.90	210.62
976.19	210.33
976.49	210.38
976.78	210.67
977.07	210.38
977.37	210.62
977.66	210.95
977.95	210.67
978.24	210.76
978.54	211.07
978.83	211.19
979.12	210.76
979.42	210.81
979.71	210.43
980.00	210.38
980.29	210.60
980.59	210.29
980.88	210.74
981.17	210.83
981.46	210.88
981.76	210.83
982.05	211.62
982.34	212.07
982.63	211.76
982.93	211.74
983.22	212.19
983.51	212.17
983.80	212.29
984.09	212.38
984.39	212.12
984.68	211.79
984.97	211.88
985.26	211.71
985.55	212.00
985.85	211.62
986.14	212.05
986.43	212.26
986.72	212.33
987.01	211.93
987.30	211.90
987.59	211.74
987.89	211.93
988.18	211.14
988.47	210.90
988.76	210.83
989.05	210.79
989.34	210.29
989.63	210.69
989.92	210.36
990.22	210.07
990.51	210.12
990.80	210.17
991.09	210.33
991.38	210.95
991.67	210.69
991.96	210.48
992.25	210.31
992.54	209.76
992.83	209.69
993.12	209.36
993.41	209.86
993.70	210.86
993.99	211.29
994.28	211.64
994.58	211.69
994.87	211.76
995.16	211.60
995.45	211.62
995.74	210.90
996.03	211.26
996.32	211.64
996.61	212.21
996.90	212.07
997.19	211.62
997.48	211.33
997.77	210.98
998.06	211.14
998.34	210.83
998.63	211.21
998.92	211.38
999.21	211.69
999.50	211.74
999.79	211.12
1000.08	211.05
1000.37	211.17
1000.66	211.12
1000.95	211.64
1001.24	212.07
1001.53	212.45
1001.82	212.40
1002.11	212.00
1002.40	212.17
1002.68	212.40
1002.97	213.90
1003.26	214.00
1003.55	213.60
1003.84	213.90
1004.13	214.55
1004.42	214.40
1004.71	214.17
1004.99	213.95
1005.28	214.43
1005.57	213.93
1005.86	213.52
1006.15	213.17
1006.44	212.81
1006.72	213.02
1007.01	212.48
1007.30	212.33
1007.59	212.17
1007.88	212.19
1008.17	212.10
1008.45	211.71
1008.74	210.98
1009.03	210.07
1009.32	210.05
1009.60	210.21
1009.89	210.10
1010.18	208.98
1010.47	209.07
1010.76	209.02
1011.04	209.10
1011.33	211.33
1011.62	211.69
1011.91	211.81
1012.19	211.98
1012.48	211.90
1012.77	211.76
1013.05	212.43
1013.34	212.36
1013.63	212.33
1013.92	212.10
1014.20	212.19
1014.49	212.40
1014.78	212.62
1015.06	211.81
1015.35	211.90
1015.64	212.10
1015.92	212.40
1016.21	212.83
1016.50	212.93
1016.78	213.07
1017.07	213.21
1017.36	210.67
1017.64	210.52
1017.93	210.76
1018.22	210.50
1018.50	210.76
1018.79	210.86
1019.08	210.10
1019.36	210.24
1019.65	209.83
1019.93	210.90
1020.22	211.12
1020.51	211.88
1020.79	211.60
1021.08	206.00
1021.36	211.00
1021.65	212.50
1021.94	207.00
1022.22	212.50
1022.51	205.00
1022.79	224.00
1023.08	213.50
1023.36	230.50
1023.65	206.00
>>>>>End Processed Spectral Data<<<<<
