SpectraSuite Data File
++++++++++++++++++++++++++++++++++++
Date: Tue Apr 02 18:45:54 EDT 2013
User: group
Dark Spectrum Present: No
Reference Spectrum Present: No
Number of Sampled Component Spectra: 1
Spectrometers: USB2E7196
Integration Time (usec): 580000 (USB2E7196)
Spectra Averaged: 2 (USB2E7196)
Boxcar Smoothing: 10 (USB2E7196)
Correct for Electrical Dark: No (USB2E7196)
Strobe/Lamp Enabled: No (USB2E7196)
Correct for Detector Non-linearity: No (USB2E7196)
Correct for Stray Light: No (USB2E7196)
Number of Pixels in Processed Spectrum: 2048
>>>>>Begin Processed Spectral Data<<<<<
339.09	0.00
339.48	194.00
339.86	193.00
340.24	198.50
340.63	200.00
341.01	228.00
341.39	198.00
341.78	207.00
342.16	210.00
342.54	206.00
342.93	197.69
343.31	207.64
343.69	208.05
344.07	208.69
344.46	209.40
344.84	209.98
345.22	208.95
345.60	209.62
345.99	209.86
346.37	209.79
346.75	209.95
347.13	210.19
347.52	210.40
347.90	210.98
348.28	210.95
348.66	211.10
349.05	210.43
349.43	210.69
349.81	211.07
350.19	210.95
350.57	210.86
350.96	210.88
351.34	211.00
351.72	211.21
352.10	211.29
352.48	211.12
352.87	211.05
353.25	211.02
353.63	210.98
354.01	210.74
354.39	210.86
354.77	210.74
355.15	211.45
355.54	211.38
355.92	211.10
356.30	211.14
356.68	212.60
357.06	213.05
357.44	212.60
357.82	212.33
358.20	213.43
358.58	213.48
358.97	213.67
359.35	214.07
359.73	214.48
360.11	214.60
360.49	214.62
360.87	214.69
361.25	215.02
361.63	215.60
362.01	215.93
362.39	215.83
362.77	216.21
363.15	215.86
363.53	215.83
363.91	215.76
364.29	215.71
364.67	213.74
365.05	213.79
365.43	214.02
365.81	214.33
366.19	214.50
366.57	215.36
366.95	215.50
367.33	215.00
367.71	215.00
368.09	215.14
368.47	215.10
368.85	214.83
369.23	215.38
369.61	214.79
369.99	215.38
370.37	216.00
370.75	216.67
371.13	216.07
371.51	215.76
371.89	216.07
372.27	216.29
372.65	216.69
373.03	216.74
373.41	216.60
373.78	216.43
374.16	215.52
374.54	215.05
374.92	214.76
375.30	214.74
375.68	214.60
376.06	214.64
376.44	214.74
376.82	214.95
377.19	214.79
377.57	214.60
377.95	213.93
378.33	213.45
378.71	212.45
379.09	213.07
379.47	213.45
379.84	213.07
380.22	212.69
380.60	211.93
380.98	211.71
381.36	211.48
381.73	211.43
382.11	211.62
382.49	211.57
382.87	211.40
383.25	211.55
383.62	213.76
384.00	213.67
384.38	213.57
384.76	214.12
385.13	214.81
385.51	214.93
385.89	214.71
386.27	215.02
386.64	215.40
387.02	215.05
387.40	214.79
387.78	214.88
388.15	215.12
388.53	215.33
388.91	215.33
389.29	215.52
389.66	215.57
390.04	215.26
390.42	215.64
390.79	215.93
391.17	216.07
391.55	213.81
391.92	213.71
392.30	214.00
392.68	213.55
393.05	213.45
393.43	213.60
393.81	213.74
394.18	213.31
394.56	213.21
394.94	213.76
395.31	213.64
395.69	214.31
396.06	214.71
396.44	214.98
396.82	214.74
397.19	216.00
397.57	215.86
397.95	216.45
398.32	215.76
398.70	215.62
399.07	215.81
399.45	215.69
399.82	215.67
400.20	215.40
400.58	215.31
400.95	214.45
401.33	214.90
401.70	216.67
402.08	216.69
402.45	216.76
402.83	217.19
403.20	217.33
403.58	217.19
403.95	217.48
404.33	217.76
404.71	218.29
405.08	219.31
405.46	219.69
405.83	219.93
406.21	220.52
406.58	221.14
406.96	221.62
407.33	222.19
407.70	223.00
408.08	225.05
408.45	226.10
408.83	227.14
409.20	227.40
409.58	226.50
409.95	227.76
410.33	229.05
410.70	229.26
411.08	230.79
411.45	231.83
411.82	232.50
412.20	234.00
412.57	236.45
412.95	235.79
413.32	237.52
413.69	238.88
414.07	240.57
414.44	242.36
414.82	244.48
415.19	246.95
415.56	249.19
415.94	250.52
416.31	253.48
416.68	256.12
417.06	259.29
417.43	262.83
417.81	265.86
418.18	269.05
418.55	272.69
418.93	276.57
419.30	280.71
419.67	285.57
420.04	290.00
420.42	294.05
420.79	301.29
421.16	307.07
421.54	313.83
421.91	320.00
422.28	326.55
422.66	332.93
423.03	340.71
423.40	347.67
423.77	354.76
424.15	361.40
424.52	368.83
424.89	377.24
425.26	385.02
425.64	393.05
426.01	401.43
426.38	410.50
426.75	419.83
427.13	429.26
427.50	438.69
427.87	448.86
428.24	458.40
428.61	467.02
428.99	477.52
429.36	487.71
429.73	498.88
430.10	510.29
430.47	521.40
430.85	531.74
431.22	544.00
431.59	559.00
431.96	571.83
432.33	585.93
432.70	599.57
433.08	615.67
433.45	630.95
433.82	646.26
434.19	663.05
434.56	679.40
434.93	694.95
435.30	710.64
435.68	727.88
436.05	745.74
436.42	762.45
436.79	778.17
437.16	795.55
437.53	813.02
437.90	830.17
438.27	848.81
438.64	866.98
439.01	884.19
439.38	897.67
439.75	912.69
440.13	929.57
440.50	944.93
440.87	957.71
441.24	971.14
441.61	985.62
441.98	996.29
442.35	1008.60
442.72	1020.88
443.09	1034.38
443.46	1042.17
443.83	1047.12
444.20	1051.76
444.57	1058.31
444.94	1061.26
445.31	1065.07
445.68	1071.29
446.05	1071.64
446.42	1070.50
446.79	1069.17
447.16	1067.12
447.53	1065.88
447.90	1059.07
448.27	1052.86
448.64	1043.76
449.01	1037.26
449.37	1026.38
449.74	1015.81
450.11	1004.48
450.48	990.02
450.85	974.24
451.22	961.31
451.59	948.95
451.96	937.52
452.33	922.10
452.70	908.29
453.07	891.33
453.43	871.33
453.80	855.00
454.17	839.38
454.54	824.02
454.91	808.10
455.28	792.33
455.65	778.02
456.02	766.88
456.38	755.21
456.75	739.71
457.12	725.95
457.49	712.86
457.86	698.55
458.23	688.83
458.59	676.76
458.96	665.19
459.33	654.93
459.70	644.43
460.07	636.10
460.43	626.10
460.80	617.40
461.17	610.38
461.54	602.67
461.91	594.69
462.27	586.48
462.64	579.55
463.01	571.93
463.38	565.62
463.74	555.24
464.11	547.86
464.48	542.45
464.85	536.52
465.21	532.40
465.58	527.31
465.95	520.69
466.32	515.93
466.68	510.74
467.05	505.93
467.42	500.90
467.78	495.71
468.15	491.02
468.52	487.52
468.88	481.86
469.25	477.17
469.62	473.71
469.98	469.81
470.35	466.31
470.72	462.74
471.08	457.76
471.45	454.60
471.82	452.14
472.18	448.45
472.55	445.90
472.92	442.02
473.28	439.40
473.65	436.62
474.02	433.90
474.38	431.69
474.75	429.79
475.11	427.40
475.48	425.36
475.85	423.76
476.21	421.69
476.58	420.29
476.94	419.24
477.31	417.93
477.67	417.02
478.04	415.83
478.41	415.10
478.77	416.74
479.14	415.88
479.50	415.33
479.87	415.12
480.23	414.90
480.60	414.36
480.96	414.19
481.33	415.43
481.69	415.55
482.06	415.62
482.42	416.17
482.79	416.67
483.15	417.07
483.52	418.26
483.88	418.55
484.25	419.29
484.61	419.98
484.98	420.93
485.34	422.43
485.71	424.12
486.07	425.21
486.44	424.43
486.80	426.05
487.17	427.76
487.53	430.14
487.90	432.24
488.26	435.45
488.62	438.24
488.99	439.69
489.35	442.60
489.72	445.24
490.08	447.21
490.44	450.05
490.81	453.07
491.17	455.74
491.54	459.29
491.90	463.57
492.26	467.21
492.63	471.05
492.99	474.17
493.36	478.07
493.72	482.69
494.08	487.43
494.45	491.90
494.81	496.36
495.17	500.67
495.54	506.05
495.90	510.81
496.26	515.38
496.63	521.17
496.99	526.71
497.35	532.60
497.72	538.60
498.08	544.67
498.44	550.83
498.80	557.67
499.17	564.07
499.53	569.69
499.89	576.33
500.26	582.50
500.62	589.69
500.98	596.88
501.34	603.60
501.71	610.93
502.07	617.81
502.43	624.64
502.79	631.52
503.16	638.33
503.52	645.07
503.88	652.29
504.24	659.52
504.60	666.62
504.97	674.24
505.33	682.38
505.69	690.62
506.05	698.67
506.41	706.31
506.78	713.88
507.14	721.67
507.50	729.38
507.86	737.10
508.22	744.95
508.59	752.26
508.95	760.45
509.31	769.19
509.67	777.71
510.03	785.38
510.39	793.57
510.75	801.00
511.12	808.67
511.48	816.98
511.84	825.26
512.20	833.17
512.56	840.45
512.92	847.98
513.28	855.71
513.64	862.90
514.00	869.71
514.37	877.40
514.73	884.40
515.09	891.95
515.45	899.48
515.81	906.36
516.17	912.86
516.53	919.24
516.89	924.93
517.25	931.02
517.61	938.52
517.97	944.71
518.33	951.64
518.69	958.07
519.05	964.55
519.41	970.12
519.77	977.43
520.13	983.24
520.49	988.40
520.85	993.48
521.21	999.62
521.57	1005.76
521.93	1010.71
522.29	1016.29
522.65	1020.45
523.01	1026.50
523.37	1031.21
523.73	1036.90
524.09	1042.17
524.45	1046.52
524.81	1051.52
525.17	1055.69
525.53	1060.81
525.89	1065.38
526.25	1070.64
526.61	1074.57
526.97	1078.14
527.33	1081.71
527.68	1087.90
528.04	1093.02
528.40	1097.83
528.76	1101.83
529.12	1106.07
529.48	1110.71
529.84	1114.57
530.20	1119.93
530.56	1124.10
530.91	1129.02
531.27	1133.05
531.63	1136.50
531.99	1140.45
532.35	1144.14
532.71	1147.83
533.07	1152.02
533.42	1158.26
533.78	1162.10
534.14	1167.12
534.50	1171.76
534.86	1175.81
535.21	1178.69
535.57	1182.43
535.93	1185.71
536.29	1190.02
536.65	1193.50
537.00	1196.90
537.36	1200.88
537.72	1203.98
538.08	1207.60
538.44	1210.62
538.79	1214.14
539.15	1216.90
539.51	1221.24
539.87	1224.93
540.22	1228.76
540.58	1232.62
540.94	1232.95
541.29	1236.00
541.65	1237.26
542.01	1240.81
542.37	1242.67
542.72	1243.62
543.08	1245.36
543.44	1247.90
543.79	1249.12
544.15	1252.21
544.51	1255.57
544.87	1258.26
545.22	1261.26
545.58	1262.40
545.94	1265.21
546.29	1266.83
546.65	1270.33
547.01	1271.81
547.36	1274.60
547.72	1276.43
548.07	1278.26
548.43	1280.71
548.79	1282.33
549.14	1285.33
549.50	1287.55
549.86	1290.40
550.21	1293.93
550.57	1297.62
550.92	1300.17
551.28	1304.00
551.64	1306.90
551.99	1309.57
552.35	1312.48
552.70	1314.64
553.06	1318.05
553.41	1320.12
553.77	1325.50
554.13	1328.38
554.48	1333.31
554.84	1337.00
555.19	1341.26
555.55	1345.79
555.90	1349.38
556.26	1354.14
556.61	1357.88
556.97	1360.64
557.32	1364.31
557.68	1367.98
558.03	1371.81
558.39	1375.43
558.74	1379.83
559.10	1382.14
559.45	1385.79
559.81	1390.50
560.16	1394.76
560.52	1399.00
560.87	1404.17
561.23	1406.79
561.58	1413.07
561.94	1415.83
562.29	1418.90
562.64	1424.14
563.00	1427.67
563.35	1432.57
563.71	1437.48
564.06	1442.48
564.42	1447.69
564.77	1453.36
565.12	1459.64
565.48	1466.74
565.83	1473.17
566.19	1477.36
566.54	1483.57
566.89	1489.14
567.25	1494.67
567.60	1501.83
567.96	1509.62
568.31	1516.33
568.66	1522.95
569.02	1526.26
569.37	1531.57
569.72	1537.36
570.08	1541.64
570.43	1547.14
570.78	1553.31
571.14	1558.36
571.49	1564.10
571.84	1569.12
572.20	1574.50
572.55	1579.40
572.90	1582.33
573.26	1586.21
573.61	1590.79
573.96	1595.79
574.31	1599.36
574.67	1603.29
575.02	1606.74
575.37	1608.05
575.72	1610.36
576.08	1614.21
576.43	1619.12
576.78	1622.74
577.13	1626.93
577.49	1630.57
577.84	1634.26
578.19	1637.74
578.54	1641.98
578.90	1646.05
579.25	1650.88
579.60	1652.62
579.95	1655.60
580.30	1659.24
580.66	1663.81
581.01	1668.26
581.36	1671.88
581.71	1676.93
582.06	1681.90
582.42	1684.40
582.77	1687.62
583.12	1691.40
583.47	1693.93
583.82	1696.86
584.17	1700.14
584.53	1704.45
584.88	1707.83
585.23	1711.50
585.58	1714.14
585.93	1716.36
586.28	1718.95
586.63	1721.55
586.98	1725.24
587.34	1728.88
587.69	1731.00
588.04	1733.38
588.39	1735.71
588.74	1736.81
589.09	1739.12
589.44	1738.93
589.79	1741.31
590.14	1744.69
590.49	1746.45
590.84	1748.38
591.19	1750.19
591.54	1752.57
591.89	1752.76
592.25	1755.88
592.60	1756.67
592.95	1759.17
593.30	1761.05
593.65	1762.12
594.00	1762.88
594.35	1770.12
594.70	1770.93
595.05	1771.71
595.40	1772.33
595.75	1772.71
596.10	1774.90
596.45	1775.45
596.80	1777.38
597.15	1778.79
597.50	1778.14
597.85	1779.60
598.19	1780.36
598.54	1780.90
598.89	1781.88
599.24	1783.86
599.59	1783.98
599.94	1784.52
600.29	1783.95
600.64	1784.02
600.99	1784.36
601.34	1784.74
601.69	1778.79
602.04	1777.57
602.39	1777.74
602.74	1777.67
603.08	1778.26
603.43	1779.10
603.78	1779.12
604.13	1779.05
604.48	1778.62
604.83	1779.93
605.18	1779.60
605.53	1779.10
605.87	1778.12
606.22	1777.43
606.57	1774.64
606.92	1772.02
607.27	1770.71
607.62	1770.69
607.96	1770.45
608.31	1769.48
608.66	1769.36
609.01	1768.24
609.36	1768.19
609.70	1766.81
610.05	1764.74
610.40	1762.17
610.75	1759.12
611.10	1757.40
611.44	1754.43
611.79	1751.93
612.14	1748.83
612.49	1746.19
612.83	1743.26
613.18	1741.45
613.53	1739.21
613.88	1736.74
614.22	1734.52
614.57	1731.31
614.92	1726.74
615.27	1722.71
615.61	1718.48
615.96	1713.86
616.31	1710.48
616.65	1708.19
617.00	1706.02
617.35	1703.86
617.70	1701.60
618.04	1698.33
618.39	1694.12
618.74	1691.93
619.08	1688.88
619.43	1686.00
619.78	1682.57
620.12	1679.95
620.47	1676.60
620.82	1672.10
621.16	1667.79
621.51	1664.71
621.85	1661.36
622.20	1658.29
622.55	1654.67
622.89	1652.07
623.24	1649.19
623.59	1645.31
623.93	1640.33
624.28	1635.62
624.62	1633.05
624.97	1630.10
625.32	1625.64
625.66	1621.83
626.01	1616.79
626.35	1613.43
626.70	1609.02
627.04	1605.86
627.39	1601.29
627.73	1598.02
628.08	1595.07
628.43	1592.05
628.77	1588.24
629.12	1584.45
629.46	1581.07
629.81	1577.02
630.15	1572.14
630.50	1567.57
630.84	1563.57
631.19	1558.62
631.53	1554.26
631.88	1547.19
632.22	1540.71
632.57	1537.55
632.91	1532.43
633.26	1528.81
633.60	1523.24
633.95	1518.19
634.29	1512.43
634.64	1508.29
634.98	1502.57
635.32	1497.52
635.67	1494.38
636.01	1489.83
636.36	1484.93
636.70	1481.10
637.05	1476.90
637.39	1472.55
637.73	1467.95
638.08	1464.55
638.42	1459.98
638.77	1456.14
639.11	1452.40
639.45	1447.52
639.80	1441.62
640.14	1437.19
640.49	1431.50
640.83	1426.33
641.17	1422.12
641.52	1416.93
641.86	1411.79
642.20	1407.17
642.55	1401.69
642.89	1394.98
643.23	1389.26
643.58	1385.10
643.92	1377.69
644.26	1371.88
644.61	1366.93
644.95	1361.48
645.29	1354.62
645.64	1349.26
645.98	1342.43
646.32	1336.90
646.66	1330.79
647.01	1325.21
647.35	1319.95
647.69	1314.45
648.04	1309.81
648.38	1303.93
648.72	1297.95
649.06	1292.43
649.41	1286.52
649.75	1280.33
650.09	1274.52
650.43	1268.81
650.78	1262.05
651.12	1256.45
651.46	1250.14
651.80	1243.21
652.14	1237.21
652.49	1232.36
652.83	1226.14
653.17	1220.02
653.51	1212.83
653.85	1207.81
654.20	1201.48
654.54	1194.62
654.88	1188.48
655.22	1182.29
655.56	1176.07
655.90	1170.38
656.25	1163.33
656.59	1157.26
656.93	1151.67
657.27	1146.33
657.61	1139.62
657.95	1133.90
658.29	1127.71
658.64	1122.02
658.98	1116.17
659.32	1109.02
659.66	1102.29
660.00	1096.57
660.34	1090.38
660.68	1085.26
661.02	1078.36
661.36	1072.26
661.70	1066.38
662.05	1060.50
662.39	1054.79
662.73	1048.93
663.07	1043.62
663.41	1038.64
663.75	1032.24
664.09	1027.10
664.43	1020.57
664.77	1014.69
665.11	1008.14
665.45	1002.69
665.79	996.86
666.13	990.83
666.47	985.33
666.81	979.67
667.15	974.14
667.49	969.88
667.83	964.55
668.17	959.57
668.51	954.50
668.85	949.26
669.19	944.40
669.53	938.29
669.87	932.60
670.21	926.79
670.55	920.74
670.89	915.90
671.23	909.81
671.57	904.95
671.91	899.45
672.25	894.76
672.58	890.33
672.92	884.74
673.26	879.88
673.60	875.29
673.94	869.95
674.28	865.07
674.62	859.76
674.96	854.55
675.30	849.50
675.64	844.05
675.97	839.43
676.31	834.07
676.65	828.83
676.99	825.14
677.33	819.48
677.67	814.71
678.01	809.43
678.34	804.64
678.68	800.74
679.02	795.90
679.36	790.24
679.70	784.69
680.04	779.69
680.37	774.60
680.71	769.76
681.05	764.79
681.39	759.79
681.73	754.62
682.06	749.29
682.40	745.21
682.74	741.07
683.08	736.81
683.42	731.36
683.75	726.74
684.09	720.67
684.43	716.69
684.77	711.88
685.10	707.07
685.44	701.98
685.78	696.17
686.12	692.05
686.45	687.64
686.79	682.83
687.13	679.00
687.46	674.62
687.80	670.38
688.14	666.38
688.48	661.98
688.81	657.12
689.15	653.67
689.49	648.71
689.82	644.38
690.16	638.45
690.50	633.95
690.83	629.50
691.17	625.07
691.51	620.17
691.84	616.33
692.18	612.40
692.52	608.38
692.85	605.00
693.19	601.67
693.52	597.26
693.86	592.86
694.20	588.19
694.53	584.02
694.87	579.43
695.21	575.12
695.54	570.62
695.88	566.31
696.21	561.33
696.55	557.31
696.88	553.24
697.22	549.45
697.56	546.19
697.89	542.12
698.23	539.05
698.56	535.45
698.90	531.90
699.23	527.95
699.57	524.36
699.90	520.05
700.24	515.38
700.58	512.14
700.91	509.10
701.25	507.62
701.58	505.07
701.92	502.71
702.25	499.12
702.59	495.79
702.92	492.98
703.26	489.74
703.59	486.52
703.93	485.10
704.26	482.43
704.60	479.24
704.93	476.36
705.26	472.55
705.60	470.29
705.93	466.62
706.27	464.29
706.60	461.67
706.94	459.60
707.27	456.43
707.61	453.67
707.94	450.74
708.27	445.83
708.61	442.07
708.94	438.19
709.28	435.81
709.61	433.14
709.94	430.62
710.28	428.38
710.61	426.00
710.95	421.45
711.28	420.67
711.61	418.48
711.95	416.60
712.28	414.14
712.61	411.10
712.95	409.67
713.28	407.90
713.61	405.36
713.95	402.31
714.28	400.50
714.61	397.90
714.95	395.55
715.28	393.60
715.61	391.50
715.95	389.71
716.28	387.38
716.61	385.45
716.95	383.05
717.28	380.43
717.61	377.90
717.94	375.95
718.28	372.26
718.61	370.12
718.94	367.48
719.27	365.71
719.61	364.05
719.94	361.64
720.27	358.69
720.60	356.67
720.94	354.79
721.27	353.14
721.60	351.90
721.93	350.24
722.27	349.17
722.60	347.64
722.93	345.69
723.26	344.26
723.59	342.64
723.93	341.43
724.26	340.33
724.59	339.02
724.92	337.90
725.25	337.29
725.59	335.62
725.92	334.48
726.25	333.05
726.58	331.67
726.91	330.31
727.24	329.29
727.57	328.17
727.91	326.52
728.24	324.90
728.57	323.24
728.90	322.07
729.23	320.21
729.56	319.90
729.89	318.76
730.22	317.24
730.55	315.88
730.89	314.31
731.22	312.64
731.55	311.45
731.88	310.29
732.21	308.50
732.54	307.29
732.87	306.10
733.20	305.24
733.53	304.10
733.86	303.24
734.19	301.86
734.52	300.88
734.85	301.60
735.18	300.64
735.51	300.60
735.84	299.86
736.17	299.12
736.50	297.14
736.83	298.86
737.16	297.95
737.49	296.95
737.82	296.38
738.15	296.10
738.48	295.21
738.81	294.10
739.14	292.69
739.47	291.76
739.80	291.02
740.13	290.10
740.46	288.90
740.79	287.60
741.12	286.69
741.45	285.57
741.78	283.14
742.11	282.81
742.44	281.07
742.77	280.43
743.10	279.36
743.43	278.57
743.75	275.40
744.08	276.88
744.41	276.14
744.74	275.07
745.07	273.95
745.40	273.55
745.73	273.36
746.06	273.17
746.39	272.79
746.71	271.81
747.04	270.93
747.37	270.31
747.70	270.21
748.03	269.79
748.36	269.31
748.68	269.05
749.01	267.40
749.34	266.90
749.67	266.17
750.00	265.98
750.33	266.86
750.65	266.64
750.98	263.67
751.31	263.19
751.64	262.76
751.97	263.36
752.29	262.64
752.62	261.17
752.95	260.38
753.28	259.48
753.60	258.98
753.93	258.81
754.26	258.50
754.59	257.26
754.91	256.60
755.24	256.05
755.57	255.40
755.90	255.21
756.22	254.76
756.55	253.98
756.88	252.83
757.20	250.90
757.53	249.48
757.86	249.05
758.19	248.62
758.51	248.21
758.84	246.67
759.17	246.05
759.49	245.74
759.82	246.07
760.15	245.62
760.47	244.98
760.80	243.95
761.13	243.81
761.45	243.43
761.78	242.93
762.11	242.74
762.43	242.07
762.76	241.74
763.08	241.67
763.41	241.45
763.74	241.31
764.06	240.93
764.39	240.90
764.71	240.38
765.04	239.90
765.37	239.52
765.69	239.00
766.02	238.57
766.34	238.26
766.67	237.52
767.00	237.76
767.32	238.64
767.65	239.95
767.97	239.38
768.30	239.36
768.62	238.98
768.95	238.43
769.27	238.19
769.60	238.19
769.92	237.45
770.25	236.93
770.57	236.45
770.90	236.33
771.22	236.00
771.55	236.12
771.87	235.95
772.20	235.57
772.52	237.29
772.85	239.33
773.17	239.07
773.50	238.55
773.82	237.83
774.15	236.76
774.47	235.12
774.80	234.64
775.12	234.26
775.45	234.19
775.77	233.90
776.09	234.00
776.42	233.57
776.74	233.71
777.07	233.36
777.39	233.29
777.72	232.71
778.04	232.76
778.36	232.48
778.69	232.33
779.01	232.31
779.33	230.24
779.66	227.88
779.98	227.76
780.31	227.50
780.63	228.48
780.95	228.26
781.28	228.21
781.60	228.05
781.92	227.76
782.25	227.38
782.57	227.36
782.89	226.93
783.22	226.88
783.54	226.62
783.86	226.79
784.19	226.43
784.51	227.12
784.83	226.67
785.16	226.33
785.48	226.14
785.80	225.90
786.12	225.88
786.45	225.64
786.77	225.67
787.09	225.52
787.42	224.67
787.74	224.79
788.06	224.60
788.38	224.31
788.71	224.12
789.03	224.43
789.35	224.48
789.67	224.33
789.99	224.17
790.32	223.69
790.64	223.55
790.96	225.33
791.28	224.36
791.61	224.12
791.93	223.95
792.25	223.69
792.57	224.83
792.89	224.48
793.21	224.55
793.54	224.10
793.86	223.90
794.18	223.83
794.50	223.38
794.82	223.40
795.14	223.83
795.47	224.19
795.79	224.07
796.11	223.67
796.43	223.36
796.75	223.40
797.07	223.67
797.39	223.52
797.71	221.98
798.04	222.12
798.36	222.29
798.68	222.31
799.00	222.60
799.32	221.67
799.64	222.02
799.96	221.93
800.28	222.40
800.60	222.12
800.92	222.02
801.24	221.76
801.56	221.79
801.89	221.50
802.21	221.50
802.53	221.12
802.85	221.36
803.17	222.21
803.49	221.67
803.81	221.29
804.13	221.02
804.45	220.33
804.77	220.43
805.09	220.33
805.41	220.21
805.73	219.67
806.05	219.17
806.37	218.90
806.69	218.83
807.01	218.55
807.33	218.76
807.65	217.93
807.97	219.05
808.28	218.81
808.60	218.67
808.92	218.40
809.24	219.45
809.56	219.10
809.88	218.45
810.20	218.74
810.52	219.05
810.84	218.76
811.16	218.86
811.48	218.55
811.80	219.24
812.12	219.14
812.43	219.38
812.75	219.81
813.07	219.55
813.39	219.55
813.71	219.31
814.03	219.14
814.35	219.43
814.67	218.38
814.98	218.21
815.30	218.10
815.62	217.64
815.94	216.45
816.26	216.52
816.58	216.07
816.89	215.76
817.21	215.24
817.53	215.31
817.85	215.48
818.17	215.55
818.48	214.83
818.80	215.10
819.12	214.95
819.44	214.31
819.76	214.12
820.07	214.21
820.39	214.14
820.71	214.31
821.03	214.31
821.34	214.24
821.66	214.69
821.98	215.12
822.30	215.05
822.61	216.26
822.93	216.02
823.25	215.90
823.57	215.93
823.88	216.17
824.20	216.38
824.52	216.64
824.83	216.31
825.15	216.10
825.47	216.10
825.79	216.00
826.10	215.98
826.42	215.93
826.74	216.14
827.05	216.00
827.37	216.05
827.69	215.90
828.00	215.88
828.32	215.60
828.64	215.05
828.95	216.14
829.27	215.29
829.58	215.45
829.90	215.93
830.22	216.02
830.53	215.86
830.85	215.52
831.17	215.00
831.48	215.19
831.80	215.26
832.11	215.05
832.43	214.95
832.75	214.83
833.06	216.10
833.38	215.24
833.69	215.21
834.01	215.21
834.32	215.31
834.64	215.10
834.96	215.07
835.27	215.24
835.59	214.36
835.90	213.95
836.22	213.79
836.53	213.33
836.85	213.31
837.16	215.31
837.48	215.43
837.79	216.14
838.11	216.17
838.42	216.14
838.74	216.17
839.05	216.12
839.37	216.21
839.68	215.02
840.00	215.12
840.31	215.38
840.63	215.12
840.94	215.00
841.26	214.90
841.57	214.95
841.88	214.90
842.20	214.76
842.51	214.86
842.83	214.86
843.14	216.60
843.46	216.62
843.77	215.52
844.08	215.33
844.40	214.67
844.71	214.62
845.03	214.52
845.34	214.48
845.65	214.45
845.97	214.67
846.28	214.62
846.60	214.71
846.91	214.36
847.22	214.60
847.54	214.74
847.85	214.76
848.16	214.36
848.48	214.10
848.79	215.02
849.10	215.14
849.42	215.31
849.73	213.55
850.04	213.19
850.36	212.26
850.67	212.81
850.98	212.76
851.30	212.81
851.61	212.52
851.92	212.67
852.23	213.38
852.55	213.21
852.86	213.48
853.17	213.69
853.49	214.17
853.80	214.29
854.11	214.57
854.42	215.10
854.74	215.19
855.05	215.43
855.36	214.38
855.67	214.40
855.99	214.14
856.30	216.90
856.61	216.95
856.92	217.00
857.23	216.79
857.55	216.83
857.86	216.76
858.17	217.43
858.48	217.00
858.79	216.48
859.11	216.86
859.42	216.64
859.73	216.19
860.04	216.12
860.35	215.55
860.66	215.02
860.98	214.90
861.29	215.12
861.60	214.71
861.91	215.29
862.22	214.95
862.53	214.93
862.84	212.12
863.16	212.76
863.47	212.45
863.78	212.29
864.09	212.24
864.40	212.36
864.71	212.19
865.02	212.52
865.33	212.24
865.64	211.62
865.95	211.74
866.27	213.14
866.58	212.90
866.89	213.21
867.20	213.29
867.51	212.74
867.82	212.60
868.13	213.38
868.44	212.79
868.75	213.31
869.06	213.36
869.37	213.74
869.68	213.07
869.99	213.45
870.30	213.57
870.61	213.86
870.92	213.62
871.23	213.40
871.54	213.36
871.85	213.93
872.16	214.29
872.47	214.02
872.78	212.86
873.09	213.17
873.40	212.95
873.71	213.00
874.02	213.33
874.33	213.05
874.64	212.62
874.95	212.88
875.26	212.36
875.56	212.19
875.87	211.88
876.18	212.00
876.49	213.95
876.80	213.60
877.11	213.29
877.42	213.12
877.73	213.31
878.04	213.21
878.35	213.07
878.66	212.95
878.96	213.00
879.27	213.07
879.58	212.93
879.89	212.86
880.20	213.48
880.51	213.33
880.82	213.36
881.12	213.43
881.43	212.98
881.74	212.90
882.05	213.02
882.36	213.31
882.67	213.24
882.97	211.31
883.28	211.43
883.59	211.40
883.90	211.55
884.21	211.76
884.51	211.74
884.82	211.26
885.13	211.10
885.44	210.90
885.74	210.71
886.05	210.52
886.36	210.62
886.67	209.86
886.98	211.05
887.28	211.38
887.59	211.21
887.90	211.50
888.20	211.45
888.51	211.71
888.82	211.52
889.13	211.64
889.43	212.95
889.74	212.93
890.05	212.74
890.35	212.71
890.66	212.24
890.97	212.14
891.28	212.02
891.58	212.26
891.89	212.29
892.20	212.21
892.50	212.10
892.81	211.95
893.12	211.93
893.42	210.93
893.73	211.05
894.04	211.02
894.34	210.95
894.65	211.07
894.95	210.64
895.26	210.76
895.57	211.83
895.87	210.10
896.18	210.55
896.48	210.95
896.79	211.12
897.10	211.55
897.40	211.55
897.71	211.93
898.01	211.81
898.32	212.05
898.63	212.07
898.93	212.19
899.24	212.33
899.54	212.24
899.85	212.07
900.15	211.95
900.46	212.02
900.76	212.31
901.07	211.93
901.38	211.95
901.68	212.19
901.99	211.17
902.29	211.55
902.60	211.17
902.90	210.74
903.21	210.76
903.51	210.55
903.82	211.07
904.12	211.00
904.43	211.12
904.73	211.29
905.03	211.50
905.34	213.45
905.64	213.19
905.95	213.24
906.25	213.19
906.56	212.95
906.86	213.05
907.17	213.00
907.47	213.26
907.77	213.31
908.08	212.69
908.38	212.69
908.69	212.74
908.99	213.21
909.30	213.40
909.60	213.38
909.90	213.50
910.21	212.76
910.51	212.50
910.81	212.45
911.12	212.60
911.42	212.74
911.73	210.64
912.03	211.02
912.33	211.52
912.64	211.60
912.94	211.81
913.24	211.55
913.55	211.55
913.85	211.57
914.15	211.90
914.46	212.38
914.76	212.33
915.06	212.07
915.37	211.79
915.67	211.60
915.97	211.45
916.27	210.90
916.58	211.17
916.88	211.21
917.18	211.12
917.49	212.17
917.79	211.88
918.09	212.29
918.39	212.67
918.70	212.33
919.00	212.45
919.30	213.21
919.60	213.10
919.91	212.64
920.21	213.00
920.51	212.67
920.81	212.43
921.12	212.62
921.42	212.67
921.72	212.71
922.02	212.90
922.32	213.21
922.63	213.29
922.93	214.17
923.23	214.33
923.53	214.24
923.83	212.86
924.13	212.93
924.44	212.98
924.74	213.26
925.04	213.83
925.34	213.57
925.64	212.67
925.94	212.81
926.24	213.86
926.55	213.48
926.85	213.81
927.15	213.88
927.45	213.90
927.75	214.00
928.05	214.12
928.35	214.12
928.65	214.67
928.95	215.00
929.26	214.21
929.56	214.45
929.86	214.71
930.16	214.62
930.46	214.60
930.76	214.45
931.06	213.62
931.36	213.02
931.66	213.26
931.96	213.43
932.26	213.31
932.56	212.76
932.86	212.69
933.16	212.52
933.46	212.29
933.76	212.12
934.06	212.57
934.36	213.29
934.66	213.05
934.96	212.69
935.26	212.64
935.56	213.07
935.86	212.62
936.16	212.43
936.46	212.29
936.76	212.12
937.06	211.93
937.36	212.02
937.66	212.10
937.96	212.38
938.26	211.93
938.56	211.90
938.86	212.00
939.16	212.45
939.46	212.55
939.76	212.50
940.06	212.43
940.35	211.62
940.65	210.45
940.95	210.79
941.25	210.14
941.55	209.86
941.85	209.50
942.15	210.00
942.45	210.55
942.75	210.50
943.04	210.55
943.34	210.86
943.64	210.57
943.94	210.29
944.24	210.17
944.54	210.50
944.84	210.36
945.13	210.10
945.43	209.76
945.73	209.67
946.03	209.74
946.33	209.24
946.62	209.36
946.92	209.36
947.22	209.26
947.52	209.43
947.82	209.98
948.11	209.93
948.41	209.43
948.71	208.83
949.01	209.26
949.31	209.19
949.60	209.33
949.90	209.60
950.20	209.64
950.50	209.55
950.79	209.36
951.09	209.93
951.39	209.69
951.69	209.50
951.98	209.83
952.28	210.00
952.58	210.33
952.87	210.36
953.17	210.64
953.47	210.50
953.76	210.40
954.06	209.71
954.36	209.45
954.66	209.52
954.95	210.14
955.25	210.00
955.55	210.21
955.84	209.64
956.14	209.76
956.44	209.79
956.73	209.48
957.03	209.62
957.32	209.33
957.62	209.43
957.92	210.02
958.21	209.88
958.51	212.36
958.81	212.81
959.10	213.05
959.40	213.31
959.69	213.55
959.99	213.95
960.29	214.31
960.58	214.19
960.88	215.00
961.17	214.60
961.47	214.74
961.76	214.74
962.06	215.19
962.36	215.19
962.65	215.33
962.95	215.48
963.24	215.10
963.54	215.38
963.83	215.55
964.13	215.21
964.42	214.55
964.72	212.55
965.01	212.26
965.31	212.29
965.60	212.10
965.90	213.33
966.19	212.93
966.49	212.86
966.78	212.90
967.08	212.60
967.37	212.64
967.67	212.36
967.96	212.31
968.26	212.14
968.55	212.07
968.85	212.07
969.14	212.19
969.43	212.31
969.73	212.17
970.02	211.93
970.32	211.86
970.61	212.10
970.91	211.52
971.20	211.24
971.49	210.90
971.79	210.90
972.08	209.52
972.38	209.52
972.67	209.69
972.96	209.98
973.26	209.62
973.55	210.07
973.85	210.12
974.14	210.05
974.43	210.12
974.73	210.14
975.02	209.88
975.31	209.83
975.61	210.07
975.90	209.74
976.19	209.71
976.49	210.05
976.78	210.07
977.07	210.02
977.37	210.26
977.66	210.71
977.95	210.40
978.24	210.48
978.54	211.07
978.83	210.74
979.12	210.55
979.42	210.60
979.71	210.40
980.00	210.38
980.29	210.74
980.59	210.31
980.88	210.81
981.17	210.98
981.46	210.98
981.76	210.62
982.05	211.45
982.34	211.38
982.63	211.26
982.93	211.45
983.22	212.19
983.51	212.14
983.80	212.21
984.09	212.67
984.39	212.50
984.68	212.17
984.97	212.55
985.26	212.67
985.55	212.69
985.85	212.14
986.14	212.64
986.43	212.86
986.72	212.93
987.01	212.19
987.30	212.12
987.59	211.76
987.89	211.95
988.18	211.29
988.47	211.48
988.76	211.26
989.05	211.10
989.34	210.69
989.63	211.45
989.92	211.07
990.22	210.40
990.51	210.45
990.80	210.43
991.09	210.50
991.38	210.62
991.67	210.81
991.96	210.83
992.25	210.76
992.54	210.17
992.83	210.21
993.12	210.31
993.41	210.60
993.70	211.67
993.99	212.17
994.28	212.43
994.58	212.79
994.87	212.76
995.16	212.64
995.45	212.62
995.74	211.81
996.03	212.33
996.32	213.02
996.61	213.40
996.90	213.26
997.19	212.98
997.48	212.98
997.77	212.57
998.06	212.83
998.34	212.67
998.63	212.79
998.92	213.07
999.21	213.26
999.50	213.33
999.79	212.62
1000.08	212.33
1000.37	212.14
1000.66	211.55
1000.95	211.86
1001.24	212.00
1001.53	212.10
1001.82	211.93
1002.11	211.24
1002.40	211.31
1002.68	211.69
1002.97	212.98
1003.26	212.81
1003.55	212.45
1003.84	212.71
1004.13	213.26
1004.42	212.98
1004.71	213.12
1004.99	212.57
1005.28	213.10
1005.57	212.90
1005.86	212.62
1006.15	212.81
1006.44	212.81
1006.72	213.17
1007.01	212.90
1007.30	213.02
1007.59	212.98
1007.88	212.98
1008.17	213.19
1008.45	212.71
1008.74	211.88
1009.03	210.95
1009.32	211.12
1009.60	211.17
1009.89	210.83
1010.18	209.83
1010.47	210.02
1010.76	209.76
1011.04	210.02
1011.33	210.33
1011.62	210.45
1011.91	210.55
1012.19	210.33
1012.48	210.14
1012.77	210.12
1013.05	211.02
1013.34	210.90
1013.63	210.64
1013.92	210.81
1014.20	210.83
1014.49	211.07
1014.78	211.12
1015.06	210.64
1015.35	210.62
1015.64	210.81
1015.92	211.05
1016.21	211.36
1016.50	211.29
1016.78	211.57
1017.07	211.55
1017.36	210.69
1017.64	210.43
1017.93	210.74
1018.22	210.55
1018.50	210.52
1018.79	210.62
1019.08	209.57
1019.36	209.71
1019.65	209.86
1019.93	210.36
1020.22	210.50
1020.51	211.55
1020.79	211.52
1021.08	206.50
1021.36	205.50
1021.65	213.00
1021.94	207.50
1022.22	211.50
1022.51	212.50
1022.79	218.50
1023.08	213.00
1023.36	236.50
1023.65	206.00
>>>>>End Processed Spectral Data<<<<<
