SpectraSuite Data File
++++++++++++++++++++++++++++++++++++
Date: Tue Apr 02 18:41:01 EDT 2013
User: group
Dark Spectrum Present: No
Reference Spectrum Present: No
Number of Sampled Component Spectra: 1
Spectrometers: USB2E7196
Integration Time (usec): 580000 (USB2E7196)
Spectra Averaged: 2 (USB2E7196)
Boxcar Smoothing: 10 (USB2E7196)
Correct for Electrical Dark: No (USB2E7196)
Strobe/Lamp Enabled: No (USB2E7196)
Correct for Detector Non-linearity: No (USB2E7196)
Correct for Stray Light: No (USB2E7196)
Number of Pixels in Processed Spectrum: 2048
>>>>>Begin Processed Spectral Data<<<<<
339.09	0.00
339.48	193.00
339.86	198.00
340.24	196.50
340.63	197.00
341.01	235.00
341.39	204.00
341.78	205.00
342.16	217.00
342.54	203.50
342.93	199.19
343.31	208.88
343.69	209.40
344.07	209.76
344.46	210.57
344.84	211.29
345.22	209.88
345.60	210.17
345.99	210.38
346.37	210.02
346.75	210.10
347.13	209.90
347.52	210.12
347.90	210.93
348.28	210.86
348.66	211.38
349.05	210.45
349.43	210.76
349.81	210.60
350.19	210.60
350.57	210.95
350.96	211.12
351.34	211.52
351.72	211.71
352.10	211.90
352.48	211.48
352.87	211.33
353.25	211.48
353.63	211.40
354.01	211.36
354.39	211.55
354.77	211.69
355.15	212.24
355.54	211.90
355.92	210.98
356.30	210.98
356.68	212.55
357.06	212.67
357.44	212.21
357.82	212.33
358.20	212.83
358.58	212.71
358.97	212.79
359.35	213.12
359.73	213.36
360.11	213.36
360.49	213.55
360.87	213.40
361.25	213.55
361.63	214.14
362.01	214.33
362.39	214.07
362.77	214.29
363.15	214.02
363.53	214.05
363.91	214.26
364.29	214.36
364.67	212.29
365.05	212.36
365.43	212.67
365.81	212.67
366.19	213.05
366.57	213.76
366.95	213.67
367.33	213.17
367.71	213.17
368.09	213.55
368.47	213.50
368.85	213.64
369.23	214.24
369.61	213.43
369.99	214.10
370.37	214.57
370.75	215.38
371.13	215.19
371.51	215.17
371.89	215.19
372.27	215.17
372.65	215.43
373.03	215.60
373.41	215.36
373.78	215.33
374.16	214.29
374.54	213.67
374.92	213.50
375.30	213.64
375.68	213.36
376.06	213.43
376.44	213.43
376.82	213.62
377.19	213.33
377.57	213.43
377.95	212.67
378.33	212.45
378.71	211.45
379.09	211.76
379.47	211.95
379.84	211.95
380.22	211.76
380.60	211.38
380.98	211.29
381.36	211.45
381.73	211.31
382.11	211.74
382.49	211.81
382.87	211.62
383.25	211.55
383.62	213.98
384.00	213.57
384.38	213.55
384.76	214.00
385.13	214.88
385.51	214.88
385.89	214.69
386.27	214.90
386.64	215.19
387.02	214.93
387.40	214.76
387.78	215.00
388.15	215.21
388.53	215.19
388.91	215.07
389.29	214.79
389.66	214.98
390.04	214.93
390.42	215.21
390.79	215.48
391.17	215.43
391.55	213.21
391.92	213.21
392.30	213.81
392.68	213.36
393.05	213.31
393.43	213.86
393.81	214.36
394.18	213.90
394.56	214.00
394.94	214.79
395.31	214.52
395.69	215.19
396.06	215.52
396.44	215.86
396.82	216.02
397.19	217.17
397.57	217.19
397.95	217.79
398.32	217.43
398.70	217.74
399.07	218.33
399.45	218.19
399.82	218.43
400.20	218.24
400.58	218.21
400.95	217.24
401.33	217.57
401.70	218.83
402.08	219.14
402.45	219.12
402.83	219.40
403.20	220.10
403.58	219.90
403.95	220.64
404.33	221.00
404.71	221.36
405.08	222.67
405.46	222.93
405.83	223.07
406.21	223.48
406.58	223.88
406.96	224.00
407.33	224.81
407.70	225.45
408.08	227.55
408.45	228.48
408.83	229.55
409.20	229.76
409.58	229.29
409.95	230.40
410.33	231.48
410.70	231.71
411.08	232.79
411.45	233.62
411.82	234.24
412.20	235.95
412.57	238.19
412.95	237.64
413.32	239.43
413.69	240.93
414.07	242.76
414.44	244.62
414.82	246.90
415.19	249.29
415.56	251.50
415.94	252.69
416.31	255.45
416.68	258.43
417.06	262.02
417.43	265.74
417.81	269.43
418.18	273.55
418.55	277.55
418.93	281.76
419.30	286.00
419.67	290.79
420.04	295.12
420.42	299.48
420.79	306.90
421.16	313.17
421.54	320.40
421.91	326.83
422.28	333.24
422.66	340.17
423.03	348.40
423.40	355.60
423.77	363.17
424.15	371.07
424.52	379.12
424.89	388.17
425.26	396.19
425.64	403.88
426.01	412.02
426.38	421.45
426.75	431.19
427.13	441.12
427.50	451.12
427.87	461.43
428.24	471.74
428.61	480.71
428.99	491.69
429.36	502.31
429.73	513.74
430.10	525.79
430.47	537.71
430.85	548.17
431.22	561.24
431.59	576.45
431.96	589.93
432.33	603.95
432.70	617.29
433.08	633.67
433.45	649.69
433.82	666.02
434.19	683.14
434.56	700.50
434.93	716.86
435.30	733.81
435.68	752.36
436.05	771.00
436.42	788.17
436.79	805.24
437.16	824.26
437.53	843.31
437.90	861.38
438.27	879.74
438.64	899.45
439.01	917.33
439.38	931.88
439.75	946.43
440.13	964.81
440.50	981.74
440.87	995.83
441.24	1009.64
441.61	1024.55
441.98	1036.67
442.35	1049.36
442.72	1062.62
443.09	1075.21
443.46	1083.31
443.83	1088.17
444.20	1094.00
444.57	1099.31
444.94	1102.17
445.31	1105.86
445.68	1112.26
446.05	1114.00
446.42	1112.81
446.79	1112.02
447.16	1110.02
447.53	1109.48
447.90	1102.64
448.27	1096.14
448.64	1086.43
449.01	1080.00
449.37	1068.36
449.74	1056.64
450.11	1045.02
450.48	1029.69
450.85	1013.98
451.22	1000.71
451.59	988.93
451.96	976.43
452.33	961.02
452.70	945.88
453.07	927.79
453.43	907.02
453.80	890.05
454.17	873.43
454.54	856.55
454.91	839.69
455.28	822.95
455.65	806.76
456.02	794.21
456.38	781.40
456.75	764.83
457.12	751.02
457.49	737.60
457.86	722.50
458.23	712.40
458.59	700.43
458.96	687.60
459.33	675.90
459.70	665.19
460.07	656.02
460.43	646.05
460.80	636.93
461.17	629.14
461.54	620.26
461.91	611.93
462.27	603.67
462.64	595.90
463.01	588.12
463.38	581.64
463.74	570.62
464.11	563.52
464.48	558.07
464.85	551.86
465.21	546.98
465.58	541.36
465.95	534.74
466.32	529.64
466.68	524.43
467.05	519.21
467.42	513.74
467.78	508.48
468.15	503.05
468.52	499.43
468.88	493.36
469.25	488.21
469.62	484.81
469.98	481.00
470.35	477.69
470.72	473.83
471.08	469.07
471.45	466.40
471.82	463.81
472.18	460.43
472.55	457.79
472.92	454.26
473.28	451.86
473.65	448.62
474.02	445.45
474.38	443.43
474.75	441.14
475.11	438.48
475.48	437.02
475.85	435.45
476.21	433.26
476.58	432.21
476.94	431.62
477.31	429.76
477.67	428.50
478.04	427.64
478.41	426.71
478.77	428.14
479.14	427.21
479.50	426.17
479.87	425.57
480.23	425.10
480.60	424.71
480.96	424.64
481.33	425.40
481.69	425.60
482.06	425.69
482.42	426.12
482.79	426.50
483.15	426.19
483.52	427.26
483.88	427.86
484.25	428.83
484.61	429.10
484.98	429.81
485.34	431.26
485.71	432.50
486.07	434.14
486.44	433.86
486.80	435.19
487.17	436.55
487.53	438.67
487.90	440.48
488.26	443.93
488.62	446.19
488.99	448.07
489.35	450.43
489.72	453.10
490.08	456.17
490.44	459.14
490.81	462.60
491.17	465.12
491.54	468.88
491.90	472.60
492.26	476.45
492.63	480.40
492.99	483.40
493.36	487.64
493.72	492.29
494.08	496.90
494.45	502.10
494.81	507.29
495.17	511.90
495.54	517.52
495.90	521.79
496.26	527.29
496.63	532.90
496.99	538.71
497.35	544.64
497.72	550.67
498.08	556.62
498.44	563.05
498.80	570.24
499.17	576.38
499.53	582.67
499.89	590.05
500.26	596.98
500.62	604.45
500.98	612.24
501.34	618.83
501.71	626.57
502.07	633.74
502.43	641.36
502.79	649.26
503.16	656.64
503.52	663.74
503.88	670.98
504.24	678.62
504.60	686.67
504.97	694.71
505.33	702.69
505.69	711.64
506.05	719.74
506.41	727.43
506.78	735.14
507.14	743.29
507.50	750.81
507.86	759.29
508.22	767.55
508.59	774.95
508.95	782.98
509.31	791.48
509.67	799.71
510.03	807.79
510.39	815.48
510.75	823.29
511.12	831.33
511.48	839.83
511.84	848.10
512.20	856.07
512.56	863.43
512.92	871.62
513.28	879.50
513.64	887.33
514.00	895.45
514.37	903.76
514.73	911.67
515.09	920.07
515.45	927.10
515.81	934.24
516.17	941.74
516.53	949.00
516.89	955.71
517.25	962.19
517.61	969.21
517.97	975.98
518.33	983.07
518.69	990.62
519.05	997.60
519.41	1004.48
519.77	1012.05
520.13	1018.83
520.49	1024.62
520.85	1031.00
521.21	1038.07
521.57	1044.19
521.93	1049.48
522.29	1055.00
522.65	1060.33
523.01	1066.93
523.37	1072.90
523.73	1078.55
524.09	1084.93
524.45	1089.52
524.81	1094.95
525.17	1100.55
525.53	1105.74
525.89	1110.76
526.25	1115.88
526.61	1120.55
526.97	1125.31
527.33	1129.88
527.68	1136.36
528.04	1141.24
528.40	1146.12
528.76	1150.52
529.12	1154.60
529.48	1161.07
529.84	1165.64
530.20	1170.76
530.56	1175.10
530.91	1179.76
531.27	1184.62
531.63	1189.05
531.99	1193.83
532.35	1199.07
532.71	1203.10
533.07	1208.00
533.42	1215.26
533.78	1219.88
534.14	1224.86
534.50	1228.55
534.86	1233.69
535.21	1236.40
535.57	1242.17
535.93	1245.21
536.29	1250.17
536.65	1255.48
537.00	1258.40
537.36	1263.33
537.72	1267.10
538.08	1271.95
538.44	1275.88
538.79	1279.81
539.15	1283.12
539.51	1287.26
539.87	1291.02
540.22	1295.12
540.58	1299.43
540.94	1300.93
541.29	1304.31
541.65	1307.07
542.01	1312.17
542.37	1314.07
542.72	1317.33
543.08	1318.74
543.44	1322.95
543.79	1324.55
544.15	1327.21
544.51	1331.52
544.87	1335.33
545.22	1340.38
545.58	1343.02
545.94	1346.62
546.29	1349.24
546.65	1353.05
547.01	1356.55
547.36	1359.93
547.72	1363.52
548.07	1366.33
548.43	1369.33
548.79	1372.43
549.14	1375.05
549.50	1377.07
549.86	1380.52
550.21	1384.67
550.57	1389.45
550.92	1392.86
551.28	1397.43
551.64	1401.21
551.99	1404.26
552.35	1407.05
552.70	1409.31
553.06	1412.71
553.41	1416.14
553.77	1422.00
554.13	1425.98
554.48	1430.93
554.84	1435.81
555.19	1440.10
555.55	1445.62
555.90	1450.14
556.26	1455.12
556.61	1459.81
556.97	1464.00
557.32	1469.45
557.68	1473.90
558.03	1477.71
558.39	1481.86
558.74	1486.81
559.10	1490.81
559.45	1495.07
559.81	1500.69
560.16	1504.81
560.52	1509.86
560.87	1514.83
561.23	1517.55
561.58	1522.86
561.94	1526.64
562.29	1530.21
562.64	1534.86
563.00	1538.24
563.35	1542.93
563.71	1547.14
564.06	1552.83
564.42	1558.19
564.77	1563.12
565.12	1568.98
565.48	1576.36
565.83	1582.90
566.19	1588.38
566.54	1594.67
566.89	1600.36
567.25	1606.17
567.60	1613.38
567.96	1620.81
568.31	1627.57
568.66	1634.05
569.02	1638.19
569.37	1643.55
569.72	1649.52
570.08	1654.57
570.43	1659.02
570.78	1663.43
571.14	1669.64
571.49	1674.67
571.84	1680.17
572.20	1684.67
572.55	1689.07
572.90	1691.71
573.26	1695.48
573.61	1698.95
573.96	1703.33
574.31	1708.02
574.67	1711.90
575.02	1714.48
575.37	1715.98
575.72	1717.31
576.08	1720.74
576.43	1725.10
576.78	1727.79
577.13	1730.93
577.49	1734.52
577.84	1739.19
578.19	1743.31
578.54	1746.76
578.90	1749.98
579.25	1753.14
579.60	1756.43
579.95	1758.19
580.30	1761.55
580.66	1764.00
581.01	1766.48
581.36	1767.86
581.71	1769.64
582.06	1772.55
582.42	1775.50
582.77	1778.67
583.12	1781.67
583.47	1783.81
583.82	1785.55
584.17	1788.19
584.53	1790.40
584.88	1791.76
585.23	1793.86
585.58	1795.05
585.93	1795.33
586.28	1797.14
586.63	1798.60
586.98	1799.93
587.34	1802.19
587.69	1802.38
588.04	1804.45
588.39	1805.45
588.74	1806.05
589.09	1807.45
589.44	1805.86
589.79	1806.29
590.14	1806.55
590.49	1807.36
590.84	1807.40
591.19	1808.45
591.54	1808.86
591.89	1808.43
592.25	1810.57
592.60	1809.48
592.95	1810.02
593.30	1810.93
593.65	1810.31
594.00	1809.74
594.35	1814.52
594.70	1813.43
595.05	1813.86
595.40	1812.40
595.75	1812.55
596.10	1813.36
596.45	1813.36
596.80	1814.07
597.15	1813.45
597.50	1812.45
597.85	1812.76
598.19	1812.48
598.54	1811.71
598.89	1810.95
599.24	1811.38
599.59	1809.60
599.94	1809.12
600.29	1807.83
600.64	1806.52
600.99	1806.00
601.34	1804.90
601.69	1798.55
602.04	1796.57
602.39	1794.98
602.74	1794.48
603.08	1792.14
603.43	1791.86
603.78	1789.50
604.13	1788.14
604.48	1785.60
604.83	1784.43
605.18	1783.07
605.53	1781.45
605.87	1778.95
606.22	1776.88
606.57	1773.52
606.92	1770.79
607.27	1769.62
607.62	1767.86
607.96	1766.07
608.31	1764.17
608.66	1761.57
609.01	1758.67
609.36	1757.05
609.70	1754.40
610.05	1750.64
610.40	1748.10
610.75	1742.90
611.10	1740.40
611.44	1736.26
611.79	1733.12
612.14	1728.95
612.49	1724.10
612.83	1719.93
613.18	1716.52
613.53	1712.17
613.88	1707.95
614.22	1703.57
614.57	1697.83
614.92	1692.48
615.27	1686.74
615.61	1680.95
615.96	1676.60
616.31	1671.52
616.65	1667.69
617.00	1662.69
617.35	1657.67
617.70	1653.10
618.04	1648.12
618.39	1642.36
618.74	1637.81
619.08	1632.31
619.43	1628.07
619.78	1622.48
620.12	1618.21
620.47	1613.74
620.82	1608.69
621.16	1603.38
621.51	1599.40
621.85	1594.55
622.20	1590.31
622.55	1585.24
622.89	1579.05
623.24	1573.86
623.59	1569.07
623.93	1563.43
624.28	1558.98
624.62	1556.90
624.97	1553.14
625.32	1549.57
625.66	1544.74
626.01	1539.14
626.35	1535.76
626.70	1530.67
627.04	1526.93
627.39	1521.14
627.73	1515.60
628.08	1511.33
628.43	1506.67
628.77	1501.17
629.12	1496.38
629.46	1492.24
629.81	1487.36
630.15	1482.86
630.50	1478.19
630.84	1472.93
631.19	1467.07
631.53	1460.67
631.88	1451.79
632.22	1444.14
632.57	1438.17
632.91	1432.19
633.26	1427.26
633.60	1420.69
633.95	1414.52
634.29	1407.86
634.64	1401.88
634.98	1395.48
635.32	1390.48
635.67	1385.57
636.01	1379.83
636.36	1373.74
636.70	1367.38
637.05	1361.90
637.39	1356.71
637.73	1350.48
638.08	1345.50
638.42	1340.21
638.77	1335.43
639.11	1331.21
639.45	1325.81
639.80	1319.26
640.14	1313.45
640.49	1307.36
640.83	1301.74
641.17	1296.26
641.52	1290.62
641.86	1285.55
642.20	1281.14
642.55	1273.95
642.89	1266.26
643.23	1259.95
643.58	1254.74
643.92	1247.90
644.26	1241.36
644.61	1235.62
644.95	1228.90
645.29	1221.76
645.64	1215.48
645.98	1208.83
646.32	1202.67
646.66	1196.50
647.01	1190.19
647.35	1184.38
647.69	1178.14
648.04	1171.33
648.38	1164.69
648.72	1158.17
649.06	1150.52
649.41	1142.90
649.75	1136.60
650.09	1131.00
650.43	1124.17
650.78	1117.21
651.12	1110.71
651.46	1104.57
651.80	1096.83
652.14	1091.12
652.49	1085.21
652.83	1079.43
653.17	1072.74
653.51	1065.69
653.85	1059.10
654.20	1052.74
654.54	1045.50
654.88	1038.71
655.22	1033.07
655.56	1025.81
655.90	1019.36
656.25	1013.71
656.59	1007.60
656.93	1001.38
657.27	995.90
657.61	989.17
657.95	983.26
658.29	976.64
658.64	970.31
658.98	964.43
659.32	957.76
659.66	951.43
660.00	944.40
660.34	937.67
660.68	931.81
661.02	925.90
661.36	919.79
661.70	914.48
662.05	908.98
662.39	903.26
662.73	898.26
663.07	893.64
663.41	887.31
663.75	880.55
664.09	875.02
664.43	868.33
664.77	862.98
665.11	856.14
665.45	850.90
665.79	845.62
666.13	840.45
666.47	834.43
666.81	827.93
667.15	822.45
667.49	818.10
667.83	813.10
668.17	807.48
668.51	802.48
668.85	796.64
669.19	791.86
669.53	785.60
669.87	779.93
670.21	773.67
670.55	768.45
670.89	764.45
671.23	758.74
671.57	753.86
671.91	748.98
672.25	744.14
672.58	739.93
672.92	734.17
673.26	729.07
673.60	724.48
673.94	720.02
674.28	715.38
674.62	710.48
674.96	705.36
675.30	701.12
675.64	695.86
675.97	691.60
676.31	686.24
676.65	682.00
676.99	678.45
677.33	673.90
677.67	669.88
678.01	664.64
678.34	660.07
678.68	656.17
679.02	651.43
679.36	647.26
679.70	641.93
680.04	637.93
680.37	633.67
680.71	629.55
681.05	625.74
681.39	621.45
681.73	617.12
682.06	612.93
682.40	608.74
682.74	605.24
683.08	601.83
683.42	597.71
683.75	593.40
684.09	588.67
684.43	584.17
684.77	579.67
685.10	575.81
685.44	572.05
685.78	567.62
686.12	563.62
686.45	559.57
686.79	555.86
687.13	552.10
687.46	547.98
687.80	544.26
688.14	540.12
688.48	536.29
688.81	532.69
689.15	529.50
689.49	525.43
689.82	521.52
690.16	516.83
690.50	513.05
690.83	509.50
691.17	505.29
691.51	501.74
691.84	498.74
692.18	495.26
692.52	491.88
692.85	489.07
693.19	486.74
693.52	483.62
693.86	480.00
694.20	476.79
694.53	473.48
694.87	469.90
695.21	466.62
695.54	463.21
695.88	459.36
696.21	454.69
696.55	451.81
696.88	448.67
697.22	445.69
697.56	443.07
697.89	439.64
698.23	437.31
698.56	434.43
698.90	431.69
699.23	428.69
699.57	425.93
699.90	422.67
700.24	419.00
700.58	416.79
700.91	414.60
701.25	413.26
701.58	411.43
701.92	409.64
702.25	407.33
702.59	404.86
702.92	402.76
703.26	400.79
703.59	398.57
703.93	398.00
704.26	395.95
704.60	393.79
704.93	391.98
705.26	389.57
705.60	388.02
705.93	385.29
706.27	383.57
706.60	382.10
706.94	380.98
707.27	378.88
707.61	376.57
707.94	374.31
708.27	370.76
708.61	368.12
708.94	365.69
709.28	363.74
709.61	361.86
709.94	359.88
710.28	358.14
710.61	355.81
710.95	352.10
711.28	351.62
711.61	349.71
711.95	348.19
712.28	346.07
712.61	344.02
712.95	343.83
713.28	343.05
713.61	340.79
713.95	338.40
714.28	337.17
714.61	335.07
714.95	333.55
715.28	331.95
715.61	330.45
715.95	329.17
716.28	327.69
716.61	326.67
716.95	325.19
717.28	323.83
717.61	322.52
717.94	321.52
718.28	318.79
718.61	317.14
718.94	315.43
719.27	314.40
719.61	313.14
719.94	310.93
720.27	308.60
720.60	307.26
720.94	305.88
721.27	304.38
721.60	303.60
721.93	302.26
722.27	301.93
722.60	301.21
722.93	300.02
723.26	298.90
723.59	297.14
723.93	296.50
724.26	295.55
724.59	294.64
724.92	293.76
725.25	293.33
725.59	292.19
725.92	291.62
726.25	290.48
726.58	289.74
726.91	288.74
727.24	288.55
727.57	287.57
727.91	286.60
728.24	286.29
728.57	285.33
728.90	284.95
729.23	283.50
729.56	283.38
729.89	282.60
730.22	282.02
730.55	281.57
730.89	280.67
731.22	279.98
731.55	279.12
731.88	278.33
732.21	277.12
732.54	276.69
732.87	275.86
733.20	275.50
733.53	274.76
733.86	274.14
734.19	272.74
734.52	272.43
734.85	273.36
735.18	272.07
735.51	272.10
735.84	271.52
736.17	271.38
736.50	269.74
736.83	271.48
737.16	270.60
737.49	270.19
737.82	269.24
738.15	268.88
738.48	268.45
738.81	267.71
739.14	267.07
739.47	266.17
739.80	265.43
740.13	264.88
740.46	264.05
740.79	263.26
741.12	262.69
741.45	262.00
741.78	260.26
742.11	260.31
742.44	259.19
742.77	259.02
743.10	258.02
743.43	257.33
743.75	254.45
744.08	256.52
744.41	255.57
744.74	255.05
745.07	254.21
745.40	253.74
745.73	254.17
746.06	253.71
746.39	253.95
746.71	253.36
747.04	252.62
747.37	252.10
747.70	252.02
748.03	251.81
748.36	251.50
748.68	251.10
749.01	250.14
749.34	249.88
749.67	249.43
750.00	249.29
750.33	250.62
750.65	250.74
750.98	247.60
751.31	247.50
751.64	247.26
751.97	248.02
752.29	247.69
752.62	246.36
752.95	245.93
753.28	244.98
753.60	244.74
753.93	245.19
754.26	245.00
754.59	244.17
754.91	243.62
755.24	243.00
755.57	242.43
755.90	242.26
756.22	241.79
756.55	241.05
756.88	240.21
757.20	238.57
757.53	237.31
757.86	237.36
758.19	237.14
758.51	236.93
758.84	235.26
759.17	234.86
759.49	234.74
759.82	235.40
760.15	235.45
760.47	234.88
760.80	233.86
761.13	233.88
761.45	233.57
761.78	233.17
762.11	232.86
762.43	232.69
762.76	232.19
763.08	232.24
763.41	232.00
763.74	231.90
764.06	231.67
764.39	231.95
764.71	231.52
765.04	231.29
765.37	231.02
765.69	230.95
766.02	230.76
766.34	230.26
766.67	229.19
767.00	229.17
767.32	230.17
767.65	231.21
767.97	230.88
768.30	230.64
768.62	230.57
768.95	230.33
769.27	230.14
769.60	230.43
769.92	229.98
770.25	229.69
770.57	229.29
770.90	228.93
771.22	228.17
771.55	228.00
771.87	227.50
772.20	227.36
772.52	228.88
772.85	231.21
773.17	231.21
773.50	231.19
773.82	230.57
774.15	229.52
774.47	228.07
774.80	227.69
775.12	227.55
775.45	227.52
775.77	227.38
776.09	227.48
776.42	227.26
776.74	227.69
777.07	227.38
777.39	227.52
777.72	227.52
778.04	227.90
778.36	227.90
778.69	228.17
779.01	228.19
779.33	226.31
779.66	223.93
779.98	223.52
780.31	223.40
780.63	224.19
780.95	224.57
781.28	224.64
781.60	224.33
781.92	224.26
782.25	223.88
782.57	223.98
782.89	223.45
783.22	223.33
783.54	222.76
783.86	223.17
784.19	222.88
784.51	223.21
784.83	222.81
785.16	222.36
785.48	222.21
785.80	221.90
786.12	222.24
786.45	221.93
786.77	222.21
787.09	221.81
787.42	221.02
787.74	220.76
788.06	220.71
788.38	220.67
788.71	220.29
789.03	220.45
789.35	220.43
789.67	220.07
789.99	219.76
790.32	219.43
790.64	219.26
790.96	220.95
791.28	220.14
791.61	220.12
791.93	220.38
792.25	220.14
792.57	221.45
792.89	220.81
793.21	221.02
793.54	220.83
793.86	220.79
794.18	220.79
794.50	220.57
794.82	220.38
795.14	220.64
795.47	221.02
795.79	220.88
796.11	220.74
796.43	220.76
796.75	220.88
797.07	220.98
797.39	220.74
797.71	219.07
798.04	219.33
798.36	219.36
798.68	219.26
799.00	219.24
799.32	218.05
799.64	218.55
799.96	218.31
800.28	218.50
800.60	218.14
800.92	218.19
801.24	217.79
801.56	218.02
801.89	217.88
802.21	218.07
802.53	217.81
802.85	218.19
803.17	219.21
803.49	218.76
803.81	218.55
804.13	218.64
804.45	218.69
804.77	218.71
805.09	218.57
805.41	218.36
805.73	218.29
806.05	217.79
806.37	217.71
806.69	217.43
807.01	217.36
807.33	217.74
807.65	217.17
807.97	218.31
808.28	218.02
808.60	217.69
808.92	217.29
809.24	218.60
809.56	218.10
809.88	217.38
810.20	217.45
810.52	218.00
810.84	217.50
811.16	217.19
811.48	217.10
811.80	217.83
812.12	217.81
812.43	217.93
812.75	218.40
813.07	217.93
813.39	218.12
813.71	217.98
814.03	218.00
814.35	218.19
814.67	217.40
814.98	217.45
815.30	217.57
815.62	217.38
815.94	215.95
816.26	216.10
816.58	215.79
816.89	216.02
817.21	215.40
817.53	215.64
817.85	215.71
818.17	215.57
818.48	214.90
818.80	215.36
819.12	215.36
819.44	214.79
819.76	214.64
820.07	214.62
820.39	214.40
820.71	214.43
821.03	214.26
821.34	214.17
821.66	214.26
821.98	214.52
822.30	214.36
822.61	215.79
822.93	215.40
823.25	215.21
823.57	215.19
823.88	215.50
824.20	215.57
824.52	215.93
824.83	215.95
825.15	215.62
825.47	215.33
825.79	215.38
826.10	215.40
826.42	215.55
826.74	215.83
827.05	215.76
827.37	215.57
827.69	215.69
828.00	215.69
828.32	215.52
828.64	215.26
828.95	216.45
829.27	215.71
829.58	215.88
829.90	216.14
830.22	216.12
830.53	215.60
830.85	215.21
831.17	214.67
831.48	214.71
831.80	214.74
832.11	214.60
832.43	214.24
832.75	214.24
833.06	215.36
833.38	214.81
833.69	214.81
834.01	215.00
834.32	214.79
834.64	214.60
834.96	214.76
835.27	214.71
835.59	214.00
835.90	213.48
836.22	213.26
836.53	212.86
836.85	212.76
837.16	215.14
837.48	215.38
837.79	216.12
838.11	216.19
838.42	216.26
838.74	216.69
839.05	216.50
839.37	216.60
839.68	215.48
840.00	215.48
840.31	215.76
840.63	215.57
840.94	215.36
841.26	215.26
841.57	214.98
841.88	215.26
842.20	214.79
842.51	214.71
842.83	215.00
843.14	217.02
843.46	216.98
843.77	215.76
844.08	215.55
844.40	214.90
844.71	214.60
845.03	214.62
845.34	214.29
845.65	214.50
845.97	214.45
846.28	214.36
846.60	214.38
846.91	214.02
847.22	214.00
847.54	214.79
847.85	214.86
848.16	214.98
848.48	214.48
848.79	215.52
849.10	215.88
849.42	215.67
849.73	213.76
850.04	213.57
850.36	212.67
850.67	212.95
850.98	213.02
851.30	213.26
851.61	213.00
851.92	212.88
852.23	213.17
852.55	213.33
852.86	213.43
853.17	213.64
853.49	214.14
853.80	214.57
854.11	214.55
854.42	214.74
854.74	214.45
855.05	214.33
855.36	213.12
855.67	213.07
855.99	213.17
856.30	215.83
856.61	215.86
856.92	215.88
857.23	215.93
857.55	215.57
857.86	215.60
858.17	216.07
858.48	216.12
858.79	215.90
859.11	215.90
859.42	215.88
859.73	215.64
860.04	215.38
860.35	214.76
860.66	214.02
860.98	213.98
861.29	214.21
861.60	214.45
861.91	215.05
862.22	214.69
862.53	214.50
862.84	211.76
863.16	212.45
863.47	212.19
863.78	211.90
864.09	212.36
864.40	212.43
864.71	212.33
865.02	212.36
865.33	212.12
865.64	211.86
865.95	211.88
866.27	213.14
866.58	213.12
866.89	213.31
867.20	213.31
867.51	212.98
867.82	212.86
868.13	213.52
868.44	212.98
868.75	213.60
869.06	213.60
869.37	213.88
869.68	213.07
869.99	213.31
870.30	213.52
870.61	213.48
870.92	213.14
871.23	212.95
871.54	213.31
871.85	213.69
872.16	213.98
872.47	213.57
872.78	212.33
873.09	212.38
873.40	212.31
873.71	212.43
874.02	212.55
874.33	212.24
874.64	211.74
874.95	212.33
875.26	211.81
875.56	211.74
875.87	211.74
876.18	211.55
876.49	213.57
876.80	213.38
877.11	212.88
877.42	212.86
877.73	212.81
878.04	212.50
878.35	212.48
878.66	212.50
878.96	212.81
879.27	213.02
879.58	212.88
879.89	212.95
880.20	213.62
880.51	213.55
880.82	213.74
881.12	213.74
881.43	213.21
881.74	212.90
882.05	213.02
882.36	213.05
882.67	213.29
882.97	211.12
883.28	210.98
883.59	211.12
883.90	211.21
884.21	211.57
884.51	211.50
884.82	211.29
885.13	211.24
885.44	211.14
885.74	210.88
886.05	210.83
886.36	210.74
886.67	209.88
886.98	211.07
887.28	211.24
887.59	211.07
887.90	211.31
888.20	211.48
888.51	211.83
888.82	211.60
889.13	211.95
889.43	213.67
889.74	213.62
890.05	213.57
890.35	213.57
890.66	213.67
890.97	213.57
891.28	213.43
891.58	213.48
891.89	213.57
892.20	213.48
892.50	213.24
892.81	212.95
893.12	213.24
893.42	212.24
893.73	212.29
894.04	212.62
894.34	212.69
894.65	212.64
894.95	212.43
895.26	212.55
895.57	213.36
895.87	211.69
896.18	212.02
896.48	212.26
896.79	212.31
897.10	212.33
897.40	212.43
897.71	212.48
898.01	212.29
898.32	212.48
898.63	212.40
898.93	212.86
899.24	213.14
899.54	213.05
899.85	213.02
900.15	213.05
900.46	212.81
900.76	212.86
901.07	212.69
901.38	212.69
901.68	212.76
901.99	211.64
902.29	211.76
902.60	211.81
902.90	211.71
903.21	211.64
903.51	211.50
903.82	211.79
904.12	211.79
904.43	212.00
904.73	211.81
905.03	212.14
905.34	214.00
905.64	213.83
905.95	213.86
906.25	213.74
906.56	213.52
906.86	213.60
907.17	213.52
907.47	213.74
907.77	213.43
908.08	213.10
908.38	213.29
908.69	213.33
908.99	213.67
909.30	213.76
909.60	213.98
909.90	214.07
910.21	213.48
910.51	213.40
910.81	213.60
911.12	213.74
911.42	213.79
911.73	211.69
912.03	211.83
912.33	212.05
912.64	212.12
912.94	212.07
913.24	211.69
913.55	211.69
913.85	211.64
914.15	212.07
914.46	212.36
914.76	212.17
915.06	212.12
915.37	211.55
915.67	211.45
915.97	211.19
916.27	210.93
916.58	211.14
916.88	210.93
917.18	210.81
917.49	212.10
917.79	211.76
918.09	211.95
918.39	212.38
918.70	212.40
919.00	212.38
919.30	213.24
919.60	213.19
919.91	212.88
920.21	212.86
920.51	212.31
920.81	212.31
921.12	212.71
921.42	212.79
921.72	213.02
922.02	213.14
922.32	213.76
922.63	213.69
922.93	214.64
923.23	215.00
923.53	214.52
923.83	213.10
924.13	213.52
924.44	213.71
924.74	214.17
925.04	214.69
925.34	214.52
925.64	213.67
925.94	213.69
926.24	214.88
926.55	214.88
926.85	215.38
927.15	215.17
927.45	215.21
927.75	215.14
928.05	215.02
928.35	215.00
928.65	215.05
928.95	215.31
929.26	214.67
929.56	215.10
929.86	215.40
930.16	215.55
930.46	215.07
930.76	215.12
931.06	214.05
931.36	213.64
931.66	214.26
931.96	214.43
932.26	214.79
932.56	213.86
932.86	213.90
933.16	214.10
933.46	214.07
933.76	213.57
934.06	214.00
934.36	214.79
934.66	214.64
934.96	214.33
935.26	214.50
935.56	214.67
935.86	214.07
936.16	213.79
936.46	213.38
936.76	213.62
937.06	213.17
937.36	213.64
937.66	213.60
937.96	213.26
938.26	213.00
938.56	212.81
938.86	212.98
939.16	213.55
939.46	213.52
939.76	213.45
940.06	213.52
940.35	213.12
940.65	212.02
940.95	211.88
941.25	211.38
941.55	210.86
941.85	210.74
942.15	210.98
942.45	211.55
942.75	211.64
943.04	211.71
943.34	212.02
943.64	211.69
943.94	211.38
944.24	211.38
944.54	211.67
944.84	211.57
945.13	211.17
945.43	210.79
945.73	210.81
946.03	210.67
946.33	210.55
946.62	210.55
946.92	210.74
947.22	211.07
947.52	211.24
947.82	211.57
948.11	211.24
948.41	210.83
948.71	210.40
949.01	210.52
949.31	210.29
949.60	210.24
949.90	210.36
950.20	210.38
950.50	210.31
950.79	210.21
951.09	210.48
951.39	210.64
951.69	210.36
951.98	210.52
952.28	210.90
952.58	210.93
952.87	210.57
953.17	210.83
953.47	210.55
953.76	210.76
954.06	210.43
954.36	210.31
954.66	210.36
954.95	210.88
955.25	211.07
955.55	211.24
955.84	210.93
956.14	211.10
956.44	211.21
956.73	211.00
957.03	210.98
957.32	211.02
957.62	210.74
957.92	211.17
958.21	210.81
958.51	213.21
958.81	213.38
959.10	213.86
959.40	214.29
959.69	214.45
959.99	214.52
960.29	214.57
960.58	214.67
960.88	215.60
961.17	215.21
961.47	215.36
961.76	215.29
962.06	215.67
962.36	215.40
962.65	215.45
962.95	215.24
963.24	215.19
963.54	215.19
963.83	215.60
964.13	215.38
964.42	214.90
964.72	213.12
965.01	213.31
965.31	213.00
965.60	212.50
965.90	213.74
966.19	213.24
966.49	213.40
966.78	213.21
967.08	212.76
967.37	212.81
967.67	212.36
967.96	212.57
968.26	212.33
968.55	212.57
968.85	212.45
969.14	212.74
969.43	212.71
969.73	212.62
970.02	212.26
970.32	212.21
970.61	212.40
970.91	211.76
971.20	211.55
971.49	211.40
971.79	211.55
972.08	210.17
972.38	210.55
972.67	210.29
972.96	210.74
973.26	210.62
973.55	211.24
973.85	211.24
974.14	211.29
974.43	211.48
974.73	211.26
975.02	211.07
975.31	211.17
975.61	211.05
975.90	210.86
976.19	211.07
976.49	211.29
976.78	211.48
977.07	211.60
977.37	211.50
977.66	211.88
977.95	211.40
978.24	211.50
978.54	211.98
978.83	211.95
979.12	211.69
979.42	211.55
979.71	211.02
980.00	210.98
980.29	211.02
980.59	210.76
980.88	211.38
981.17	211.31
981.46	211.17
981.76	211.26
982.05	211.93
982.34	211.88
982.63	211.86
982.93	211.76
983.22	212.10
983.51	212.40
983.80	212.93
984.09	213.52
984.39	213.43
984.68	212.98
984.97	213.14
985.26	212.98
985.55	213.10
985.85	212.79
986.14	213.17
986.43	213.31
986.72	213.19
987.01	212.31
987.30	212.48
987.59	212.40
987.89	212.36
988.18	211.74
988.47	211.62
988.76	211.40
989.05	211.31
989.34	210.90
989.63	211.29
989.92	210.55
990.22	210.00
990.51	210.00
990.80	209.93
991.09	210.10
991.38	210.33
991.67	210.31
991.96	210.12
992.25	210.12
992.54	209.36
992.83	209.57
993.12	209.71
993.41	209.90
993.70	210.98
993.99	211.48
994.28	211.62
994.58	212.02
994.87	211.79
995.16	211.69
995.45	211.76
995.74	210.98
996.03	211.38
996.32	211.83
996.61	212.38
996.90	212.24
997.19	212.17
997.48	212.24
997.77	212.17
998.06	212.52
998.34	212.31
998.63	212.43
998.92	212.26
999.21	212.64
999.50	212.57
999.79	211.57
1000.08	211.43
1000.37	211.43
1000.66	210.90
1000.95	211.36
1001.24	211.67
1001.53	211.93
1001.82	212.05
1002.11	211.67
1002.40	211.88
1002.68	212.12
1002.97	213.50
1003.26	213.21
1003.55	212.90
1003.84	212.90
1004.13	213.60
1004.42	213.48
1004.71	213.76
1004.99	213.67
1005.28	213.95
1005.57	213.90
1005.86	213.90
1006.15	213.98
1006.44	213.69
1006.72	214.21
1007.01	214.00
1007.30	213.69
1007.59	213.36
1007.88	213.33
1008.17	213.43
1008.45	212.88
1008.74	212.14
1009.03	211.26
1009.32	211.33
1009.60	211.36
1009.89	211.17
1010.18	210.07
1010.47	209.98
1010.76	209.67
1011.04	209.81
1011.33	209.88
1011.62	210.02
1011.91	210.12
1012.19	209.98
1012.48	210.14
1012.77	209.71
1013.05	210.88
1013.34	211.10
1013.63	211.10
1013.92	211.17
1014.20	210.98
1014.49	211.12
1014.78	211.40
1015.06	210.79
1015.35	210.86
1015.64	211.12
1015.92	211.43
1016.21	211.74
1016.50	211.76
1016.78	212.26
1017.07	212.31
1017.36	211.76
1017.64	211.50
1017.93	211.69
1018.22	211.33
1018.50	211.36
1018.79	211.48
1019.08	210.33
1019.36	210.33
1019.65	210.02
1019.93	210.64
1020.22	211.00
1020.51	211.88
1020.79	211.55
1021.08	204.50
1021.36	209.50
1021.65	209.00
1021.94	210.50
1022.22	211.00
1022.51	205.00
1022.79	223.50
1023.08	215.00
1023.36	231.00
1023.65	206.50
>>>>>End Processed Spectral Data<<<<<
