SpectraSuite Data File
++++++++++++++++++++++++++++++++++++
Date: Tue Apr 02 18:39:43 EDT 2013
User: group
Dark Spectrum Present: No
Reference Spectrum Present: No
Number of Sampled Component Spectra: 1
Spectrometers: USB2E7196
Integration Time (usec): 580000 (USB2E7196)
Spectra Averaged: 2 (USB2E7196)
Boxcar Smoothing: 10 (USB2E7196)
Correct for Electrical Dark: No (USB2E7196)
Strobe/Lamp Enabled: No (USB2E7196)
Correct for Detector Non-linearity: No (USB2E7196)
Correct for Stray Light: No (USB2E7196)
Number of Pixels in Processed Spectrum: 2048
>>>>>Begin Processed Spectral Data<<<<<
339.09	0.00
339.48	191.00
339.86	190.00
340.24	195.50
340.63	199.50
341.01	230.00
341.39	202.00
341.78	204.00
342.16	212.50
342.54	207.00
342.93	196.81
343.31	206.62
343.69	207.17
344.07	207.86
344.46	208.45
344.84	208.98
345.22	207.79
345.60	208.19
345.99	208.48
346.37	208.45
346.75	208.48
347.13	208.55
347.52	208.62
347.90	209.52
348.28	209.62
348.66	210.05
349.05	209.36
349.43	209.74
349.81	210.12
350.19	210.05
350.57	210.21
350.96	210.79
351.34	211.19
351.72	211.48
352.10	211.55
352.48	211.57
352.87	211.55
353.25	211.69
353.63	211.57
354.01	211.50
354.39	211.57
354.77	211.74
355.15	212.31
355.54	212.12
355.92	211.57
356.30	211.74
356.68	213.17
357.06	213.50
357.44	213.24
357.82	213.14
358.20	214.26
358.58	214.26
358.97	214.07
359.35	214.33
359.73	214.83
360.11	215.10
360.49	215.26
360.87	215.31
361.25	215.67
361.63	216.40
362.01	216.52
362.39	216.31
362.77	216.50
363.15	216.31
363.53	216.45
363.91	216.40
364.29	216.40
364.67	214.40
365.05	214.10
365.43	214.19
365.81	214.45
366.19	214.40
366.57	215.31
366.95	215.21
367.33	214.57
367.71	214.33
368.09	214.76
368.47	214.71
368.85	214.67
369.23	215.05
369.61	214.40
369.99	214.95
370.37	215.26
370.75	216.10
371.13	215.79
371.51	215.36
371.89	215.40
372.27	215.74
372.65	215.98
373.03	216.36
373.41	216.31
373.78	216.12
374.16	215.21
374.54	214.57
374.92	214.45
375.30	214.60
375.68	214.31
376.06	214.19
376.44	214.26
376.82	214.31
377.19	214.36
377.57	214.17
377.95	213.62
378.33	213.50
378.71	212.45
379.09	212.95
379.47	213.33
379.84	213.36
380.22	213.02
380.60	212.67
380.98	212.48
381.36	212.33
381.73	212.10
382.11	212.64
382.49	212.55
382.87	212.43
383.25	212.79
383.62	215.21
384.00	214.71
384.38	214.62
384.76	215.33
385.13	215.98
385.51	216.14
385.89	215.98
386.27	216.14
386.64	216.40
387.02	216.12
387.40	215.98
387.78	216.10
388.15	216.02
388.53	216.14
388.91	216.40
389.29	216.48
389.66	216.93
390.04	216.29
390.42	216.88
390.79	217.19
391.17	216.93
391.55	214.81
391.92	214.88
392.30	215.02
392.68	214.33
393.05	213.98
393.43	213.98
393.81	214.12
394.18	213.88
394.56	214.12
394.94	214.60
395.31	214.31
395.69	214.76
396.06	215.24
396.44	215.36
396.82	215.17
397.19	216.17
397.57	215.86
397.95	216.55
398.32	216.00
398.70	216.21
399.07	216.71
399.45	216.50
399.82	216.76
400.20	216.79
400.58	216.83
400.95	216.19
401.33	216.79
401.70	218.48
402.08	218.55
402.45	218.55
402.83	218.83
403.20	219.26
403.58	219.29
403.95	219.67
404.33	220.07
404.71	220.36
405.08	221.71
405.46	222.21
405.83	222.60
406.21	222.79
406.58	223.19
406.96	223.21
407.33	224.12
407.70	224.86
408.08	227.14
408.45	228.10
408.83	229.14
409.20	229.62
409.58	229.00
409.95	230.43
410.33	231.50
410.70	232.07
411.08	233.33
411.45	234.62
411.82	235.57
412.20	237.40
412.57	240.00
412.95	239.50
413.32	241.40
413.69	242.83
414.07	244.76
414.44	246.60
414.82	248.90
415.19	251.55
415.56	253.86
415.94	255.19
416.31	258.17
416.68	261.52
417.06	265.02
417.43	269.05
417.81	272.76
418.18	276.52
418.55	280.69
418.93	285.05
419.30	289.45
419.67	294.29
420.04	298.71
420.42	303.07
420.79	310.90
421.16	316.71
421.54	324.10
421.91	330.52
422.28	337.36
422.66	344.26
423.03	352.48
423.40	360.02
423.77	367.83
424.15	375.71
424.52	384.19
424.89	393.90
425.26	402.33
425.64	410.38
426.01	419.76
426.38	429.64
426.75	439.57
427.13	449.90
427.50	460.71
427.87	471.90
428.24	482.83
428.61	492.05
428.99	504.57
429.36	515.71
429.73	528.10
430.10	540.86
430.47	554.00
430.85	565.95
431.22	580.05
431.59	596.36
431.96	610.67
432.33	626.38
432.70	640.43
433.08	658.40
433.45	675.17
433.82	691.43
434.19	710.36
434.56	729.50
434.93	746.36
435.30	764.10
435.68	783.38
436.05	802.50
436.42	821.19
436.79	838.29
437.16	857.43
437.53	877.83
437.90	897.26
438.27	917.02
438.64	936.98
439.01	955.31
439.38	970.55
439.75	986.93
440.13	1004.90
440.50	1022.24
440.87	1035.38
441.24	1050.17
441.61	1066.69
441.98	1078.24
442.35	1090.88
442.72	1104.76
443.09	1119.17
443.46	1127.98
443.83	1134.10
444.20	1139.43
444.57	1146.60
444.94	1150.50
445.31	1153.90
445.68	1159.36
446.05	1161.14
446.42	1159.17
446.79	1158.14
447.16	1155.62
447.53	1153.38
447.90	1145.83
448.27	1138.76
448.64	1129.69
449.01	1122.36
449.37	1110.05
449.74	1097.55
450.11	1084.76
450.48	1069.45
450.85	1051.88
451.22	1036.52
451.59	1022.86
451.96	1010.07
452.33	992.50
452.70	976.48
453.07	957.76
453.43	936.64
453.80	918.38
454.17	901.40
454.54	884.14
454.91	866.43
455.28	849.38
455.65	833.26
456.02	820.57
456.38	806.40
456.75	789.64
457.12	774.86
457.49	760.95
457.86	746.05
458.23	734.64
458.59	721.21
458.96	708.67
459.33	696.90
459.70	685.33
460.07	676.26
460.43	665.71
460.80	655.93
461.17	647.76
461.54	638.36
461.91	629.64
462.27	620.67
462.64	613.07
463.01	605.33
463.38	598.26
463.74	586.98
464.11	580.26
464.48	574.40
464.85	567.50
465.21	562.43
465.58	557.21
465.95	550.02
466.32	544.93
466.68	539.40
467.05	534.14
467.42	528.55
467.78	522.86
468.15	517.88
468.52	514.21
468.88	508.57
469.25	503.43
469.62	499.62
469.98	495.31
470.35	491.48
470.72	487.21
471.08	482.26
471.45	479.55
471.82	476.45
472.18	472.31
472.55	469.69
472.92	465.79
473.28	462.10
473.65	459.12
474.02	456.57
474.38	454.26
474.75	452.26
475.11	450.19
475.48	448.19
475.85	445.79
476.21	443.50
476.58	442.21
476.94	441.19
477.31	439.60
477.67	438.14
478.04	436.88
478.41	435.98
478.77	437.21
479.14	435.52
479.50	434.57
479.87	434.10
480.23	433.52
480.60	433.24
480.96	433.12
481.33	434.02
481.69	433.83
482.06	434.33
482.42	434.64
482.79	434.57
483.15	434.79
483.52	436.14
483.88	436.81
484.25	437.38
484.61	438.21
484.98	438.81
485.34	441.05
485.71	442.64
486.07	444.10
486.44	443.81
486.80	445.55
487.17	447.05
487.53	449.55
487.90	452.10
488.26	455.10
488.62	458.31
488.99	459.88
489.35	463.02
489.72	465.88
490.08	468.74
490.44	472.21
490.81	476.00
491.17	478.95
491.54	482.69
491.90	486.83
492.26	490.88
492.63	495.29
492.99	499.07
493.36	503.48
493.72	508.79
494.08	513.64
494.45	519.95
494.81	525.69
495.17	530.79
495.54	536.74
495.90	542.02
496.26	547.21
496.63	554.02
496.99	559.81
497.35	566.17
497.72	572.33
498.08	578.74
498.44	585.38
498.80	592.90
499.17	599.79
499.53	606.48
499.89	613.95
500.26	621.76
500.62	629.02
500.98	637.17
501.34	644.76
501.71	653.40
502.07	660.21
502.43	668.05
502.79	676.14
503.16	683.67
503.52	691.76
503.88	700.02
504.24	707.88
504.60	716.98
504.97	725.81
505.33	734.31
505.69	744.10
506.05	753.19
506.41	761.71
506.78	771.02
507.14	779.95
507.50	788.81
507.86	797.33
508.22	806.26
508.59	814.45
508.95	823.52
509.31	832.95
509.67	842.10
510.03	850.36
510.39	859.19
510.75	868.57
511.12	877.83
511.48	886.90
511.84	896.19
512.20	904.55
512.56	913.50
512.92	923.21
513.28	931.74
513.64	939.95
514.00	948.45
514.37	956.43
514.73	964.86
515.09	974.17
515.45	983.02
515.81	990.98
516.17	999.52
516.53	1006.79
516.89	1014.12
517.25	1022.10
517.61	1030.57
517.97	1038.57
518.33	1046.38
518.69	1054.36
519.05	1062.43
519.41	1069.71
519.77	1077.98
520.13	1084.64
520.49	1091.14
520.85	1098.21
521.21	1105.79
521.57	1113.38
521.93	1120.36
522.29	1127.02
522.65	1132.55
523.01	1138.81
523.37	1146.10
523.73	1152.62
524.09	1159.43
524.45	1165.83
524.81	1172.10
525.17	1179.14
525.53	1185.45
525.89	1191.33
526.25	1197.52
526.61	1203.38
526.97	1209.00
527.33	1214.57
527.68	1222.45
528.04	1229.02
528.40	1233.71
528.76	1239.74
529.12	1245.02
529.48	1251.86
529.84	1258.07
530.20	1264.07
530.56	1270.40
530.91	1276.62
531.27	1282.93
531.63	1288.50
531.99	1292.14
532.35	1297.69
532.71	1302.81
533.07	1308.86
533.42	1316.24
533.78	1321.55
534.14	1327.10
534.50	1332.55
534.86	1338.55
535.21	1342.69
535.57	1348.71
535.93	1354.07
536.29	1359.33
536.65	1365.02
537.00	1369.19
537.36	1374.12
537.72	1379.12
538.08	1384.29
538.44	1388.24
538.79	1392.50
539.15	1397.43
539.51	1404.81
539.87	1409.86
540.22	1414.64
540.58	1418.79
540.94	1422.12
541.29	1427.24
541.65	1430.50
542.01	1435.33
542.37	1438.88
542.72	1442.33
543.08	1445.26
543.44	1450.69
543.79	1453.90
544.15	1458.38
544.51	1462.98
544.87	1467.07
545.22	1471.40
545.58	1475.10
545.94	1479.02
546.29	1482.88
546.65	1487.36
547.01	1490.50
547.36	1494.55
547.72	1498.19
548.07	1502.45
548.43	1505.07
548.79	1507.83
549.14	1511.81
549.50	1515.31
549.86	1519.02
550.21	1523.00
550.57	1527.81
550.92	1530.43
551.28	1534.67
551.64	1537.88
551.99	1541.14
552.35	1544.86
552.70	1548.71
553.06	1553.12
553.41	1557.12
553.77	1561.98
554.13	1566.43
554.48	1570.31
554.84	1575.02
555.19	1578.93
555.55	1584.07
555.90	1589.52
556.26	1593.88
556.61	1597.21
556.97	1600.45
557.32	1604.38
557.68	1608.26
558.03	1611.64
558.39	1616.00
558.74	1619.93
559.10	1623.76
559.45	1628.62
559.81	1632.57
560.16	1635.81
560.52	1638.81
560.87	1642.69
561.23	1646.29
561.58	1651.10
561.94	1655.24
562.29	1658.38
562.64	1663.60
563.00	1666.64
563.35	1670.38
563.71	1674.79
564.06	1681.12
564.42	1687.24
564.77	1692.55
565.12	1698.81
565.48	1705.50
565.83	1710.90
566.19	1716.57
566.54	1721.86
566.89	1726.33
567.25	1732.88
567.60	1739.50
567.96	1745.86
568.31	1752.29
568.66	1757.12
569.02	1759.74
569.37	1764.10
569.72	1768.07
570.08	1771.21
570.43	1774.19
570.78	1778.21
571.14	1781.55
571.49	1784.33
571.84	1787.60
572.20	1790.26
572.55	1792.17
572.90	1793.43
573.26	1796.57
573.61	1798.50
573.96	1801.31
574.31	1803.98
574.67	1805.19
575.02	1806.40
575.37	1807.31
575.72	1807.36
576.08	1809.88
576.43	1812.26
576.78	1813.21
577.13	1815.33
577.49	1816.67
577.84	1819.93
578.19	1821.40
578.54	1823.29
578.90	1824.88
579.25	1825.60
579.60	1826.98
579.95	1827.00
580.30	1827.45
580.66	1827.79
581.01	1829.52
581.36	1830.60
581.71	1830.81
582.06	1831.98
582.42	1833.10
582.77	1833.60
583.12	1834.43
583.47	1834.07
583.82	1834.14
584.17	1835.05
584.53	1836.10
584.88	1836.33
585.23	1835.69
585.58	1834.81
585.93	1833.19
586.28	1832.90
586.63	1832.48
586.98	1832.10
587.34	1833.74
587.69	1834.02
588.04	1832.67
588.39	1831.33
588.74	1828.14
589.09	1827.29
589.44	1824.02
589.79	1822.14
590.14	1820.24
590.49	1819.29
590.84	1816.81
591.19	1814.95
591.54	1812.38
591.89	1809.93
592.25	1809.69
592.60	1806.55
592.95	1804.48
593.30	1804.24
593.65	1801.55
594.00	1799.43
594.35	1801.74
594.70	1796.86
595.05	1793.36
595.40	1791.50
595.75	1788.24
596.10	1787.40
596.45	1785.24
596.80	1784.48
597.15	1781.86
597.50	1778.98
597.85	1777.55
598.19	1775.74
598.54	1773.26
598.89	1770.50
599.24	1768.17
599.59	1764.00
599.94	1762.19
600.29	1759.36
600.64	1755.83
600.99	1754.24
601.34	1751.71
601.69	1743.76
602.04	1741.74
602.39	1739.19
602.74	1735.83
603.08	1733.74
603.43	1731.74
603.78	1729.02
604.13	1725.74
604.48	1722.83
604.83	1721.05
605.18	1716.67
605.53	1713.60
605.87	1709.62
606.22	1707.02
606.57	1702.55
606.92	1699.38
607.27	1695.81
607.62	1692.88
607.96	1689.50
608.31	1685.05
608.66	1680.57
609.01	1676.45
609.36	1673.69
609.70	1670.48
610.05	1666.26
610.40	1662.00
610.75	1655.88
611.10	1650.55
611.44	1645.64
611.79	1640.38
612.14	1635.45
612.49	1630.26
612.83	1624.74
613.18	1619.79
613.53	1614.02
613.88	1608.98
614.22	1603.86
614.57	1598.29
614.92	1592.50
615.27	1587.21
615.61	1580.60
615.96	1575.07
616.31	1569.86
616.65	1564.17
617.00	1558.19
617.35	1552.95
617.70	1546.64
618.04	1541.45
618.39	1535.19
618.74	1528.95
619.08	1523.14
619.43	1517.31
619.78	1511.52
620.12	1506.38
620.47	1501.14
620.82	1494.55
621.16	1488.43
621.51	1482.88
621.85	1476.19
622.20	1470.10
622.55	1462.69
622.89	1456.98
623.24	1451.50
623.59	1445.14
623.93	1438.67
624.28	1432.55
624.62	1428.64
624.97	1424.31
625.32	1417.90
625.66	1412.88
626.01	1407.50
626.35	1402.45
626.70	1396.02
627.04	1390.67
627.39	1384.67
627.73	1379.79
628.08	1376.12
628.43	1370.48
628.77	1363.55
629.12	1358.93
629.46	1353.21
629.81	1348.31
630.15	1342.60
630.50	1336.74
630.84	1330.43
631.19	1324.24
631.53	1317.50
631.88	1308.79
632.22	1300.24
632.57	1294.93
632.91	1287.98
633.26	1281.57
633.60	1274.21
633.95	1267.24
634.29	1260.14
634.64	1253.43
634.98	1246.24
635.32	1239.88
635.67	1233.90
636.01	1228.05
636.36	1221.10
636.70	1216.02
637.05	1210.07
637.39	1204.60
637.73	1198.45
638.08	1193.50
638.42	1187.83
638.77	1182.60
639.11	1176.81
639.45	1172.19
639.80	1165.64
640.14	1160.10
640.49	1153.67
640.83	1147.45
641.17	1142.55
641.52	1135.95
641.86	1130.07
642.20	1124.81
642.55	1117.50
642.89	1111.48
643.23	1105.14
643.58	1099.88
643.92	1092.29
644.26	1085.40
644.61	1078.60
644.95	1071.57
645.29	1064.52
645.64	1058.26
645.98	1051.07
646.32	1045.07
646.66	1037.07
647.01	1030.24
647.35	1023.57
647.69	1017.40
648.04	1012.07
648.38	1005.57
648.72	1000.24
649.06	993.12
649.41	985.52
649.75	979.21
650.09	972.62
650.43	965.81
650.78	958.79
651.12	952.79
651.46	946.52
651.80	940.95
652.14	935.33
652.49	929.95
652.83	922.79
653.17	916.31
653.51	909.48
653.85	904.29
654.20	897.81
654.54	890.79
654.88	884.36
655.22	878.33
655.56	871.26
655.90	865.29
656.25	859.55
656.59	853.95
656.93	847.95
657.27	842.69
657.61	836.48
657.95	831.21
658.29	825.31
658.64	820.38
658.98	813.83
659.32	807.33
659.66	800.95
660.00	796.07
660.34	791.36
660.68	785.60
661.02	780.40
661.36	775.36
661.70	770.40
662.05	765.24
662.39	759.76
662.73	756.10
663.07	751.19
663.41	745.48
663.75	739.57
664.09	735.02
664.43	729.17
664.77	724.71
665.11	718.74
665.45	713.48
665.79	708.31
666.13	703.38
666.47	698.79
666.81	693.95
667.15	688.71
667.49	683.55
667.83	679.88
668.17	674.45
668.51	669.40
668.85	665.40
669.19	661.62
669.53	656.02
669.87	649.95
670.21	644.83
670.55	640.64
670.89	637.38
671.23	632.48
671.57	627.71
671.91	623.40
672.25	619.24
672.58	616.33
672.92	611.57
673.26	607.33
673.60	603.36
673.94	599.31
674.28	595.38
674.62	591.76
674.96	587.29
675.30	583.71
675.64	580.05
675.97	575.79
676.31	571.43
676.65	567.50
676.99	564.88
677.33	560.81
677.67	557.02
678.01	552.31
678.34	548.98
678.68	546.00
679.02	541.83
679.36	538.26
679.70	533.45
680.04	530.02
680.37	526.69
680.71	523.31
681.05	519.57
681.39	516.10
681.73	512.29
682.06	508.62
682.40	505.07
682.74	502.24
683.08	499.93
683.42	496.43
683.75	493.71
684.09	490.00
684.43	486.69
684.77	483.60
685.10	480.36
685.44	476.86
685.78	473.33
686.12	470.48
686.45	467.14
686.79	464.02
687.13	460.95
687.46	457.76
687.80	455.07
688.14	452.36
688.48	449.55
688.81	446.90
689.15	444.67
689.49	441.50
689.82	438.38
690.16	434.60
690.50	431.95
690.83	428.86
691.17	425.48
691.51	422.79
691.84	420.48
692.18	417.79
692.52	415.40
692.85	413.29
693.19	411.79
693.52	409.40
693.86	407.05
694.20	404.36
694.53	401.88
694.87	399.07
695.21	396.19
695.54	393.64
695.88	390.93
696.21	387.71
696.55	385.69
696.88	383.38
697.22	381.05
697.56	378.83
697.89	376.76
698.23	375.00
698.56	373.12
698.90	371.33
699.23	369.26
699.57	367.26
699.90	365.10
700.24	362.40
700.58	360.55
700.91	358.90
701.25	358.76
701.58	357.60
701.92	356.12
702.25	354.45
702.59	352.64
702.92	350.90
703.26	349.67
703.59	347.95
703.93	347.93
704.26	346.64
704.60	345.45
704.93	343.86
705.26	342.14
705.60	340.55
705.93	338.38
706.27	337.48
706.60	336.45
706.94	335.62
707.27	334.14
707.61	332.90
707.94	331.24
708.27	328.29
708.61	326.48
708.94	325.07
709.28	323.90
709.61	322.29
709.94	321.02
710.28	319.76
710.61	318.45
710.95	315.19
711.28	315.05
711.61	313.48
711.95	312.67
712.28	311.52
712.61	310.40
712.95	310.21
713.28	309.76
713.61	308.02
713.95	306.19
714.28	304.69
714.61	303.36
714.95	302.31
715.28	301.21
715.61	299.81
715.95	298.76
716.28	297.60
716.61	297.24
716.95	295.83
717.28	294.74
717.61	293.62
717.94	292.86
718.28	290.29
718.61	289.05
718.94	287.90
719.27	286.45
719.61	285.40
719.94	284.14
720.27	282.38
720.60	281.38
720.94	280.19
721.27	279.40
721.60	278.88
721.93	278.02
722.27	277.81
722.60	277.64
722.93	276.33
723.26	275.79
723.59	274.48
723.93	274.21
724.26	273.14
724.59	272.36
724.92	271.86
725.25	271.88
725.59	271.52
725.92	271.00
726.25	270.76
726.58	270.36
726.91	269.40
727.24	269.12
727.57	268.43
727.91	267.76
728.24	267.60
728.57	266.62
728.90	266.40
729.23	265.05
729.56	264.81
729.89	264.29
730.22	263.33
730.55	262.81
730.89	262.31
731.22	261.98
731.55	261.33
731.88	261.10
732.21	260.07
732.54	259.02
732.87	258.21
733.20	257.74
733.53	257.12
733.86	256.88
734.19	255.93
734.52	255.90
734.85	257.02
735.18	256.17
735.51	256.45
735.84	255.50
736.17	255.81
736.50	254.74
736.83	256.60
737.16	256.31
737.49	255.88
737.82	255.02
738.15	254.76
738.48	254.57
738.81	253.71
739.14	252.95
739.47	252.57
739.80	252.36
740.13	252.38
740.46	251.67
740.79	250.93
741.12	250.57
741.45	249.86
741.78	248.07
742.11	248.24
742.44	247.14
742.77	247.29
743.10	246.50
743.43	245.88
743.75	243.48
744.08	245.88
744.41	245.52
744.74	245.17
745.07	244.48
745.40	244.26
745.73	244.55
746.06	244.74
746.39	244.86
746.71	244.24
747.04	243.40
747.37	243.10
747.70	243.10
748.03	242.67
748.36	242.29
748.68	241.88
749.01	240.95
749.34	240.90
749.67	240.33
750.00	240.33
750.33	241.55
750.65	241.57
750.98	238.62
751.31	238.33
751.64	238.19
751.97	239.17
752.29	239.02
752.62	237.98
752.95	237.31
753.28	236.69
753.60	236.43
753.93	236.62
754.26	236.62
754.59	235.90
754.91	235.57
755.24	235.48
755.57	235.26
755.90	235.10
756.22	234.71
756.55	234.10
756.88	233.36
757.20	231.69
757.53	230.62
757.86	230.50
758.19	230.64
758.51	230.62
758.84	229.36
759.17	228.71
759.49	228.50
759.82	229.52
760.15	229.69
760.47	229.43
760.80	228.74
761.13	228.71
761.45	228.57
761.78	228.45
762.11	228.24
762.43	227.79
762.76	227.62
763.08	227.62
763.41	227.93
763.74	227.98
764.06	227.69
764.39	228.05
764.71	227.67
765.04	227.07
765.37	226.48
765.69	226.45
766.02	226.31
766.34	226.21
766.67	225.31
767.00	225.10
767.32	226.21
767.65	227.31
767.97	226.88
768.30	226.90
768.62	226.81
768.95	226.57
769.27	226.83
769.60	227.14
769.92	226.55
770.25	225.95
770.57	225.62
770.90	225.79
771.22	225.29
771.55	225.36
771.87	225.45
772.20	225.55
772.52	226.93
772.85	229.29
773.17	229.19
773.50	228.90
773.82	228.76
774.15	227.52
774.47	226.12
774.80	225.95
775.12	225.57
775.45	225.29
775.77	225.31
776.09	225.19
776.42	224.81
776.74	225.60
777.07	225.36
777.39	225.31
777.72	225.12
778.04	225.31
778.36	225.14
778.69	225.05
779.01	224.98
779.33	223.12
779.66	220.71
779.98	220.40
780.31	220.29
780.63	220.81
780.95	221.12
781.28	221.14
781.60	221.12
781.92	221.12
782.25	221.29
782.57	221.05
782.89	220.83
783.22	220.79
783.54	220.19
783.86	220.48
784.19	220.24
784.51	220.71
784.83	220.24
785.16	220.24
785.48	220.19
785.80	220.17
786.12	220.55
786.45	220.43
786.77	220.71
787.09	220.74
787.42	220.17
787.74	220.21
788.06	220.14
788.38	219.81
788.71	219.52
789.03	219.14
789.35	219.52
789.67	219.38
789.99	219.12
790.32	218.86
790.64	218.93
790.96	220.71
791.28	219.93
791.61	220.12
791.93	219.95
792.25	219.69
792.57	220.98
792.89	220.43
793.21	220.62
793.54	220.38
793.86	220.17
794.18	220.07
794.50	219.74
794.82	219.67
795.14	220.05
795.47	220.45
795.79	220.74
796.11	220.17
796.43	219.93
796.75	219.93
797.07	220.10
797.39	219.88
797.71	218.24
798.04	218.31
798.36	218.24
798.68	218.43
799.00	218.74
799.32	217.67
799.64	217.83
799.96	217.62
800.28	217.69
800.60	217.55
800.92	217.71
801.24	217.50
801.56	217.71
801.89	217.48
802.21	217.48
802.53	217.00
802.85	217.50
803.17	218.31
803.49	218.02
803.81	217.74
804.13	217.57
804.45	217.29
804.77	217.38
805.09	217.33
805.41	216.93
805.73	216.62
806.05	216.10
806.37	216.12
806.69	216.05
807.01	216.10
807.33	216.12
807.65	215.43
807.97	216.36
808.28	216.24
808.60	216.07
808.92	216.00
809.24	217.64
809.56	217.19
809.88	216.83
810.20	217.17
810.52	217.60
810.84	217.40
811.16	217.36
811.48	217.29
811.80	218.05
812.12	217.88
812.43	218.26
812.75	218.57
813.07	218.17
813.39	218.31
813.71	218.12
814.03	217.79
814.35	217.95
814.67	217.02
814.98	216.74
815.30	217.12
815.62	216.62
815.94	214.93
816.26	215.10
816.58	214.57
816.89	214.50
817.21	213.95
817.53	214.26
817.85	214.24
818.17	214.10
818.48	213.19
818.80	213.64
819.12	213.12
819.44	212.67
819.76	212.67
820.07	212.55
820.39	212.57
820.71	213.10
821.03	212.95
821.34	212.81
821.66	213.40
821.98	213.43
822.30	213.52
822.61	214.81
822.93	214.55
823.25	214.31
823.57	214.05
823.88	214.43
824.20	214.33
824.52	214.74
824.83	214.71
825.15	214.38
825.47	214.31
825.79	214.67
826.10	214.48
826.42	214.50
826.74	215.10
827.05	215.07
827.37	214.86
827.69	214.88
828.00	214.98
828.32	214.52
828.64	214.12
828.95	215.14
829.27	214.74
829.58	214.69
829.90	215.43
830.22	215.74
830.53	215.33
830.85	215.02
831.17	214.38
831.48	214.45
831.80	214.69
832.11	214.36
832.43	213.98
832.75	214.12
833.06	215.31
833.38	214.29
833.69	214.14
834.01	214.26
834.32	214.24
834.64	214.12
834.96	214.48
835.27	214.62
835.59	213.79
835.90	213.40
836.22	213.57
836.53	213.33
836.85	212.98
837.16	215.26
837.48	215.45
837.79	216.29
838.11	216.36
838.42	216.55
838.74	216.90
839.05	216.71
839.37	216.81
839.68	215.64
840.00	215.79
840.31	216.05
840.63	215.86
840.94	215.64
841.26	215.81
841.57	215.33
841.88	215.40
842.20	215.21
842.51	214.86
842.83	214.79
843.14	216.52
843.46	216.79
843.77	215.64
844.08	215.48
844.40	214.86
844.71	214.76
845.03	214.52
845.34	214.52
845.65	214.60
845.97	214.60
846.28	214.71
846.60	214.76
846.91	214.62
847.22	214.74
847.54	215.24
847.85	215.12
848.16	215.24
848.48	214.76
848.79	215.69
849.10	215.98
849.42	216.19
849.73	213.95
850.04	213.83
850.36	212.81
850.67	213.57
850.98	213.52
851.30	213.67
851.61	213.57
851.92	213.57
852.23	214.05
852.55	214.17
852.86	214.26
853.17	214.52
853.49	214.88
853.80	215.29
854.11	215.26
854.42	215.74
854.74	215.48
855.05	215.57
855.36	214.45
855.67	214.62
855.99	214.62
856.30	217.05
856.61	216.95
856.92	217.21
857.23	216.60
857.55	216.43
857.86	216.12
858.17	216.45
858.48	215.88
858.79	215.55
859.11	215.67
859.42	215.55
859.73	215.24
860.04	215.17
860.35	214.60
860.66	214.19
860.98	213.88
861.29	214.12
861.60	214.17
861.91	214.83
862.22	214.45
862.53	214.00
862.84	211.95
863.16	212.55
863.47	211.93
863.78	211.86
864.09	212.07
864.40	212.31
864.71	212.17
865.02	212.57
865.33	212.52
865.64	212.19
865.95	212.07
866.27	213.38
866.58	212.95
866.89	213.33
867.20	213.29
867.51	212.95
867.82	213.00
868.13	213.69
868.44	213.17
868.75	213.45
869.06	213.81
869.37	213.88
869.68	213.21
869.99	213.76
870.30	214.00
870.61	214.45
870.92	214.05
871.23	214.17
871.54	214.43
871.85	214.67
872.16	214.95
872.47	214.76
872.78	213.74
873.09	213.95
873.40	213.48
873.71	213.55
874.02	213.55
874.33	213.10
874.64	212.52
874.95	213.02
875.26	212.55
875.56	212.31
875.87	212.07
876.18	212.02
876.49	214.21
876.80	214.19
877.11	213.62
877.42	213.76
877.73	213.64
878.04	213.38
878.35	213.52
878.66	213.57
878.96	213.55
879.27	213.43
879.58	213.38
879.89	213.31
880.20	213.88
880.51	213.83
880.82	214.17
881.12	214.36
881.43	213.62
881.74	213.74
882.05	213.60
882.36	213.81
882.67	214.00
882.97	211.57
883.28	211.36
883.59	211.24
883.90	211.60
884.21	212.07
884.51	211.90
884.82	211.50
885.13	211.48
885.44	211.64
885.74	211.74
886.05	211.67
886.36	211.81
886.67	211.17
886.98	212.43
887.28	212.50
887.59	212.21
887.90	212.33
888.20	212.24
888.51	212.69
888.82	212.52
889.13	212.57
889.43	214.43
889.74	214.19
890.05	214.19
890.35	214.00
890.66	213.26
890.97	212.88
891.28	212.81
891.58	212.74
891.89	212.55
892.20	212.33
892.50	212.00
892.81	212.12
893.12	211.93
893.42	210.83
893.73	210.88
894.04	210.93
894.34	211.36
894.65	211.17
894.95	210.83
895.26	210.95
895.57	211.90
895.87	209.76
896.18	210.29
896.48	210.45
896.79	210.14
897.10	210.64
897.40	211.05
897.71	211.21
898.01	211.10
898.32	211.55
898.63	211.67
898.93	211.98
899.24	211.81
899.54	212.05
899.85	212.07
900.15	211.79
900.46	212.17
900.76	212.21
901.07	212.31
901.38	212.33
901.68	212.48
901.99	211.31
902.29	211.52
902.60	211.21
902.90	211.00
903.21	211.12
903.51	210.88
903.82	211.05
904.12	211.00
904.43	211.07
904.73	210.88
905.03	210.67
905.34	212.64
905.64	212.52
905.95	212.48
906.25	212.40
906.56	212.52
906.86	212.17
907.17	211.90
907.47	212.07
907.77	211.95
908.08	211.48
908.38	211.69
908.69	212.10
908.99	212.55
909.30	212.86
909.60	212.90
909.90	213.12
910.21	212.83
910.51	212.45
910.81	212.40
911.12	212.38
911.42	212.40
911.73	210.29
912.03	210.40
912.33	210.88
912.64	211.05
912.94	210.79
913.24	210.57
913.55	210.19
913.85	209.86
914.15	210.38
914.46	210.64
914.76	210.48
915.06	210.31
915.37	209.95
915.67	209.69
915.97	209.83
916.27	209.38
916.58	209.50
916.88	209.74
917.18	209.79
917.49	211.26
917.79	211.29
918.09	211.88
918.39	212.40
918.70	212.05
919.00	211.79
919.30	212.93
919.60	212.88
919.91	213.00
920.21	213.19
920.51	212.67
920.81	212.67
921.12	213.02
921.42	212.67
921.72	212.71
922.02	213.00
922.32	213.26
922.63	213.36
922.93	214.43
923.23	214.50
923.53	214.26
923.83	212.88
924.13	213.02
924.44	212.79
924.74	213.02
925.04	213.38
925.34	213.40
925.64	212.50
925.94	212.76
926.24	213.98
926.55	213.90
926.85	214.17
927.15	213.98
927.45	214.10
927.75	214.29
928.05	214.40
928.35	214.07
928.65	214.19
928.95	214.24
929.26	213.36
929.56	213.74
929.86	214.02
930.16	213.86
930.46	213.93
930.76	213.86
931.06	212.86
931.36	212.52
931.66	212.86
931.96	212.90
932.26	212.81
932.56	212.02
932.86	212.31
933.16	212.17
933.46	212.14
933.76	211.64
934.06	212.14
934.36	212.88
934.66	212.76
934.96	212.71
935.26	213.00
935.56	213.29
935.86	212.81
936.16	212.71
936.46	212.62
936.76	212.40
937.06	212.14
937.36	212.31
937.66	212.55
937.96	212.36
938.26	212.00
938.56	211.81
938.86	211.98
939.16	212.31
939.46	212.76
939.76	212.79
940.06	212.81
940.35	212.07
940.65	211.05
940.95	211.33
941.25	210.67
941.55	210.36
941.85	210.14
942.15	210.48
942.45	210.79
942.75	210.62
943.04	210.64
943.34	211.10
943.64	211.02
943.94	210.57
944.24	210.60
944.54	210.95
944.84	210.95
945.13	210.45
945.43	210.12
945.73	209.83
946.03	209.79
946.33	209.71
946.62	209.93
946.92	209.88
947.22	210.00
947.52	210.05
947.82	210.38
948.11	210.24
948.41	209.62
948.71	208.95
949.01	209.14
949.31	209.00
949.60	208.52
949.90	208.81
950.20	208.69
950.50	208.79
950.79	208.60
951.09	208.86
951.39	208.90
951.69	208.50
951.98	208.93
952.28	209.07
952.58	208.83
952.87	208.67
953.17	208.90
953.47	208.88
953.76	209.14
954.06	208.81
954.36	208.62
954.66	208.71
954.95	209.60
955.25	209.83
955.55	210.00
955.84	210.17
956.14	210.31
956.44	210.50
956.73	210.21
957.03	210.40
957.32	210.33
957.62	210.17
957.92	210.81
958.21	210.50
958.51	212.90
958.81	213.55
959.10	213.79
959.40	214.29
959.69	214.21
959.99	214.50
960.29	214.50
960.58	214.36
960.88	215.36
961.17	215.05
961.47	215.12
961.76	215.05
962.06	215.38
962.36	215.31
962.65	215.67
962.95	215.88
963.24	215.62
963.54	215.88
963.83	216.29
964.13	216.21
964.42	215.62
964.72	213.69
965.01	213.64
965.31	213.71
965.60	213.05
965.90	214.50
966.19	214.00
966.49	214.12
966.78	213.90
967.08	213.69
967.37	213.60
967.67	213.29
967.96	213.60
968.26	213.43
968.55	213.60
968.85	213.29
969.14	213.05
969.43	213.10
969.73	213.05
970.02	212.88
970.32	212.71
970.61	212.98
970.91	212.62
971.20	212.19
971.49	211.93
971.79	212.26
972.08	210.69
972.38	210.93
972.67	210.71
972.96	211.29
973.26	210.90
973.55	211.55
973.85	211.40
974.14	211.26
974.43	211.26
974.73	210.90
975.02	210.83
975.31	210.88
975.61	210.81
975.90	210.60
976.19	210.29
976.49	210.50
976.78	210.67
977.07	210.88
977.37	211.00
977.66	211.24
977.95	210.93
978.24	211.02
978.54	211.24
978.83	211.36
979.12	211.31
979.42	211.12
979.71	210.69
980.00	210.64
980.29	210.60
980.59	210.29
980.88	210.74
981.17	210.62
981.46	210.67
981.76	210.64
982.05	211.24
982.34	211.43
982.63	211.19
982.93	210.88
983.22	210.98
983.51	211.05
983.80	211.48
984.09	211.71
984.39	211.50
984.68	211.26
984.97	211.38
985.26	211.07
985.55	211.31
985.85	210.88
986.14	211.21
986.43	211.48
986.72	211.40
987.01	210.83
987.30	211.00
987.59	210.90
987.89	210.90
988.18	210.12
988.47	210.05
988.76	209.98
989.05	210.07
989.34	209.90
989.63	210.57
989.92	209.86
990.22	209.67
990.51	209.79
990.80	209.86
991.09	209.98
991.38	210.33
991.67	210.17
991.96	210.21
992.25	210.21
992.54	209.76
992.83	209.67
993.12	209.64
993.41	209.74
993.70	210.71
993.99	211.50
994.28	212.10
994.58	212.38
994.87	212.19
995.16	212.24
995.45	212.10
995.74	211.40
996.03	211.83
996.32	212.19
996.61	212.60
996.90	212.33
997.19	212.26
997.48	212.29
997.77	212.02
998.06	212.10
998.34	212.00
998.63	212.21
998.92	212.60
999.21	212.88
999.50	213.00
999.79	212.31
1000.08	211.88
1000.37	211.86
1000.66	211.55
1000.95	212.00
1001.24	212.07
1001.53	212.21
1001.82	212.14
1002.11	211.90
1002.40	211.95
1002.68	212.07
1002.97	213.64
1003.26	213.17
1003.55	212.83
1003.84	212.93
1004.13	213.57
1004.42	213.29
1004.71	213.14
1004.99	212.93
1005.28	213.31
1005.57	213.21
1005.86	212.83
1006.15	212.83
1006.44	212.21
1006.72	212.57
1007.01	212.38
1007.30	212.48
1007.59	212.33
1007.88	212.31
1008.17	212.05
1008.45	211.69
1008.74	211.31
1009.03	210.36
1009.32	210.43
1009.60	210.36
1009.89	210.29
1010.18	209.48
1010.47	209.69
1010.76	209.60
1011.04	209.67
1011.33	209.76
1011.62	209.74
1011.91	209.93
1012.19	209.81
1012.48	209.95
1012.77	209.83
1013.05	210.69
1013.34	210.50
1013.63	210.52
1013.92	210.60
1014.20	210.55
1014.49	210.69
1014.78	210.83
1015.06	210.24
1015.35	210.40
1015.64	210.76
1015.92	211.21
1016.21	211.36
1016.50	211.45
1016.78	211.95
1017.07	211.93
1017.36	211.33
1017.64	211.07
1017.93	211.43
1018.22	211.36
1018.50	211.33
1018.79	211.26
1019.08	210.12
1019.36	210.33
1019.65	210.17
1019.93	210.79
1020.22	211.07
1020.51	212.10
1020.79	211.86
1021.08	208.00
1021.36	206.50
1021.65	210.00
1021.94	205.50
1022.22	213.00
1022.51	208.00
1022.79	222.00
1023.08	210.00
1023.36	235.50
1023.65	208.00
>>>>>End Processed Spectral Data<<<<<
