SpectraSuite Data File
++++++++++++++++++++++++++++++++++++
Date: Tue Apr 02 18:45:19 EDT 2013
User: group
Dark Spectrum Present: No
Reference Spectrum Present: No
Number of Sampled Component Spectra: 1
Spectrometers: USB2E7196
Integration Time (usec): 580000 (USB2E7196)
Spectra Averaged: 2 (USB2E7196)
Boxcar Smoothing: 10 (USB2E7196)
Correct for Electrical Dark: No (USB2E7196)
Strobe/Lamp Enabled: No (USB2E7196)
Correct for Detector Non-linearity: No (USB2E7196)
Correct for Stray Light: No (USB2E7196)
Number of Pixels in Processed Spectrum: 2048
>>>>>Begin Processed Spectral Data<<<<<
339.09	0.00
339.48	195.50
339.86	196.50
340.24	193.00
340.63	196.50
341.01	229.50
341.39	201.50
341.78	207.50
342.16	210.00
342.54	203.50
342.93	198.00
343.31	207.76
343.69	208.29
344.07	208.86
344.46	209.81
344.84	210.38
345.22	209.33
345.60	209.69
345.99	209.86
346.37	209.83
346.75	209.95
347.13	210.12
347.52	210.38
347.90	210.88
348.28	211.10
348.66	211.40
349.05	210.71
349.43	211.29
349.81	211.64
350.19	211.64
350.57	211.64
350.96	211.83
351.34	212.36
351.72	212.76
352.10	212.81
352.48	212.79
352.87	212.74
353.25	212.95
353.63	212.98
354.01	213.07
354.39	213.50
354.77	213.79
355.15	214.33
355.54	214.02
355.92	213.48
356.30	213.57
356.68	215.02
357.06	215.31
357.44	214.81
357.82	214.71
358.20	215.81
358.58	215.76
358.97	215.79
359.35	216.00
359.73	216.19
360.11	216.17
360.49	216.14
360.87	216.31
361.25	216.36
361.63	217.31
362.01	217.38
362.39	217.14
362.77	217.29
363.15	217.33
363.53	217.43
363.91	217.62
364.29	217.48
364.67	215.48
365.05	215.55
365.43	215.95
365.81	216.02
366.19	215.88
366.57	216.67
366.95	216.67
367.33	216.31
367.71	216.07
368.09	216.45
368.47	216.50
368.85	216.29
369.23	216.90
369.61	216.10
369.99	216.62
370.37	216.67
370.75	217.64
371.13	217.24
371.51	216.98
371.89	217.40
372.27	217.55
372.65	217.83
373.03	217.69
373.41	217.29
373.78	217.45
374.16	216.50
374.54	215.79
374.92	215.57
375.30	215.55
375.68	215.29
376.06	215.38
376.44	215.07
376.82	215.55
377.19	215.33
377.57	215.12
377.95	214.45
378.33	214.31
378.71	213.12
379.09	213.62
379.47	214.10
379.84	213.60
380.22	213.45
380.60	213.05
380.98	213.21
381.36	213.24
381.73	212.81
382.11	213.07
382.49	213.07
382.87	212.93
383.25	213.02
383.62	215.33
384.00	214.88
384.38	215.12
384.76	215.43
385.13	216.26
385.51	216.55
385.89	216.26
386.27	216.52
386.64	216.76
387.02	216.21
387.40	215.98
387.78	216.07
388.15	216.02
388.53	216.05
388.91	215.79
389.29	215.74
389.66	216.07
390.04	216.02
390.42	216.52
390.79	216.50
391.17	216.36
391.55	214.43
391.92	214.50
392.30	214.88
392.68	214.31
393.05	213.88
393.43	213.67
393.81	214.07
394.18	213.55
394.56	213.55
394.94	214.02
395.31	213.83
395.69	214.57
396.06	214.83
396.44	215.02
396.82	215.07
397.19	216.14
397.57	215.93
397.95	216.17
398.32	215.60
398.70	216.07
399.07	216.50
399.45	216.29
399.82	216.33
400.20	216.07
400.58	216.14
400.95	215.36
401.33	215.86
401.70	217.33
402.08	217.86
402.45	217.60
402.83	218.05
403.20	218.52
403.58	218.29
403.95	218.93
404.33	219.43
404.71	219.83
405.08	221.05
405.46	221.55
405.83	221.74
406.21	222.07
406.58	222.43
406.96	222.52
407.33	223.19
407.70	223.76
408.08	225.79
408.45	226.52
408.83	227.74
409.20	228.14
409.58	227.62
409.95	228.71
410.33	229.90
410.70	229.90
411.08	231.05
411.45	232.07
411.82	232.90
412.20	234.29
412.57	236.60
412.95	236.10
413.32	237.67
413.69	239.26
414.07	240.88
414.44	242.57
414.82	244.81
415.19	247.05
415.56	249.40
415.94	250.69
416.31	253.71
416.68	256.48
417.06	259.57
417.43	263.10
417.81	266.55
418.18	270.07
418.55	274.24
418.93	278.02
419.30	282.07
419.67	286.38
420.04	290.81
420.42	294.93
420.79	302.26
421.16	308.07
421.54	315.02
421.91	321.31
422.28	327.05
422.66	333.36
423.03	341.38
423.40	348.29
423.77	355.21
424.15	362.00
424.52	369.33
424.89	377.95
425.26	385.40
425.64	392.48
426.01	401.07
426.38	409.90
426.75	419.24
427.13	428.26
427.50	437.79
427.87	447.31
428.24	457.33
428.61	465.62
428.99	476.81
429.36	487.21
429.73	498.14
430.10	510.12
430.47	521.83
430.85	532.12
431.22	544.36
431.59	559.12
431.96	571.64
432.33	586.24
432.70	599.71
433.08	616.00
433.45	631.45
433.82	646.17
434.19	662.93
434.56	679.43
434.93	695.74
435.30	711.19
435.68	729.02
436.05	745.69
436.42	762.50
436.79	778.14
437.16	795.05
437.53	813.31
437.90	831.07
438.27	848.52
438.64	866.88
439.01	884.07
439.38	897.52
439.75	912.79
440.13	929.31
440.50	944.67
440.87	957.02
441.24	970.48
441.61	985.40
441.98	996.67
442.35	1009.02
442.72	1021.38
443.09	1035.19
443.46	1042.24
443.83	1047.90
444.20	1052.69
444.57	1058.19
444.94	1060.86
445.31	1063.62
445.68	1069.48
446.05	1071.00
446.42	1069.67
446.79	1068.62
447.16	1067.14
447.53	1066.26
447.90	1059.05
448.27	1053.36
448.64	1044.95
449.01	1038.76
449.37	1027.38
449.74	1016.52
450.11	1005.05
450.48	990.17
450.85	974.29
451.22	962.83
451.59	951.48
451.96	940.45
452.33	925.43
452.70	911.67
453.07	895.43
453.43	875.52
453.80	859.24
454.17	843.38
454.54	827.67
454.91	811.43
455.28	795.19
455.65	781.02
456.02	769.57
456.38	756.93
456.75	741.60
457.12	727.95
457.49	714.83
457.86	700.71
458.23	691.21
458.59	679.79
458.96	667.40
459.33	656.45
459.70	645.38
460.07	637.05
460.43	627.76
460.80	618.83
461.17	611.57
461.54	603.57
461.91	595.38
462.27	587.60
462.64	580.38
463.01	572.71
463.38	566.62
463.74	555.79
464.11	549.48
464.48	543.71
464.85	538.02
465.21	533.55
465.58	528.71
465.95	521.90
466.32	516.88
466.68	511.67
467.05	506.40
467.42	501.33
467.78	496.17
468.15	491.26
468.52	487.43
468.88	482.02
469.25	477.10
469.62	473.95
469.98	469.90
470.35	466.55
470.72	463.21
471.08	458.29
471.45	455.40
471.82	452.48
472.18	448.74
472.55	446.45
472.92	442.76
473.28	439.48
473.65	437.00
474.02	433.98
474.38	432.29
474.75	430.74
475.11	428.93
475.48	426.79
475.85	424.93
476.21	423.31
476.58	422.05
476.94	421.00
477.31	419.52
477.67	418.55
478.04	417.62
478.41	416.98
478.77	418.43
479.14	417.26
479.50	416.40
479.87	416.12
480.23	415.79
480.60	415.57
480.96	415.62
481.33	416.24
481.69	416.79
482.06	416.50
482.42	416.48
482.79	416.38
483.15	417.33
483.52	418.29
483.88	418.64
484.25	418.93
484.61	419.57
484.98	420.24
485.34	421.90
485.71	423.57
486.07	424.67
486.44	424.05
486.80	425.62
487.17	427.36
487.53	429.95
487.90	432.40
488.26	435.24
488.62	438.19
488.99	439.88
489.35	442.62
489.72	445.10
490.08	447.88
490.44	450.79
490.81	453.81
491.17	456.86
491.54	460.26
491.90	464.05
492.26	467.74
492.63	471.40
492.99	474.29
493.36	478.45
493.72	483.02
494.08	487.40
494.45	492.38
494.81	497.36
495.17	501.31
495.54	506.10
495.90	510.57
496.26	515.55
496.63	520.95
496.99	525.95
497.35	531.55
497.72	537.24
498.08	543.07
498.44	548.79
498.80	555.21
499.17	561.55
499.53	568.05
499.89	574.67
500.26	581.69
500.62	588.48
500.98	595.00
501.34	601.69
501.71	609.07
502.07	616.19
502.43	622.90
502.79	629.90
503.16	637.02
503.52	643.98
503.88	650.52
504.24	658.14
504.60	665.60
504.97	673.50
505.33	681.02
505.69	689.74
506.05	697.21
506.41	704.76
506.78	712.33
507.14	719.40
507.50	727.40
507.86	735.26
508.22	743.64
508.59	751.29
508.95	759.05
509.31	767.79
509.67	775.43
510.03	783.07
510.39	791.24
510.75	798.93
511.12	806.79
511.48	815.24
511.84	822.74
512.20	830.43
512.56	838.26
512.92	845.43
513.28	852.55
513.64	860.57
514.00	867.67
514.37	874.69
514.73	882.33
515.09	889.98
515.45	897.31
515.81	904.07
516.17	910.45
516.53	916.83
516.89	922.52
517.25	929.33
517.61	936.50
517.97	942.36
518.33	948.69
518.69	955.64
519.05	961.71
519.41	968.02
519.77	975.57
520.13	980.62
520.49	986.29
520.85	991.50
521.21	997.90
521.57	1003.79
521.93	1008.86
522.29	1014.74
522.65	1019.17
523.01	1023.79
523.37	1028.69
523.73	1034.14
524.09	1039.67
524.45	1044.43
524.81	1048.67
525.17	1053.38
525.53	1058.40
525.89	1063.71
526.25	1068.24
526.61	1071.79
526.97	1075.43
527.33	1078.93
527.68	1085.62
528.04	1090.05
528.40	1094.36
528.76	1097.95
529.12	1101.83
529.48	1107.67
529.84	1111.48
530.20	1117.02
530.56	1121.48
530.91	1125.95
531.27	1130.02
531.63	1134.12
531.99	1137.52
532.35	1141.83
532.71	1145.71
533.07	1150.36
533.42	1155.90
533.78	1160.67
534.14	1165.93
534.50	1170.21
534.86	1174.90
535.21	1176.86
535.57	1182.29
535.93	1185.93
536.29	1190.36
536.65	1194.38
537.00	1197.17
537.36	1200.29
537.72	1203.07
538.08	1206.86
538.44	1210.19
538.79	1214.24
539.15	1217.14
539.51	1221.45
539.87	1225.19
540.22	1228.83
540.58	1231.74
540.94	1233.48
541.29	1234.86
541.65	1236.21
542.01	1239.71
542.37	1241.62
542.72	1244.29
543.08	1245.62
543.44	1249.05
543.79	1250.88
544.15	1254.14
544.51	1257.69
544.87	1261.67
545.22	1264.40
545.58	1266.98
545.94	1268.88
546.29	1271.21
546.65	1274.10
547.01	1275.81
547.36	1278.14
547.72	1279.88
548.07	1282.48
548.43	1284.33
548.79	1286.98
549.14	1289.95
549.50	1292.71
549.86	1294.43
550.21	1297.38
550.57	1300.45
550.92	1302.62
551.28	1304.86
551.64	1307.36
551.99	1309.33
552.35	1311.29
552.70	1313.31
553.06	1316.14
553.41	1319.76
553.77	1324.19
554.13	1327.31
554.48	1331.69
554.84	1335.62
555.19	1339.52
555.55	1344.38
555.90	1347.79
556.26	1351.71
556.61	1356.31
556.97	1359.05
557.32	1363.00
557.68	1367.05
558.03	1369.76
558.39	1373.33
558.74	1377.69
559.10	1381.38
559.45	1385.88
559.81	1390.38
560.16	1394.81
560.52	1398.69
560.87	1402.95
561.23	1405.93
561.58	1411.79
561.94	1415.33
562.29	1419.74
562.64	1424.40
563.00	1427.12
563.35	1431.69
563.71	1437.31
564.06	1441.21
564.42	1447.10
564.77	1452.74
565.12	1458.40
565.48	1466.60
565.83	1473.05
566.19	1478.74
566.54	1483.57
566.89	1488.00
567.25	1493.81
567.60	1501.17
567.96	1509.07
568.31	1516.00
568.66	1522.43
569.02	1527.02
569.37	1533.21
569.72	1538.79
570.08	1543.74
570.43	1550.33
570.78	1556.69
571.14	1561.76
571.49	1567.50
571.84	1572.93
572.20	1578.38
572.55	1583.14
572.90	1586.50
573.26	1590.38
573.61	1595.05
573.96	1600.64
574.31	1606.62
574.67	1611.17
575.02	1614.57
575.37	1616.50
575.72	1619.86
576.08	1624.50
576.43	1628.50
576.78	1632.07
577.13	1635.62
577.49	1639.55
577.84	1643.21
578.19	1646.74
578.54	1650.55
578.90	1654.86
579.25	1657.79
579.60	1660.05
579.95	1662.52
580.30	1665.38
580.66	1669.79
581.01	1673.95
581.36	1677.33
581.71	1679.76
582.06	1683.71
582.42	1687.19
582.77	1690.43
583.12	1693.10
583.47	1695.60
583.82	1698.62
584.17	1702.50
584.53	1705.88
584.88	1709.12
585.23	1712.26
585.58	1714.90
585.93	1717.14
586.28	1720.33
586.63	1723.48
586.98	1727.55
587.34	1731.83
587.69	1734.57
588.04	1736.55
588.39	1737.95
588.74	1738.88
589.09	1741.43
589.44	1741.83
589.79	1743.71
590.14	1746.55
590.49	1749.38
590.84	1751.29
591.19	1753.48
591.54	1755.05
591.89	1755.64
592.25	1759.05
592.60	1759.67
592.95	1760.71
593.30	1763.69
593.65	1764.55
594.00	1765.81
594.35	1772.50
594.70	1772.10
595.05	1773.98
595.40	1775.38
595.75	1776.38
596.10	1778.81
596.45	1779.64
596.80	1781.67
597.15	1782.60
597.50	1782.74
597.85	1783.43
598.19	1782.29
598.54	1782.14
598.89	1781.19
599.24	1783.14
599.59	1782.24
599.94	1783.31
600.29	1784.10
600.64	1783.62
600.99	1783.74
601.34	1783.86
601.69	1778.50
602.04	1779.14
602.39	1779.10
602.74	1779.24
603.08	1779.38
603.43	1779.50
603.78	1779.36
604.13	1778.48
604.48	1777.98
604.83	1777.95
605.18	1777.88
605.53	1778.21
605.87	1777.57
606.22	1778.02
606.57	1776.24
606.92	1775.05
607.27	1774.02
607.62	1773.38
607.96	1771.69
608.31	1771.74
608.66	1770.45
609.01	1768.74
609.36	1767.74
609.70	1766.74
610.05	1764.40
610.40	1761.90
610.75	1759.33
611.10	1757.69
611.44	1754.86
611.79	1752.14
612.14	1749.74
612.49	1746.26
612.83	1743.76
613.18	1741.40
613.53	1738.71
613.88	1735.00
614.22	1732.00
614.57	1727.86
614.92	1724.00
615.27	1720.71
615.61	1715.74
615.96	1712.52
616.31	1708.60
616.65	1706.60
617.00	1703.24
617.35	1699.88
617.70	1697.57
618.04	1693.43
618.39	1689.43
618.74	1687.29
619.08	1683.64
619.43	1680.17
619.78	1677.29
620.12	1675.07
620.47	1671.88
620.82	1667.79
621.16	1664.00
621.51	1661.14
621.85	1658.05
622.20	1654.07
622.55	1650.74
622.89	1647.69
623.24	1645.05
623.59	1642.21
623.93	1636.81
624.28	1632.45
624.62	1631.10
624.97	1627.14
625.32	1623.71
625.66	1620.38
626.01	1615.26
626.35	1612.48
626.70	1608.48
627.04	1604.31
627.39	1600.14
627.73	1596.60
628.08	1593.60
628.43	1590.19
628.77	1586.40
629.12	1583.26
629.46	1580.33
629.81	1575.98
630.15	1571.69
630.50	1566.07
630.84	1560.50
631.19	1556.17
631.53	1551.48
631.88	1543.67
632.22	1537.40
632.57	1533.55
632.91	1528.64
633.26	1525.00
633.60	1518.95
633.95	1514.67
634.29	1509.38
634.64	1504.57
634.98	1499.40
635.32	1495.10
635.67	1491.36
636.01	1485.83
636.36	1479.95
636.70	1475.55
637.05	1470.83
637.39	1465.98
637.73	1461.71
638.08	1458.55
638.42	1453.33
638.77	1449.12
639.11	1445.76
639.45	1442.67
639.80	1436.86
640.14	1431.98
640.49	1427.48
640.83	1422.14
641.17	1417.19
641.52	1412.33
641.86	1406.57
642.20	1402.95
642.55	1396.43
642.89	1390.64
643.23	1384.90
643.58	1380.55
643.92	1374.93
644.26	1369.93
644.61	1364.71
644.95	1359.38
645.29	1352.71
645.64	1348.24
645.98	1342.36
646.32	1337.10
646.66	1330.86
647.01	1326.02
647.35	1320.57
647.69	1314.24
648.04	1309.88
648.38	1304.07
648.72	1298.45
649.06	1292.81
649.41	1285.50
649.75	1279.79
650.09	1273.69
650.43	1268.45
650.78	1262.10
651.12	1255.10
651.46	1248.48
651.80	1242.38
652.14	1236.26
652.49	1231.57
652.83	1224.29
653.17	1217.62
653.51	1210.76
653.85	1204.45
654.20	1197.93
654.54	1190.74
654.88	1184.36
655.22	1178.36
655.56	1171.79
655.90	1165.19
656.25	1158.60
656.59	1152.57
656.93	1146.10
657.27	1140.88
657.61	1134.29
657.95	1129.12
658.29	1122.88
658.64	1117.88
658.98	1111.55
659.32	1104.60
659.66	1097.17
660.00	1091.90
660.34	1086.07
660.68	1079.62
661.02	1073.45
661.36	1067.88
661.70	1062.52
662.05	1056.83
662.39	1050.38
662.73	1045.24
663.07	1040.52
663.41	1034.79
663.75	1028.38
664.09	1023.05
664.43	1016.67
664.77	1010.74
665.11	1004.07
665.45	998.26
665.79	992.67
666.13	986.52
666.47	981.00
666.81	975.81
667.15	969.95
667.49	964.52
667.83	959.60
668.17	954.33
668.51	948.48
668.85	943.45
669.19	938.60
669.53	932.71
669.87	926.00
670.21	919.57
670.55	913.90
670.89	909.10
671.23	903.26
671.57	897.45
671.91	892.45
672.25	887.17
672.58	883.38
672.92	876.26
673.26	871.19
673.60	865.83
673.94	860.88
674.28	855.69
674.62	850.76
674.96	845.76
675.30	840.81
675.64	835.81
675.97	830.12
676.31	824.38
676.65	819.50
676.99	815.69
677.33	810.48
677.67	805.90
678.01	800.19
678.34	795.81
678.68	791.24
679.02	785.86
679.36	780.17
679.70	773.95
680.04	769.98
680.37	765.21
680.71	760.29
681.05	755.29
681.39	750.07
681.73	744.60
682.06	739.67
682.40	735.17
682.74	730.43
683.08	726.50
683.42	721.14
683.75	716.14
684.09	710.93
684.43	706.33
684.77	701.55
685.10	697.00
685.44	692.02
685.78	687.24
686.12	682.76
686.45	678.14
686.79	673.21
687.13	668.86
687.46	664.31
687.80	660.60
688.14	655.88
688.48	652.14
688.81	648.31
689.15	644.21
689.49	639.26
689.82	634.88
690.16	629.14
690.50	625.24
690.83	620.98
691.17	615.98
691.51	611.81
691.84	607.69
692.18	603.64
692.52	599.69
692.85	595.95
693.19	592.67
693.52	588.90
693.86	585.00
694.20	580.52
694.53	576.31
694.87	571.55
695.21	567.71
695.54	563.02
695.88	558.21
696.21	552.95
696.55	549.24
696.88	545.14
697.22	542.02
697.56	538.24
697.89	534.55
698.23	531.45
698.56	527.40
698.90	523.81
699.23	520.12
699.57	516.38
699.90	512.48
700.24	508.02
700.58	504.64
700.91	501.52
701.25	499.64
701.58	497.29
701.92	494.62
702.25	491.31
702.59	487.79
702.92	484.93
703.26	482.14
703.59	479.02
703.93	477.76
704.26	474.81
704.60	471.50
704.93	468.55
705.26	465.14
705.60	462.45
705.93	458.93
706.27	456.33
706.60	453.60
706.94	451.43
707.27	448.33
707.61	445.40
707.94	442.48
708.27	438.00
708.61	434.43
708.94	431.60
709.28	428.86
709.61	426.93
709.94	424.71
710.28	422.29
710.61	419.45
710.95	414.81
711.28	413.79
711.61	411.48
711.95	409.55
712.28	406.88
712.61	404.62
712.95	403.29
713.28	401.52
713.61	399.21
713.95	396.62
714.28	394.69
714.61	392.43
714.95	390.31
715.28	388.19
715.61	385.52
715.95	383.55
716.28	381.31
716.61	379.43
716.95	377.00
717.28	374.69
717.61	372.62
717.94	370.88
718.28	367.21
718.61	365.60
718.94	363.07
719.27	361.52
719.61	359.79
719.94	357.67
720.27	354.86
720.60	352.71
720.94	350.69
721.27	348.98
721.60	347.74
721.93	346.05
722.27	345.07
722.60	343.95
722.93	341.88
723.26	340.52
723.59	338.36
723.93	336.81
724.26	335.69
724.59	334.21
724.92	332.98
725.25	332.14
725.59	330.57
725.92	329.74
726.25	328.21
726.58	326.88
726.91	325.24
727.24	324.64
727.57	323.43
727.91	322.00
728.24	321.07
728.57	319.55
728.90	318.57
729.23	316.71
729.56	316.40
729.89	315.26
730.22	313.86
730.55	312.50
730.89	311.45
731.22	310.07
731.55	308.88
731.88	307.74
732.21	306.50
732.54	305.21
732.87	304.05
733.20	303.31
733.53	302.02
733.86	301.02
734.19	299.17
734.52	298.69
734.85	299.14
735.18	297.74
735.51	297.52
735.84	296.52
736.17	296.00
736.50	294.14
736.83	295.76
737.16	294.88
737.49	294.45
737.82	293.24
738.15	292.69
738.48	292.10
738.81	291.07
739.14	290.07
739.47	288.93
739.80	287.83
740.13	287.05
740.46	286.05
740.79	284.88
741.12	284.48
741.45	283.21
741.78	281.17
742.11	280.95
742.44	279.83
742.77	279.31
743.10	278.26
743.43	277.19
743.75	274.07
744.08	276.05
744.41	274.83
744.74	274.14
745.07	273.02
745.40	272.45
745.73	272.64
746.06	271.93
746.39	271.62
746.71	270.62
747.04	269.62
747.37	269.05
747.70	268.93
748.03	268.12
748.36	267.67
748.68	267.07
749.01	265.67
749.34	264.95
749.67	264.29
750.00	264.19
750.33	265.40
750.65	265.33
750.98	262.26
751.31	261.95
751.64	261.83
751.97	262.48
752.29	262.02
752.62	260.45
752.95	259.88
753.28	259.17
753.60	258.71
753.93	258.83
754.26	258.26
754.59	257.17
754.91	256.64
755.24	256.02
755.57	255.74
755.90	255.45
756.22	254.79
756.55	253.81
756.88	253.00
757.20	250.98
757.53	249.95
757.86	249.26
758.19	248.88
758.51	248.45
758.84	246.86
759.17	246.24
759.49	245.95
759.82	246.38
760.15	246.36
760.47	245.90
760.80	244.98
761.13	244.98
761.45	244.62
761.78	244.10
762.11	243.69
762.43	242.95
762.76	242.55
763.08	242.55
763.41	242.60
763.74	242.07
764.06	241.74
764.39	241.36
764.71	240.90
765.04	240.31
765.37	239.48
765.69	239.38
766.02	238.95
766.34	238.64
766.67	237.52
767.00	237.33
767.32	238.19
767.65	239.00
767.97	238.76
768.30	238.69
768.62	238.57
768.95	238.00
769.27	237.69
769.60	237.76
769.92	237.07
770.25	236.52
770.57	235.83
770.90	235.67
771.22	235.21
771.55	235.14
771.87	235.12
772.20	235.07
772.52	236.45
772.85	238.57
773.17	238.40
773.50	237.93
773.82	237.36
774.15	236.21
774.47	234.81
774.80	234.33
775.12	234.02
775.45	233.67
775.77	233.74
776.09	233.90
776.42	233.57
776.74	234.05
777.07	233.60
777.39	233.71
777.72	233.29
778.04	233.36
778.36	233.00
778.69	232.95
779.01	232.76
779.33	230.62
779.66	228.14
779.98	227.62
780.31	227.60
780.63	228.24
780.95	228.48
781.28	228.21
781.60	227.81
781.92	227.36
782.25	227.24
782.57	226.95
782.89	226.31
783.22	225.95
783.54	224.98
783.86	225.17
784.19	225.00
784.51	225.43
784.83	224.93
785.16	225.02
785.48	224.71
785.80	224.52
786.12	224.98
786.45	224.83
786.77	224.98
787.09	224.79
787.42	224.07
787.74	223.81
788.06	223.83
788.38	223.62
788.71	223.60
789.03	223.60
789.35	223.88
789.67	223.64
789.99	223.74
790.32	223.52
790.64	223.60
790.96	225.33
791.28	224.48
791.61	224.43
791.93	224.19
792.25	224.00
792.57	225.62
792.89	225.07
793.21	225.19
793.54	224.69
793.86	224.38
794.18	224.29
794.50	223.83
794.82	223.64
795.14	224.02
795.47	224.33
795.79	224.19
796.11	223.62
796.43	223.60
796.75	223.57
797.07	223.69
797.39	223.43
797.71	221.57
798.04	221.98
798.36	221.98
798.68	221.71
799.00	221.79
799.32	220.17
799.64	220.45
799.96	220.12
800.28	220.64
800.60	220.74
800.92	220.76
801.24	220.45
801.56	220.74
801.89	220.43
802.21	220.45
802.53	219.98
802.85	220.24
803.17	221.14
803.49	220.69
803.81	220.55
804.13	220.40
804.45	220.40
804.77	220.43
805.09	220.52
805.41	220.26
805.73	219.95
806.05	219.64
806.37	219.31
806.69	219.38
807.01	219.14
807.33	219.26
807.65	218.62
807.97	219.86
808.28	219.43
808.60	219.26
808.92	218.93
809.24	220.38
809.56	220.02
809.88	219.38
810.20	219.40
810.52	219.83
810.84	219.71
811.16	219.36
811.48	219.33
811.80	219.88
812.12	220.00
812.43	220.38
812.75	220.55
813.07	220.36
813.39	220.14
813.71	219.88
814.03	219.48
814.35	219.60
814.67	218.55
814.98	218.31
815.30	218.24
815.62	217.88
815.94	216.45
816.26	216.71
816.58	216.07
816.89	216.14
817.21	215.45
817.53	215.48
817.85	215.40
818.17	215.12
818.48	214.33
818.80	214.67
819.12	214.38
819.44	213.98
819.76	213.93
820.07	214.02
820.39	213.98
820.71	214.02
821.03	213.90
821.34	213.86
821.66	214.50
821.98	214.86
822.30	214.90
822.61	216.21
822.93	215.76
823.25	215.95
823.57	215.76
823.88	216.05
824.20	215.98
824.52	216.48
824.83	216.43
825.15	216.07
825.47	216.00
825.79	216.21
826.10	216.19
826.42	216.02
826.74	216.31
827.05	216.24
827.37	216.19
827.69	216.29
828.00	216.48
828.32	216.12
828.64	215.55
828.95	216.69
829.27	215.95
829.58	215.90
829.90	216.07
830.22	216.38
830.53	216.02
830.85	215.52
831.17	215.17
831.48	214.98
831.80	215.36
832.11	215.26
832.43	214.98
832.75	215.05
833.06	216.19
833.38	215.76
833.69	215.81
834.01	216.14
834.32	215.86
834.64	215.24
834.96	215.29
835.27	215.50
835.59	214.76
835.90	214.45
836.22	214.60
836.53	214.21
836.85	213.83
837.16	215.95
837.48	216.52
837.79	217.12
838.11	217.40
838.42	217.40
838.74	217.60
839.05	217.19
839.37	217.05
839.68	215.79
840.00	215.62
840.31	215.79
840.63	215.45
840.94	215.45
841.26	215.60
841.57	215.69
841.88	215.90
842.20	215.62
842.51	215.48
842.83	215.33
843.14	217.17
843.46	217.36
843.77	216.31
844.08	215.74
844.40	215.00
844.71	214.74
845.03	214.40
845.34	214.26
845.65	214.26
845.97	214.17
846.28	214.33
846.60	214.48
846.91	214.12
847.22	214.07
847.54	214.52
847.85	214.52
848.16	214.19
848.48	213.79
848.79	214.74
849.10	214.83
849.42	215.14
849.73	213.26
850.04	213.07
850.36	212.38
850.67	213.07
850.98	213.26
851.30	213.45
851.61	213.40
851.92	213.40
852.23	214.19
852.55	214.48
852.86	214.57
853.17	214.69
853.49	215.40
853.80	215.74
854.11	215.88
854.42	216.14
854.74	216.14
855.05	216.31
855.36	215.14
855.67	215.29
855.99	215.33
856.30	218.02
856.61	218.02
856.92	217.93
857.23	217.74
857.55	217.67
857.86	217.50
858.17	217.86
858.48	217.43
858.79	216.81
859.11	217.05
859.42	217.10
859.73	216.79
860.04	216.33
860.35	215.83
860.66	215.26
860.98	215.48
861.29	215.64
861.60	215.43
861.91	215.76
862.22	215.55
862.53	215.24
862.84	212.48
863.16	213.05
863.47	212.69
863.78	212.52
864.09	212.29
864.40	212.57
864.71	212.57
865.02	213.00
865.33	212.86
865.64	212.33
865.95	212.29
866.27	213.62
866.58	213.50
866.89	213.81
867.20	213.74
867.51	213.40
867.82	213.19
868.13	213.90
868.44	213.71
868.75	213.98
869.06	214.02
869.37	214.48
869.68	213.71
869.99	214.10
870.30	214.10
870.61	214.50
870.92	214.07
871.23	213.83
871.54	214.12
871.85	214.81
872.16	215.07
872.47	214.45
872.78	213.19
873.09	213.50
873.40	213.36
873.71	213.29
874.02	213.19
874.33	213.12
874.64	212.40
874.95	212.74
875.26	212.19
875.56	212.21
875.87	211.95
876.18	211.98
876.49	214.02
876.80	214.14
877.11	213.69
877.42	213.90
877.73	213.93
878.04	213.36
878.35	213.29
878.66	213.29
878.96	213.57
879.27	213.60
879.58	213.43
879.89	213.36
880.20	214.14
880.51	213.98
880.82	213.81
881.12	214.10
881.43	213.67
881.74	213.55
882.05	213.43
882.36	213.64
882.67	213.83
882.97	211.62
883.28	211.38
883.59	211.36
883.90	211.55
884.21	211.76
884.51	211.69
884.82	211.21
885.13	211.24
885.44	211.21
885.74	211.14
886.05	210.95
886.36	211.07
886.67	210.31
886.98	211.31
887.28	211.67
887.59	211.62
887.90	211.55
888.20	211.40
888.51	211.52
888.82	211.14
889.13	211.26
889.43	213.05
889.74	212.76
890.05	212.76
890.35	212.62
890.66	212.38
890.97	212.40
891.28	212.45
891.58	212.43
891.89	212.55
892.20	212.36
892.50	212.31
892.81	212.14
893.12	212.21
893.42	211.36
893.73	211.38
894.04	211.31
894.34	211.45
894.65	211.60
894.95	211.60
895.26	211.76
895.57	212.57
895.87	210.50
896.18	210.86
896.48	211.12
896.79	210.88
897.10	211.21
897.40	211.43
897.71	211.67
898.01	211.31
898.32	211.64
898.63	211.64
898.93	211.67
899.24	211.74
899.54	211.57
899.85	211.52
900.15	211.26
900.46	211.14
900.76	211.31
901.07	211.26
901.38	211.12
901.68	211.36
901.99	210.38
902.29	210.62
902.60	210.45
902.90	210.21
903.21	210.21
903.51	210.12
903.82	210.43
904.12	210.48
904.43	210.86
904.73	210.71
905.03	210.79
905.34	212.83
905.64	212.60
905.95	212.64
906.25	212.69
906.56	212.55
906.86	212.55
907.17	212.38
907.47	212.60
907.77	212.36
908.08	212.05
908.38	212.33
908.69	212.55
908.99	213.07
909.30	213.05
909.60	213.24
909.90	213.26
910.21	212.57
910.51	212.14
910.81	212.10
911.12	212.12
911.42	212.21
911.73	210.21
912.03	210.52
912.33	211.12
912.64	211.00
912.94	210.90
913.24	210.81
913.55	210.71
913.85	210.29
914.15	210.60
914.46	210.81
914.76	210.31
915.06	210.07
915.37	209.74
915.67	209.62
915.97	209.50
916.27	209.10
916.58	209.31
916.88	209.14
917.18	209.26
917.49	210.43
917.79	210.31
918.09	210.67
918.39	210.93
918.70	210.55
919.00	210.57
919.30	211.64
919.60	211.64
919.91	211.31
920.21	211.67
920.51	211.31
920.81	211.33
921.12	211.93
921.42	211.86
921.72	212.07
922.02	212.33
922.32	212.67
922.63	212.88
922.93	213.93
923.23	214.14
923.53	213.55
923.83	212.21
924.13	212.48
924.44	212.26
924.74	212.67
925.04	213.10
925.34	213.29
925.64	212.43
925.94	212.38
926.24	213.98
926.55	214.07
926.85	214.57
927.15	214.50
927.45	214.26
927.75	214.17
928.05	213.98
928.35	213.83
928.65	214.19
928.95	214.26
929.26	213.36
929.56	213.64
929.86	214.14
930.16	214.12
930.46	214.02
930.76	214.14
931.06	213.12
931.36	212.67
931.66	212.83
931.96	213.31
932.26	213.31
932.56	212.21
932.86	212.14
933.16	212.14
933.46	211.88
933.76	211.74
934.06	212.29
934.36	213.24
934.66	213.38
934.96	212.95
935.26	213.10
935.56	213.24
935.86	212.98
936.16	212.83
936.46	212.64
936.76	212.48
937.06	212.29
937.36	212.43
937.66	212.69
937.96	212.71
938.26	212.33
938.56	212.31
938.86	212.26
939.16	212.57
939.46	212.64
939.76	212.79
940.06	212.76
940.35	212.31
940.65	211.17
940.95	211.31
941.25	210.76
941.55	210.40
941.85	210.52
942.15	210.83
942.45	211.19
942.75	211.36
943.04	211.52
943.34	211.83
943.64	211.83
943.94	211.40
944.24	211.19
944.54	211.21
944.84	211.19
945.13	211.00
945.43	210.86
945.73	210.90
946.03	210.86
946.33	210.64
946.62	210.79
946.92	210.74
947.22	210.74
947.52	210.83
947.82	211.21
948.11	210.90
948.41	210.45
948.71	210.00
949.01	210.05
949.31	209.86
949.60	209.48
949.90	209.64
950.20	209.60
950.50	209.67
950.79	209.26
951.09	209.57
951.39	209.52
951.69	209.21
951.98	209.52
952.28	209.57
952.58	209.64
952.87	209.38
953.17	209.64
953.47	209.19
953.76	209.45
954.06	209.02
954.36	208.81
954.66	208.79
954.95	209.33
955.25	209.38
955.55	209.50
955.84	209.40
956.14	209.48
956.44	209.74
956.73	209.57
957.03	209.83
957.32	209.81
957.62	209.79
957.92	210.48
958.21	210.14
958.51	212.38
958.81	212.67
959.10	212.95
959.40	213.38
959.69	213.36
959.99	213.60
960.29	213.64
960.58	213.52
960.88	214.43
961.17	214.14
961.47	214.40
961.76	214.33
962.06	214.83
962.36	214.64
962.65	214.74
962.95	214.76
963.24	214.93
963.54	215.19
963.83	215.50
964.13	214.95
964.42	214.43
964.72	213.02
965.01	213.02
965.31	212.86
965.60	212.57
965.90	214.02
966.19	213.43
966.49	213.48
966.78	213.50
967.08	213.29
967.37	213.45
967.67	213.14
967.96	213.40
968.26	213.10
968.55	213.62
968.85	213.62
969.14	213.50
969.43	213.24
969.73	212.95
970.02	212.79
970.32	212.95
970.61	213.29
970.91	212.60
971.20	212.26
971.49	212.14
971.79	212.21
972.08	210.95
972.38	211.31
972.67	211.14
972.96	211.45
973.26	210.93
973.55	211.48
973.85	211.36
974.14	211.12
974.43	211.36
974.73	210.98
975.02	210.57
975.31	210.57
975.61	210.64
975.90	210.17
976.19	210.02
976.49	210.10
976.78	210.02
977.07	209.76
977.37	209.90
977.66	210.17
977.95	209.64
978.24	209.90
978.54	210.43
978.83	210.43
979.12	210.33
979.42	210.19
979.71	209.71
980.00	209.76
980.29	209.95
980.59	209.45
980.88	209.95
981.17	210.12
981.46	210.29
981.76	210.14
982.05	211.00
982.34	211.02
982.63	211.12
982.93	211.17
983.22	211.81
983.51	211.95
983.80	212.14
984.09	212.48
984.39	212.19
984.68	211.69
984.97	211.88
985.26	211.55
985.55	211.98
985.85	211.69
986.14	212.07
986.43	212.33
986.72	212.31
987.01	211.60
987.30	211.57
987.59	211.31
987.89	211.50
988.18	210.95
988.47	211.07
988.76	210.90
989.05	210.67
989.34	210.36
989.63	210.95
989.92	210.57
990.22	210.38
990.51	210.19
990.80	210.19
991.09	210.26
991.38	210.45
991.67	210.21
991.96	210.02
992.25	210.05
992.54	209.55
992.83	209.74
993.12	209.67
993.41	209.76
993.70	210.83
993.99	210.93
994.28	211.24
994.58	211.36
994.87	211.07
995.16	211.07
995.45	210.69
995.74	209.93
996.03	210.36
996.32	210.71
996.61	211.52
996.90	211.43
997.19	211.33
997.48	211.64
997.77	211.40
998.06	211.50
998.34	210.90
998.63	210.83
998.92	210.79
999.21	211.19
999.50	211.31
999.79	210.29
1000.08	210.43
1000.37	210.21
1000.66	209.95
1000.95	210.38
1001.24	210.69
1001.53	211.26
1001.82	211.19
1002.11	210.57
1002.40	210.83
1002.68	210.90
1002.97	212.26
1003.26	212.31
1003.55	211.93
1003.84	212.14
1004.13	212.83
1004.42	213.17
1004.71	213.36
1004.99	213.31
1005.28	213.64
1005.57	213.38
1005.86	213.26
1006.15	213.05
1006.44	212.86
1006.72	213.10
1007.01	212.67
1007.30	212.67
1007.59	212.33
1007.88	212.29
1008.17	212.50
1008.45	211.86
1008.74	211.05
1009.03	210.14
1009.32	209.90
1009.60	209.95
1009.89	209.93
1010.18	209.05
1010.47	208.71
1010.76	208.64
1011.04	208.62
1011.33	208.71
1011.62	209.05
1011.91	209.26
1012.19	209.45
1012.48	209.50
1012.77	209.45
1013.05	210.50
1013.34	210.40
1013.63	210.45
1013.92	210.88
1014.20	210.67
1014.49	210.90
1014.78	211.38
1015.06	210.74
1015.35	210.90
1015.64	211.33
1015.92	211.48
1016.21	211.79
1016.50	211.79
1016.78	211.90
1017.07	212.07
1017.36	211.52
1017.64	211.14
1017.93	211.45
1018.22	211.12
1018.50	211.02
1018.79	210.86
1019.08	209.95
1019.36	210.05
1019.65	209.60
1019.93	209.86
1020.22	210.57
1020.51	211.69
1020.79	211.24
1021.08	206.00
1021.36	204.50
1021.65	208.00
1021.94	209.50
1022.22	213.00
1022.51	202.50
1022.79	220.00
1023.08	219.00
1023.36	236.00
1023.65	204.50
>>>>>End Processed Spectral Data<<<<<
