SpectraSuite Data File
++++++++++++++++++++++++++++++++++++
Date: Tue Apr 02 18:37:36 EDT 2013
User: group
Dark Spectrum Present: No
Reference Spectrum Present: No
Number of Sampled Component Spectra: 1
Spectrometers: USB2E7196
Integration Time (usec): 580000 (USB2E7196)
Spectra Averaged: 2 (USB2E7196)
Boxcar Smoothing: 10 (USB2E7196)
Correct for Electrical Dark: No (USB2E7196)
Strobe/Lamp Enabled: No (USB2E7196)
Correct for Detector Non-linearity: No (USB2E7196)
Correct for Stray Light: No (USB2E7196)
Number of Pixels in Processed Spectrum: 2048
>>>>>Begin Processed Spectral Data<<<<<
339.09	0.00
339.48	197.50
339.86	195.00
340.24	195.50
340.63	194.00
341.01	230.50
341.39	199.00
341.78	205.00
342.16	210.00
342.54	204.50
342.93	197.40
343.31	207.17
343.69	207.45
344.07	207.95
344.46	208.81
344.84	209.64
345.22	208.45
345.60	208.95
345.99	209.14
346.37	208.83
346.75	208.95
347.13	208.98
347.52	209.10
347.90	209.98
348.28	210.02
348.66	210.69
349.05	210.10
349.43	210.38
349.81	210.50
350.19	210.71
350.57	210.81
350.96	210.64
351.34	211.05
351.72	211.12
352.10	211.19
352.48	211.00
352.87	211.00
353.25	211.10
353.63	210.90
354.01	210.88
354.39	211.45
354.77	211.60
355.15	212.14
355.54	211.93
355.92	211.24
356.30	211.45
356.68	212.33
357.06	212.76
357.44	212.60
357.82	212.64
358.20	213.81
358.58	213.93
358.97	214.17
359.35	214.50
359.73	215.00
360.11	214.95
360.49	214.88
360.87	214.98
361.25	215.43
361.63	216.24
362.01	216.50
362.39	216.33
362.77	216.48
363.15	216.33
363.53	216.31
363.91	216.40
364.29	216.17
364.67	214.43
365.05	214.19
365.43	214.57
365.81	214.95
366.19	214.98
366.57	215.69
366.95	215.60
367.33	215.05
367.71	215.07
368.09	215.83
368.47	215.95
368.85	215.74
369.23	216.00
369.61	215.21
369.99	215.67
370.37	215.95
370.75	217.00
371.13	216.55
371.51	216.45
371.89	216.62
372.27	216.86
372.65	217.19
373.03	217.26
373.41	216.98
373.78	217.00
374.16	215.69
374.54	214.83
374.92	214.57
375.30	214.76
375.68	214.45
376.06	214.21
376.44	214.21
376.82	214.31
377.19	214.21
377.57	214.29
377.95	213.69
378.33	213.48
378.71	212.33
379.09	212.69
379.47	213.02
379.84	212.88
380.22	212.52
380.60	212.14
380.98	212.05
381.36	211.86
381.73	211.60
382.11	212.07
382.49	211.95
382.87	211.93
383.25	212.07
383.62	214.21
384.00	213.98
384.38	214.02
384.76	214.50
385.13	215.26
385.51	215.19
385.89	215.19
386.27	215.17
386.64	215.52
387.02	215.14
387.40	215.10
387.78	215.31
388.15	215.55
388.53	215.55
388.91	215.55
389.29	215.52
389.66	215.45
390.04	215.38
390.42	215.93
390.79	216.10
391.17	215.79
391.55	213.64
391.92	213.55
392.30	213.69
392.68	213.24
393.05	213.14
393.43	213.31
393.81	213.21
394.18	213.10
394.56	213.00
394.94	213.52
395.31	213.24
395.69	213.71
396.06	214.00
396.44	214.17
396.82	214.05
397.19	215.17
397.57	215.12
397.95	215.45
398.32	215.00
398.70	215.33
399.07	215.95
399.45	216.02
399.82	216.10
400.20	216.19
400.58	216.33
400.95	215.36
401.33	215.88
401.70	217.40
402.08	217.55
402.45	217.55
402.83	218.24
403.20	218.76
403.58	218.74
403.95	219.26
404.33	219.74
404.71	220.07
405.08	221.36
405.46	221.71
405.83	222.14
406.21	222.62
406.58	223.02
406.96	223.10
407.33	223.98
407.70	224.74
408.08	226.81
408.45	227.74
408.83	229.05
409.20	229.74
409.58	229.60
409.95	231.02
410.33	232.21
410.70	232.50
411.08	233.50
411.45	234.67
411.82	235.64
412.20	237.24
412.57	239.83
412.95	239.86
413.32	242.07
413.69	243.64
414.07	245.74
414.44	247.90
414.82	250.52
415.19	253.17
415.56	256.00
415.94	257.48
416.31	260.43
416.68	263.79
417.06	267.45
417.43	271.40
417.81	275.24
418.18	279.43
418.55	283.93
418.93	288.71
419.30	293.48
419.67	298.74
420.04	303.74
420.42	308.81
420.79	316.81
421.16	323.48
421.54	331.36
421.91	338.86
422.28	345.95
422.66	353.50
423.03	362.43
423.40	370.17
423.77	378.60
424.15	387.31
424.52	396.12
424.89	406.26
425.26	415.17
425.64	424.00
426.01	434.05
426.38	444.29
426.75	455.24
427.13	466.48
427.50	477.64
427.87	490.14
428.24	501.81
428.61	511.76
428.99	524.64
429.36	537.17
429.73	550.40
430.10	564.31
430.47	578.21
430.85	590.86
431.22	605.74
431.59	622.86
431.96	638.52
432.33	655.64
432.70	671.90
433.08	690.79
433.45	708.95
433.82	727.33
434.19	748.40
434.56	768.50
434.93	787.05
435.30	805.86
435.68	826.74
436.05	847.90
436.42	868.60
436.79	887.81
437.16	908.79
437.53	930.02
437.90	951.05
438.27	972.24
438.64	994.81
439.01	1015.88
439.38	1033.38
439.75	1050.50
440.13	1070.64
440.50	1089.43
440.87	1105.71
441.24	1122.36
441.61	1139.86
441.98	1152.38
442.35	1167.55
442.72	1183.48
443.09	1200.19
443.46	1209.36
443.83	1216.50
444.20	1222.43
444.57	1230.14
444.94	1233.76
445.31	1238.36
445.68	1244.74
446.05	1247.48
446.42	1245.67
446.79	1244.07
447.16	1242.50
447.53	1242.40
447.90	1234.98
448.27	1227.74
448.64	1217.17
449.01	1209.74
449.37	1196.67
449.74	1183.60
450.11	1169.79
450.48	1152.43
450.85	1133.74
451.22	1119.10
451.59	1104.60
451.96	1091.29
452.33	1072.36
452.70	1056.12
453.07	1035.57
453.43	1013.12
453.80	993.07
454.17	974.55
454.54	955.98
454.91	935.69
455.28	916.26
455.65	898.81
456.02	884.07
456.38	869.07
456.75	850.79
457.12	834.83
457.49	819.67
457.86	802.90
458.23	790.95
458.59	776.95
458.96	763.02
459.33	749.86
459.70	736.93
460.07	726.67
460.43	715.05
460.80	704.64
461.17	696.02
461.54	686.19
461.91	676.40
462.27	667.02
462.64	659.31
463.01	650.10
463.38	641.67
463.74	629.98
464.11	622.17
464.48	614.74
464.85	607.02
465.21	601.81
465.58	595.79
465.95	587.88
466.32	582.24
466.68	575.31
467.05	569.50
467.42	563.33
467.78	557.36
468.15	551.31
468.52	546.98
468.88	540.33
469.25	534.86
469.62	531.00
469.98	526.62
470.35	522.60
470.72	518.40
471.08	513.17
471.45	510.05
471.82	506.45
472.18	502.67
472.55	500.24
472.92	496.12
473.28	492.69
473.65	489.67
474.02	486.10
474.38	483.74
474.75	481.31
475.11	478.60
475.48	476.64
475.85	474.29
476.21	472.12
476.58	470.81
476.94	469.19
477.31	467.57
477.67	466.24
478.04	464.43
478.41	463.86
478.77	465.52
479.14	463.64
479.50	463.17
479.87	462.64
480.23	462.05
480.60	461.95
480.96	461.60
481.33	462.43
481.69	462.67
482.06	463.21
482.42	463.88
482.79	464.93
483.15	465.62
483.52	467.67
483.88	468.48
484.25	469.43
484.61	471.02
484.98	472.21
485.34	474.12
485.71	476.29
486.07	477.67
486.44	477.52
486.80	480.02
487.17	482.24
487.53	485.64
487.90	488.55
488.26	492.29
488.62	495.79
488.99	497.93
489.35	501.67
489.72	504.71
490.08	507.79
490.44	511.24
490.81	515.26
491.17	518.57
491.54	523.74
491.90	528.48
492.26	533.26
492.63	538.38
492.99	542.98
493.36	548.88
493.72	554.90
494.08	560.52
494.45	567.05
494.81	573.57
495.17	579.45
495.54	586.45
495.90	592.12
496.26	598.86
496.63	606.50
496.99	613.38
497.35	621.55
497.72	630.02
498.08	637.90
498.44	646.14
498.80	654.81
499.17	662.29
499.53	670.55
499.89	679.90
500.26	688.60
500.62	697.43
500.98	706.50
501.34	715.76
501.71	725.83
502.07	735.02
502.43	744.45
502.79	753.83
503.16	762.76
503.52	772.76
503.88	781.76
504.24	791.19
504.60	800.93
504.97	811.07
505.33	820.55
505.69	831.57
506.05	841.60
506.41	851.74
506.78	861.76
507.14	872.64
507.50	881.93
507.86	892.02
508.22	902.10
508.59	911.71
508.95	921.95
509.31	932.76
509.67	942.62
510.03	952.86
510.39	962.57
510.75	972.55
511.12	982.26
511.48	992.95
511.84	1003.43
512.20	1013.33
512.56	1022.60
512.92	1032.76
513.28	1042.67
513.64	1052.57
514.00	1062.14
514.37	1071.88
514.73	1080.40
515.09	1090.07
515.45	1099.02
515.81	1108.33
516.17	1117.05
516.53	1125.45
516.89	1133.33
517.25	1141.74
517.61	1150.40
517.97	1159.57
518.33	1168.24
518.69	1176.90
519.05	1184.88
519.41	1192.88
519.77	1202.21
520.13	1209.93
520.49	1216.50
520.85	1223.12
521.21	1231.02
521.57	1238.19
521.93	1244.90
522.29	1252.57
522.65	1258.98
523.01	1265.76
523.37	1271.81
523.73	1278.40
524.09	1284.48
524.45	1289.76
524.81	1295.38
525.17	1301.02
525.53	1306.05
525.89	1311.02
526.25	1316.60
526.61	1321.50
526.97	1325.57
527.33	1329.74
527.68	1336.14
528.04	1341.10
528.40	1345.07
528.76	1348.36
529.12	1352.21
529.48	1357.38
529.84	1360.64
530.20	1364.62
530.56	1369.14
530.91	1373.62
531.27	1377.24
531.63	1381.38
531.99	1384.98
532.35	1388.14
532.71	1390.74
533.07	1394.71
533.42	1400.45
533.78	1403.71
534.14	1407.29
534.50	1410.10
534.86	1413.64
535.21	1414.50
535.57	1417.69
535.93	1420.17
536.29	1424.38
536.65	1427.36
537.00	1428.86
537.36	1431.33
537.72	1433.05
538.08	1434.19
538.44	1435.21
538.79	1437.83
539.15	1439.24
539.51	1441.45
539.87	1443.81
540.22	1445.57
540.58	1446.76
540.94	1446.52
541.29	1447.19
541.65	1447.17
542.01	1449.40
542.37	1447.93
542.72	1448.52
543.08	1447.88
543.44	1449.12
543.79	1447.98
544.15	1448.31
544.51	1449.62
544.87	1450.00
545.22	1450.24
545.58	1451.12
545.94	1451.62
546.29	1450.69
546.65	1450.43
547.01	1449.71
547.36	1449.50
547.72	1448.76
548.07	1448.83
548.43	1447.36
548.79	1445.69
549.14	1445.19
549.50	1443.52
549.86	1443.40
550.21	1442.33
550.57	1442.43
550.92	1440.43
551.28	1439.81
551.64	1438.05
551.99	1436.43
552.35	1434.52
552.70	1433.33
553.06	1431.38
553.41	1429.79
553.77	1429.38
554.13	1427.55
554.48	1427.33
554.84	1425.98
555.19	1425.31
555.55	1424.52
555.90	1423.48
556.26	1422.86
556.61	1421.33
556.97	1419.26
557.32	1417.64
557.68	1415.90
558.03	1413.60
558.39	1412.26
558.74	1410.14
559.10	1408.69
559.45	1407.00
559.81	1404.88
560.16	1403.67
560.52	1402.52
560.87	1401.24
561.23	1397.64
561.58	1397.55
561.94	1394.74
562.29	1392.33
562.64	1390.14
563.00	1386.48
563.35	1384.17
563.71	1382.07
564.06	1380.69
564.42	1379.90
564.77	1378.76
565.12	1377.95
565.48	1379.02
565.83	1378.36
566.19	1377.26
566.54	1375.90
566.89	1373.88
567.25	1373.88
567.60	1373.79
567.96	1373.60
568.31	1372.50
568.66	1372.74
569.02	1369.07
569.37	1366.69
569.72	1365.79
570.08	1363.71
570.43	1362.14
570.78	1360.98
571.14	1359.45
571.49	1357.38
571.84	1354.76
572.20	1352.98
572.55	1350.76
572.90	1346.29
573.26	1343.31
573.61	1340.17
573.96	1337.83
574.31	1335.29
574.67	1331.24
575.02	1326.83
575.37	1322.02
575.72	1318.07
576.08	1314.64
576.43	1311.83
576.78	1309.02
577.13	1305.12
577.49	1301.79
577.84	1298.83
578.19	1294.52
578.54	1291.48
578.90	1288.07
579.25	1284.57
579.60	1280.19
579.95	1276.02
580.30	1272.50
580.66	1268.90
581.01	1264.90
581.36	1260.05
581.71	1255.81
582.06	1252.93
582.42	1249.50
582.77	1245.17
583.12	1240.76
583.47	1235.71
583.82	1232.48
584.17	1228.26
584.53	1224.90
584.88	1221.12
585.23	1217.29
585.58	1213.31
585.93	1208.00
586.28	1204.21
586.63	1200.86
586.98	1196.71
587.34	1193.57
587.69	1189.76
588.04	1184.67
588.39	1180.69
588.74	1175.71
589.09	1171.98
589.44	1165.86
589.79	1161.00
590.14	1157.12
590.49	1152.74
590.84	1148.45
591.19	1143.76
591.54	1139.69
591.89	1134.86
592.25	1131.83
592.60	1126.83
592.95	1122.60
593.30	1118.43
593.65	1113.79
594.00	1108.00
594.35	1110.21
594.70	1104.69
595.05	1099.93
595.40	1096.36
595.75	1091.69
596.10	1088.00
596.45	1083.62
596.80	1080.48
597.15	1076.17
597.50	1070.86
597.85	1068.48
598.19	1064.74
598.54	1060.31
598.89	1055.60
599.24	1051.88
599.59	1046.62
599.94	1042.50
600.29	1037.86
600.64	1033.74
600.99	1029.48
601.34	1026.31
601.69	1015.60
602.04	1011.33
602.39	1006.36
602.74	1002.24
603.08	998.00
603.43	994.60
603.78	990.00
604.13	985.50
604.48	980.81
604.83	977.43
605.18	971.67
605.53	966.90
605.87	962.21
606.22	958.24
606.57	953.19
606.92	948.40
607.27	944.07
607.62	940.14
607.96	936.02
608.31	931.74
608.66	927.17
609.01	922.90
609.36	918.74
609.70	915.00
610.05	910.74
610.40	907.38
610.75	902.83
611.10	898.79
611.44	894.31
611.79	889.95
612.14	885.55
612.49	880.81
612.83	876.14
613.18	871.60
613.53	867.05
613.88	862.33
614.22	857.00
614.57	852.12
614.92	847.45
615.27	843.24
615.61	838.10
615.96	833.17
616.31	828.43
616.65	824.29
617.00	819.48
617.35	814.90
617.70	809.64
618.04	805.07
618.39	800.19
618.74	796.12
619.08	791.48
619.43	787.05
619.78	783.02
620.12	779.12
620.47	775.17
620.82	770.57
621.16	766.50
621.51	764.60
621.85	760.17
622.20	756.45
622.55	751.62
622.89	748.24
623.24	745.07
623.59	741.50
623.93	737.79
624.28	734.86
624.62	733.12
624.97	730.86
625.32	727.05
625.66	723.67
626.01	720.12
626.35	717.48
626.70	713.86
627.04	711.05
627.39	707.57
627.73	704.90
628.08	701.98
628.43	698.76
628.77	693.79
629.12	690.95
629.46	687.76
629.81	685.02
630.15	681.14
630.50	677.48
630.84	673.74
631.19	670.14
631.53	665.79
631.88	659.74
632.22	654.81
632.57	651.88
632.91	648.12
633.26	644.62
633.60	640.12
633.95	636.74
634.29	632.74
634.64	629.07
634.98	624.81
635.32	622.24
635.67	619.17
636.01	616.19
636.36	612.55
636.70	609.95
637.05	606.38
637.39	603.45
637.73	600.31
638.08	597.74
638.42	594.90
638.77	592.50
639.11	589.95
639.45	587.21
639.80	584.14
640.14	581.71
640.49	578.45
640.83	575.86
641.17	573.52
641.52	570.64
641.86	568.14
642.20	566.21
642.55	562.36
642.89	559.29
643.23	556.31
643.58	553.90
643.92	549.83
644.26	547.07
644.61	544.86
644.95	541.95
645.29	538.71
645.64	535.98
645.98	532.57
646.32	530.21
646.66	526.93
647.01	523.74
647.35	521.02
647.69	518.60
648.04	516.07
648.38	512.50
648.72	510.26
649.06	507.60
649.41	504.45
649.75	502.07
650.09	499.60
650.43	496.88
650.78	494.26
651.12	491.55
651.46	488.79
651.80	485.69
652.14	482.71
652.49	481.02
652.83	478.12
653.17	476.12
653.51	473.10
653.85	471.29
654.20	469.19
654.54	466.05
654.88	463.43
655.22	461.90
655.56	459.38
655.90	456.57
656.25	454.12
656.59	451.74
656.93	449.29
657.27	447.95
657.61	445.62
657.95	443.71
658.29	441.95
658.64	440.52
658.98	438.31
659.32	436.69
659.66	434.14
660.00	432.10
660.34	430.07
660.68	427.88
661.02	425.40
661.36	422.86
661.70	421.17
662.05	419.31
662.39	417.07
662.73	416.40
663.07	415.74
663.41	414.29
663.75	412.02
664.09	410.31
664.43	407.24
664.77	405.79
665.11	403.21
665.45	401.38
665.79	399.76
666.13	398.12
666.47	396.07
666.81	394.36
667.15	392.55
667.49	391.07
667.83	390.12
668.17	388.50
668.51	387.05
668.85	385.67
669.19	384.93
669.53	382.48
669.87	380.36
670.21	378.02
670.55	376.45
670.89	376.10
671.23	374.74
671.57	373.45
671.91	371.95
672.25	370.88
672.58	370.14
672.92	367.93
673.26	366.64
673.60	365.52
673.94	363.98
674.28	362.74
674.62	361.17
674.96	359.36
675.30	358.21
675.64	357.36
675.97	356.43
676.31	354.50
676.65	353.33
676.99	352.79
677.33	351.05
677.67	349.62
678.01	347.31
678.34	346.10
678.68	345.43
679.02	344.10
679.36	342.74
679.70	341.07
680.04	339.93
680.37	338.83
680.71	337.10
681.05	336.26
681.39	335.21
681.73	333.90
682.06	332.64
682.40	331.67
682.74	330.57
683.08	330.02
683.42	328.76
683.75	328.14
684.09	326.07
684.43	325.29
684.77	323.71
685.10	322.98
685.44	321.86
685.78	320.57
686.12	319.43
686.45	318.33
686.79	317.02
687.13	316.43
687.46	314.86
687.80	314.55
688.14	313.24
688.48	312.29
688.81	311.64
689.15	311.21
689.49	309.79
689.82	308.81
690.16	306.88
690.50	306.00
690.83	304.60
691.17	303.64
691.51	302.50
691.84	302.07
692.18	301.05
692.52	299.86
692.85	299.21
693.19	299.24
693.52	298.50
693.86	297.50
694.20	296.60
694.53	295.93
694.87	294.98
695.21	294.00
695.54	293.21
695.88	291.69
696.21	290.21
696.55	289.81
696.88	288.93
697.22	288.12
697.56	287.64
697.89	286.98
698.23	286.64
698.56	285.55
698.90	284.90
699.23	284.14
699.57	283.76
699.90	282.45
700.24	281.00
700.58	280.19
700.91	280.00
701.25	280.76
701.58	280.79
701.92	280.52
702.25	279.62
702.59	278.67
702.92	278.36
703.26	277.95
703.59	277.14
703.93	278.07
704.26	277.95
704.60	277.31
704.93	276.71
705.26	275.64
705.60	275.79
705.93	274.50
706.27	274.45
706.60	274.21
706.94	274.83
707.27	274.02
707.61	273.60
707.94	272.81
708.27	271.00
708.61	269.74
708.94	268.98
709.28	268.81
709.61	268.48
709.94	268.29
710.28	267.62
710.61	267.02
710.95	264.52
711.28	265.10
711.61	264.33
711.95	264.24
712.28	263.88
712.61	263.33
712.95	264.48
713.28	264.90
713.61	264.14
713.95	262.88
714.28	262.55
714.61	261.98
714.95	261.29
715.28	260.29
715.61	259.74
715.95	259.31
716.28	258.48
716.61	258.14
716.95	257.29
717.28	257.07
717.61	256.57
717.94	256.45
718.28	254.40
718.61	253.81
718.94	252.98
719.27	252.60
719.61	251.98
719.94	250.62
720.27	248.71
720.60	248.10
720.94	247.64
721.27	247.57
721.60	247.88
721.93	247.57
722.27	248.02
722.60	248.07
722.93	247.69
723.26	247.67
723.59	247.17
723.93	247.17
724.26	246.74
724.59	246.33
724.92	246.10
725.25	246.55
725.59	246.02
725.92	246.00
726.25	245.79
726.58	245.81
726.91	245.40
727.24	245.67
727.57	245.45
727.91	244.81
728.24	244.50
728.57	243.50
728.90	243.45
729.23	242.26
729.56	242.90
729.89	242.24
730.22	241.86
730.55	241.29
730.89	241.02
731.22	240.71
731.55	240.48
731.88	240.21
732.21	239.55
732.54	239.55
732.87	239.17
733.20	239.02
733.53	238.81
733.86	238.90
734.19	238.21
734.52	238.31
734.85	239.50
735.18	239.12
735.51	239.64
735.84	239.38
736.17	239.81
736.50	238.67
736.83	240.98
737.16	240.86
737.49	241.00
737.82	240.57
738.15	240.67
738.48	240.52
738.81	240.19
739.14	239.52
739.47	239.26
739.80	239.07
740.13	239.07
740.46	238.31
740.79	237.74
741.12	237.69
741.45	236.98
741.78	235.76
742.11	236.21
742.44	235.45
742.77	235.69
743.10	235.21
743.43	234.86
743.75	232.50
744.08	234.79
744.41	234.40
744.74	234.12
745.07	233.62
745.40	233.67
745.73	234.60
746.06	234.62
746.39	234.71
746.71	234.57
747.04	233.90
747.37	233.98
747.70	234.36
748.03	234.36
748.36	234.81
748.68	234.33
749.01	233.43
749.34	233.48
749.67	233.24
750.00	233.50
750.33	234.93
750.65	234.98
750.98	232.43
751.31	232.48
751.64	232.50
751.97	233.48
752.29	233.31
752.62	232.02
752.95	231.79
753.28	231.52
753.60	231.07
753.93	231.76
754.26	231.64
754.59	230.71
754.91	230.31
755.24	229.81
755.57	229.76
755.90	229.88
756.22	229.38
756.55	228.74
756.88	228.05
757.20	226.38
757.53	225.67
757.86	225.67
758.19	225.43
758.51	225.43
758.84	224.02
759.17	223.95
759.49	224.00
759.82	225.33
760.15	225.33
760.47	225.24
760.80	224.31
761.13	224.64
761.45	224.52
761.78	224.31
762.11	224.29
762.43	224.12
762.76	223.62
763.08	223.95
763.41	224.14
763.74	224.05
764.06	223.83
764.39	223.90
764.71	223.45
765.04	223.24
765.37	222.93
765.69	222.90
766.02	222.55
766.34	222.31
766.67	221.00
767.00	221.02
767.32	222.14
767.65	223.40
767.97	223.00
768.30	223.10
768.62	223.10
768.95	222.74
769.27	222.52
769.60	222.93
769.92	222.60
770.25	222.17
770.57	221.90
770.90	221.88
771.22	221.40
771.55	221.64
771.87	221.79
772.20	221.62
772.52	223.33
772.85	225.95
773.17	226.02
773.50	225.88
773.82	225.60
774.15	224.62
774.47	223.19
774.80	222.93
775.12	223.05
775.45	223.19
775.77	223.29
776.09	223.55
776.42	223.40
776.74	223.74
777.07	223.81
777.39	223.76
777.72	223.60
778.04	224.17
778.36	223.88
778.69	223.81
779.01	223.93
779.33	222.43
779.66	219.93
779.98	219.69
780.31	219.67
780.63	220.62
780.95	220.76
781.28	220.88
781.60	220.76
781.92	220.57
782.25	220.26
782.57	220.07
782.89	219.74
783.22	219.67
783.54	219.33
783.86	219.24
784.19	219.29
784.51	219.93
784.83	219.48
785.16	219.17
785.48	219.00
785.80	218.86
786.12	218.69
786.45	218.69
786.77	218.69
787.09	218.57
787.42	217.40
787.74	217.40
788.06	217.26
788.38	217.00
788.71	216.52
789.03	216.48
789.35	216.88
789.67	216.60
789.99	216.43
790.32	216.40
790.64	216.69
790.96	218.24
791.28	217.40
791.61	217.24
791.93	217.52
792.25	217.43
792.57	218.95
792.89	218.57
793.21	218.33
793.54	218.17
793.86	218.00
794.18	218.43
794.50	217.76
794.82	217.95
795.14	218.29
795.47	218.88
795.79	219.07
796.11	218.48
796.43	218.45
796.75	218.45
797.07	218.17
797.39	217.93
797.71	216.31
798.04	216.55
798.36	216.69
798.68	216.60
799.00	216.81
799.32	215.57
799.64	215.95
799.96	216.14
800.28	216.40
800.60	216.14
800.92	216.21
801.24	216.33
801.56	216.05
801.89	215.86
802.21	216.05
802.53	215.64
802.85	216.02
803.17	217.05
803.49	216.79
803.81	216.57
804.13	216.60
804.45	216.45
804.77	216.36
805.09	216.24
805.41	216.05
805.73	215.76
806.05	215.60
806.37	215.45
806.69	215.26
807.01	215.36
807.33	215.83
807.65	215.12
807.97	216.10
808.28	215.90
808.60	216.02
808.92	215.79
809.24	217.24
809.56	217.05
809.88	216.29
810.20	216.55
810.52	217.07
810.84	216.67
811.16	216.67
811.48	216.69
811.80	217.57
812.12	217.71
812.43	217.79
812.75	217.86
813.07	217.62
813.39	217.88
813.71	217.36
814.03	216.98
814.35	216.93
814.67	216.17
814.98	216.29
815.30	216.33
815.62	215.79
815.94	214.21
816.26	214.40
816.58	214.02
816.89	213.93
817.21	213.40
817.53	213.74
817.85	213.83
818.17	213.79
818.48	212.95
818.80	213.29
819.12	213.21
819.44	212.83
819.76	212.55
820.07	212.64
820.39	212.86
820.71	213.07
821.03	213.14
821.34	212.95
821.66	213.21
821.98	213.17
822.30	213.12
822.61	214.69
822.93	214.36
823.25	214.43
823.57	214.31
823.88	214.67
824.20	214.57
824.52	214.79
824.83	214.76
825.15	214.55
825.47	214.43
825.79	214.71
826.10	214.48
826.42	214.74
826.74	214.64
827.05	214.52
827.37	214.64
827.69	214.57
828.00	214.48
828.32	214.17
828.64	214.02
828.95	215.07
829.27	214.45
829.58	214.48
829.90	214.79
830.22	214.98
830.53	214.62
830.85	214.38
831.17	213.95
831.48	213.83
831.80	213.83
832.11	213.69
832.43	213.33
832.75	213.45
833.06	214.57
833.38	214.00
833.69	214.07
834.01	214.17
834.32	214.36
834.64	214.31
834.96	214.36
835.27	214.40
835.59	213.88
835.90	213.52
836.22	213.43
836.53	213.07
836.85	212.67
837.16	214.69
837.48	214.81
837.79	215.40
838.11	215.60
838.42	215.86
838.74	216.02
839.05	216.02
839.37	216.02
839.68	214.67
840.00	214.43
840.31	214.69
840.63	214.38
840.94	214.00
841.26	213.76
841.57	213.79
841.88	213.93
842.20	213.57
842.51	213.19
842.83	213.17
843.14	214.83
843.46	215.05
843.77	214.07
844.08	213.93
844.40	213.45
844.71	213.38
845.03	213.12
845.34	212.95
845.65	212.93
845.97	212.88
846.28	213.10
846.60	213.40
846.91	212.90
847.22	212.64
847.54	213.05
847.85	213.24
848.16	213.19
848.48	212.74
848.79	213.60
849.10	213.86
849.42	214.02
849.73	212.43
850.04	212.31
850.36	211.48
850.67	211.83
850.98	211.74
851.30	211.86
851.61	211.86
851.92	211.88
852.23	212.43
852.55	212.50
852.86	212.45
853.17	212.83
853.49	213.36
853.80	214.00
854.11	214.29
854.42	214.64
854.74	214.60
855.05	214.95
855.36	214.10
855.67	214.29
855.99	214.45
856.30	217.00
856.61	217.17
856.92	217.33
857.23	217.29
857.55	217.43
857.86	217.14
858.17	217.45
858.48	217.05
858.79	216.71
859.11	217.07
859.42	217.00
859.73	216.45
860.04	216.29
860.35	215.90
860.66	215.31
860.98	215.14
861.29	215.19
861.60	214.83
861.91	215.02
862.22	214.43
862.53	214.21
862.84	211.64
863.16	211.90
863.47	211.62
863.78	211.31
864.09	211.14
864.40	211.40
864.71	211.43
865.02	211.81
865.33	211.62
865.64	211.05
865.95	210.95
866.27	212.50
866.58	212.33
866.89	212.33
867.20	212.14
867.51	212.00
867.82	211.90
868.13	212.62
868.44	212.31
868.75	212.93
869.06	212.93
869.37	213.00
869.68	212.43
869.99	212.83
870.30	213.00
870.61	213.19
870.92	212.88
871.23	212.60
871.54	213.05
871.85	213.36
872.16	213.81
872.47	213.74
872.78	212.48
873.09	212.62
873.40	212.45
873.71	212.71
874.02	212.62
874.33	212.50
874.64	212.00
874.95	212.60
875.26	211.93
875.56	211.76
875.87	211.76
876.18	211.83
876.49	213.52
876.80	213.33
877.11	212.98
877.42	213.00
877.73	213.12
878.04	212.52
878.35	212.45
878.66	212.31
878.96	212.52
879.27	212.43
879.58	212.29
879.89	212.21
880.20	212.74
880.51	212.74
880.82	212.69
881.12	213.02
881.43	212.50
881.74	212.43
882.05	212.33
882.36	212.69
882.67	212.90
882.97	210.76
883.28	210.62
883.59	210.57
883.90	211.00
884.21	211.26
884.51	211.26
884.82	211.24
885.13	211.24
885.44	211.17
885.74	211.21
886.05	211.19
886.36	211.36
886.67	210.83
886.98	211.90
887.28	212.19
887.59	211.79
887.90	211.76
888.20	212.05
888.51	212.52
888.82	211.88
889.13	212.02
889.43	213.79
889.74	213.79
890.05	214.05
890.35	213.60
890.66	213.45
890.97	212.93
891.28	212.57
891.58	212.48
891.89	212.29
892.20	212.24
892.50	212.02
892.81	211.98
893.12	211.71
893.42	210.83
893.73	210.83
894.04	211.02
894.34	211.26
894.65	211.00
894.95	210.74
895.26	210.95
895.57	211.52
895.87	209.62
896.18	209.93
896.48	209.74
896.79	209.76
897.10	209.67
897.40	210.05
897.71	210.19
898.01	210.12
898.32	210.40
898.63	210.26
898.93	210.79
899.24	210.76
899.54	210.88
899.85	211.05
900.15	211.05
900.46	210.98
900.76	211.40
901.07	211.52
901.38	211.62
901.68	211.86
901.99	210.88
902.29	211.24
902.60	211.10
902.90	211.21
903.21	211.36
903.51	211.17
903.82	211.71
904.12	211.64
904.43	211.95
904.73	211.86
905.03	212.19
905.34	213.98
905.64	213.69
905.95	213.79
906.25	213.55
906.56	213.38
906.86	213.29
907.17	212.79
907.47	212.86
907.77	212.57
908.08	212.12
908.38	212.55
908.69	212.60
908.99	213.14
909.30	213.33
909.60	213.38
909.90	213.74
910.21	213.10
910.51	212.93
910.81	212.83
911.12	213.07
911.42	212.86
911.73	210.48
912.03	210.90
912.33	211.26
912.64	211.45
912.94	211.57
913.24	211.38
913.55	211.21
913.85	211.10
914.15	211.79
914.46	212.21
914.76	211.88
915.06	211.60
915.37	211.14
915.67	210.83
915.97	210.71
916.27	210.24
916.58	210.48
916.88	210.60
917.18	210.67
917.49	211.83
917.79	211.83
918.09	212.36
918.39	212.74
918.70	212.74
919.00	212.60
919.30	213.57
919.60	213.60
919.91	213.52
920.21	213.74
920.51	213.19
920.81	213.07
921.12	213.33
921.42	213.64
921.72	213.95
922.02	214.14
922.32	214.60
922.63	214.71
922.93	215.74
923.23	215.83
923.53	215.45
923.83	214.14
924.13	214.33
924.44	214.31
924.74	214.50
925.04	214.86
925.34	214.88
925.64	213.69
925.94	213.62
926.24	214.71
926.55	214.55
926.85	214.76
927.15	214.67
927.45	214.76
927.75	214.71
928.05	214.76
928.35	214.60
928.65	214.90
928.95	215.26
929.26	214.17
929.56	214.52
929.86	214.86
930.16	214.74
930.46	214.67
930.76	214.67
931.06	213.83
931.36	213.29
931.66	213.57
931.96	214.19
932.26	214.45
932.56	213.81
932.86	214.02
933.16	213.90
933.46	213.81
933.76	213.62
934.06	213.93
934.36	214.57
934.66	214.33
934.96	213.81
935.26	213.62
935.56	214.29
935.86	213.67
936.16	213.50
936.46	213.33
936.76	213.21
937.06	212.86
937.36	213.12
937.66	213.05
937.96	212.74
938.26	212.21
938.56	212.00
938.86	212.05
939.16	212.31
939.46	212.55
939.76	212.76
940.06	212.83
940.35	212.31
940.65	211.10
940.95	211.50
941.25	211.26
941.55	211.14
941.85	210.74
942.15	211.52
942.45	211.90
942.75	212.02
943.04	212.10
943.34	212.74
943.64	212.55
943.94	212.31
944.24	212.43
944.54	212.64
944.84	212.64
945.13	212.36
945.43	212.07
945.73	211.88
946.03	211.64
946.33	211.29
946.62	211.26
946.92	211.36
947.22	211.60
947.52	211.67
947.82	211.90
948.11	211.74
948.41	210.98
948.71	210.69
949.01	210.83
949.31	210.71
949.60	210.33
949.90	210.62
950.20	210.64
950.50	210.60
950.79	210.31
951.09	210.48
951.39	210.26
951.69	209.98
951.98	210.31
952.28	210.40
952.58	210.36
952.87	210.57
953.17	210.83
953.47	210.36
953.76	210.40
954.06	210.07
954.36	209.74
954.66	209.81
954.95	210.33
955.25	210.50
955.55	210.74
955.84	210.55
956.14	210.86
956.44	210.98
956.73	210.55
957.03	210.67
957.32	210.64
957.62	210.67
957.92	211.10
958.21	210.98
958.51	213.64
958.81	213.90
959.10	213.81
959.40	214.19
959.69	214.38
959.99	214.64
960.29	214.79
960.58	214.83
960.88	215.57
961.17	215.26
961.47	215.45
961.76	215.10
962.06	215.55
962.36	214.93
962.65	215.02
962.95	215.14
963.24	215.19
963.54	215.43
963.83	215.81
964.13	215.57
964.42	215.14
964.72	213.31
965.01	213.52
965.31	213.48
965.60	212.88
965.90	213.93
966.19	213.26
966.49	213.19
966.78	213.17
967.08	212.83
967.37	212.79
967.67	212.26
967.96	212.71
968.26	212.33
968.55	212.74
968.85	212.57
969.14	212.74
969.43	212.31
969.73	212.36
970.02	212.05
970.32	212.26
970.61	212.36
970.91	211.60
971.20	211.33
971.49	211.26
971.79	211.62
972.08	210.43
972.38	210.79
972.67	210.64
972.96	210.95
973.26	210.74
973.55	211.43
973.85	211.36
974.14	211.05
974.43	211.43
974.73	211.21
975.02	211.10
975.31	211.10
975.61	211.36
975.90	210.86
976.19	210.79
976.49	210.88
976.78	210.98
977.07	210.76
977.37	210.71
977.66	210.81
977.95	210.48
978.24	210.67
978.54	211.00
978.83	210.93
979.12	210.79
979.42	210.83
979.71	210.24
980.00	210.38
980.29	210.45
980.59	209.93
980.88	210.38
981.17	210.36
981.46	210.45
981.76	210.57
982.05	211.33
982.34	211.55
982.63	211.36
982.93	211.21
983.22	212.12
983.51	211.98
983.80	212.38
984.09	212.67
984.39	212.69
984.68	212.48
984.97	212.86
985.26	212.95
985.55	212.93
985.85	212.50
986.14	212.67
986.43	213.02
986.72	213.12
987.01	212.50
987.30	212.71
987.59	212.36
987.89	212.43
988.18	211.79
988.47	211.38
988.76	211.19
989.05	211.21
989.34	210.67
989.63	211.40
989.92	211.05
990.22	210.74
990.51	210.48
990.80	210.38
991.09	210.45
991.38	210.57
991.67	210.50
991.96	210.48
992.25	210.57
992.54	210.17
992.83	210.05
993.12	210.05
993.41	210.24
993.70	211.12
993.99	211.36
994.28	211.55
994.58	211.67
994.87	211.71
995.16	211.55
995.45	211.48
995.74	210.76
996.03	211.07
996.32	211.50
996.61	211.95
996.90	212.10
997.19	211.81
997.48	211.79
997.77	211.76
998.06	211.88
998.34	211.52
998.63	211.64
998.92	211.83
999.21	212.19
999.50	212.21
999.79	211.69
1000.08	211.57
1000.37	211.57
1000.66	211.50
1000.95	211.83
1001.24	212.19
1001.53	212.55
1001.82	212.50
1002.11	211.95
1002.40	212.00
1002.68	212.64
1002.97	213.93
1003.26	213.88
1003.55	213.40
1003.84	213.48
1004.13	214.21
1004.42	214.29
1004.71	214.07
1004.99	213.90
1005.28	214.43
1005.57	214.21
1005.86	213.95
1006.15	213.93
1006.44	213.90
1006.72	214.26
1007.01	214.07
1007.30	214.00
1007.59	213.69
1007.88	213.88
1008.17	214.14
1008.45	213.74
1008.74	212.71
1009.03	211.64
1009.32	211.67
1009.60	211.90
1009.89	211.79
1010.18	210.93
1010.47	211.05
1010.76	211.19
1011.04	211.19
1011.33	211.02
1011.62	211.19
1011.91	211.40
1012.19	211.24
1012.48	210.98
1012.77	211.02
1013.05	211.69
1013.34	211.50
1013.63	211.45
1013.92	211.60
1014.20	211.24
1014.49	211.33
1014.78	211.50
1015.06	210.88
1015.35	210.74
1015.64	210.93
1015.92	211.36
1016.21	211.50
1016.50	211.31
1016.78	211.40
1017.07	211.69
1017.36	211.05
1017.64	210.74
1017.93	210.81
1018.22	210.64
1018.50	210.62
1018.79	210.43
1019.08	209.55
1019.36	209.71
1019.65	209.50
1019.93	209.81
1020.22	210.26
1020.51	211.14
1020.79	210.81
1021.08	206.50
1021.36	205.00
1021.65	210.00
1021.94	208.00
1022.22	211.50
1022.51	207.00
1022.79	219.50
1023.08	214.50
1023.36	230.50
1023.65	203.50
>>>>>End Processed Spectral Data<<<<<
