SpectraSuite Data File
++++++++++++++++++++++++++++++++++++
Date: Tue Apr 02 18:40:59 EDT 2013
User: group
Dark Spectrum Present: No
Reference Spectrum Present: No
Number of Sampled Component Spectra: 1
Spectrometers: USB2E7196
Integration Time (usec): 580000 (USB2E7196)
Spectra Averaged: 2 (USB2E7196)
Boxcar Smoothing: 10 (USB2E7196)
Correct for Electrical Dark: No (USB2E7196)
Strobe/Lamp Enabled: No (USB2E7196)
Correct for Detector Non-linearity: No (USB2E7196)
Correct for Stray Light: No (USB2E7196)
Number of Pixels in Processed Spectrum: 2048
>>>>>Begin Processed Spectral Data<<<<<
339.09	0.00
339.48	191.50
339.86	192.00
340.24	194.50
340.63	195.50
341.01	233.50
341.39	203.00
341.78	208.00
342.16	211.50
342.54	204.00
342.93	197.31
343.31	206.98
343.69	207.86
344.07	208.57
344.46	209.36
344.84	210.07
345.22	209.07
345.60	209.48
345.99	209.50
346.37	209.62
346.75	209.71
347.13	209.74
347.52	209.98
347.90	210.71
348.28	210.76
348.66	211.48
349.05	210.88
349.43	211.14
349.81	211.60
350.19	211.62
350.57	211.93
350.96	212.24
351.34	212.74
351.72	212.81
352.10	212.81
352.48	212.76
352.87	212.69
353.25	212.50
353.63	212.52
354.01	212.79
354.39	212.86
354.77	213.14
355.15	213.69
355.54	213.36
355.92	212.79
356.30	213.12
356.68	214.05
357.06	214.02
357.44	213.69
357.82	213.57
358.20	214.45
358.58	214.33
358.97	214.10
359.35	214.36
359.73	214.57
360.11	214.60
360.49	214.79
360.87	215.00
361.25	215.21
361.63	215.81
362.01	215.69
362.39	215.48
362.77	215.69
363.15	215.71
363.53	215.76
363.91	215.98
364.29	215.67
364.67	213.67
365.05	213.81
365.43	214.07
365.81	214.12
366.19	214.38
366.57	215.19
366.95	215.38
367.33	214.83
367.71	214.81
368.09	215.36
368.47	215.24
368.85	214.93
369.23	215.48
369.61	214.83
369.99	215.45
370.37	215.52
370.75	216.38
371.13	215.83
371.51	215.57
371.89	215.36
372.27	215.62
372.65	216.17
373.03	216.26
373.41	216.26
373.78	216.33
374.16	215.17
374.54	214.64
374.92	214.48
375.30	214.69
375.68	214.48
376.06	214.71
376.44	214.60
376.82	214.88
377.19	214.60
377.57	214.69
377.95	214.07
378.33	214.10
378.71	212.83
379.09	213.40
379.47	213.81
379.84	213.86
380.22	213.57
380.60	213.02
380.98	212.90
381.36	212.71
381.73	212.21
382.11	212.60
382.49	212.69
382.87	212.31
383.25	212.50
383.62	214.83
384.00	214.17
384.38	214.21
384.76	214.50
385.13	215.40
385.51	215.29
385.89	215.31
386.27	215.45
386.64	215.81
387.02	215.45
387.40	215.45
387.78	215.67
388.15	215.76
388.53	215.90
388.91	215.88
389.29	215.79
389.66	216.33
390.04	216.00
390.42	216.45
390.79	216.86
391.17	216.55
391.55	214.38
391.92	214.45
392.30	214.83
392.68	214.79
393.05	214.36
393.43	214.24
393.81	214.38
394.18	214.14
394.56	214.19
394.94	214.69
395.31	214.40
395.69	214.90
396.06	215.19
396.44	215.24
396.82	215.10
397.19	216.48
397.57	216.19
397.95	216.69
398.32	216.00
398.70	216.14
399.07	216.67
399.45	216.74
399.82	216.79
400.20	216.50
400.58	216.12
400.95	215.43
401.33	216.17
401.70	217.52
402.08	217.69
402.45	217.79
402.83	218.29
403.20	218.48
403.58	218.17
403.95	218.86
404.33	219.50
404.71	220.02
405.08	221.02
405.46	221.31
405.83	221.57
406.21	221.93
406.58	222.33
406.96	222.69
407.33	223.14
407.70	223.86
408.08	226.07
408.45	227.24
408.83	228.69
409.20	228.90
409.58	228.36
409.95	229.43
410.33	230.45
410.70	230.64
411.08	232.10
411.45	233.40
411.82	234.24
412.20	235.76
412.57	237.93
412.95	237.45
413.32	239.33
413.69	240.81
414.07	242.38
414.44	244.19
414.82	246.17
415.19	248.62
415.56	250.93
415.94	251.90
416.31	255.10
416.68	257.76
417.06	261.43
417.43	265.38
417.81	269.19
418.18	272.81
418.55	276.86
418.93	280.83
419.30	285.00
419.67	289.50
420.04	293.98
420.42	298.62
420.79	306.24
421.16	312.00
421.54	319.24
421.91	325.90
422.28	332.60
422.66	339.60
423.03	347.90
423.40	355.12
423.77	363.38
424.15	370.43
424.52	377.95
424.89	386.83
425.26	394.55
425.64	402.21
426.01	411.00
426.38	420.29
426.75	430.02
427.13	439.98
427.50	449.90
427.87	460.05
428.24	470.43
428.61	478.90
428.99	490.71
429.36	501.71
429.73	513.31
430.10	525.21
430.47	537.36
430.85	548.45
431.22	561.50
431.59	576.31
431.96	589.69
432.33	604.62
432.70	618.69
433.08	635.55
433.45	651.67
433.82	667.38
434.19	685.19
434.56	703.00
434.93	718.83
435.30	735.17
435.68	753.76
436.05	771.64
436.42	789.45
436.79	805.50
437.16	823.71
437.53	843.19
437.90	861.76
438.27	880.45
438.64	899.43
439.01	917.88
439.38	931.90
439.75	947.02
440.13	964.45
440.50	980.69
440.87	993.83
441.24	1007.57
441.61	1022.76
441.98	1033.69
442.35	1046.10
442.72	1060.19
443.09	1073.90
443.46	1081.74
443.83	1087.76
444.20	1093.19
444.57	1099.60
444.94	1102.69
445.31	1105.45
445.68	1111.24
446.05	1112.14
446.42	1111.14
446.79	1109.71
447.16	1108.31
447.53	1107.55
447.90	1101.69
448.27	1095.29
448.64	1086.29
449.01	1080.00
449.37	1068.64
449.74	1057.26
450.11	1045.43
450.48	1030.52
450.85	1014.05
451.22	1001.00
451.59	988.52
451.96	976.40
452.33	960.40
452.70	945.88
453.07	928.00
453.43	907.67
453.80	890.71
454.17	873.86
454.54	857.10
454.91	839.90
455.28	822.74
455.65	806.69
456.02	793.98
456.38	781.02
456.75	765.02
457.12	750.95
457.49	737.50
457.86	722.95
458.23	711.79
458.59	700.05
458.96	687.45
459.33	676.02
459.70	665.14
460.07	656.55
460.43	645.79
460.80	637.19
461.17	629.38
461.54	620.76
461.91	611.81
462.27	603.31
462.64	596.24
463.01	588.90
463.38	582.19
463.74	571.10
464.11	563.90
464.48	557.24
464.85	550.67
465.21	546.24
465.58	540.67
465.95	533.86
466.32	528.45
466.68	523.69
467.05	518.52
467.42	512.64
467.78	507.00
468.15	502.07
468.52	498.29
468.88	492.83
469.25	488.14
469.62	484.95
469.98	480.81
470.35	477.24
470.72	473.71
471.08	468.45
471.45	465.83
471.82	463.14
472.18	459.50
472.55	457.12
472.92	453.43
473.28	450.12
473.65	447.00
474.02	444.43
474.38	441.83
474.75	439.62
475.11	437.17
475.48	435.36
475.85	433.74
476.21	431.24
476.58	429.57
476.94	428.62
477.31	427.10
477.67	426.26
478.04	425.07
478.41	424.02
478.77	426.12
479.14	425.12
479.50	424.40
479.87	424.69
480.23	424.31
480.60	423.86
480.96	423.88
481.33	424.81
481.69	424.98
482.06	424.95
482.42	425.24
482.79	425.90
483.15	426.17
483.52	427.12
483.88	427.90
484.25	428.43
484.61	428.57
484.98	429.33
485.34	430.88
485.71	432.33
486.07	433.55
486.44	432.69
486.80	434.24
487.17	435.67
487.53	438.00
487.90	440.21
488.26	443.52
488.62	446.40
488.99	448.57
489.35	450.98
489.72	453.79
490.08	456.45
490.44	459.29
490.81	462.60
491.17	465.69
491.54	469.19
491.90	473.24
492.26	477.36
492.63	481.64
492.99	485.10
493.36	489.43
493.72	494.29
494.08	498.36
494.45	503.52
494.81	508.90
495.17	513.21
495.54	518.38
495.90	522.76
496.26	527.76
496.63	533.50
496.99	539.43
497.35	545.33
497.72	551.95
498.08	558.40
498.44	564.26
498.80	570.79
499.17	577.05
499.53	583.67
499.89	590.76
500.26	597.60
500.62	604.33
500.98	611.76
501.34	618.48
501.71	626.48
502.07	633.45
502.43	640.67
502.79	647.55
503.16	655.14
503.52	662.79
503.88	670.05
504.24	678.05
504.60	686.12
504.97	694.02
505.33	701.36
505.69	710.02
506.05	718.71
506.41	726.36
506.78	734.93
507.14	742.74
507.50	750.81
507.86	759.07
508.22	767.50
508.59	774.86
508.95	783.12
509.31	792.02
509.67	800.12
510.03	808.38
510.39	817.69
510.75	826.36
511.12	834.26
511.48	843.02
511.84	850.29
512.20	857.83
512.56	865.43
512.92	873.64
513.28	881.05
513.64	888.74
514.00	897.02
514.37	904.48
514.73	912.57
515.09	920.98
515.45	928.33
515.81	935.43
516.17	943.43
516.53	951.07
516.89	956.93
517.25	964.33
517.61	971.67
517.97	978.33
518.33	984.45
518.69	991.90
519.05	999.05
519.41	1006.24
519.77	1014.38
520.13	1020.88
520.49	1026.60
520.85	1033.00
521.21	1040.24
521.57	1046.43
521.93	1051.76
522.29	1057.76
522.65	1062.52
523.01	1068.69
523.37	1073.86
523.73	1079.05
524.09	1084.21
524.45	1089.98
524.81	1095.50
525.17	1100.55
525.53	1105.21
525.89	1110.67
526.25	1115.86
526.61	1120.17
526.97	1124.69
527.33	1128.52
527.68	1135.45
528.04	1140.90
528.40	1144.57
528.76	1148.24
529.12	1152.79
529.48	1158.90
529.84	1163.43
530.20	1168.29
530.56	1173.02
530.91	1178.57
531.27	1183.83
531.63	1188.31
531.99	1192.62
532.35	1196.43
532.71	1201.26
533.07	1206.33
533.42	1212.52
533.78	1217.05
534.14	1222.00
534.50	1226.33
534.86	1231.31
535.21	1235.02
535.57	1239.76
535.93	1245.33
536.29	1250.81
536.65	1255.33
537.00	1258.21
537.36	1261.43
537.72	1265.43
538.08	1269.88
538.44	1273.21
538.79	1277.14
539.15	1281.33
539.51	1285.90
539.87	1290.48
540.22	1293.71
540.58	1297.50
540.94	1299.83
541.29	1303.69
541.65	1306.69
542.01	1310.93
542.37	1314.38
542.72	1316.17
543.08	1319.21
543.44	1322.26
543.79	1324.88
544.15	1329.12
544.51	1333.57
544.87	1338.50
545.22	1342.29
545.58	1345.12
545.94	1349.48
546.29	1352.36
546.65	1356.00
547.01	1358.93
547.36	1362.31
547.72	1366.21
548.07	1368.98
548.43	1371.50
548.79	1374.21
549.14	1377.19
549.50	1380.43
549.86	1382.98
550.21	1387.24
550.57	1390.76
550.92	1393.98
551.28	1397.76
551.64	1400.48
551.99	1403.74
552.35	1406.57
552.70	1409.83
553.06	1414.40
553.41	1418.55
553.77	1423.21
554.13	1426.64
554.48	1431.50
554.84	1436.29
555.19	1440.29
555.55	1446.40
555.90	1451.79
556.26	1456.05
556.61	1460.50
556.97	1464.24
557.32	1468.31
557.68	1472.29
558.03	1476.29
558.39	1480.67
558.74	1484.26
559.10	1488.62
559.45	1493.40
559.81	1498.12
560.16	1502.10
560.52	1505.62
560.87	1510.02
561.23	1513.83
561.58	1520.74
561.94	1525.19
562.29	1529.50
562.64	1534.36
563.00	1538.52
563.35	1542.62
563.71	1547.64
564.06	1553.64
564.42	1559.81
564.77	1566.24
565.12	1572.52
565.48	1580.50
565.83	1586.83
566.19	1593.43
566.54	1598.62
566.89	1604.48
567.25	1611.40
567.60	1619.62
567.96	1626.71
568.31	1633.98
568.66	1640.24
569.02	1643.74
569.37	1648.26
569.72	1654.26
570.08	1659.33
570.43	1663.93
570.78	1669.57
571.14	1674.62
571.49	1679.64
571.84	1684.33
572.20	1688.90
572.55	1692.93
572.90	1695.14
573.26	1698.57
573.61	1701.90
573.96	1706.57
574.31	1709.90
574.67	1713.36
575.02	1715.76
575.37	1717.83
575.72	1719.71
576.08	1723.43
576.43	1726.62
576.78	1730.07
577.13	1732.26
577.49	1735.21
577.84	1738.74
578.19	1741.50
578.54	1745.31
578.90	1748.02
579.25	1751.38
579.60	1753.40
579.95	1756.33
580.30	1759.76
580.66	1763.76
581.01	1767.19
581.36	1769.07
581.71	1772.83
582.06	1775.90
582.42	1778.60
582.77	1780.79
583.12	1783.00
583.47	1784.48
583.82	1786.26
584.17	1787.81
584.53	1790.67
584.88	1792.88
585.23	1794.64
585.58	1796.64
585.93	1797.21
586.28	1798.57
586.63	1799.95
586.98	1802.40
587.34	1804.93
587.69	1805.86
588.04	1807.19
588.39	1808.19
588.74	1809.33
589.09	1809.52
589.44	1808.83
589.79	1809.29
590.14	1810.90
590.49	1811.36
590.84	1811.74
591.19	1812.45
591.54	1814.17
591.89	1813.79
592.25	1816.19
592.60	1815.60
592.95	1816.10
593.30	1817.02
593.65	1817.62
594.00	1816.93
594.35	1821.55
594.70	1820.05
595.05	1819.64
595.40	1817.45
595.75	1816.36
596.10	1816.52
596.45	1816.07
596.80	1815.45
597.15	1814.90
597.50	1814.21
597.85	1813.81
598.19	1813.26
598.54	1813.21
598.89	1812.43
599.24	1811.83
599.59	1808.48
599.94	1808.29
600.29	1806.79
600.64	1805.43
600.99	1803.90
601.34	1803.76
601.69	1796.71
602.04	1795.21
602.39	1793.29
602.74	1793.48
603.08	1792.60
603.43	1791.57
603.78	1789.95
604.13	1789.40
604.48	1787.45
604.83	1785.24
605.18	1783.71
605.53	1782.00
605.87	1779.02
606.22	1775.40
606.57	1772.95
606.92	1770.88
607.27	1767.95
607.62	1766.10
607.96	1763.64
608.31	1761.21
608.66	1757.88
609.01	1755.02
609.36	1752.86
609.70	1750.93
610.05	1746.43
610.40	1743.79
610.75	1740.19
611.10	1737.64
611.44	1733.12
611.79	1729.21
612.14	1725.83
612.49	1720.86
612.83	1717.21
613.18	1713.24
613.53	1710.31
613.88	1706.02
614.22	1702.12
614.57	1698.19
614.92	1693.33
615.27	1689.62
615.61	1684.55
615.96	1679.14
616.31	1674.93
616.65	1670.83
617.00	1665.52
617.35	1662.02
617.70	1655.55
618.04	1650.43
618.39	1644.29
618.74	1640.62
619.08	1636.17
619.43	1631.57
619.78	1628.07
620.12	1622.90
620.47	1618.10
620.82	1612.10
621.16	1606.00
621.51	1602.00
621.85	1596.50
622.20	1590.64
622.55	1584.02
622.89	1579.67
623.24	1575.95
623.59	1570.40
623.93	1564.81
624.28	1560.88
624.62	1557.90
624.97	1554.86
625.32	1550.07
625.66	1545.79
626.01	1539.76
626.35	1534.90
626.70	1529.33
627.04	1523.95
627.39	1518.67
627.73	1515.64
628.08	1512.29
628.43	1508.76
628.77	1503.38
629.12	1498.86
629.46	1495.00
629.81	1490.67
630.15	1484.62
630.50	1478.67
630.84	1473.74
631.19	1467.76
631.53	1460.74
631.88	1452.43
632.22	1446.12
632.57	1440.93
632.91	1434.69
633.26	1429.19
633.60	1423.00
633.95	1417.19
634.29	1410.55
634.64	1405.12
634.98	1398.12
635.32	1392.83
635.67	1387.50
636.01	1381.60
636.36	1375.05
636.70	1369.64
637.05	1363.98
637.39	1358.79
637.73	1353.31
638.08	1348.57
638.42	1343.26
638.77	1338.81
639.11	1333.36
639.45	1327.90
639.80	1321.81
640.14	1316.93
640.49	1310.83
640.83	1305.14
641.17	1299.02
641.52	1293.43
641.86	1287.69
642.20	1282.19
642.55	1274.55
642.89	1267.14
643.23	1260.26
643.58	1255.98
643.92	1248.55
644.26	1241.60
644.61	1234.76
644.95	1228.29
645.29	1220.67
645.64	1214.67
645.98	1207.86
646.32	1201.69
646.66	1193.81
647.01	1186.57
647.35	1179.95
647.69	1173.71
648.04	1168.14
648.38	1162.14
648.72	1155.43
649.06	1148.45
649.41	1141.40
649.75	1134.52
650.09	1128.90
650.43	1122.64
650.78	1114.86
651.12	1108.00
651.46	1102.10
651.80	1095.90
652.14	1089.07
652.49	1083.62
652.83	1076.48
653.17	1069.38
653.51	1062.10
653.85	1056.21
654.20	1050.60
654.54	1042.64
654.88	1035.19
655.22	1028.36
655.56	1021.12
655.90	1015.02
656.25	1007.81
656.59	1001.43
656.93	995.88
657.27	990.24
657.61	983.45
657.95	977.62
658.29	972.10
658.64	966.02
658.98	959.67
659.32	952.93
659.66	946.38
660.00	940.19
660.34	934.55
660.68	929.55
661.02	923.57
661.36	916.76
661.70	911.95
662.05	906.93
662.39	901.02
662.73	896.24
663.07	891.31
663.41	885.60
663.75	879.50
664.09	873.33
664.43	866.48
664.77	861.02
665.11	854.14
665.45	847.93
665.79	842.45
666.13	836.98
666.47	831.19
666.81	825.98
667.15	820.55
667.49	815.38
667.83	810.26
668.17	804.74
668.51	799.43
668.85	793.74
669.19	788.90
669.53	782.88
669.87	777.19
670.21	771.17
670.55	766.48
670.89	762.10
671.23	757.21
671.57	752.19
671.91	747.38
672.25	742.90
672.58	738.67
672.92	733.31
673.26	728.19
673.60	724.19
673.94	718.71
674.28	713.62
674.62	708.88
674.96	703.90
675.30	699.38
675.64	695.17
675.97	690.50
676.31	685.19
676.65	680.55
676.99	676.98
677.33	672.26
677.67	667.95
678.01	662.67
678.34	658.48
678.68	654.88
679.02	650.00
679.36	645.93
679.70	641.31
680.04	636.45
680.37	632.48
680.71	627.98
681.05	624.38
681.39	620.50
681.73	615.79
682.06	610.93
682.40	606.76
682.74	602.45
683.08	599.19
683.42	594.88
683.75	591.36
684.09	586.17
684.43	582.26
684.77	578.05
685.10	574.17
685.44	569.81
685.78	565.17
686.12	561.19
686.45	556.98
686.79	552.67
687.13	549.40
687.46	545.21
687.80	542.10
688.14	537.83
688.48	534.07
688.81	530.36
689.15	527.29
689.49	523.38
689.82	519.50
690.16	514.98
690.50	511.52
690.83	507.43
691.17	503.17
691.51	499.64
691.84	496.26
692.18	492.83
692.52	489.81
692.85	486.64
693.19	484.45
693.52	481.38
693.86	478.31
694.20	475.07
694.53	471.95
694.87	468.21
695.21	464.71
695.54	461.43
695.88	457.81
696.21	453.93
696.55	450.86
696.88	447.83
697.22	444.86
697.56	442.29
697.89	439.21
698.23	437.19
698.56	433.79
698.90	431.21
699.23	428.07
699.57	425.02
699.90	422.12
700.24	418.60
700.58	415.69
700.91	413.43
701.25	412.24
701.58	410.29
701.92	408.14
702.25	405.90
702.59	403.19
702.92	401.26
703.26	399.07
703.59	396.88
703.93	396.31
704.26	394.33
704.60	391.76
704.93	389.64
705.26	387.21
705.60	385.79
705.93	383.40
706.27	382.38
706.60	380.81
706.94	379.48
707.27	377.07
707.61	375.05
707.94	372.81
708.27	369.17
708.61	366.55
708.94	364.12
709.28	362.19
709.61	360.40
709.94	358.67
710.28	357.12
710.61	355.43
710.95	351.62
711.28	351.17
711.61	349.52
711.95	348.26
712.28	346.62
712.61	344.86
712.95	344.31
713.28	343.19
713.61	341.21
713.95	339.31
714.28	338.14
714.61	336.62
714.95	335.02
715.28	333.24
715.61	331.90
715.95	330.90
716.28	329.43
716.61	328.24
716.95	326.43
717.28	324.45
717.61	322.88
717.94	321.50
718.28	318.52
718.61	317.05
718.94	315.31
719.27	313.76
719.61	312.62
719.94	310.24
720.27	307.55
720.60	306.14
720.94	304.55
721.27	302.98
721.60	302.24
721.93	301.19
722.27	301.12
722.60	300.14
722.93	298.55
723.26	297.40
723.59	296.17
723.93	295.38
724.26	294.86
724.59	294.02
724.92	293.38
725.25	292.83
725.59	292.12
725.92	291.40
726.25	290.69
726.58	289.55
726.91	288.81
727.24	288.17
727.57	287.48
727.91	286.57
728.24	285.93
728.57	284.60
728.90	283.90
729.23	282.31
729.56	282.48
729.89	282.05
730.22	281.33
730.55	280.55
730.89	280.00
731.22	278.95
731.55	277.93
731.88	277.36
732.21	276.31
732.54	275.24
732.87	274.48
733.20	273.98
733.53	273.48
733.86	272.98
734.19	272.17
734.52	271.57
734.85	272.24
735.18	271.55
735.51	271.86
735.84	271.26
736.17	271.12
736.50	269.36
736.83	270.83
737.16	270.40
737.49	269.95
737.82	269.21
738.15	269.00
738.48	268.43
738.81	267.64
739.14	267.02
739.47	266.14
739.80	265.69
740.13	265.17
740.46	264.40
740.79	263.55
741.12	263.05
741.45	262.43
741.78	260.74
742.11	260.64
742.44	259.19
742.77	258.88
743.10	258.07
743.43	257.43
743.75	254.57
744.08	256.24
744.41	255.64
744.74	255.02
745.07	254.17
745.40	254.10
745.73	254.69
746.06	254.00
746.39	253.95
746.71	252.98
747.04	252.29
747.37	251.57
747.70	251.48
748.03	251.33
748.36	250.88
748.68	250.36
749.01	249.55
749.34	249.29
749.67	248.76
750.00	248.50
750.33	249.67
750.65	249.64
750.98	247.05
751.31	246.74
751.64	246.43
751.97	247.38
752.29	246.74
752.62	245.40
752.95	244.95
753.28	244.60
753.60	244.52
753.93	244.74
754.26	244.60
754.59	243.67
754.91	243.02
755.24	242.79
755.57	242.48
755.90	242.10
756.22	241.64
756.55	241.14
756.88	240.45
757.20	238.69
757.53	237.67
757.86	237.33
758.19	237.29
758.51	236.93
758.84	235.40
759.17	234.93
759.49	234.60
759.82	235.62
760.15	235.71
760.47	235.40
760.80	234.50
761.13	234.62
761.45	234.33
761.78	234.07
762.11	234.00
762.43	233.57
762.76	233.26
763.08	233.17
763.41	232.88
763.74	233.07
764.06	232.93
764.39	233.05
764.71	232.76
765.04	232.05
765.37	231.55
765.69	231.43
766.02	231.19
766.34	231.10
766.67	229.93
767.00	229.81
767.32	230.62
767.65	231.69
767.97	231.14
768.30	231.14
768.62	230.93
768.95	230.26
769.27	230.29
769.60	230.14
769.92	229.81
770.25	229.43
770.57	228.62
770.90	228.29
771.22	227.71
771.55	227.64
771.87	227.64
772.20	227.52
772.52	228.86
772.85	231.02
773.17	230.79
773.50	230.67
773.82	230.12
774.15	229.05
774.47	227.60
774.80	227.40
775.12	227.36
775.45	227.21
775.77	227.31
776.09	227.24
776.42	227.38
776.74	227.62
777.07	227.50
777.39	227.81
777.72	227.55
778.04	227.74
778.36	227.40
778.69	227.62
779.01	227.71
779.33	225.76
779.66	223.74
779.98	223.43
780.31	223.33
780.63	224.26
780.95	224.55
781.28	224.36
781.60	223.90
781.92	223.81
782.25	223.81
782.57	223.64
782.89	223.14
783.22	222.79
783.54	222.19
783.86	222.24
784.19	221.90
784.51	222.50
784.83	222.21
785.16	222.19
785.48	221.98
785.80	222.07
786.12	222.45
786.45	222.07
786.77	221.95
787.09	221.86
787.42	220.88
787.74	221.02
788.06	221.14
788.38	220.88
788.71	220.52
789.03	220.38
789.35	220.57
789.67	220.45
789.99	220.50
790.32	220.40
790.64	220.67
790.96	222.10
791.28	221.14
791.61	220.83
791.93	221.05
792.25	220.81
792.57	222.05
792.89	221.57
793.21	221.67
793.54	221.71
793.86	221.40
794.18	221.40
794.50	220.62
794.82	220.55
795.14	221.07
795.47	221.40
795.79	221.33
796.11	221.10
796.43	220.95
796.75	220.90
797.07	221.05
797.39	220.90
797.71	219.62
798.04	219.88
798.36	220.26
798.68	219.69
799.00	219.88
799.32	218.67
799.64	219.02
799.96	218.81
800.28	218.98
800.60	218.81
800.92	218.81
801.24	218.86
801.56	218.71
801.89	218.55
802.21	218.76
802.53	218.60
802.85	218.81
803.17	219.93
803.49	219.48
803.81	219.21
804.13	218.90
804.45	218.43
804.77	218.48
805.09	218.40
805.41	218.55
805.73	218.26
806.05	217.86
806.37	217.81
806.69	217.71
807.01	217.76
807.33	218.14
807.65	217.50
807.97	218.36
808.28	218.36
808.60	218.24
808.92	217.74
809.24	218.74
809.56	218.24
809.88	217.36
810.20	217.79
810.52	218.29
810.84	218.00
811.16	218.21
811.48	217.98
811.80	218.57
812.12	218.36
812.43	218.69
812.75	218.64
813.07	218.14
813.39	218.24
813.71	218.12
814.03	217.67
814.35	217.83
814.67	217.07
814.98	216.64
815.30	216.69
815.62	216.19
815.94	215.02
816.26	215.40
816.58	214.93
816.89	214.95
817.21	214.48
817.53	214.40
817.85	214.48
818.17	214.55
818.48	213.90
818.80	214.19
819.12	213.67
819.44	213.24
819.76	213.10
820.07	213.36
820.39	213.10
820.71	213.38
821.03	213.48
821.34	213.26
821.66	213.86
821.98	213.90
822.30	214.12
822.61	215.33
822.93	215.05
823.25	215.05
823.57	214.76
823.88	214.90
824.20	215.07
824.52	215.36
824.83	215.38
825.15	215.12
825.47	215.10
825.79	215.12
826.10	215.17
826.42	215.33
826.74	215.40
827.05	215.29
827.37	215.05
827.69	214.64
828.00	214.62
828.32	214.57
828.64	214.31
828.95	215.33
829.27	214.83
829.58	214.71
829.90	215.19
830.22	215.00
830.53	214.79
830.85	214.64
831.17	214.05
831.48	213.88
831.80	214.14
832.11	213.93
832.43	213.74
832.75	213.79
833.06	215.02
833.38	214.38
833.69	214.45
834.01	214.79
834.32	214.88
834.64	214.67
834.96	214.69
835.27	214.74
835.59	213.88
835.90	213.26
836.22	213.12
836.53	212.69
836.85	212.86
837.16	214.81
837.48	214.88
837.79	215.55
838.11	215.81
838.42	215.67
838.74	216.00
839.05	216.10
839.37	216.10
839.68	214.48
840.00	214.38
840.31	214.52
840.63	214.36
840.94	214.12
841.26	214.05
841.57	213.86
841.88	213.95
842.20	213.98
842.51	213.95
842.83	214.29
843.14	216.26
843.46	216.21
843.77	215.07
844.08	214.86
844.40	214.24
844.71	213.90
845.03	213.60
845.34	213.38
845.65	213.26
845.97	213.31
846.28	213.76
846.60	213.93
846.91	213.71
847.22	213.67
847.54	214.26
847.85	214.55
848.16	214.43
848.48	214.24
848.79	214.81
849.10	215.24
849.42	215.00
849.73	213.07
850.04	212.86
850.36	212.07
850.67	212.38
850.98	212.40
851.30	212.64
851.61	212.62
851.92	212.76
852.23	213.33
852.55	213.43
852.86	213.19
853.17	213.36
853.49	213.67
853.80	214.12
854.11	214.17
854.42	214.21
854.74	214.12
855.05	214.14
855.36	213.19
855.67	213.19
855.99	213.36
856.30	215.79
856.61	215.83
856.92	216.07
857.23	216.05
857.55	215.88
857.86	215.62
858.17	216.02
858.48	215.64
858.79	215.60
859.11	215.74
859.42	215.83
859.73	215.57
860.04	215.43
860.35	214.69
860.66	214.24
860.98	214.31
861.29	214.45
861.60	214.52
861.91	215.02
862.22	214.71
862.53	214.21
862.84	211.76
863.16	212.48
863.47	212.14
863.78	212.17
864.09	212.26
864.40	212.60
864.71	212.74
865.02	213.00
865.33	212.36
865.64	212.17
865.95	212.21
866.27	213.26
866.58	213.26
866.89	213.52
867.20	213.33
867.51	213.00
867.82	213.10
868.13	213.71
868.44	213.38
868.75	213.57
869.06	213.98
869.37	214.26
869.68	213.29
869.99	213.67
870.30	213.67
870.61	213.90
870.92	213.45
871.23	213.10
871.54	213.29
871.85	213.86
872.16	214.19
872.47	214.17
872.78	213.19
873.09	213.26
873.40	212.98
873.71	213.21
874.02	213.14
874.33	212.62
874.64	211.90
874.95	212.12
875.26	211.64
875.56	211.60
875.87	211.48
876.18	211.67
876.49	213.67
876.80	213.21
877.11	212.64
877.42	212.81
877.73	212.98
878.04	212.81
878.35	212.88
878.66	212.81
878.96	212.45
879.27	212.57
879.58	212.74
879.89	212.71
880.20	213.38
880.51	213.50
880.82	213.50
881.12	213.71
881.43	213.43
881.74	213.38
882.05	213.17
882.36	213.14
882.67	213.26
882.97	210.86
883.28	210.98
883.59	211.21
883.90	211.43
884.21	211.62
884.51	211.57
884.82	211.29
885.13	211.14
885.44	211.05
885.74	211.14
886.05	210.98
886.36	211.17
886.67	210.33
886.98	211.10
887.28	211.69
887.59	211.83
887.90	211.86
888.20	211.74
888.51	212.12
888.82	211.71
889.13	211.86
889.43	213.74
889.74	213.62
890.05	213.52
890.35	213.31
890.66	212.95
890.97	212.69
891.28	212.40
891.58	212.60
891.89	212.93
892.20	212.60
892.50	212.02
892.81	211.76
893.12	211.93
893.42	211.26
893.73	211.07
894.04	210.93
894.34	211.33
894.65	211.52
894.95	211.19
895.26	211.81
895.57	212.95
895.87	211.10
896.18	211.45
896.48	211.62
896.79	211.60
897.10	211.74
897.40	211.55
897.71	211.90
898.01	211.64
898.32	211.90
898.63	211.95
898.93	212.48
899.24	212.40
899.54	212.43
899.85	212.43
900.15	212.33
900.46	212.33
900.76	212.21
901.07	212.14
901.38	212.12
901.68	212.10
901.99	210.90
902.29	211.02
902.60	210.90
902.90	210.57
903.21	210.69
903.51	210.98
903.82	211.69
904.12	211.55
904.43	211.55
904.73	211.26
905.03	211.26
905.34	213.14
905.64	213.38
905.95	213.26
906.25	213.21
906.56	213.29
906.86	213.33
907.17	213.24
907.47	213.24
907.77	213.19
908.08	212.71
908.38	212.93
908.69	213.10
908.99	213.55
909.30	213.98
909.60	214.12
909.90	213.95
910.21	213.45
910.51	213.21
910.81	213.38
911.12	213.69
911.42	213.90
911.73	212.02
912.03	212.14
912.33	212.57
912.64	212.57
912.94	212.43
913.24	212.14
913.55	212.00
913.85	212.19
914.15	212.50
914.46	212.90
914.76	212.40
915.06	212.29
915.37	211.95
915.67	211.83
915.97	211.67
916.27	211.21
916.58	211.12
916.88	211.24
917.18	211.12
917.49	212.10
917.79	211.81
918.09	211.90
918.39	212.24
918.70	212.12
919.00	212.05
919.30	213.10
919.60	213.00
919.91	212.83
920.21	212.71
920.51	212.38
920.81	212.12
921.12	212.55
921.42	212.26
921.72	212.29
922.02	212.10
922.32	212.43
922.63	212.71
922.93	214.02
923.23	213.98
923.53	213.62
923.83	212.55
924.13	212.81
924.44	212.76
924.74	213.07
925.04	213.45
925.34	213.57
925.64	212.67
925.94	212.90
926.24	214.05
926.55	213.88
926.85	214.17
927.15	214.33
927.45	214.45
927.75	214.88
928.05	214.93
928.35	214.83
928.65	215.19
928.95	215.17
929.26	214.33
929.56	214.69
929.86	215.05
930.16	214.76
930.46	214.57
930.76	214.43
931.06	213.60
931.36	213.31
931.66	213.40
931.96	213.45
932.26	213.48
932.56	212.76
932.86	213.05
933.16	213.33
933.46	212.93
933.76	212.52
934.06	212.76
934.36	213.60
934.66	213.79
934.96	213.24
935.26	213.40
935.56	213.55
935.86	212.90
936.16	212.67
936.46	212.60
936.76	212.74
937.06	212.67
937.36	212.83
937.66	212.76
937.96	212.69
938.26	212.50
938.56	212.21
938.86	212.05
939.16	212.40
939.46	212.45
939.76	212.71
940.06	212.88
940.35	212.45
940.65	211.31
940.95	211.21
941.25	210.98
941.55	210.67
941.85	210.48
942.15	211.10
942.45	211.69
942.75	211.64
943.04	211.64
943.34	212.14
943.64	212.10
943.94	211.69
944.24	211.57
944.54	211.69
944.84	211.57
945.13	211.45
945.43	211.12
945.73	210.79
946.03	210.62
946.33	210.17
946.62	210.14
946.92	209.98
947.22	210.19
947.52	210.14
947.82	210.52
948.11	210.48
948.41	210.17
948.71	209.60
949.01	209.88
949.31	209.69
949.60	209.48
949.90	209.74
950.20	209.79
950.50	210.05
950.79	209.74
951.09	210.19
951.39	210.19
951.69	210.07
951.98	210.52
952.28	210.69
952.58	210.93
952.87	211.07
953.17	211.40
953.47	211.21
953.76	211.19
954.06	210.90
954.36	210.62
954.66	210.64
954.95	211.52
955.25	211.57
955.55	211.62
955.84	211.33
956.14	211.45
956.44	211.50
956.73	211.19
957.03	211.29
957.32	211.19
957.62	211.19
957.92	211.60
958.21	211.36
958.51	213.83
958.81	213.93
959.10	213.79
959.40	214.21
959.69	214.29
959.99	214.83
960.29	214.71
960.58	214.67
960.88	215.52
961.17	215.02
961.47	215.24
961.76	215.17
962.06	215.45
962.36	215.05
962.65	215.12
962.95	215.10
963.24	215.17
963.54	215.19
963.83	215.17
964.13	214.88
964.42	214.55
964.72	212.69
965.01	212.79
965.31	212.79
965.60	212.52
965.90	214.00
966.19	213.48
966.49	213.86
966.78	213.79
967.08	213.48
967.37	213.26
967.67	212.95
967.96	213.43
968.26	213.40
968.55	213.79
968.85	213.76
969.14	213.81
969.43	213.60
969.73	213.38
970.02	213.62
970.32	213.38
970.61	213.29
970.91	212.60
971.20	212.36
971.49	212.19
971.79	212.43
972.08	211.05
972.38	211.26
972.67	211.02
972.96	211.55
973.26	211.00
973.55	211.69
973.85	211.57
974.14	211.45
974.43	211.45
974.73	211.26
975.02	211.05
975.31	210.98
975.61	210.93
975.90	210.76
976.19	210.36
976.49	210.86
976.78	210.98
977.07	211.00
977.37	211.07
977.66	211.43
977.95	210.93
978.24	210.81
978.54	211.19
978.83	210.83
979.12	210.52
979.42	210.52
979.71	210.14
980.00	210.10
980.29	209.93
980.59	209.52
980.88	209.86
981.17	209.69
981.46	209.88
981.76	210.21
982.05	210.93
982.34	211.02
982.63	210.95
982.93	211.10
983.22	211.86
983.51	211.98
983.80	212.10
984.09	212.40
984.39	212.48
984.68	212.33
984.97	212.55
985.26	212.31
985.55	212.48
985.85	212.07
986.14	212.64
986.43	212.86
986.72	213.02
987.01	212.38
987.30	212.60
987.59	212.36
987.89	212.24
988.18	211.57
988.47	211.62
988.76	211.36
989.05	210.95
989.34	210.48
989.63	210.76
989.92	210.40
990.22	210.12
990.51	209.93
990.80	209.67
991.09	209.90
991.38	210.12
991.67	209.98
991.96	210.07
992.25	209.95
992.54	209.62
992.83	209.52
993.12	209.81
993.41	210.17
993.70	211.02
993.99	211.48
994.28	211.74
994.58	211.86
994.87	211.69
995.16	211.74
995.45	211.67
995.74	211.17
996.03	211.50
996.32	211.76
996.61	212.38
996.90	212.21
997.19	212.19
997.48	212.29
997.77	212.05
998.06	211.98
998.34	211.71
998.63	211.79
998.92	211.76
999.21	211.69
999.50	211.95
999.79	211.10
1000.08	210.86
1000.37	210.79
1000.66	210.52
1000.95	210.95
1001.24	211.19
1001.53	211.43
1001.82	211.38
1002.11	210.90
1002.40	211.36
1002.68	211.67
1002.97	213.21
1003.26	213.07
1003.55	212.95
1003.84	213.26
1004.13	213.95
1004.42	213.88
1004.71	213.93
1004.99	213.81
1005.28	214.52
1005.57	214.24
1005.86	214.33
1006.15	214.12
1006.44	214.00
1006.72	214.43
1007.01	214.29
1007.30	214.19
1007.59	213.81
1007.88	213.81
1008.17	214.07
1008.45	213.45
1008.74	212.48
1009.03	211.43
1009.32	211.24
1009.60	211.19
1009.89	210.86
1010.18	210.17
1010.47	210.07
1010.76	209.93
1011.04	210.24
1011.33	210.29
1011.62	210.21
1011.91	210.07
1012.19	210.21
1012.48	210.29
1012.77	210.26
1013.05	211.05
1013.34	211.02
1013.63	210.95
1013.92	211.05
1014.20	210.62
1014.49	210.67
1014.78	211.02
1015.06	210.52
1015.35	210.52
1015.64	210.69
1015.92	211.07
1016.21	211.31
1016.50	211.38
1016.78	211.79
1017.07	211.74
1017.36	211.12
1017.64	211.07
1017.93	211.50
1018.22	211.52
1018.50	211.52
1018.79	211.33
1019.08	210.45
1019.36	210.64
1019.65	210.52
1019.93	211.17
1020.22	211.62
1020.51	212.90
1020.79	212.64
1021.08	211.00
1021.36	208.00
1021.65	210.50
1021.94	211.50
1022.22	211.50
1022.51	206.50
1022.79	221.50
1023.08	212.50
1023.36	238.50
1023.65	206.50
>>>>>End Processed Spectral Data<<<<<
