SpectraSuite Data File
++++++++++++++++++++++++++++++++++++
Date: Tue Apr 02 18:46:06 EDT 2013
User: group
Dark Spectrum Present: No
Reference Spectrum Present: No
Number of Sampled Component Spectra: 1
Spectrometers: USB2E7196
Integration Time (usec): 580000 (USB2E7196)
Spectra Averaged: 2 (USB2E7196)
Boxcar Smoothing: 10 (USB2E7196)
Correct for Electrical Dark: No (USB2E7196)
Strobe/Lamp Enabled: No (USB2E7196)
Correct for Detector Non-linearity: No (USB2E7196)
Correct for Stray Light: No (USB2E7196)
Number of Pixels in Processed Spectrum: 2048
>>>>>Begin Processed Spectral Data<<<<<
339.09	0.00
339.48	191.00
339.86	198.00
340.24	194.50
340.63	200.00
341.01	232.00
341.39	199.00
341.78	206.00
342.16	210.50
342.54	201.50
342.93	197.83
343.31	207.69
343.69	208.17
344.07	208.52
344.46	209.29
344.84	209.76
345.22	208.38
345.60	209.05
345.99	209.26
346.37	209.29
346.75	209.60
347.13	209.50
347.52	209.71
347.90	210.48
348.28	210.45
348.66	210.95
349.05	210.29
349.43	210.57
349.81	210.79
350.19	210.71
350.57	210.90
350.96	211.02
351.34	211.31
351.72	211.74
352.10	211.86
352.48	211.86
352.87	211.74
353.25	212.07
353.63	211.79
354.01	211.98
354.39	212.21
354.77	212.38
355.15	213.07
355.54	213.05
355.92	212.74
356.30	212.93
356.68	214.24
357.06	214.62
357.44	214.10
357.82	214.29
358.20	215.48
358.58	215.45
358.97	215.40
359.35	215.74
359.73	216.02
360.11	216.19
360.49	216.19
360.87	216.38
361.25	216.74
361.63	217.64
362.01	217.69
362.39	217.57
362.77	217.81
363.15	217.48
363.53	217.33
363.91	217.33
364.29	217.24
364.67	215.19
365.05	215.02
365.43	215.52
365.81	215.83
366.19	215.83
366.57	216.76
366.95	216.57
367.33	216.12
367.71	216.21
368.09	216.71
368.47	216.71
368.85	216.60
369.23	216.90
369.61	216.05
369.99	216.64
370.37	216.71
370.75	217.57
371.13	217.24
371.51	217.10
371.89	217.31
372.27	217.62
372.65	218.00
373.03	218.05
373.41	217.76
373.78	217.40
374.16	216.12
374.54	215.52
374.92	215.50
375.30	215.62
375.68	215.05
376.06	214.98
376.44	214.88
376.82	215.24
377.19	215.31
377.57	215.21
377.95	214.60
378.33	214.69
378.71	213.62
379.09	213.98
379.47	214.12
379.84	213.86
380.22	213.55
380.60	213.17
380.98	213.02
381.36	212.90
381.73	212.64
382.11	213.21
382.49	213.21
382.87	212.95
383.25	212.86
383.62	215.43
384.00	214.79
384.38	215.00
384.76	215.19
385.13	215.62
385.51	215.83
385.89	215.38
386.27	215.29
386.64	215.33
387.02	215.10
387.40	214.93
387.78	215.05
388.15	215.07
388.53	215.05
388.91	215.24
389.29	215.14
389.66	215.40
390.04	215.24
390.42	215.67
390.79	215.76
391.17	215.86
391.55	213.55
391.92	213.74
392.30	213.74
392.68	213.26
393.05	213.17
393.43	213.12
393.81	213.43
394.18	213.07
394.56	213.31
394.94	213.83
395.31	213.76
395.69	214.43
396.06	214.74
396.44	214.98
396.82	214.90
397.19	216.02
397.57	216.26
397.95	216.64
398.32	215.90
398.70	216.33
399.07	216.74
399.45	216.62
399.82	216.45
400.20	216.43
400.58	216.48
400.95	215.74
401.33	216.33
401.70	217.79
402.08	217.95
402.45	217.93
402.83	218.48
403.20	218.57
403.58	218.29
403.95	218.43
404.33	218.79
404.71	219.02
405.08	220.02
405.46	220.02
405.83	220.12
406.21	220.69
406.58	221.10
406.96	221.31
407.33	222.07
407.70	222.74
408.08	224.79
408.45	225.86
408.83	226.98
409.20	227.38
409.58	226.86
409.95	227.95
410.33	228.93
410.70	229.05
411.08	230.40
411.45	231.60
411.82	232.55
412.20	234.07
412.57	236.45
412.95	236.48
413.32	238.12
413.69	239.69
414.07	241.26
414.44	243.02
414.82	245.07
415.19	247.43
415.56	249.90
415.94	251.26
416.31	253.88
416.68	256.81
417.06	259.83
417.43	263.38
417.81	266.79
418.18	270.29
418.55	274.26
418.93	278.24
419.30	282.31
419.67	286.81
420.04	291.24
420.42	295.52
420.79	302.48
421.16	308.29
421.54	315.26
421.91	321.26
422.28	327.45
422.66	334.05
423.03	341.74
423.40	348.76
423.77	355.71
424.15	363.00
424.52	370.48
424.89	379.17
425.26	386.62
425.64	394.36
426.01	402.45
426.38	410.71
426.75	420.29
427.13	429.38
427.50	438.86
427.87	448.93
428.24	459.00
428.61	467.24
428.99	478.38
429.36	488.64
429.73	499.86
430.10	511.48
430.47	522.98
430.85	533.79
431.22	546.07
431.59	560.71
431.96	573.43
432.33	587.64
432.70	601.48
433.08	617.95
433.45	633.26
433.82	648.81
434.19	666.07
434.56	682.29
434.93	697.79
435.30	713.74
435.68	730.93
436.05	747.48
436.42	764.48
436.79	780.29
437.16	797.31
437.53	815.10
437.90	832.24
438.27	850.02
438.64	868.36
439.01	885.43
439.38	899.33
439.75	914.14
440.13	930.21
440.50	945.60
440.87	958.19
441.24	971.76
441.61	986.38
441.98	997.12
442.35	1008.83
442.72	1021.98
443.09	1035.60
443.46	1043.88
443.83	1049.88
444.20	1054.86
444.57	1060.17
444.94	1063.74
445.31	1067.69
445.68	1073.29
446.05	1074.29
446.42	1072.57
446.79	1071.98
447.16	1069.60
447.53	1067.71
447.90	1061.43
448.27	1054.33
448.64	1045.10
449.01	1038.43
449.37	1027.33
449.74	1016.12
450.11	1005.12
450.48	990.31
450.85	974.00
451.22	960.79
451.59	948.60
451.96	936.67
452.33	921.48
452.70	907.31
453.07	889.69
453.43	870.71
453.80	854.62
454.17	838.62
454.54	822.38
454.91	806.83
455.28	791.19
455.65	776.71
456.02	766.52
456.38	754.69
456.75	739.50
457.12	726.19
457.49	713.76
457.86	699.43
458.23	689.64
458.59	678.52
458.96	666.57
459.33	656.00
459.70	645.38
460.07	637.36
460.43	627.02
460.80	618.74
461.17	611.24
461.54	602.86
461.91	595.33
462.27	587.38
462.64	580.14
463.01	572.76
463.38	566.17
463.74	554.95
464.11	547.95
464.48	542.05
464.85	536.10
465.21	531.57
465.58	527.12
465.95	520.52
466.32	515.36
466.68	510.38
467.05	505.33
467.42	500.62
467.78	495.33
468.15	491.24
468.52	487.69
468.88	482.14
469.25	477.81
469.62	474.24
469.98	470.57
470.35	467.14
470.72	463.95
471.08	459.07
471.45	456.40
471.82	454.10
472.18	450.69
472.55	448.12
472.92	444.62
473.28	441.33
473.65	438.64
474.02	436.21
474.38	434.33
474.75	432.48
475.11	429.93
475.48	428.31
475.85	426.17
476.21	424.10
476.58	422.90
476.94	422.02
477.31	421.07
477.67	419.36
478.04	418.31
478.41	417.52
478.77	419.00
479.14	417.71
479.50	416.71
479.87	416.60
480.23	415.90
480.60	415.81
480.96	415.86
481.33	416.79
481.69	416.40
482.06	416.45
482.42	416.48
482.79	417.24
483.15	417.24
483.52	418.57
483.88	419.14
484.25	419.86
484.61	420.45
484.98	420.76
485.34	422.88
485.71	424.19
486.07	425.21
486.44	425.00
486.80	426.62
487.17	428.19
487.53	430.38
487.90	432.52
488.26	435.31
488.62	438.14
488.99	439.62
489.35	442.36
489.72	444.81
490.08	447.36
490.44	450.07
490.81	453.40
491.17	456.21
491.54	460.07
491.90	464.10
492.26	467.43
492.63	471.69
492.99	474.74
493.36	478.69
493.72	483.12
494.08	487.38
494.45	492.36
494.81	497.67
495.17	502.24
495.54	507.43
495.90	511.93
496.26	516.62
496.63	522.52
496.99	527.88
497.35	533.81
497.72	539.88
498.08	545.83
498.44	552.12
498.80	558.26
499.17	564.10
499.53	569.81
499.89	576.64
500.26	582.95
500.62	589.88
500.98	597.43
501.34	604.40
501.71	612.21
502.07	618.86
502.43	625.52
502.79	632.10
503.16	639.36
503.52	646.86
503.88	654.31
504.24	661.29
504.60	668.33
504.97	676.05
505.33	683.33
505.69	691.74
506.05	699.07
506.41	706.60
506.78	714.00
507.14	722.00
507.50	729.74
507.86	737.36
508.22	745.14
508.59	752.24
508.95	760.10
509.31	768.52
509.67	776.60
510.03	784.19
510.39	792.00
510.75	799.38
511.12	806.74
511.48	814.21
511.84	822.02
512.20	830.26
512.56	837.60
512.92	845.86
513.28	852.76
513.64	859.93
514.00	867.55
514.37	875.40
514.73	882.79
515.09	890.38
515.45	896.67
515.81	903.45
516.17	910.14
516.53	916.76
516.89	921.95
517.25	928.55
517.61	935.86
517.97	942.31
518.33	948.90
518.69	956.10
519.05	963.50
519.41	970.14
519.77	977.71
520.13	983.38
520.49	988.14
520.85	993.98
521.21	1001.14
521.57	1007.12
521.93	1011.62
522.29	1016.93
522.65	1021.50
523.01	1028.21
523.37	1033.67
523.73	1039.31
524.09	1044.43
524.45	1049.31
524.81	1053.86
525.17	1057.88
525.53	1063.50
525.89	1068.19
526.25	1072.05
526.61	1075.67
526.97	1079.50
527.33	1082.64
527.68	1089.31
528.04	1094.40
528.40	1098.21
528.76	1101.43
529.12	1105.67
529.48	1110.81
529.84	1114.64
530.20	1119.26
530.56	1122.62
530.91	1126.76
531.27	1130.88
531.63	1134.93
531.99	1138.62
532.35	1142.26
532.71	1146.29
533.07	1150.21
533.42	1156.60
533.78	1160.67
534.14	1165.00
534.50	1168.76
534.86	1173.14
535.21	1175.21
535.57	1179.62
535.93	1184.14
536.29	1188.64
536.65	1192.36
537.00	1196.10
537.36	1199.17
537.72	1202.31
538.08	1206.21
538.44	1210.02
538.79	1213.95
539.15	1216.55
539.51	1221.17
539.87	1224.93
540.22	1227.81
540.58	1230.60
540.94	1231.55
541.29	1235.14
541.65	1237.02
542.01	1240.24
542.37	1242.83
542.72	1245.02
543.08	1246.93
543.44	1249.81
543.79	1251.21
544.15	1253.83
544.51	1256.76
544.87	1260.74
545.22	1264.31
545.58	1266.83
545.94	1268.90
546.29	1271.19
546.65	1274.33
547.01	1275.79
547.36	1278.60
547.72	1282.14
548.07	1284.69
548.43	1286.64
548.79	1288.55
549.14	1290.88
549.50	1293.88
549.86	1295.79
550.21	1298.74
550.57	1301.83
550.92	1303.71
551.28	1307.31
551.64	1310.10
551.99	1312.33
552.35	1314.26
552.70	1316.17
553.06	1319.40
553.41	1322.05
553.77	1326.12
554.13	1329.31
554.48	1333.45
554.84	1338.10
555.19	1341.07
555.55	1346.33
555.90	1350.69
556.26	1354.26
556.61	1358.26
556.97	1360.88
557.32	1364.81
557.68	1368.31
558.03	1371.86
558.39	1375.60
558.74	1379.60
559.10	1382.90
559.45	1386.93
559.81	1391.05
560.16	1395.69
560.52	1399.40
560.87	1405.17
561.23	1407.50
561.58	1413.81
561.94	1417.33
562.29	1419.93
562.64	1424.33
563.00	1427.07
563.35	1431.19
563.71	1435.62
564.06	1440.67
564.42	1446.12
564.77	1452.05
565.12	1458.10
565.48	1465.33
565.83	1471.71
566.19	1477.12
566.54	1482.71
566.89	1487.81
567.25	1493.81
567.60	1500.05
567.96	1507.83
568.31	1513.62
568.66	1521.45
569.02	1525.31
569.37	1531.02
569.72	1537.62
570.08	1543.29
570.43	1548.67
570.78	1554.43
571.14	1560.76
571.49	1566.19
571.84	1572.14
572.20	1576.88
572.55	1581.50
572.90	1583.88
573.26	1588.07
573.61	1592.05
573.96	1596.50
574.31	1601.05
574.67	1605.64
575.02	1608.45
575.37	1610.64
575.72	1613.67
576.08	1616.26
576.43	1620.36
576.78	1624.14
577.13	1626.83
577.49	1630.57
577.84	1635.17
578.19	1639.14
578.54	1643.10
578.90	1647.45
579.25	1650.69
579.60	1653.07
579.95	1656.17
580.30	1660.71
580.66	1664.36
581.01	1668.88
581.36	1672.29
581.71	1676.24
582.06	1681.12
582.42	1686.71
582.77	1690.17
583.12	1692.67
583.47	1696.24
583.82	1699.50
584.17	1703.48
584.53	1708.07
584.88	1710.62
585.23	1713.38
585.58	1715.43
585.93	1718.19
586.28	1721.07
586.63	1724.60
586.98	1729.33
587.34	1733.62
587.69	1736.21
588.04	1739.05
588.39	1740.38
588.74	1742.55
589.09	1745.69
589.44	1745.29
589.79	1746.40
590.14	1749.07
590.49	1751.95
590.84	1753.12
591.19	1754.21
591.54	1755.81
591.89	1756.76
592.25	1760.71
592.60	1761.81
592.95	1763.38
593.30	1765.00
593.65	1766.45
594.00	1766.43
594.35	1772.86
594.70	1772.02
595.05	1772.90
595.40	1773.83
595.75	1775.55
596.10	1777.76
596.45	1778.29
596.80	1780.52
597.15	1781.50
597.50	1781.83
597.85	1783.52
598.19	1784.43
598.54	1785.55
598.89	1785.50
599.24	1786.93
599.59	1785.98
599.94	1786.81
600.29	1786.88
600.64	1786.62
600.99	1786.02
601.34	1787.17
601.69	1781.98
602.04	1782.21
602.39	1781.60
602.74	1782.21
603.08	1782.12
603.43	1782.69
603.78	1781.86
604.13	1781.17
604.48	1780.83
604.83	1781.12
605.18	1780.62
605.53	1781.10
605.87	1780.31
606.22	1779.86
606.57	1778.83
606.92	1778.12
607.27	1776.93
607.62	1776.69
607.96	1776.71
608.31	1776.40
608.66	1775.31
609.01	1773.57
609.36	1773.29
609.70	1772.24
610.05	1770.24
610.40	1768.29
610.75	1765.40
611.10	1764.93
611.44	1762.86
611.79	1760.31
612.14	1756.95
612.49	1753.31
612.83	1750.33
613.18	1748.43
613.53	1746.29
613.88	1742.71
614.22	1739.88
614.57	1736.93
614.92	1733.60
615.27	1729.10
615.61	1724.38
615.96	1720.38
616.31	1716.69
616.65	1713.69
617.00	1711.02
617.35	1707.67
617.70	1705.69
618.04	1701.81
618.39	1697.07
618.74	1693.40
619.08	1690.19
619.43	1686.90
619.78	1684.14
620.12	1680.79
620.47	1676.93
620.82	1672.00
621.16	1666.81
621.51	1663.29
621.85	1659.33
622.20	1656.38
622.55	1653.19
622.89	1651.38
623.24	1648.48
623.59	1645.55
623.93	1641.07
624.28	1637.02
624.62	1634.62
624.97	1630.31
625.32	1625.88
625.66	1622.76
626.01	1619.90
626.35	1616.24
626.70	1612.02
627.04	1608.17
627.39	1603.60
627.73	1599.98
628.08	1597.98
628.43	1595.14
628.77	1590.60
629.12	1587.43
629.46	1583.60
629.81	1578.83
630.15	1573.45
630.50	1568.98
630.84	1563.36
631.19	1558.74
631.53	1554.02
631.88	1547.12
632.22	1541.60
632.57	1538.02
632.91	1531.95
633.26	1527.26
633.60	1521.45
633.95	1516.50
634.29	1511.02
634.64	1507.07
634.98	1502.62
635.32	1497.81
635.67	1494.69
636.01	1490.43
636.36	1485.36
636.70	1481.17
637.05	1476.93
637.39	1472.74
637.73	1467.55
638.08	1464.45
638.42	1459.21
638.77	1455.19
639.11	1451.57
639.45	1446.55
639.80	1440.81
640.14	1436.55
640.49	1430.79
640.83	1426.19
641.17	1421.83
641.52	1416.95
641.86	1412.00
642.20	1406.74
642.55	1400.95
642.89	1394.24
643.23	1388.83
643.58	1383.57
643.92	1376.90
644.26	1371.86
644.61	1366.88
644.95	1361.74
645.29	1355.19
645.64	1350.52
645.98	1344.79
646.32	1338.86
646.66	1333.07
647.01	1328.05
647.35	1322.88
647.69	1317.26
648.04	1312.21
648.38	1307.05
648.72	1301.33
649.06	1295.00
649.41	1289.07
649.75	1283.07
650.09	1277.88
650.43	1271.29
650.78	1264.90
651.12	1258.90
651.46	1252.07
651.80	1245.17
652.14	1239.24
652.49	1233.90
652.83	1227.67
653.17	1221.71
653.51	1215.50
653.85	1210.71
654.20	1204.90
654.54	1197.67
654.88	1191.19
655.22	1185.67
655.56	1179.33
655.90	1173.57
656.25	1167.69
656.59	1161.43
656.93	1155.10
657.27	1149.86
657.61	1144.43
657.95	1139.33
658.29	1133.48
658.64	1128.52
658.98	1122.19
659.32	1114.93
659.66	1108.21
660.00	1102.81
660.34	1095.81
660.68	1089.48
661.02	1082.45
661.36	1075.60
661.70	1069.86
662.05	1064.31
662.39	1057.60
662.73	1051.69
663.07	1046.60
663.41	1040.57
663.75	1034.95
664.09	1029.95
664.43	1023.02
664.77	1017.31
665.11	1010.07
665.45	1004.05
665.79	997.98
666.13	992.76
666.47	987.52
666.81	981.69
667.15	975.48
667.49	970.60
667.83	965.67
668.17	960.48
668.51	955.62
668.85	950.64
669.19	946.02
669.53	940.43
669.87	934.12
670.21	927.93
670.55	922.05
670.89	916.90
671.23	911.38
671.57	905.95
671.91	899.90
672.25	895.86
672.58	891.71
672.92	885.57
673.26	880.67
673.60	875.36
673.94	870.43
674.28	865.38
674.62	860.48
674.96	855.31
675.30	850.26
675.64	845.17
675.97	840.45
676.31	834.62
676.65	829.36
676.99	825.98
677.33	820.81
677.67	816.55
678.01	811.21
678.34	806.21
678.68	801.86
679.02	797.67
679.36	791.76
679.70	786.02
680.04	781.38
680.37	775.98
680.71	771.24
681.05	766.50
681.39	761.95
681.73	756.40
682.06	751.43
682.40	746.98
682.74	742.45
683.08	738.12
683.42	732.98
683.75	728.43
684.09	722.57
684.43	717.76
684.77	712.55
685.10	707.86
685.44	703.10
685.78	698.05
686.12	692.90
686.45	688.62
686.79	683.81
687.13	679.86
687.46	675.50
687.80	671.86
688.14	667.17
688.48	662.40
688.81	658.21
689.15	654.38
689.49	649.48
689.82	645.07
690.16	639.76
690.50	635.60
690.83	631.02
691.17	626.64
691.51	622.45
691.84	619.02
692.18	614.29
692.52	609.90
692.85	606.26
693.19	603.05
693.52	598.48
693.86	594.00
694.20	589.38
694.53	585.19
694.87	580.21
695.21	576.02
695.54	571.71
695.88	567.10
696.21	562.14
696.55	557.48
696.88	553.36
697.22	550.00
697.56	546.45
697.89	542.69
698.23	539.14
698.56	535.12
698.90	531.19
699.23	528.00
699.57	524.50
699.90	520.45
700.24	516.21
700.58	513.05
700.91	510.38
701.25	508.81
701.58	506.21
701.92	503.62
702.25	500.21
702.59	497.36
702.92	494.60
703.26	491.48
703.59	488.74
703.93	487.19
704.26	483.86
704.60	480.69
704.93	477.69
705.26	474.43
705.60	471.74
705.93	467.76
706.27	465.17
706.60	462.26
706.94	460.12
707.27	456.93
707.61	454.50
707.94	451.29
708.27	446.90
708.61	443.52
708.94	440.81
709.28	438.33
709.61	435.43
709.94	432.81
710.28	430.67
710.61	428.52
710.95	424.31
711.28	423.05
711.61	420.36
711.95	418.05
712.28	415.69
712.61	413.31
712.95	412.40
713.28	410.60
713.61	407.93
713.95	405.29
714.28	403.36
714.61	400.93
714.95	398.55
715.28	395.98
715.61	393.48
715.95	391.50
716.28	388.95
716.61	387.21
716.95	384.83
717.28	382.40
717.61	379.69
717.94	377.31
718.28	373.74
718.61	371.62
718.94	369.31
719.27	367.38
719.61	365.36
719.94	362.69
720.27	359.86
720.60	358.05
720.94	356.05
721.27	354.21
721.60	352.57
721.93	350.93
722.27	350.14
722.60	348.83
722.93	346.67
723.26	345.57
723.59	343.21
723.93	341.95
724.26	340.19
724.59	338.86
724.92	337.79
725.25	337.14
725.59	336.10
725.92	335.00
726.25	333.52
726.58	332.12
726.91	331.07
727.24	329.95
727.57	328.76
727.91	326.86
728.24	325.69
728.57	324.05
728.90	323.12
729.23	321.29
729.56	320.64
729.89	319.50
730.22	317.62
730.55	316.60
730.89	315.38
731.22	314.71
731.55	313.71
731.88	312.45
732.21	310.88
732.54	309.40
732.87	308.38
733.20	307.57
733.53	306.74
733.86	305.50
734.19	304.29
734.52	303.38
734.85	303.98
735.18	302.60
735.51	302.31
735.84	301.29
736.17	300.24
736.50	298.21
736.83	299.86
737.16	299.10
737.49	298.36
737.82	297.36
738.15	296.36
738.48	295.17
738.81	294.36
739.14	293.26
739.47	292.26
739.80	291.05
740.13	290.17
740.46	288.86
740.79	287.71
741.12	286.76
741.45	285.55
741.78	283.48
742.11	283.36
742.44	282.07
742.77	281.48
743.10	280.95
743.43	280.12
743.75	276.90
744.08	278.71
744.41	277.71
744.74	276.79
745.07	275.71
745.40	275.60
745.73	275.60
746.06	275.00
746.39	274.45
746.71	273.76
747.04	272.81
747.37	272.24
747.70	271.69
748.03	271.00
748.36	270.62
748.68	270.12
749.01	268.79
749.34	268.12
749.67	267.57
750.00	267.21
750.33	268.26
750.65	267.83
750.98	264.74
751.31	264.21
751.64	263.69
751.97	264.40
752.29	263.55
752.62	261.88
752.95	261.14
753.28	260.57
753.60	259.81
753.93	259.83
754.26	259.55
754.59	258.98
754.91	258.38
755.24	257.88
755.57	257.12
755.90	256.62
756.22	255.95
756.55	255.02
756.88	254.02
757.20	252.14
757.53	251.02
757.86	250.48
758.19	250.10
758.51	249.86
758.84	248.02
759.17	247.57
759.49	247.67
759.82	248.29
760.15	247.98
760.47	247.62
760.80	246.48
761.13	246.38
761.45	245.93
761.78	245.55
762.11	244.83
762.43	244.43
762.76	244.07
763.08	243.90
763.41	243.62
763.74	243.52
764.06	243.17
764.39	242.81
764.71	242.45
765.04	241.81
765.37	241.14
765.69	240.81
766.02	240.21
766.34	239.33
766.67	237.88
767.00	237.79
767.32	238.60
767.65	239.67
767.97	238.76
768.30	238.26
768.62	237.98
768.95	237.69
769.27	237.71
769.60	237.67
769.92	237.10
770.25	236.64
770.57	235.88
770.90	235.64
771.22	235.05
771.55	234.88
771.87	234.83
772.20	234.45
772.52	236.07
772.85	238.31
773.17	238.29
773.50	238.00
773.82	237.50
774.15	236.05
774.47	234.50
774.80	234.38
775.12	234.05
775.45	233.83
775.77	233.88
776.09	233.40
776.42	233.24
776.74	233.67
777.07	233.24
777.39	233.02
777.72	232.60
778.04	233.10
778.36	233.00
778.69	232.76
779.01	232.88
779.33	230.90
779.66	228.40
779.98	227.98
780.31	227.88
780.63	228.33
780.95	228.83
781.28	228.62
781.60	228.29
781.92	228.21
782.25	227.88
782.57	227.52
782.89	227.40
783.22	226.93
783.54	226.29
783.86	226.26
784.19	226.05
784.51	226.52
784.83	225.98
785.16	225.93
785.48	225.86
785.80	225.74
786.12	225.88
786.45	225.60
786.77	225.67
787.09	225.67
787.42	224.95
787.74	224.76
788.06	224.67
788.38	224.48
788.71	224.26
789.03	224.33
789.35	224.52
789.67	223.93
789.99	223.93
790.32	223.52
790.64	224.00
790.96	225.67
791.28	224.95
791.61	224.93
791.93	224.86
792.25	224.67
792.57	226.02
792.89	225.67
793.21	225.98
793.54	225.88
793.86	225.40
794.18	225.52
794.50	224.83
794.82	224.88
795.14	225.12
795.47	225.45
795.79	225.57
796.11	224.98
796.43	224.98
796.75	224.90
797.07	224.81
797.39	224.31
797.71	222.79
798.04	222.79
798.36	222.67
798.68	222.45
799.00	222.71
799.32	221.29
799.64	221.40
799.96	221.29
800.28	221.48
800.60	221.52
800.92	221.57
801.24	221.60
801.56	221.50
801.89	221.33
802.21	221.45
802.53	220.86
802.85	221.38
803.17	222.40
803.49	222.17
803.81	222.12
804.13	221.98
804.45	221.62
804.77	221.50
805.09	221.43
805.41	221.07
805.73	220.48
806.05	219.88
806.37	219.71
806.69	219.38
807.01	219.26
807.33	219.33
807.65	218.83
807.97	219.81
808.28	219.64
808.60	219.55
808.92	219.12
809.24	220.48
809.56	219.98
809.88	219.05
810.20	219.02
810.52	219.31
810.84	219.12
811.16	219.12
811.48	219.07
811.80	219.95
812.12	219.79
812.43	220.36
812.75	220.90
813.07	220.71
813.39	220.76
813.71	220.48
814.03	220.17
814.35	219.88
814.67	219.00
814.98	218.74
815.30	218.48
815.62	218.00
815.94	216.43
816.26	216.45
816.58	216.12
816.89	216.05
817.21	215.57
817.53	215.50
817.85	215.43
818.17	215.48
818.48	214.57
818.80	215.05
819.12	214.67
819.44	214.17
819.76	214.00
820.07	213.86
820.39	213.81
820.71	214.02
821.03	213.93
821.34	213.76
821.66	214.40
821.98	214.71
822.30	214.88
822.61	216.05
822.93	215.95
823.25	215.83
823.57	215.88
823.88	216.40
824.20	216.55
824.52	217.00
824.83	217.00
825.15	216.79
825.47	216.86
825.79	216.88
826.10	216.48
826.42	216.24
826.74	216.67
827.05	216.64
827.37	216.62
827.69	216.74
828.00	216.71
828.32	216.26
828.64	215.95
828.95	216.86
829.27	216.40
829.58	216.40
829.90	217.00
830.22	216.86
830.53	216.45
830.85	216.33
831.17	215.81
831.48	215.79
831.80	215.95
832.11	215.40
832.43	215.21
832.75	215.57
833.06	216.95
833.38	216.33
833.69	216.24
834.01	216.33
834.32	216.17
834.64	216.12
834.96	216.21
835.27	216.10
835.59	215.50
835.90	214.95
836.22	214.93
836.53	214.36
836.85	214.26
837.16	216.14
837.48	215.93
837.79	216.38
838.11	216.33
838.42	216.24
838.74	216.71
839.05	216.38
839.37	216.19
839.68	214.98
840.00	214.86
840.31	215.26
840.63	215.05
840.94	214.83
841.26	214.60
841.57	214.40
841.88	214.86
842.20	214.50
842.51	214.33
842.83	214.26
843.14	216.19
843.46	216.52
843.77	215.38
844.08	215.40
844.40	214.74
844.71	214.55
845.03	214.31
845.34	214.02
845.65	214.14
845.97	214.29
846.28	214.14
846.60	214.19
846.91	213.71
847.22	213.64
847.54	214.19
847.85	214.36
848.16	214.02
848.48	213.45
848.79	214.14
849.10	214.55
849.42	214.67
849.73	212.64
850.04	212.43
850.36	211.62
850.67	211.98
850.98	212.33
851.30	212.24
851.61	212.36
851.92	212.29
852.23	212.93
852.55	213.00
852.86	213.26
853.17	213.33
853.49	213.74
853.80	214.14
854.11	214.26
854.42	214.40
854.74	214.62
855.05	214.76
855.36	213.71
855.67	213.74
855.99	213.69
856.30	216.52
856.61	216.19
856.92	216.38
857.23	216.33
857.55	215.83
857.86	215.90
858.17	216.10
858.48	215.90
858.79	215.36
859.11	215.40
859.42	215.19
859.73	215.10
860.04	215.05
860.35	214.50
860.66	214.02
860.98	214.07
861.29	214.45
861.60	214.21
861.91	214.83
862.22	214.55
862.53	214.38
862.84	211.60
863.16	212.55
863.47	212.07
863.78	211.93
864.09	212.05
864.40	212.57
864.71	212.62
865.02	212.88
865.33	212.74
865.64	212.33
865.95	212.24
866.27	213.52
866.58	213.26
866.89	213.69
867.20	213.60
867.51	213.24
867.82	212.83
868.13	213.71
868.44	213.36
868.75	213.93
869.06	214.10
869.37	214.33
869.68	213.43
869.99	213.98
870.30	214.02
870.61	214.24
870.92	213.52
871.23	213.33
871.54	213.60
871.85	213.98
872.16	214.52
872.47	214.55
872.78	213.38
873.09	213.55
873.40	213.45
873.71	213.76
874.02	213.69
874.33	213.48
874.64	212.98
874.95	213.33
875.26	212.45
875.56	212.17
875.87	212.10
876.18	212.29
876.49	214.10
876.80	213.93
877.11	213.64
877.42	213.79
877.73	213.83
878.04	213.62
878.35	213.83
878.66	213.50
878.96	213.52
879.27	213.55
879.58	213.57
879.89	213.29
880.20	213.69
880.51	213.86
880.82	214.07
881.12	214.05
881.43	213.62
881.74	213.55
882.05	213.55
882.36	213.69
882.67	213.64
882.97	211.55
883.28	211.50
883.59	211.45
883.90	211.74
884.21	211.95
884.51	211.76
884.82	211.19
885.13	211.38
885.44	211.38
885.74	211.14
886.05	210.93
886.36	211.10
886.67	210.14
886.98	211.17
887.28	211.43
887.59	211.40
887.90	211.45
888.20	211.38
888.51	211.76
888.82	211.40
889.13	211.40
889.43	213.19
889.74	213.00
890.05	212.93
890.35	212.62
890.66	212.26
890.97	212.19
891.28	212.05
891.58	212.21
891.89	212.05
892.20	212.10
892.50	211.93
892.81	211.60
893.12	211.83
893.42	210.57
893.73	210.76
894.04	210.45
894.34	210.67
894.65	210.81
894.95	210.57
895.26	210.76
895.57	211.79
895.87	209.74
896.18	210.29
896.48	210.55
896.79	210.76
897.10	210.95
897.40	210.95
897.71	211.31
898.01	210.90
898.32	211.36
898.63	211.45
898.93	211.60
899.24	211.57
899.54	211.52
899.85	211.79
900.15	211.52
900.46	211.83
900.76	211.83
901.07	211.88
901.38	211.81
901.68	212.02
901.99	211.00
902.29	211.24
902.60	210.88
902.90	210.69
903.21	210.64
903.51	210.71
903.82	211.00
904.12	210.95
904.43	211.19
904.73	210.95
905.03	210.88
905.34	212.88
905.64	212.98
905.95	212.83
906.25	212.76
906.56	212.64
906.86	212.64
907.17	212.64
907.47	212.74
907.77	212.60
908.08	212.10
908.38	212.31
908.69	212.52
908.99	212.83
909.30	212.90
909.60	212.95
909.90	213.00
910.21	212.45
910.51	212.12
910.81	212.17
911.12	212.14
911.42	212.00
911.73	209.90
912.03	210.02
912.33	210.60
912.64	210.79
912.94	210.74
913.24	210.38
913.55	210.24
913.85	209.86
914.15	210.26
914.46	210.69
914.76	210.33
915.06	210.14
915.37	209.74
915.67	209.62
915.97	209.38
916.27	208.86
916.58	209.14
916.88	209.36
917.18	209.21
917.49	210.67
917.79	210.74
918.09	210.95
918.39	211.52
918.70	211.29
919.00	211.17
919.30	212.14
919.60	212.14
919.91	211.81
920.21	212.36
920.51	211.88
920.81	211.69
921.12	212.14
921.42	212.00
921.72	212.38
922.02	212.57
922.32	212.90
922.63	213.17
922.93	214.19
923.23	214.07
923.53	213.86
923.83	212.52
924.13	212.71
924.44	212.79
924.74	213.17
925.04	213.79
925.34	213.67
925.64	212.64
925.94	212.74
926.24	214.02
926.55	213.48
926.85	213.74
927.15	213.67
927.45	213.67
927.75	213.88
928.05	213.81
928.35	213.74
928.65	214.02
928.95	214.10
929.26	213.31
929.56	213.81
929.86	214.29
930.16	214.12
930.46	213.83
930.76	213.83
931.06	212.83
931.36	212.14
931.66	212.45
931.96	212.79
932.26	212.76
932.56	211.95
932.86	212.45
933.16	212.57
933.46	212.43
933.76	212.14
934.06	212.55
934.36	213.21
934.66	213.12
934.96	212.83
935.26	213.02
935.56	213.38
935.86	212.83
936.16	212.60
936.46	212.60
936.76	212.79
937.06	212.55
937.36	212.50
937.66	212.50
937.96	212.38
938.26	211.95
938.56	211.90
938.86	211.90
939.16	212.45
939.46	212.64
939.76	212.81
940.06	212.71
940.35	212.19
940.65	211.12
940.95	211.19
941.25	210.79
941.55	210.52
941.85	210.19
942.15	210.69
942.45	211.19
942.75	211.10
943.04	211.07
943.34	211.55
943.64	211.71
943.94	211.64
944.24	211.74
944.54	212.00
944.84	212.05
945.13	211.83
945.43	211.05
945.73	211.00
946.03	210.83
946.33	210.81
946.62	210.69
946.92	210.69
947.22	211.02
947.52	211.33
947.82	211.71
948.11	211.60
948.41	211.29
948.71	210.50
949.01	210.71
949.31	210.79
949.60	210.40
949.90	210.40
950.20	210.31
950.50	210.26
950.79	210.05
951.09	210.31
951.39	210.31
951.69	210.29
951.98	210.55
952.28	210.60
952.58	210.52
952.87	210.74
953.17	211.05
953.47	210.79
953.76	210.74
954.06	210.14
954.36	209.86
954.66	209.69
954.95	210.36
955.25	210.43
955.55	210.33
955.84	210.24
956.14	210.36
956.44	210.52
956.73	210.36
957.03	210.36
957.32	210.24
957.62	210.33
957.92	210.74
958.21	210.45
958.51	213.00
958.81	213.29
959.10	213.38
959.40	213.88
959.69	213.76
959.99	213.81
960.29	213.93
960.58	213.95
960.88	214.76
961.17	214.45
961.47	214.67
961.76	214.55
962.06	215.12
962.36	214.79
962.65	214.74
962.95	214.76
963.24	214.69
963.54	214.71
963.83	214.74
964.13	214.55
964.42	213.93
964.72	212.02
965.01	212.02
965.31	212.00
965.60	211.31
965.90	212.74
966.19	212.33
966.49	212.62
966.78	212.43
967.08	212.52
967.37	212.50
967.67	212.05
967.96	212.50
968.26	212.10
968.55	212.57
968.85	212.55
969.14	212.43
969.43	212.45
969.73	212.48
970.02	212.36
970.32	212.40
970.61	212.57
970.91	212.12
971.20	211.83
971.49	211.62
971.79	212.10
972.08	210.62
972.38	210.90
972.67	210.69
972.96	211.24
973.26	210.60
973.55	211.24
973.85	211.33
974.14	211.12
974.43	211.31
974.73	211.10
975.02	210.93
975.31	211.05
975.61	211.10
975.90	210.69
976.19	210.48
976.49	210.69
976.78	210.79
977.07	210.86
977.37	210.83
977.66	210.88
977.95	210.48
978.24	210.62
978.54	211.10
978.83	210.90
979.12	210.76
979.42	210.81
979.71	210.52
980.00	210.31
980.29	210.57
980.59	210.12
980.88	210.52
981.17	210.64
981.46	210.48
981.76	210.40
982.05	211.45
982.34	211.50
982.63	211.21
982.93	211.31
983.22	212.00
983.51	212.12
983.80	212.36
984.09	212.55
984.39	212.60
984.68	212.21
984.97	212.50
985.26	212.21
985.55	212.05
985.85	211.60
986.14	211.98
986.43	211.90
986.72	211.83
987.01	211.10
987.30	211.07
987.59	210.98
987.89	211.00
988.18	210.12
988.47	210.14
988.76	210.17
989.05	210.07
989.34	209.40
989.63	209.95
989.92	209.81
990.22	209.62
990.51	209.33
990.80	209.26
991.09	209.07
991.38	209.38
991.67	209.48
991.96	209.31
992.25	209.40
992.54	209.10
992.83	209.19
993.12	209.24
993.41	209.69
993.70	210.69
993.99	210.90
994.28	211.33
994.58	211.48
994.87	211.26
995.16	211.12
995.45	211.02
995.74	210.31
996.03	210.45
996.32	210.64
996.61	211.26
996.90	211.12
997.19	211.14
997.48	211.10
997.77	210.79
998.06	210.90
998.34	210.67
998.63	210.79
998.92	210.98
999.21	211.29
999.50	211.14
999.79	210.40
1000.08	210.64
1000.37	210.52
1000.66	210.48
1000.95	211.00
1001.24	211.21
1001.53	211.55
1001.82	211.52
1002.11	211.17
1002.40	211.48
1002.68	211.69
1002.97	213.14
1003.26	212.93
1003.55	212.38
1003.84	212.64
1004.13	213.38
1004.42	213.26
1004.71	213.31
1004.99	213.02
1005.28	213.50
1005.57	213.43
1005.86	213.17
1006.15	212.88
1006.44	212.57
1006.72	212.83
1007.01	212.62
1007.30	212.52
1007.59	212.24
1007.88	212.43
1008.17	212.48
1008.45	211.88
1008.74	211.21
1009.03	210.33
1009.32	210.38
1009.60	210.71
1009.89	210.64
1010.18	209.81
1010.47	209.69
1010.76	209.57
1011.04	209.83
1011.33	212.10
1011.62	212.10
1011.91	212.31
1012.19	212.14
1012.48	212.21
1012.77	212.17
1013.05	213.10
1013.34	213.31
1013.63	213.10
1013.92	213.14
1014.20	213.00
1014.49	213.31
1014.78	213.64
1015.06	213.10
1015.35	213.07
1015.64	213.33
1015.92	213.60
1016.21	213.67
1016.50	213.81
1016.78	214.02
1017.07	214.02
1017.36	211.43
1017.64	211.21
1017.93	211.43
1018.22	211.36
1018.50	211.24
1018.79	211.12
1019.08	210.02
1019.36	209.90
1019.65	209.69
1019.93	210.26
1020.22	210.52
1020.51	211.60
1020.79	211.19
1021.08	205.00
1021.36	205.50
1021.65	211.50
1021.94	209.50
1022.22	210.00
1022.51	202.50
1022.79	221.50
1023.08	210.50
1023.36	236.00
1023.65	205.50
>>>>>End Processed Spectral Data<<<<<
