SpectraSuite Data File
++++++++++++++++++++++++++++++++++++
Date: Tue Apr 02 18:45:29 EDT 2013
User: group
Dark Spectrum Present: No
Reference Spectrum Present: No
Number of Sampled Component Spectra: 1
Spectrometers: USB2E7196
Integration Time (usec): 580000 (USB2E7196)
Spectra Averaged: 2 (USB2E7196)
Boxcar Smoothing: 10 (USB2E7196)
Correct for Electrical Dark: No (USB2E7196)
Strobe/Lamp Enabled: No (USB2E7196)
Correct for Detector Non-linearity: No (USB2E7196)
Correct for Stray Light: No (USB2E7196)
Number of Pixels in Processed Spectrum: 2048
>>>>>Begin Processed Spectral Data<<<<<
339.09	0.00
339.48	194.50
339.86	195.00
340.24	195.50
340.63	193.00
341.01	227.50
341.39	198.50
341.78	208.00
342.16	211.50
342.54	205.00
342.93	197.74
343.31	207.43
343.69	207.86
344.07	208.40
344.46	209.29
344.84	210.21
345.22	209.24
345.60	209.67
345.99	209.79
346.37	209.76
346.75	209.95
347.13	210.19
347.52	210.36
347.90	210.86
348.28	210.83
348.66	211.19
349.05	210.67
349.43	210.79
349.81	210.79
350.19	210.93
350.57	211.02
350.96	211.29
351.34	211.86
351.72	212.14
352.10	212.33
352.48	212.02
352.87	211.76
353.25	212.00
353.63	212.07
354.01	212.24
354.39	212.26
354.77	212.40
355.15	213.14
355.54	212.98
355.92	212.48
356.30	212.55
356.68	213.52
357.06	213.55
357.44	213.38
357.82	213.26
358.20	214.10
358.58	214.24
358.97	214.12
359.35	214.48
359.73	215.02
360.11	214.90
360.49	215.12
360.87	215.29
361.25	215.48
361.63	216.10
362.01	216.02
362.39	215.98
362.77	216.21
363.15	215.79
363.53	216.07
363.91	216.38
364.29	216.19
364.67	214.45
365.05	214.38
365.43	214.74
365.81	215.24
366.19	215.19
366.57	215.81
366.95	215.90
367.33	215.33
367.71	215.00
368.09	215.36
368.47	215.31
368.85	215.07
369.23	215.50
369.61	214.81
369.99	215.26
370.37	215.55
370.75	216.50
371.13	216.07
371.51	215.57
371.89	215.79
372.27	216.05
372.65	216.38
373.03	216.64
373.41	216.17
373.78	215.79
374.16	214.88
374.54	214.43
374.92	214.12
375.30	214.14
375.68	213.83
376.06	213.95
376.44	213.79
376.82	214.10
377.19	213.67
377.57	213.79
377.95	213.33
378.33	213.19
378.71	211.60
379.09	211.79
379.47	212.26
379.84	211.95
380.22	211.81
380.60	211.45
380.98	211.31
381.36	211.52
381.73	211.36
382.11	211.81
382.49	211.62
382.87	211.64
383.25	211.64
383.62	214.14
384.00	213.76
384.38	213.83
384.76	214.29
385.13	215.05
385.51	215.02
385.89	214.69
386.27	214.74
386.64	215.29
387.02	215.21
387.40	214.95
387.78	215.17
388.15	215.05
388.53	214.90
388.91	215.00
389.29	214.90
389.66	215.38
390.04	215.12
390.42	215.67
390.79	215.67
391.17	215.67
391.55	213.50
391.92	213.64
392.30	214.02
392.68	213.43
393.05	213.55
393.43	213.55
393.81	213.76
394.18	213.52
394.56	213.55
394.94	213.95
395.31	213.93
395.69	214.45
396.06	214.81
396.44	214.93
396.82	214.64
397.19	215.74
397.57	215.31
397.95	215.79
398.32	215.14
398.70	215.45
399.07	215.67
399.45	215.45
399.82	215.24
400.20	215.12
400.58	215.19
400.95	214.21
401.33	214.64
401.70	216.02
402.08	216.05
402.45	216.12
402.83	216.74
403.20	216.86
403.58	216.93
403.95	217.48
404.33	218.07
404.71	218.50
405.08	219.69
405.46	220.12
405.83	220.17
406.21	220.69
406.58	221.07
406.96	221.50
407.33	222.26
407.70	223.00
408.08	225.07
408.45	225.90
408.83	227.17
409.20	227.52
409.58	227.12
409.95	228.29
410.33	229.26
410.70	229.45
411.08	230.93
411.45	231.74
411.82	232.55
412.20	234.17
412.57	236.43
412.95	235.74
413.32	237.43
413.69	238.60
414.07	240.17
414.44	242.02
414.82	243.86
415.19	246.00
415.56	248.17
415.94	249.24
416.31	252.17
416.68	254.81
417.06	258.12
417.43	261.64
417.81	265.10
418.18	268.79
418.55	272.69
418.93	276.52
419.30	280.71
419.67	284.98
420.04	289.24
420.42	293.40
420.79	300.88
421.16	306.48
421.54	313.64
421.91	319.83
422.28	325.57
422.66	332.45
423.03	340.40
423.40	347.62
423.77	355.02
424.15	361.88
424.52	369.43
424.89	377.93
425.26	385.60
425.64	393.38
426.01	401.43
426.38	409.93
426.75	419.60
427.13	428.95
427.50	438.45
427.87	448.05
428.24	458.07
428.61	466.17
428.99	477.12
429.36	487.50
429.73	498.29
430.10	510.33
430.47	521.81
430.85	531.88
431.22	544.40
431.59	559.48
431.96	572.64
432.33	586.67
432.70	600.33
433.08	616.48
433.45	631.31
433.82	646.07
434.19	662.90
434.56	679.50
434.93	695.02
435.30	710.95
435.68	728.19
436.05	745.45
436.42	762.55
436.79	778.21
437.16	794.74
437.53	812.86
437.90	830.10
438.27	847.21
438.64	865.26
439.01	882.24
439.38	895.17
439.75	909.45
440.13	926.00
440.50	941.14
440.87	954.02
441.24	967.36
441.61	982.07
441.98	992.86
442.35	1004.31
442.72	1017.38
443.09	1031.00
443.46	1039.02
443.83	1044.21
444.20	1048.55
444.57	1054.43
444.94	1058.02
445.31	1061.76
445.68	1067.57
446.05	1069.38
446.42	1068.40
446.79	1066.74
447.16	1064.50
447.53	1063.60
447.90	1057.38
448.27	1050.98
448.64	1042.55
449.01	1036.48
449.37	1025.67
449.74	1014.57
450.11	1003.14
450.48	988.10
450.85	972.14
451.22	959.38
451.59	947.50
451.96	936.64
452.33	920.95
452.70	907.29
453.07	889.57
453.43	870.21
453.80	853.55
454.17	837.86
454.54	822.95
454.91	807.55
455.28	791.33
455.65	776.33
456.02	765.26
456.38	752.60
456.75	736.81
457.12	723.83
457.49	711.38
457.86	697.69
458.23	688.24
458.59	676.76
458.96	665.17
459.33	654.67
459.70	643.93
460.07	635.86
460.43	625.93
460.80	618.14
461.17	610.45
461.54	602.74
461.91	594.83
462.27	586.45
462.64	579.38
463.01	572.07
463.38	565.31
463.74	555.02
464.11	548.24
464.48	543.00
464.85	537.02
465.21	533.17
465.58	528.05
465.95	521.29
466.32	516.17
466.68	510.95
467.05	505.74
467.42	500.81
467.78	495.83
468.15	491.07
468.52	487.26
468.88	481.74
469.25	477.00
469.62	473.57
469.98	469.86
470.35	466.14
470.72	462.81
471.08	458.88
471.45	455.98
471.82	452.86
472.18	449.50
472.55	446.93
472.92	442.71
473.28	439.83
473.65	436.93
474.02	434.12
474.38	432.33
474.75	430.62
475.11	428.40
475.48	426.67
475.85	424.95
476.21	422.95
476.58	421.95
476.94	420.60
477.31	419.02
477.67	417.55
478.04	416.24
478.41	415.38
478.77	416.88
479.14	415.50
479.50	414.69
479.87	414.38
480.23	413.69
480.60	413.52
480.96	413.45
481.33	414.19
481.69	414.21
482.06	414.24
482.42	414.31
482.79	414.55
483.15	415.40
483.52	416.29
483.88	416.88
484.25	417.38
484.61	418.50
484.98	419.45
485.34	421.26
485.71	423.48
486.07	424.88
486.44	424.12
486.80	425.90
487.17	427.55
487.53	429.74
487.90	432.26
488.26	435.36
488.62	437.95
488.99	439.71
489.35	442.36
489.72	445.07
490.08	447.88
490.44	450.76
490.81	453.48
491.17	456.40
491.54	459.88
491.90	463.40
492.26	466.79
492.63	470.71
492.99	474.00
493.36	477.60
493.72	482.24
494.08	487.05
494.45	491.83
494.81	497.17
495.17	501.71
495.54	506.62
495.90	511.07
496.26	515.88
496.63	521.62
496.99	527.00
497.35	532.62
497.72	538.62
498.08	544.26
498.44	550.33
498.80	556.88
499.17	563.19
499.53	569.55
499.89	576.26
500.26	582.90
500.62	589.62
500.98	596.67
501.34	602.86
501.71	609.69
502.07	616.86
502.43	624.07
502.79	630.83
503.16	637.60
503.52	644.86
503.88	651.45
504.24	658.93
504.60	667.05
504.97	674.43
505.33	681.43
505.69	690.40
506.05	697.71
506.41	705.55
506.78	713.48
507.14	721.48
507.50	729.43
507.86	737.17
508.22	745.14
508.59	752.05
508.95	760.60
509.31	769.74
509.67	777.31
510.03	784.74
510.39	792.55
510.75	800.43
511.12	808.24
511.48	816.24
511.84	823.17
512.20	830.43
512.56	838.36
512.92	846.50
513.28	853.26
513.64	861.71
514.00	868.57
514.37	875.52
514.73	882.52
515.09	890.52
515.45	897.60
515.81	904.43
516.17	911.57
516.53	917.88
516.89	922.69
517.25	929.36
517.61	936.33
517.97	942.43
518.33	948.74
518.69	955.07
519.05	962.02
519.41	968.31
519.77	975.05
520.13	980.64
520.49	985.79
520.85	991.79
521.21	997.71
521.57	1003.74
521.93	1008.74
522.29	1014.33
522.65	1018.40
523.01	1024.07
523.37	1029.52
523.73	1035.21
524.09	1040.33
524.45	1045.76
524.81	1050.67
525.17	1055.10
525.53	1060.07
525.89	1065.00
526.25	1069.74
526.61	1073.31
526.97	1078.45
527.33	1082.57
527.68	1088.83
528.04	1093.10
528.40	1096.60
528.76	1100.05
529.12	1104.33
529.48	1109.95
529.84	1113.50
530.20	1118.12
530.56	1122.76
530.91	1126.36
531.27	1130.33
531.63	1134.43
531.99	1138.26
532.35	1142.21
532.71	1146.00
533.07	1150.33
533.42	1155.90
533.78	1159.10
534.14	1163.60
534.50	1166.81
534.86	1171.31
535.21	1173.26
535.57	1178.21
535.93	1181.90
536.29	1187.10
536.65	1190.45
537.00	1193.14
537.36	1198.14
537.72	1201.71
538.08	1204.74
538.44	1208.05
538.79	1211.50
539.15	1214.43
539.51	1218.29
539.87	1222.43
540.22	1225.81
540.58	1229.38
540.94	1231.40
541.29	1235.05
541.65	1238.21
542.01	1241.64
542.37	1244.40
542.72	1246.81
543.08	1248.02
543.44	1251.31
543.79	1252.38
544.15	1255.50
544.51	1259.21
544.87	1261.12
545.22	1263.52
545.58	1266.50
545.94	1269.31
546.29	1271.95
546.65	1274.88
547.01	1276.76
547.36	1278.36
547.72	1280.93
548.07	1283.14
548.43	1285.07
548.79	1287.40
549.14	1289.88
549.50	1292.50
549.86	1294.24
550.21	1297.26
550.57	1301.12
550.92	1303.14
551.28	1306.43
551.64	1309.50
551.99	1311.57
552.35	1314.45
552.70	1317.52
553.06	1320.00
553.41	1323.57
553.77	1327.81
554.13	1331.19
554.48	1336.17
554.84	1340.07
555.19	1343.79
555.55	1348.31
555.90	1352.38
556.26	1356.07
556.61	1359.64
556.97	1362.76
557.32	1366.36
557.68	1369.38
558.03	1372.57
558.39	1376.95
558.74	1380.29
559.10	1383.95
559.45	1388.31
559.81	1392.31
560.16	1396.00
560.52	1399.57
560.87	1404.69
561.23	1408.19
561.58	1413.40
561.94	1415.81
562.29	1420.48
562.64	1425.31
563.00	1428.79
563.35	1432.93
563.71	1437.36
564.06	1442.45
564.42	1447.81
564.77	1453.38
565.12	1460.17
565.48	1467.52
565.83	1472.74
566.19	1478.76
566.54	1484.74
566.89	1489.45
567.25	1495.98
567.60	1503.86
567.96	1511.60
568.31	1517.60
568.66	1524.00
569.02	1528.29
569.37	1533.98
569.72	1539.21
570.08	1543.98
570.43	1549.40
570.78	1554.24
571.14	1560.67
571.49	1565.64
571.84	1571.86
572.20	1576.79
572.55	1581.71
572.90	1584.81
573.26	1589.60
573.61	1593.86
573.96	1597.86
574.31	1602.33
574.67	1606.21
575.02	1608.60
575.37	1611.14
575.72	1613.98
576.08	1617.12
576.43	1621.31
576.78	1624.88
577.13	1628.38
577.49	1632.67
577.84	1637.64
578.19	1642.33
578.54	1645.17
578.90	1649.60
579.25	1651.43
579.60	1654.57
579.95	1656.43
580.30	1660.50
580.66	1664.57
581.01	1668.48
581.36	1671.90
581.71	1674.79
582.06	1679.40
582.42	1684.21
582.77	1687.88
583.12	1690.64
583.47	1694.48
583.82	1697.52
584.17	1700.69
584.53	1704.60
584.88	1707.83
585.23	1710.76
585.58	1713.38
585.93	1716.81
586.28	1719.36
586.63	1722.95
586.98	1726.19
587.34	1731.24
587.69	1733.64
588.04	1736.50
588.39	1738.60
588.74	1739.79
589.09	1742.79
589.44	1743.00
589.79	1744.07
590.14	1746.21
590.49	1748.29
590.84	1748.86
591.19	1750.86
591.54	1753.55
591.89	1754.26
592.25	1757.07
592.60	1758.17
592.95	1759.74
593.30	1761.38
593.65	1763.07
594.00	1763.83
594.35	1770.86
594.70	1771.05
595.05	1772.10
595.40	1771.71
595.75	1772.64
596.10	1775.00
596.45	1776.71
596.80	1778.62
597.15	1779.67
597.50	1779.31
597.85	1780.79
598.19	1781.95
598.54	1782.26
598.89	1782.17
599.24	1783.17
599.59	1783.07
599.94	1783.19
600.29	1783.67
600.64	1783.81
600.99	1783.19
601.34	1784.17
601.69	1777.43
602.04	1776.21
602.39	1776.19
602.74	1777.24
603.08	1776.69
603.43	1777.00
603.78	1776.24
604.13	1775.38
604.48	1774.33
604.83	1775.43
605.18	1776.02
605.53	1776.00
605.87	1775.74
606.22	1774.90
606.57	1773.67
606.92	1771.52
607.27	1770.64
607.62	1770.26
607.96	1768.79
608.31	1768.74
608.66	1767.45
609.01	1766.62
609.36	1766.33
609.70	1765.10
610.05	1763.57
610.40	1762.40
610.75	1759.36
611.10	1758.33
611.44	1755.95
611.79	1753.88
612.14	1750.90
612.49	1745.69
612.83	1742.29
613.18	1739.31
613.53	1737.00
613.88	1733.81
614.22	1730.55
614.57	1726.50
614.92	1723.02
615.27	1720.21
615.61	1715.81
615.96	1711.74
616.31	1708.60
616.65	1705.57
617.00	1702.57
617.35	1698.21
617.70	1695.98
618.04	1693.31
618.39	1688.90
618.74	1686.45
619.08	1683.29
619.43	1680.55
619.78	1678.60
620.12	1675.76
620.47	1672.55
620.82	1668.40
621.16	1664.90
621.51	1663.00
621.85	1659.33
622.20	1654.69
622.55	1650.45
622.89	1647.76
623.24	1645.76
623.59	1642.36
623.93	1638.38
624.28	1633.81
624.62	1631.81
624.97	1628.14
625.32	1623.74
625.66	1619.76
626.01	1615.10
626.35	1611.26
626.70	1606.43
627.04	1602.74
627.39	1598.93
627.73	1596.45
628.08	1593.76
628.43	1589.67
628.77	1584.95
629.12	1582.31
629.46	1579.67
629.81	1576.71
630.15	1571.48
630.50	1566.21
630.84	1561.38
631.19	1556.00
631.53	1551.88
631.88	1545.83
632.22	1539.45
632.57	1534.69
632.91	1529.76
633.26	1526.00
633.60	1521.43
633.95	1516.57
634.29	1511.19
634.64	1507.21
634.98	1501.81
635.32	1497.88
635.67	1494.45
636.01	1490.62
636.36	1484.90
636.70	1479.62
637.05	1474.52
637.39	1470.98
637.73	1466.55
638.08	1463.40
638.42	1460.00
638.77	1455.57
639.11	1451.38
639.45	1447.33
639.80	1442.83
640.14	1437.88
640.49	1431.45
640.83	1426.05
641.17	1421.02
641.52	1415.83
641.86	1409.76
642.20	1404.71
642.55	1397.86
642.89	1391.67
643.23	1385.24
643.58	1381.31
643.92	1375.90
644.26	1370.17
644.61	1364.38
644.95	1358.83
645.29	1352.02
645.64	1346.67
645.98	1340.62
646.32	1335.62
646.66	1329.90
647.01	1324.00
647.35	1319.43
647.69	1313.98
648.04	1308.74
648.38	1303.38
648.72	1298.14
649.06	1292.60
649.41	1286.43
649.75	1281.19
650.09	1275.38
650.43	1268.98
650.78	1262.19
651.12	1255.74
651.46	1248.81
651.80	1243.02
652.14	1236.31
652.49	1230.95
652.83	1224.62
653.17	1218.52
653.51	1211.60
653.85	1205.17
654.20	1199.45
654.54	1192.19
654.88	1186.31
655.22	1180.69
655.56	1174.64
655.90	1168.64
656.25	1162.57
656.59	1156.38
656.93	1149.69
657.27	1144.38
657.61	1138.48
657.95	1132.62
658.29	1126.79
658.64	1121.95
658.98	1114.67
659.32	1108.43
659.66	1101.05
660.00	1095.29
660.34	1088.52
660.68	1082.40
661.02	1076.17
661.36	1069.98
661.70	1063.98
662.05	1058.17
662.39	1051.60
662.73	1045.55
663.07	1039.90
663.41	1033.90
663.75	1027.43
664.09	1022.14
664.43	1015.12
664.77	1009.12
665.11	1002.50
665.45	996.86
665.79	990.71
666.13	985.50
666.47	979.74
666.81	974.83
667.15	968.29
667.49	963.83
667.83	958.45
668.17	952.67
668.51	947.19
668.85	941.74
669.19	937.14
669.53	930.64
669.87	924.83
670.21	918.98
670.55	913.07
670.89	908.36
671.23	903.31
671.57	898.26
671.91	892.52
672.25	887.33
672.58	882.50
672.92	876.79
673.26	871.95
673.60	867.21
673.94	861.60
674.28	856.50
674.62	851.07
674.96	845.71
675.30	841.10
675.64	835.60
675.97	830.60
676.31	824.90
676.65	819.74
676.99	815.93
677.33	810.81
677.67	805.86
678.01	799.83
678.34	794.98
678.68	790.50
679.02	785.90
679.36	780.81
679.70	774.69
680.04	769.69
680.37	764.10
680.71	758.43
681.05	753.40
681.39	749.05
681.73	744.07
682.06	739.10
682.40	734.17
682.74	730.36
683.08	726.62
683.42	721.43
683.75	717.33
684.09	711.93
684.43	706.86
684.77	701.98
685.10	698.21
685.44	692.86
685.78	687.90
686.12	683.38
686.45	678.71
686.79	674.52
687.13	670.67
687.46	666.00
687.80	662.69
688.14	659.21
688.48	654.79
688.81	650.40
689.15	646.95
689.49	642.55
689.82	637.55
690.16	632.19
690.50	627.45
690.83	623.07
691.17	618.12
691.51	614.12
691.84	610.21
692.18	605.93
692.52	601.93
692.85	598.38
693.19	594.93
693.52	590.79
693.86	586.31
694.20	581.95
694.53	578.36
694.87	573.83
695.21	568.79
695.54	564.60
695.88	560.29
696.21	555.43
696.55	551.43
696.88	547.69
697.22	544.19
697.56	541.31
697.89	537.74
698.23	534.64
698.56	530.52
698.90	526.48
699.23	522.33
699.57	518.38
699.90	514.50
700.24	510.24
700.58	507.12
700.91	504.36
701.25	502.67
701.58	499.76
701.92	497.00
702.25	494.10
702.59	490.43
702.92	487.07
703.26	484.07
703.59	481.02
703.93	479.40
704.26	476.38
704.60	472.90
704.93	469.67
705.26	466.10
705.60	463.45
705.93	460.98
706.27	458.67
706.60	456.29
706.94	454.05
707.27	451.24
707.61	448.76
707.94	445.95
708.27	441.40
708.61	437.95
708.94	435.10
709.28	432.81
709.61	430.10
709.94	427.98
710.28	425.24
710.61	422.71
710.95	418.29
711.28	416.98
711.61	414.64
711.95	412.26
712.28	409.86
712.61	407.62
712.95	406.00
713.28	404.36
713.61	401.95
713.95	399.19
714.28	397.26
714.61	394.60
714.95	391.88
715.28	389.57
715.61	387.26
715.95	385.10
716.28	382.21
716.61	380.38
716.95	377.48
717.28	375.07
717.61	372.86
717.94	370.60
718.28	366.88
718.61	364.88
718.94	362.86
719.27	360.95
719.61	359.05
719.94	356.55
720.27	353.79
720.60	351.31
720.94	349.24
721.27	347.33
721.60	346.17
721.93	344.38
722.27	343.55
722.60	342.12
722.93	340.33
723.26	339.29
723.59	337.52
723.93	336.43
724.26	335.62
724.59	334.17
724.92	333.26
725.25	332.71
725.59	331.10
725.92	329.93
726.25	328.83
726.58	327.38
726.91	325.81
727.24	324.81
727.57	323.81
727.91	322.31
728.24	321.21
728.57	319.67
728.90	318.98
729.23	317.26
729.56	316.95
729.89	315.48
730.22	314.07
730.55	313.02
730.89	312.21
731.22	310.81
731.55	309.74
731.88	308.98
732.21	307.57
732.54	306.36
732.87	305.33
733.20	304.24
733.53	303.40
733.86	302.50
734.19	301.26
734.52	300.69
734.85	301.24
735.18	300.17
735.51	299.57
735.84	298.67
736.17	297.88
736.50	296.07
736.83	297.62
737.16	296.79
737.49	295.98
737.82	294.93
738.15	294.36
738.48	293.33
738.81	291.98
739.14	290.90
739.47	290.07
739.80	289.29
740.13	288.60
740.46	287.67
740.79	286.60
741.12	285.74
741.45	284.50
741.78	282.14
742.11	281.98
742.44	280.62
742.77	280.24
743.10	279.19
743.43	278.48
743.75	275.67
744.08	277.74
744.41	276.67
744.74	275.69
745.07	274.38
745.40	274.05
745.73	274.33
746.06	273.40
746.39	272.90
746.71	271.93
747.04	271.07
747.37	270.31
747.70	269.98
748.03	269.17
748.36	268.71
748.68	268.36
749.01	266.86
749.34	266.43
749.67	265.79
750.00	265.88
750.33	266.71
750.65	266.19
750.98	262.81
751.31	262.26
751.64	261.81
751.97	262.57
752.29	262.12
752.62	260.67
752.95	260.12
753.28	259.29
753.60	258.74
753.93	258.69
754.26	258.26
754.59	257.24
754.91	256.57
755.24	256.02
755.57	255.45
755.90	255.33
756.22	254.57
756.55	253.55
756.88	252.24
757.20	250.40
757.53	249.48
757.86	249.05
758.19	248.83
758.51	248.50
758.84	246.86
759.17	245.90
759.49	245.48
759.82	246.21
760.15	246.00
760.47	245.40
760.80	244.33
761.13	244.24
761.45	243.60
761.78	243.50
762.11	243.17
762.43	242.86
762.76	242.14
763.08	242.00
763.41	241.83
763.74	241.76
764.06	241.33
764.39	240.98
764.71	240.52
765.04	239.86
765.37	239.36
765.69	238.98
766.02	238.81
766.34	238.26
766.67	236.93
767.00	237.00
767.32	237.93
767.65	239.14
767.97	238.57
768.30	238.60
768.62	238.07
768.95	237.57
769.27	237.31
769.60	237.52
769.92	237.14
770.25	236.57
770.57	235.79
770.90	235.52
771.22	234.83
771.55	235.02
771.87	235.07
772.20	234.79
772.52	236.40
772.85	238.52
773.17	238.21
773.50	237.95
773.82	237.38
774.15	236.21
774.47	234.48
774.80	233.88
775.12	233.79
775.45	233.64
775.77	233.50
776.09	233.48
776.42	233.10
776.74	233.19
777.07	233.17
777.39	233.02
777.72	232.43
778.04	232.86
778.36	232.10
778.69	231.98
779.01	231.90
779.33	229.90
779.66	227.36
779.98	227.21
780.31	227.02
780.63	227.76
780.95	227.71
781.28	227.52
781.60	227.62
781.92	227.38
782.25	227.07
782.57	226.83
782.89	225.88
783.22	225.48
783.54	225.02
783.86	224.86
784.19	224.79
784.51	225.48
784.83	224.90
785.16	225.07
785.48	224.64
785.80	224.43
786.12	224.62
786.45	224.45
786.77	224.40
787.09	224.40
787.42	223.31
787.74	223.62
788.06	223.55
788.38	223.12
788.71	222.93
789.03	223.17
789.35	223.26
789.67	223.26
789.99	223.26
790.32	223.05
790.64	222.95
790.96	224.64
791.28	223.76
791.61	223.86
791.93	223.62
792.25	223.62
792.57	225.17
792.89	224.67
793.21	224.93
793.54	224.79
793.86	224.40
794.18	224.71
794.50	224.02
794.82	223.90
795.14	224.24
795.47	224.50
795.79	224.21
796.11	223.69
796.43	223.57
796.75	223.40
797.07	223.55
797.39	223.60
797.71	221.83
798.04	222.10
798.36	222.02
798.68	221.98
799.00	221.86
799.32	220.38
799.64	220.45
799.96	220.19
800.28	220.29
800.60	220.17
800.92	220.31
801.24	219.98
801.56	220.17
801.89	219.83
802.21	219.81
802.53	219.55
802.85	220.05
803.17	221.24
803.49	220.95
803.81	220.57
804.13	220.17
804.45	220.02
804.77	219.93
805.09	220.00
805.41	219.79
805.73	219.76
806.05	219.69
806.37	219.50
806.69	219.29
807.01	219.40
807.33	219.43
807.65	218.48
807.97	219.52
808.28	219.31
808.60	219.12
808.92	218.74
809.24	220.14
809.56	219.67
809.88	218.55
810.20	218.55
810.52	218.98
810.84	218.81
811.16	218.50
811.48	218.43
811.80	219.10
812.12	219.17
812.43	219.21
812.75	219.02
813.07	219.07
813.39	219.38
813.71	218.76
814.03	218.67
814.35	218.86
814.67	218.02
814.98	217.71
815.30	217.69
815.62	217.29
815.94	215.52
816.26	215.43
816.58	215.07
816.89	215.31
817.21	214.79
817.53	214.86
817.85	214.81
818.17	214.62
818.48	213.74
818.80	213.86
819.12	213.67
819.44	213.33
819.76	213.10
820.07	212.95
820.39	213.14
820.71	213.31
821.03	213.12
821.34	212.83
821.66	213.19
821.98	213.69
822.30	213.64
822.61	214.98
822.93	214.90
823.25	215.14
823.57	214.79
823.88	215.12
824.20	215.14
824.52	215.57
824.83	215.52
825.15	215.12
825.47	215.14
825.79	215.31
826.10	215.38
826.42	215.12
826.74	215.24
827.05	215.07
827.37	215.38
827.69	215.40
828.00	215.43
828.32	215.33
828.64	214.83
828.95	215.93
829.27	215.31
829.58	215.52
829.90	215.76
830.22	216.02
830.53	215.50
830.85	215.26
831.17	214.76
831.48	214.90
831.80	215.02
832.11	214.86
832.43	214.67
832.75	214.43
833.06	215.95
833.38	215.24
833.69	215.12
834.01	214.86
834.32	214.76
834.64	214.67
834.96	214.74
835.27	214.67
835.59	214.29
835.90	214.07
836.22	213.83
836.53	213.62
836.85	213.40
837.16	215.67
837.48	215.79
837.79	216.48
838.11	216.40
838.42	216.29
838.74	216.36
839.05	216.05
839.37	216.19
839.68	214.74
840.00	214.81
840.31	215.10
840.63	214.95
840.94	214.81
841.26	214.93
841.57	214.90
841.88	215.21
842.20	214.69
842.51	214.36
842.83	214.38
843.14	216.12
843.46	216.12
843.77	214.93
844.08	214.67
844.40	214.05
844.71	214.07
845.03	214.19
845.34	213.98
845.65	214.07
845.97	213.98
846.28	214.12
846.60	214.26
846.91	213.98
847.22	213.88
847.54	214.43
847.85	214.24
848.16	213.95
848.48	213.36
848.79	213.98
849.10	214.31
849.42	214.40
849.73	212.62
850.04	212.57
850.36	211.71
850.67	212.21
850.98	212.40
851.30	212.50
851.61	212.45
851.92	212.67
852.23	213.29
852.55	213.38
852.86	213.40
853.17	213.38
853.49	213.88
853.80	214.36
854.11	214.43
854.42	214.81
854.74	214.64
855.05	214.98
855.36	214.19
855.67	214.48
855.99	214.52
856.30	216.76
856.61	216.79
856.92	216.86
857.23	216.76
857.55	216.45
857.86	216.19
858.17	216.38
858.48	215.95
858.79	215.33
859.11	215.62
859.42	215.33
859.73	215.36
860.04	215.17
860.35	214.57
860.66	213.90
860.98	213.81
861.29	214.24
861.60	214.12
861.91	214.36
862.22	213.79
862.53	213.38
862.84	210.90
863.16	211.36
863.47	211.21
863.78	211.17
864.09	211.52
864.40	211.62
864.71	211.57
865.02	211.71
865.33	211.45
865.64	210.83
865.95	211.00
866.27	212.26
866.58	212.14
866.89	212.50
867.20	212.43
867.51	211.86
867.82	211.60
868.13	212.24
868.44	211.98
868.75	212.26
869.06	212.69
869.37	213.17
869.68	212.45
869.99	212.67
870.30	212.79
870.61	212.67
870.92	212.38
871.23	212.17
871.54	212.48
871.85	213.19
872.16	213.62
872.47	213.45
872.78	212.19
873.09	212.05
873.40	211.62
873.71	211.93
874.02	212.29
874.33	212.02
874.64	211.50
874.95	212.02
875.26	211.57
875.56	211.45
875.87	211.29
876.18	211.24
876.49	213.19
876.80	212.79
877.11	212.31
877.42	212.40
877.73	212.74
878.04	212.52
878.35	212.48
878.66	212.57
878.96	212.71
879.27	212.62
879.58	212.67
879.89	212.64
880.20	213.10
880.51	213.14
880.82	213.26
881.12	213.26
881.43	212.79
881.74	212.57
882.05	212.38
882.36	212.38
882.67	212.64
882.97	210.38
883.28	210.50
883.59	210.74
883.90	210.95
884.21	211.21
884.51	211.10
884.82	210.69
885.13	210.74
885.44	210.76
885.74	210.71
886.05	210.79
886.36	210.90
886.67	210.52
886.98	211.36
887.28	211.69
887.59	211.71
887.90	211.76
888.20	211.76
888.51	212.29
888.82	211.81
889.13	211.95
889.43	213.79
889.74	213.67
890.05	213.60
890.35	213.43
890.66	213.14
890.97	213.07
891.28	212.76
891.58	212.64
891.89	212.62
892.20	212.52
892.50	212.40
892.81	212.36
893.12	212.24
893.42	211.05
893.73	211.17
894.04	211.02
894.34	211.29
894.65	211.31
894.95	210.83
895.26	211.29
895.57	212.10
895.87	210.12
896.18	210.38
896.48	210.57
896.79	210.48
897.10	210.81
897.40	210.79
897.71	211.26
898.01	211.38
898.32	211.38
898.63	211.38
898.93	211.45
899.24	211.52
899.54	211.36
899.85	212.00
900.15	211.67
900.46	211.90
900.76	211.86
901.07	211.90
901.38	212.10
901.68	212.38
901.99	211.48
902.29	211.69
902.60	211.50
902.90	211.31
903.21	211.45
903.51	211.07
903.82	211.71
904.12	211.76
904.43	211.74
904.73	211.76
905.03	211.93
905.34	214.00
905.64	213.95
905.95	213.90
906.25	213.50
906.56	213.31
906.86	213.33
907.17	213.29
907.47	213.33
907.77	213.12
908.08	212.50
908.38	212.50
908.69	212.79
908.99	213.29
909.30	213.48
909.60	213.43
909.90	213.64
910.21	213.00
910.51	212.79
910.81	212.76
911.12	212.71
911.42	212.60
911.73	210.36
912.03	210.40
912.33	210.81
912.64	210.79
912.94	210.88
913.24	210.26
913.55	210.12
913.85	210.14
914.15	210.74
914.46	211.12
914.76	210.95
915.06	210.71
915.37	210.14
915.67	210.02
915.97	209.90
916.27	209.45
916.58	209.55
916.88	209.36
917.18	209.21
917.49	210.86
917.79	210.95
918.09	211.31
918.39	211.76
918.70	211.83
919.00	211.79
919.30	212.74
919.60	212.86
919.91	212.88
920.21	212.81
920.51	212.12
920.81	211.90
921.12	212.45
921.42	212.31
921.72	212.62
922.02	212.52
922.32	212.98
922.63	213.12
922.93	213.81
923.23	213.79
923.53	213.76
923.83	212.26
924.13	212.43
924.44	212.43
924.74	212.48
925.04	212.95
925.34	213.07
925.64	212.14
925.94	212.48
926.24	213.62
926.55	213.71
926.85	213.95
927.15	213.93
927.45	213.69
927.75	213.67
928.05	213.71
928.35	213.67
928.65	214.02
928.95	214.17
929.26	213.62
929.56	214.12
929.86	214.31
930.16	214.19
930.46	214.02
930.76	214.05
931.06	213.14
931.36	212.57
931.66	212.88
931.96	213.31
932.26	213.05
932.56	212.07
932.86	212.17
933.16	212.07
933.46	212.12
933.76	212.00
934.06	212.57
934.36	213.02
934.66	213.17
934.96	212.74
935.26	212.93
935.56	213.31
935.86	212.67
936.16	212.14
936.46	212.33
936.76	212.21
937.06	211.93
937.36	212.33
937.66	212.26
937.96	212.00
938.26	211.45
938.56	211.52
938.86	211.60
939.16	211.98
939.46	212.31
939.76	212.17
940.06	212.19
940.35	211.76
940.65	210.95
940.95	211.21
941.25	210.90
941.55	210.60
941.85	210.38
942.15	210.90
942.45	211.50
942.75	211.14
943.04	211.17
943.34	211.64
943.64	211.45
943.94	211.24
944.24	211.52
944.54	211.81
944.84	211.81
945.13	211.50
945.43	211.14
945.73	211.40
946.03	211.52
946.33	211.19
946.62	211.10
946.92	211.19
947.22	211.19
947.52	211.21
947.82	211.45
948.11	211.17
948.41	210.64
948.71	210.17
949.01	210.24
949.31	210.48
949.60	210.12
949.90	210.21
950.20	210.26
950.50	210.21
950.79	209.88
951.09	210.00
951.39	209.88
951.69	209.62
951.98	209.67
952.28	209.55
952.58	209.69
952.87	209.88
953.17	209.95
953.47	209.69
953.76	209.93
954.06	209.48
954.36	209.21
954.66	209.38
954.95	210.07
955.25	210.43
955.55	210.29
955.84	210.05
956.14	210.57
956.44	210.69
956.73	210.24
957.03	210.45
957.32	210.60
957.62	210.62
957.92	211.31
958.21	210.93
958.51	213.45
958.81	213.69
959.10	213.52
959.40	214.14
959.69	214.29
959.99	214.40
960.29	214.62
960.58	214.64
960.88	215.21
961.17	215.05
961.47	215.26
961.76	215.17
962.06	215.64
962.36	214.95
962.65	214.95
962.95	215.24
963.24	215.14
963.54	215.19
963.83	215.36
964.13	214.98
964.42	214.57
964.72	212.79
965.01	212.69
965.31	212.81
965.60	212.05
965.90	213.62
966.19	213.31
966.49	213.38
966.78	213.40
967.08	213.31
967.37	213.26
967.67	212.52
967.96	212.83
968.26	212.62
968.55	213.21
968.85	213.38
969.14	213.24
969.43	213.33
969.73	213.07
970.02	213.05
970.32	213.05
970.61	212.98
970.91	212.21
971.20	212.17
971.49	212.00
971.79	212.45
972.08	210.79
972.38	210.81
972.67	210.55
972.96	210.88
973.26	210.67
973.55	211.07
973.85	211.14
974.14	210.86
974.43	211.14
974.73	210.67
975.02	210.40
975.31	210.31
975.61	210.05
975.90	209.90
976.19	209.64
976.49	209.86
976.78	210.14
977.07	210.31
977.37	210.31
977.66	210.45
977.95	210.05
978.24	210.17
978.54	210.74
978.83	210.69
979.12	210.60
979.42	210.50
979.71	210.02
980.00	210.05
980.29	210.33
980.59	209.95
980.88	210.57
981.17	210.36
981.46	210.62
981.76	210.81
982.05	211.69
982.34	211.93
982.63	211.88
982.93	212.14
983.22	212.69
983.51	212.50
983.80	212.88
984.09	213.38
984.39	213.02
984.68	212.62
984.97	212.74
985.26	212.45
985.55	212.69
985.85	212.60
986.14	213.12
986.43	213.24
986.72	213.14
987.01	212.52
987.30	212.57
987.59	212.24
987.89	212.26
988.18	211.45
988.47	211.26
988.76	211.00
989.05	210.55
989.34	210.17
989.63	210.90
989.92	210.45
990.22	210.14
990.51	210.14
990.80	210.10
991.09	210.33
991.38	210.93
991.67	210.67
991.96	210.57
992.25	210.31
992.54	209.98
992.83	209.95
993.12	210.05
993.41	210.38
993.70	211.29
993.99	211.74
994.28	212.12
994.58	212.40
994.87	212.24
995.16	212.29
995.45	212.36
995.74	211.57
996.03	211.95
996.32	212.14
996.61	212.62
996.90	212.45
997.19	212.26
997.48	212.00
997.77	211.69
998.06	211.52
998.34	211.33
998.63	211.29
998.92	211.48
999.21	211.64
999.50	211.60
999.79	210.86
1000.08	210.60
1000.37	210.26
1000.66	209.88
1000.95	210.50
1001.24	210.50
1001.53	210.67
1001.82	210.76
1002.11	210.00
1002.40	210.26
1002.68	210.86
1002.97	212.29
1003.26	212.00
1003.55	211.64
1003.84	211.90
1004.13	212.76
1004.42	212.86
1004.71	212.74
1004.99	212.36
1005.28	212.93
1005.57	212.98
1005.86	212.74
1006.15	212.67
1006.44	212.57
1006.72	213.02
1007.01	212.45
1007.30	212.50
1007.59	212.21
1007.88	212.07
1008.17	212.62
1008.45	212.10
1008.74	211.29
1009.03	210.26
1009.32	210.40
1009.60	210.62
1009.89	210.60
1010.18	209.71
1010.47	209.45
1010.76	209.45
1011.04	209.60
1011.33	209.60
1011.62	209.67
1011.91	209.95
1012.19	210.21
1012.48	210.43
1012.77	210.36
1013.05	211.33
1013.34	211.52
1013.63	211.40
1013.92	211.74
1014.20	211.40
1014.49	211.60
1014.78	211.74
1015.06	211.10
1015.35	211.12
1015.64	211.21
1015.92	211.50
1016.21	211.83
1016.50	212.02
1016.78	212.45
1017.07	212.45
1017.36	211.95
1017.64	211.60
1017.93	211.86
1018.22	211.40
1018.50	211.05
1018.79	210.88
1019.08	210.14
1019.36	210.17
1019.65	210.05
1019.93	210.57
1020.22	210.88
1020.51	211.60
1020.79	211.36
1021.08	207.00
1021.36	203.50
1021.65	208.00
1021.94	212.00
1022.22	212.50
1022.51	207.50
1022.79	223.00
1023.08	212.50
1023.36	230.50
1023.65	206.50
>>>>>End Processed Spectral Data<<<<<
