SpectraSuite Data File
++++++++++++++++++++++++++++++++++++
Date: Tue Apr 02 18:45:58 EDT 2013
User: group
Dark Spectrum Present: No
Reference Spectrum Present: No
Number of Sampled Component Spectra: 1
Spectrometers: USB2E7196
Integration Time (usec): 580000 (USB2E7196)
Spectra Averaged: 2 (USB2E7196)
Boxcar Smoothing: 10 (USB2E7196)
Correct for Electrical Dark: No (USB2E7196)
Strobe/Lamp Enabled: No (USB2E7196)
Correct for Detector Non-linearity: No (USB2E7196)
Correct for Stray Light: No (USB2E7196)
Number of Pixels in Processed Spectrum: 2048
>>>>>Begin Processed Spectral Data<<<<<
339.09	0.00
339.48	197.00
339.86	192.50
340.24	195.50
340.63	194.00
341.01	226.00
341.39	202.50
341.78	206.50
342.16	207.50
342.54	203.50
342.93	197.60
343.31	207.36
343.69	207.60
344.07	208.24
344.46	208.98
344.84	209.69
345.22	208.69
345.60	209.05
345.99	209.21
346.37	209.29
346.75	209.48
347.13	209.52
347.52	209.60
347.90	210.19
348.28	210.07
348.66	210.40
349.05	209.69
349.43	209.79
349.81	210.19
350.19	209.98
350.57	210.00
350.96	210.24
351.34	210.64
351.72	211.05
352.10	211.02
352.48	210.98
352.87	210.86
353.25	210.90
353.63	210.81
354.01	210.79
354.39	211.02
354.77	211.10
355.15	211.55
355.54	211.57
355.92	210.98
356.30	210.98
356.68	212.29
357.06	212.62
357.44	212.38
357.82	212.17
358.20	213.12
358.58	213.19
358.97	213.36
359.35	213.60
359.73	214.10
360.11	214.29
360.49	214.40
360.87	214.69
361.25	215.00
361.63	215.76
362.01	215.88
362.39	215.64
362.77	215.95
363.15	215.79
363.53	215.69
363.91	216.02
364.29	216.10
364.67	214.17
365.05	214.07
365.43	214.50
365.81	214.83
366.19	214.81
366.57	215.48
366.95	215.29
367.33	214.93
367.71	214.90
368.09	215.52
368.47	215.69
368.85	215.55
369.23	216.12
369.61	215.36
369.99	216.05
370.37	216.40
370.75	217.19
371.13	216.71
371.51	216.52
371.89	216.57
372.27	216.64
372.65	216.88
373.03	217.29
373.41	216.93
373.78	216.62
374.16	215.71
374.54	215.07
374.92	215.00
375.30	215.02
375.68	214.36
376.06	214.17
376.44	213.83
376.82	214.10
377.19	213.95
377.57	214.02
377.95	213.43
378.33	213.19
378.71	212.05
379.09	212.38
379.47	212.76
379.84	212.50
380.22	212.36
380.60	212.14
380.98	211.83
381.36	211.83
381.73	211.62
382.11	212.00
382.49	212.14
382.87	212.02
383.25	211.98
383.62	214.50
384.00	214.24
384.38	214.57
384.76	215.00
385.13	215.86
385.51	215.83
385.89	215.60
386.27	215.62
386.64	216.00
387.02	216.05
387.40	215.90
387.78	216.19
388.15	216.38
388.53	216.17
388.91	216.40
389.29	216.21
389.66	216.62
390.04	216.45
390.42	217.00
390.79	217.05
391.17	216.95
391.55	214.74
391.92	214.45
392.30	214.45
392.68	213.81
393.05	213.40
393.43	213.55
393.81	213.76
394.18	213.62
394.56	213.67
394.94	214.07
395.31	213.86
395.69	214.55
396.06	215.02
396.44	215.38
396.82	215.02
397.19	216.40
397.57	216.17
397.95	216.55
398.32	215.83
398.70	215.98
399.07	216.79
399.45	216.62
399.82	216.76
400.20	216.52
400.58	216.64
400.95	215.88
401.33	216.31
401.70	217.74
402.08	217.81
402.45	217.74
402.83	218.24
403.20	218.50
403.58	218.12
403.95	218.45
404.33	218.74
404.71	219.26
405.08	220.24
405.46	220.62
405.83	220.83
406.21	221.31
406.58	221.71
406.96	222.07
407.33	222.93
407.70	223.71
408.08	225.86
408.45	226.93
408.83	228.07
409.20	228.36
409.58	227.93
409.95	229.05
410.33	230.21
410.70	230.36
411.08	231.67
411.45	232.62
411.82	233.24
412.20	234.95
412.57	237.38
412.95	237.02
413.32	238.71
413.69	240.00
414.07	241.50
414.44	243.40
414.82	245.05
415.19	247.14
415.56	249.19
415.94	250.33
416.31	252.88
416.68	255.62
417.06	258.98
417.43	262.48
417.81	266.00
418.18	269.50
418.55	273.31
418.93	277.14
419.30	281.60
419.67	286.17
420.04	290.19
420.42	293.69
420.79	300.69
421.16	306.19
421.54	313.33
421.91	319.76
422.28	325.76
422.66	332.17
423.03	340.17
423.40	347.10
423.77	354.36
424.15	361.31
424.52	368.86
424.89	377.64
425.26	384.90
425.64	392.43
426.01	400.45
426.38	409.29
426.75	418.79
427.13	427.57
427.50	436.93
427.87	447.00
428.24	457.33
428.61	465.71
428.99	477.48
429.36	487.67
429.73	498.79
430.10	510.24
430.47	521.93
430.85	532.19
431.22	544.90
431.59	559.55
431.96	572.83
432.33	587.31
432.70	600.57
433.08	616.83
433.45	632.26
433.82	647.52
434.19	664.02
434.56	680.81
434.93	696.71
435.30	712.48
435.68	730.29
436.05	747.48
436.42	764.36
436.79	779.45
437.16	797.07
437.53	815.02
437.90	832.43
438.27	850.38
438.64	867.93
439.01	884.43
439.38	897.95
439.75	912.24
440.13	928.26
440.50	943.90
440.87	956.40
441.24	969.33
441.61	984.14
441.98	994.62
442.35	1006.17
442.72	1018.48
443.09	1032.29
443.46	1040.05
443.83	1046.05
444.20	1050.93
444.57	1056.83
444.94	1059.38
445.31	1062.31
445.68	1068.40
446.05	1069.64
446.42	1069.33
446.79	1068.88
447.16	1067.36
447.53	1066.50
447.90	1060.31
448.27	1053.52
448.64	1045.45
449.01	1039.36
449.37	1027.74
449.74	1017.24
450.11	1006.10
450.48	992.24
450.85	976.00
451.22	962.93
451.59	950.29
451.96	938.43
452.33	922.93
452.70	909.19
453.07	892.33
453.43	872.45
453.80	856.12
454.17	840.07
454.54	824.24
454.91	807.88
455.28	791.74
455.65	776.81
456.02	765.55
456.38	752.83
456.75	737.14
457.12	724.02
457.49	711.36
457.86	697.00
458.23	686.79
458.59	675.33
458.96	663.31
459.33	652.50
459.70	642.00
460.07	633.88
460.43	624.12
460.80	615.74
461.17	609.00
461.54	600.98
461.91	593.07
462.27	584.74
462.64	577.86
463.01	570.40
463.38	563.83
463.74	553.29
464.11	546.60
464.48	541.24
464.85	535.50
465.21	530.76
465.58	526.21
465.95	519.52
466.32	514.79
466.68	509.76
467.05	505.12
467.42	500.26
467.78	494.76
468.15	489.98
468.52	486.26
468.88	480.24
469.25	475.21
469.62	471.69
469.98	468.07
470.35	464.60
470.72	460.93
471.08	456.60
471.45	454.14
471.82	451.43
472.18	448.07
472.55	445.14
472.92	441.88
473.28	438.69
473.65	436.24
474.02	433.60
474.38	431.83
474.75	429.81
475.11	427.62
475.48	426.24
475.85	424.50
476.21	422.62
476.58	421.60
476.94	420.45
477.31	419.17
477.67	417.95
478.04	416.64
478.41	415.93
478.77	417.31
479.14	415.88
479.50	415.02
479.87	414.67
480.23	414.64
480.60	414.60
480.96	414.62
481.33	415.24
481.69	415.05
482.06	415.12
482.42	415.55
482.79	415.98
483.15	416.00
483.52	416.74
483.88	417.14
484.25	417.79
484.61	418.62
484.98	419.26
485.34	421.00
485.71	422.67
486.07	424.24
486.44	423.76
486.80	425.07
487.17	426.69
487.53	429.02
487.90	431.14
488.26	433.90
488.62	436.60
488.99	438.19
489.35	441.50
489.72	444.10
490.08	446.40
490.44	449.21
490.81	452.86
491.17	456.00
491.54	459.81
491.90	463.40
492.26	467.10
492.63	471.33
492.99	474.31
493.36	478.86
493.72	483.33
494.08	488.07
494.45	493.24
494.81	498.33
495.17	502.79
495.54	508.10
495.90	512.71
496.26	517.55
496.63	523.21
496.99	528.02
497.35	533.93
497.72	539.93
498.08	545.86
498.44	551.40
498.80	557.62
499.17	563.50
499.53	569.79
499.89	576.98
500.26	583.33
500.62	590.19
500.98	596.50
501.34	603.43
501.71	610.83
502.07	618.02
502.43	625.33
502.79	632.26
503.16	639.12
503.52	646.57
503.88	653.31
504.24	661.45
504.60	668.79
504.97	675.95
505.33	683.50
505.69	691.79
506.05	699.57
506.41	707.02
506.78	714.76
507.14	722.36
507.50	729.69
507.86	738.29
508.22	746.81
508.59	754.14
508.95	761.62
509.31	770.64
509.67	777.86
510.03	784.88
510.39	793.07
510.75	800.48
511.12	808.00
511.48	816.33
511.84	822.98
512.20	830.57
512.56	838.33
512.92	845.90
513.28	853.26
513.64	860.71
514.00	868.05
514.37	875.57
514.73	883.10
515.09	890.79
515.45	896.45
515.81	903.31
516.17	910.55
516.53	917.24
516.89	921.64
517.25	929.05
517.61	936.60
517.97	942.74
518.33	949.33
518.69	956.29
519.05	962.60
519.41	968.93
519.77	976.45
520.13	982.40
520.49	988.14
520.85	993.83
521.21	1000.55
521.57	1007.50
521.93	1012.21
522.29	1018.07
522.65	1022.62
523.01	1028.62
523.37	1033.48
523.73	1039.07
524.09	1044.12
524.45	1049.55
524.81	1053.74
525.17	1058.31
525.53	1062.57
525.89	1066.74
526.25	1070.93
526.61	1074.52
526.97	1078.83
527.33	1082.67
527.68	1088.50
528.04	1093.19
528.40	1097.26
528.76	1100.60
529.12	1104.10
529.48	1109.48
529.84	1113.19
530.20	1117.95
530.56	1122.69
530.91	1127.05
531.27	1130.93
531.63	1135.29
531.99	1139.40
532.35	1143.12
532.71	1146.24
533.07	1150.60
533.42	1157.14
533.78	1161.29
534.14	1166.24
534.50	1170.60
534.86	1174.62
535.21	1177.14
535.57	1181.45
535.93	1184.93
536.29	1190.14
536.65	1193.62
537.00	1196.55
537.36	1200.31
537.72	1203.19
538.08	1206.62
538.44	1209.60
538.79	1213.05
539.15	1215.86
539.51	1219.38
539.87	1222.50
540.22	1226.88
540.58	1230.48
540.94	1232.26
541.29	1235.71
541.65	1238.00
542.01	1240.81
542.37	1243.67
542.72	1245.19
543.08	1247.21
543.44	1250.64
543.79	1251.36
544.15	1254.45
544.51	1257.95
544.87	1260.36
545.22	1263.05
545.58	1264.93
545.94	1268.19
546.29	1270.71
546.65	1273.55
547.01	1275.36
547.36	1278.74
547.72	1280.57
548.07	1283.14
548.43	1285.74
548.79	1286.90
549.14	1289.12
549.50	1292.17
549.86	1293.98
550.21	1297.43
550.57	1300.43
550.92	1302.05
551.28	1305.67
551.64	1308.19
551.99	1310.31
552.35	1312.90
552.70	1316.31
553.06	1319.52
553.41	1322.36
553.77	1326.71
554.13	1330.86
554.48	1335.76
554.84	1339.81
555.19	1343.12
555.55	1347.52
555.90	1350.76
556.26	1355.64
556.61	1360.40
556.97	1362.79
557.32	1365.95
557.68	1369.67
558.03	1372.60
558.39	1377.45
558.74	1381.26
559.10	1384.69
559.45	1388.79
559.81	1392.71
560.16	1395.86
560.52	1399.86
560.87	1403.83
561.23	1406.48
561.58	1411.50
561.94	1414.55
562.29	1418.50
562.64	1423.71
563.00	1427.38
563.35	1431.88
563.71	1436.45
564.06	1440.98
564.42	1446.38
564.77	1452.69
565.12	1459.05
565.48	1466.67
565.83	1471.40
566.19	1477.76
566.54	1483.52
566.89	1489.10
567.25	1496.07
567.60	1503.07
567.96	1511.02
568.31	1518.29
568.66	1524.64
569.02	1528.71
569.37	1534.33
569.72	1540.07
570.08	1544.67
570.43	1549.14
570.78	1554.86
571.14	1559.05
571.49	1565.14
571.84	1570.98
572.20	1575.86
572.55	1580.19
572.90	1583.83
573.26	1589.52
573.61	1593.00
573.96	1598.05
574.31	1601.98
574.67	1605.21
575.02	1608.17
575.37	1610.26
575.72	1612.64
576.08	1616.14
576.43	1620.62
576.78	1624.38
577.13	1627.83
577.49	1632.50
577.84	1638.64
578.19	1642.29
578.54	1646.55
578.90	1649.95
579.25	1653.79
579.60	1656.02
579.95	1658.60
580.30	1662.14
580.66	1665.69
581.01	1669.36
581.36	1671.76
581.71	1675.81
582.06	1680.48
582.42	1684.43
582.77	1687.48
583.12	1690.83
583.47	1693.74
583.82	1696.76
584.17	1699.64
584.53	1703.64
584.88	1706.10
585.23	1708.50
585.58	1711.50
585.93	1714.38
586.28	1716.83
586.63	1719.29
586.98	1722.90
587.34	1727.21
587.69	1730.10
588.04	1732.93
588.39	1735.88
588.74	1737.36
589.09	1739.40
589.44	1740.02
589.79	1743.40
590.14	1745.79
590.49	1746.79
590.84	1748.93
591.19	1750.64
591.54	1753.81
591.89	1754.60
592.25	1757.48
592.60	1757.93
592.95	1759.19
593.30	1761.21
593.65	1762.69
594.00	1762.86
594.35	1770.36
594.70	1770.50
595.05	1771.21
595.40	1771.81
595.75	1772.14
596.10	1775.38
596.45	1777.45
596.80	1778.83
597.15	1778.93
597.50	1779.62
597.85	1782.38
598.19	1783.31
598.54	1784.05
598.89	1783.48
599.24	1784.81
599.59	1785.26
599.94	1785.33
600.29	1785.50
600.64	1785.31
600.99	1785.24
601.34	1787.69
601.69	1781.38
602.04	1781.02
602.39	1780.48
602.74	1780.07
603.08	1779.76
603.43	1779.71
603.78	1778.36
604.13	1777.90
604.48	1777.71
604.83	1777.76
605.18	1776.48
605.53	1775.86
605.87	1775.00
606.22	1774.36
606.57	1772.88
606.92	1771.10
607.27	1770.83
607.62	1770.52
607.96	1769.93
608.31	1769.90
608.66	1767.26
609.01	1766.05
609.36	1766.43
609.70	1765.69
610.05	1763.40
610.40	1762.48
610.75	1759.93
611.10	1758.48
611.44	1756.31
611.79	1754.31
612.14	1751.26
612.49	1747.90
612.83	1745.95
613.18	1742.74
613.53	1740.19
613.88	1737.19
614.22	1734.00
614.57	1730.67
614.92	1727.17
615.27	1724.02
615.61	1719.12
615.96	1715.64
616.31	1712.93
616.65	1709.67
617.00	1706.98
617.35	1705.02
617.70	1701.07
618.04	1697.67
618.39	1694.93
618.74	1691.90
619.08	1687.38
619.43	1684.90
619.78	1682.98
620.12	1679.93
620.47	1676.62
620.82	1672.50
621.16	1668.62
621.51	1666.14
621.85	1661.74
622.20	1658.62
622.55	1654.64
622.89	1652.57
623.24	1650.33
623.59	1646.26
623.93	1641.40
624.28	1636.81
624.62	1634.12
624.97	1632.38
625.32	1628.88
625.66	1624.24
626.01	1620.33
626.35	1617.45
626.70	1613.21
627.04	1608.48
627.39	1603.62
627.73	1600.93
628.08	1598.40
628.43	1594.57
628.77	1589.71
629.12	1587.02
629.46	1582.71
629.81	1578.36
630.15	1572.43
630.50	1566.83
630.84	1562.10
631.19	1557.36
631.53	1552.62
631.88	1546.14
632.22	1538.81
632.57	1534.52
632.91	1529.93
633.26	1525.62
633.60	1519.81
633.95	1514.62
634.29	1509.79
634.64	1505.48
634.98	1500.00
635.32	1495.83
635.67	1492.10
636.01	1488.33
636.36	1482.93
636.70	1478.69
637.05	1474.67
637.39	1471.29
637.73	1468.40
638.08	1464.50
638.42	1459.90
638.77	1455.71
639.11	1451.45
639.45	1446.86
639.80	1441.29
640.14	1436.55
640.49	1431.26
640.83	1426.05
641.17	1422.43
641.52	1417.67
641.86	1412.38
642.20	1408.29
642.55	1401.81
642.89	1395.52
643.23	1389.33
643.58	1385.29
643.92	1379.07
644.26	1373.98
644.61	1367.93
644.95	1361.36
645.29	1354.86
645.64	1350.07
645.98	1344.62
646.32	1339.50
646.66	1334.14
647.01	1328.31
647.35	1322.71
647.69	1317.71
648.04	1313.24
648.38	1306.86
648.72	1301.74
649.06	1296.19
649.41	1289.38
649.75	1282.67
650.09	1276.86
650.43	1270.40
650.78	1263.17
651.12	1256.43
651.46	1249.81
651.80	1244.26
652.14	1237.86
652.49	1233.60
652.83	1227.21
653.17	1220.83
653.51	1213.98
653.85	1208.31
654.20	1202.40
654.54	1195.02
654.88	1187.86
655.22	1181.90
655.56	1175.19
655.90	1168.10
656.25	1161.98
656.59	1156.48
656.93	1151.86
657.27	1147.40
657.61	1141.55
657.95	1136.40
658.29	1131.52
658.64	1125.69
658.98	1118.74
659.32	1112.21
659.66	1105.24
660.00	1099.50
660.34	1093.69
660.68	1087.31
661.02	1081.64
661.36	1075.05
661.70	1069.17
662.05	1063.33
662.39	1057.31
662.73	1052.14
663.07	1048.21
663.41	1042.07
663.75	1035.52
664.09	1029.24
664.43	1022.36
664.77	1016.81
665.11	1010.31
665.45	1004.31
665.79	998.24
666.13	992.98
666.47	987.40
666.81	982.00
667.15	975.88
667.49	970.64
667.83	966.57
668.17	960.38
668.51	955.43
668.85	951.07
669.19	946.57
669.53	940.62
669.87	934.12
670.21	927.31
670.55	921.67
670.89	917.24
671.23	912.02
671.57	906.36
671.91	900.98
672.25	895.67
672.58	890.86
672.92	885.86
673.26	880.52
673.60	876.40
673.94	870.93
674.28	866.02
674.62	860.36
674.96	854.50
675.30	850.10
675.64	844.90
675.97	839.81
676.31	833.93
676.65	828.95
676.99	825.57
677.33	820.60
677.67	815.81
678.01	809.95
678.34	805.12
678.68	800.74
679.02	795.86
679.36	790.95
679.70	785.24
680.04	779.81
680.37	774.98
680.71	769.55
681.05	764.83
681.39	760.24
681.73	755.60
682.06	750.90
682.40	745.83
682.74	741.55
683.08	737.24
683.42	732.43
683.75	727.98
684.09	721.86
684.43	717.07
684.77	712.24
685.10	707.79
685.44	702.55
685.78	698.05
686.12	693.33
686.45	688.60
686.79	684.24
687.13	680.57
687.46	676.17
687.80	671.79
688.14	667.02
688.48	662.57
688.81	658.29
689.15	654.21
689.49	649.55
689.82	645.02
690.16	639.55
690.50	635.12
690.83	630.14
691.17	625.81
691.51	621.38
691.84	617.29
692.18	613.07
692.52	609.29
692.85	605.26
693.19	602.17
693.52	598.29
693.86	593.50
694.20	588.90
694.53	584.81
694.87	580.62
695.21	576.14
695.54	571.36
695.88	566.45
696.21	561.29
696.55	557.29
696.88	553.26
697.22	549.43
697.56	546.26
697.89	542.48
698.23	539.05
698.56	535.10
698.90	531.76
699.23	527.43
699.57	523.48
699.90	519.50
700.24	515.00
700.58	511.36
700.91	508.48
701.25	506.43
701.58	503.33
701.92	500.55
702.25	497.57
702.59	494.71
702.92	491.71
703.26	488.71
703.59	485.81
703.93	484.50
704.26	481.71
704.60	478.40
704.93	475.31
705.26	471.95
705.60	469.57
705.93	465.98
706.27	463.95
706.60	461.45
706.94	459.14
707.27	456.12
707.61	453.43
707.94	450.62
708.27	446.21
708.61	443.17
708.94	439.81
709.28	437.45
709.61	434.33
709.94	432.02
710.28	429.57
710.61	426.88
710.95	422.40
711.28	421.50
711.61	419.43
711.95	417.52
712.28	415.33
712.61	412.52
712.95	411.14
713.28	409.29
713.61	406.52
713.95	403.76
714.28	401.64
714.61	399.43
714.95	397.10
715.28	394.83
715.61	392.38
715.95	390.29
716.28	387.50
716.61	385.95
716.95	383.31
717.28	381.02
717.61	379.19
717.94	376.98
718.28	373.38
718.61	370.69
718.94	368.40
719.27	366.55
719.61	364.81
719.94	362.40
720.27	359.43
720.60	357.81
720.94	355.67
721.27	354.00
721.60	352.71
721.93	350.98
722.27	349.71
722.60	348.29
722.93	346.55
723.26	345.40
723.59	343.29
723.93	342.24
724.26	341.10
724.59	339.38
724.92	338.38
725.25	337.43
725.59	336.33
725.92	335.19
726.25	333.60
726.58	332.17
726.91	330.74
727.24	329.74
727.57	328.31
727.91	326.76
728.24	325.62
728.57	323.81
728.90	322.98
729.23	321.40
729.56	321.36
729.89	320.12
730.22	318.71
730.55	317.62
730.89	316.29
731.22	314.93
731.55	313.60
731.88	312.21
732.21	310.69
732.54	309.36
732.87	308.05
733.20	307.17
733.53	306.21
733.86	305.48
734.19	304.38
734.52	303.83
734.85	304.40
735.18	302.98
735.51	302.74
735.84	301.71
736.17	301.19
736.50	299.10
736.83	300.62
737.16	299.93
737.49	299.10
737.82	298.05
738.15	297.26
738.48	296.26
738.81	295.10
739.14	293.90
739.47	293.19
739.80	292.40
740.13	291.67
740.46	290.55
740.79	289.00
741.12	288.00
741.45	286.33
741.78	284.14
742.11	283.79
742.44	282.38
742.77	281.67
743.10	280.57
743.43	279.64
743.75	276.64
744.08	278.24
744.41	277.50
744.74	276.74
745.07	275.60
745.40	275.05
745.73	275.05
746.06	274.36
746.39	273.57
746.71	272.52
747.04	271.38
747.37	270.74
747.70	270.55
748.03	269.83
748.36	269.83
748.68	269.19
749.01	267.95
749.34	267.31
749.67	266.76
750.00	266.40
750.33	267.17
750.65	266.45
750.98	263.26
751.31	262.88
751.64	262.29
751.97	262.93
752.29	262.17
752.62	261.19
752.95	260.48
753.28	259.67
753.60	259.21
753.93	259.43
754.26	258.93
754.59	258.00
754.91	257.50
755.24	256.81
755.57	256.38
755.90	256.07
756.22	255.45
756.55	254.67
756.88	253.88
757.20	252.12
757.53	251.10
757.86	250.67
758.19	250.21
758.51	249.69
758.84	247.98
759.17	247.57
759.49	246.98
759.82	247.64
760.15	247.38
760.47	246.88
760.80	245.71
761.13	245.40
761.45	244.95
761.78	244.69
762.11	244.33
762.43	243.79
762.76	243.12
763.08	242.81
763.41	242.48
763.74	242.02
764.06	241.52
764.39	241.31
764.71	241.02
765.04	240.29
765.37	239.93
765.69	239.76
766.02	239.50
766.34	239.07
766.67	238.17
767.00	238.00
767.32	238.81
767.65	239.86
767.97	239.55
768.30	239.14
768.62	238.74
768.95	238.12
769.27	237.64
769.60	237.86
769.92	237.36
770.25	236.60
770.57	236.12
770.90	235.81
771.22	235.45
771.55	235.26
771.87	235.12
772.20	234.74
772.52	236.19
772.85	238.29
773.17	238.26
773.50	237.71
773.82	237.33
774.15	236.33
774.47	234.62
774.80	234.12
775.12	234.14
775.45	233.79
775.77	233.52
776.09	233.57
776.42	233.26
776.74	233.64
777.07	233.60
777.39	233.45
777.72	233.24
778.04	233.43
778.36	233.07
778.69	233.02
779.01	232.90
779.33	230.86
779.66	228.50
779.98	227.81
780.31	227.79
780.63	228.40
780.95	228.55
781.28	228.45
781.60	228.02
781.92	227.62
782.25	227.31
782.57	227.24
782.89	226.83
783.22	226.60
783.54	225.86
783.86	225.71
784.19	225.45
784.51	225.79
784.83	225.21
785.16	224.93
785.48	224.60
785.80	224.55
786.12	224.93
786.45	224.60
786.77	224.76
787.09	224.33
787.42	223.40
787.74	223.10
788.06	222.81
788.38	222.79
788.71	222.52
789.03	222.64
789.35	222.69
789.67	222.24
789.99	222.26
790.32	222.10
790.64	222.10
790.96	224.02
791.28	223.21
791.61	223.21
791.93	223.19
792.25	223.10
792.57	224.19
792.89	223.57
793.21	223.52
793.54	223.29
793.86	223.55
794.18	223.60
794.50	223.24
794.82	223.48
795.14	223.76
795.47	224.21
795.79	224.17
796.11	223.67
796.43	223.76
796.75	223.69
797.07	223.62
797.39	223.38
797.71	221.43
798.04	221.43
798.36	221.45
798.68	221.60
799.00	221.83
799.32	220.76
799.64	221.14
799.96	221.38
800.28	221.74
800.60	221.29
800.92	221.48
801.24	221.17
801.56	221.19
801.89	220.79
802.21	220.86
802.53	220.43
802.85	220.88
803.17	221.83
803.49	221.40
803.81	221.38
804.13	221.36
804.45	221.40
804.77	221.81
805.09	221.81
805.41	221.21
805.73	220.79
806.05	220.26
806.37	219.88
806.69	219.43
807.01	219.19
807.33	219.24
807.65	218.48
807.97	219.48
808.28	219.33
808.60	219.38
808.92	219.07
809.24	220.33
809.56	219.86
809.88	219.05
810.20	219.05
810.52	219.40
810.84	219.14
811.16	218.83
811.48	218.29
811.80	219.02
812.12	219.12
812.43	219.29
812.75	219.62
813.07	219.40
813.39	219.67
813.71	219.24
814.03	219.02
814.35	219.02
814.67	218.14
814.98	217.67
815.30	217.45
815.62	217.00
815.94	215.48
816.26	215.48
816.58	215.19
816.89	215.33
817.21	214.74
817.53	214.93
817.85	214.98
818.17	215.07
818.48	213.93
818.80	214.45
819.12	214.17
819.44	213.69
819.76	213.48
820.07	213.14
820.39	213.33
820.71	213.24
821.03	213.12
821.34	212.93
821.66	213.55
821.98	214.00
822.30	214.02
822.61	215.45
822.93	215.55
823.25	215.45
823.57	215.21
823.88	215.57
824.20	215.57
824.52	215.83
824.83	215.86
825.15	215.95
825.47	215.76
825.79	216.10
826.10	215.86
826.42	215.95
826.74	216.38
827.05	216.33
827.37	216.62
827.69	216.62
828.00	216.88
828.32	216.60
828.64	216.02
828.95	216.93
829.27	216.31
829.58	216.00
829.90	216.17
830.22	216.38
830.53	215.79
830.85	215.40
831.17	214.93
831.48	215.00
831.80	215.00
832.11	214.93
832.43	214.55
832.75	214.86
833.06	216.02
833.38	215.26
833.69	215.12
834.01	215.19
834.32	215.14
834.64	214.95
834.96	214.95
835.27	215.26
835.59	214.79
835.90	214.31
836.22	214.29
836.53	213.83
836.85	213.43
837.16	215.67
837.48	215.81
837.79	216.45
838.11	216.45
838.42	216.33
838.74	216.45
839.05	216.43
839.37	216.07
839.68	214.60
840.00	214.67
840.31	214.93
840.63	214.81
840.94	214.71
841.26	214.40
841.57	214.33
841.88	214.38
842.20	213.98
842.51	213.76
842.83	214.05
843.14	216.10
843.46	216.24
843.77	215.19
844.08	215.12
844.40	214.31
844.71	214.14
845.03	214.29
845.34	214.19
845.65	213.93
845.97	214.14
846.28	214.40
846.60	214.40
846.91	214.17
847.22	214.19
847.54	214.52
847.85	214.71
848.16	214.71
848.48	214.33
848.79	215.31
849.10	215.43
849.42	215.57
849.73	213.62
850.04	213.50
850.36	212.55
850.67	213.07
850.98	213.17
851.30	213.33
851.61	213.05
851.92	212.81
852.23	213.50
852.55	213.67
852.86	213.81
853.17	214.02
853.49	214.31
853.80	214.60
854.11	214.98
854.42	215.05
854.74	214.83
855.05	214.88
855.36	213.62
855.67	214.14
855.99	213.86
856.30	216.31
856.61	216.29
856.92	216.62
857.23	216.24
857.55	216.19
857.86	215.93
858.17	216.57
858.48	216.40
858.79	216.02
859.11	216.14
859.42	216.02
859.73	215.74
860.04	215.57
860.35	214.88
860.66	214.14
860.98	214.19
861.29	214.52
861.60	214.29
861.91	215.05
862.22	214.29
862.53	213.98
862.84	211.69
863.16	212.29
863.47	211.60
863.78	211.57
864.09	211.88
864.40	212.24
864.71	211.76
865.02	212.10
865.33	211.86
865.64	211.52
865.95	211.50
866.27	212.86
866.58	212.74
866.89	213.21
867.20	213.19
867.51	212.95
867.82	212.69
868.13	213.40
868.44	212.64
868.75	213.36
869.06	213.60
869.37	213.79
869.68	213.10
869.99	213.74
870.30	213.69
870.61	213.76
870.92	213.33
871.23	213.50
871.54	213.60
871.85	214.14
872.16	214.48
872.47	214.26
872.78	212.95
873.09	213.19
873.40	213.02
873.71	213.21
874.02	213.19
874.33	213.10
874.64	212.76
874.95	213.24
875.26	212.55
875.56	212.50
875.87	212.31
876.18	212.38
876.49	214.31
876.80	214.55
877.11	214.12
877.42	214.21
877.73	214.05
878.04	213.62
878.35	213.71
878.66	213.60
878.96	213.81
879.27	214.07
879.58	213.76
879.89	213.43
880.20	213.98
880.51	213.95
880.82	214.05
881.12	214.00
881.43	213.48
881.74	213.45
882.05	213.40
882.36	213.67
882.67	213.83
882.97	211.57
883.28	211.38
883.59	211.26
883.90	211.36
884.21	211.86
884.51	211.88
884.82	211.48
885.13	211.43
885.44	211.31
885.74	211.12
886.05	211.19
886.36	211.40
886.67	210.64
886.98	211.71
887.28	211.74
887.59	211.74
887.90	211.83
888.20	211.76
888.51	212.05
888.82	211.60
889.13	211.71
889.43	213.45
889.74	213.21
890.05	213.36
890.35	213.19
890.66	212.69
890.97	212.38
891.28	212.07
891.58	212.14
891.89	212.00
892.20	212.02
892.50	211.90
892.81	211.74
893.12	211.81
893.42	210.57
893.73	210.69
894.04	210.76
894.34	211.00
894.65	210.93
894.95	210.86
895.26	211.10
895.57	212.24
895.87	210.40
896.18	210.79
896.48	210.90
896.79	210.93
897.10	211.24
897.40	211.52
897.71	211.90
898.01	211.79
898.32	212.33
898.63	212.12
898.93	212.52
899.24	212.57
899.54	212.48
899.85	212.38
900.15	212.21
900.46	212.21
900.76	212.40
901.07	212.45
901.38	212.33
901.68	212.60
901.99	211.19
902.29	211.24
902.60	211.12
902.90	211.05
903.21	211.05
903.51	210.62
903.82	211.19
904.12	210.98
904.43	211.17
904.73	210.79
905.03	211.19
905.34	212.95
905.64	212.93
905.95	213.14
906.25	213.38
906.56	213.40
906.86	213.50
907.17	213.19
907.47	213.21
907.77	212.98
908.08	212.45
908.38	212.83
908.69	213.12
908.99	213.50
909.30	213.81
909.60	213.74
909.90	214.12
910.21	213.43
910.51	213.36
910.81	213.31
911.12	213.52
911.42	213.31
911.73	210.93
912.03	211.02
912.33	211.31
912.64	211.38
912.94	211.21
913.24	210.69
913.55	210.76
913.85	210.76
914.15	211.29
914.46	211.64
914.76	211.05
915.06	210.79
915.37	210.12
915.67	209.81
915.97	210.02
916.27	209.62
916.58	209.83
916.88	209.93
917.18	209.69
917.49	211.00
917.79	210.76
918.09	211.29
918.39	211.93
918.70	211.57
919.00	211.38
919.30	212.29
919.60	212.26
919.91	212.17
920.21	212.29
920.51	211.74
920.81	211.67
921.12	212.33
921.42	212.45
921.72	212.69
922.02	212.67
922.32	212.81
922.63	212.90
922.93	213.83
923.23	214.05
923.53	214.10
923.83	212.64
924.13	213.02
924.44	212.98
924.74	213.14
925.04	213.74
925.34	213.81
925.64	212.98
925.94	213.02
926.24	214.00
926.55	213.69
926.85	214.29
927.15	214.05
927.45	213.93
927.75	213.74
928.05	213.88
928.35	213.90
928.65	214.33
928.95	214.48
929.26	213.60
929.56	213.76
929.86	214.02
930.16	213.88
930.46	213.90
930.76	214.10
931.06	213.14
931.36	212.71
931.66	213.24
931.96	213.55
932.26	213.74
932.56	213.02
932.86	213.52
933.16	213.21
933.46	213.10
933.76	212.45
934.06	213.12
934.36	213.62
934.66	213.36
934.96	212.98
935.26	213.19
935.56	213.45
935.86	213.10
936.16	212.69
936.46	212.62
936.76	212.60
937.06	212.24
937.36	212.40
937.66	212.40
937.96	212.17
938.26	211.76
938.56	211.86
938.86	211.90
939.16	211.93
939.46	212.10
939.76	212.60
940.06	212.98
940.35	212.24
940.65	211.55
940.95	211.88
941.25	211.38
941.55	210.98
941.85	210.95
942.15	211.33
942.45	211.93
942.75	211.81
943.04	211.69
943.34	212.19
943.64	212.07
943.94	211.81
944.24	211.79
944.54	211.76
944.84	211.52
945.13	211.36
945.43	211.21
945.73	211.10
946.03	210.76
946.33	210.62
946.62	210.79
946.92	210.76
947.22	211.07
947.52	211.29
947.82	211.55
948.11	211.31
948.41	210.90
948.71	210.31
949.01	210.79
949.31	210.33
949.60	209.98
949.90	210.33
950.20	210.33
950.50	210.26
950.79	210.21
951.09	210.60
951.39	210.57
951.69	210.33
951.98	210.71
952.28	210.83
952.58	210.74
952.87	210.74
953.17	210.88
953.47	210.45
953.76	210.24
954.06	209.95
954.36	209.69
954.66	209.50
954.95	209.98
955.25	209.88
955.55	210.10
955.84	209.67
956.14	209.88
956.44	209.98
956.73	209.71
957.03	209.81
957.32	209.69
957.62	209.62
957.92	210.26
958.21	210.12
958.51	212.45
958.81	212.79
959.10	212.98
959.40	213.50
959.69	213.71
959.99	214.43
960.29	214.52
960.58	214.62
960.88	215.48
961.17	215.05
961.47	215.40
961.76	215.48
962.06	216.21
962.36	215.60
962.65	215.83
962.95	215.98
963.24	215.90
963.54	216.12
963.83	216.19
964.13	216.07
964.42	215.48
964.72	213.86
965.01	214.07
965.31	213.86
965.60	213.24
965.90	214.31
966.19	213.57
966.49	213.71
966.78	213.62
967.08	213.26
967.37	213.64
967.67	213.21
967.96	213.50
968.26	213.19
968.55	213.69
968.85	213.38
969.14	213.36
969.43	213.29
969.73	212.81
970.02	212.64
970.32	212.10
970.61	212.19
970.91	211.62
971.20	211.14
971.49	210.93
971.79	211.26
972.08	209.95
972.38	210.33
972.67	210.05
972.96	210.17
973.26	210.10
973.55	210.67
973.85	210.55
974.14	210.43
974.43	210.45
974.73	210.26
975.02	210.19
975.31	210.24
975.61	210.40
975.90	210.60
976.19	210.45
976.49	210.64
976.78	210.79
977.07	210.76
977.37	210.79
977.66	211.07
977.95	210.76
978.24	210.74
978.54	210.95
978.83	210.88
979.12	210.79
979.42	210.50
979.71	209.90
980.00	209.90
980.29	209.98
980.59	209.64
980.88	210.12
981.17	210.07
981.46	210.07
981.76	209.93
982.05	210.43
982.34	210.62
982.63	210.86
982.93	210.83
983.22	211.33
983.51	211.40
983.80	211.79
984.09	212.12
984.39	211.98
984.68	211.81
984.97	212.24
985.26	212.24
985.55	212.43
985.85	212.10
986.14	212.60
986.43	212.76
986.72	212.62
987.01	211.76
987.30	211.95
987.59	211.93
987.89	212.05
988.18	211.40
988.47	211.26
988.76	211.05
989.05	211.10
989.34	210.62
989.63	211.14
989.92	210.86
990.22	210.48
990.51	210.69
990.80	210.57
991.09	210.57
991.38	210.76
991.67	210.62
991.96	210.55
992.25	210.33
992.54	209.86
992.83	210.14
993.12	210.33
993.41	210.40
993.70	210.86
993.99	211.12
994.28	211.31
994.58	211.93
994.87	211.71
995.16	211.86
995.45	211.88
995.74	211.19
996.03	211.31
996.32	211.67
996.61	212.19
996.90	212.26
997.19	212.02
997.48	212.07
997.77	211.83
998.06	212.05
998.34	211.98
998.63	212.19
998.92	212.36
999.21	212.74
999.50	212.74
999.79	212.21
1000.08	212.29
1000.37	212.31
1000.66	211.76
1000.95	212.26
1001.24	212.02
1001.53	212.24
1001.82	212.24
1002.11	211.88
1002.40	211.86
1002.68	212.00
1002.97	213.60
1003.26	213.29
1003.55	212.90
1003.84	213.00
1004.13	213.62
1004.42	213.33
1004.71	213.33
1004.99	213.05
1005.28	213.38
1005.57	213.24
1005.86	213.12
1006.15	213.14
1006.44	212.83
1006.72	213.05
1007.01	212.74
1007.30	212.69
1007.59	212.38
1007.88	212.31
1008.17	212.40
1008.45	212.14
1008.74	211.40
1009.03	210.19
1009.32	210.36
1009.60	210.31
1009.89	210.31
1010.18	209.33
1010.47	209.38
1010.76	209.31
1011.04	209.33
1011.33	209.19
1011.62	209.50
1011.91	209.62
1012.19	209.33
1012.48	209.50
1012.77	209.57
1013.05	210.60
1013.34	210.67
1013.63	210.52
1013.92	210.74
1014.20	210.71
1014.49	210.71
1014.78	210.90
1015.06	210.17
1015.35	210.05
1015.64	210.31
1015.92	210.45
1016.21	210.81
1016.50	210.71
1016.78	210.86
1017.07	211.07
1017.36	210.64
1017.64	210.40
1017.93	210.50
1018.22	210.38
1018.50	210.52
1018.79	210.38
1019.08	209.52
1019.36	209.76
1019.65	209.83
1019.93	210.43
1020.22	210.71
1020.51	211.55
1020.79	211.24
1021.08	206.50
1021.36	211.00
1021.65	211.00
1021.94	213.00
1022.22	213.50
1022.51	210.50
1022.79	221.50
1023.08	216.00
1023.36	228.50
1023.65	204.00
>>>>>End Processed Spectral Data<<<<<
