SpectraSuite Data File
++++++++++++++++++++++++++++++++++++
Date: Tue Apr 02 18:46:39 EDT 2013
User: group
Dark Spectrum Present: No
Reference Spectrum Present: No
Number of Sampled Component Spectra: 1
Spectrometers: USB2E7196
Integration Time (usec): 580000 (USB2E7196)
Spectra Averaged: 2 (USB2E7196)
Boxcar Smoothing: 10 (USB2E7196)
Correct for Electrical Dark: No (USB2E7196)
Strobe/Lamp Enabled: No (USB2E7196)
Correct for Detector Non-linearity: No (USB2E7196)
Correct for Stray Light: No (USB2E7196)
Number of Pixels in Processed Spectrum: 2048
>>>>>Begin Processed Spectral Data<<<<<
339.09	0.00
339.48	190.50
339.86	196.00
340.24	197.00
340.63	195.00
341.01	229.50
341.39	199.00
341.78	206.50
342.16	210.50
342.54	208.00
342.93	197.45
343.31	207.26
343.69	207.81
344.07	208.07
344.46	208.79
344.84	209.60
345.22	208.33
345.60	208.79
345.99	209.02
346.37	208.93
346.75	208.90
347.13	209.02
347.52	209.07
347.90	209.81
348.28	209.76
348.66	210.02
349.05	209.31
349.43	209.64
349.81	209.90
350.19	209.95
350.57	210.17
350.96	210.31
351.34	210.76
351.72	211.00
352.10	211.24
352.48	211.02
352.87	210.90
353.25	211.26
353.63	211.29
354.01	211.26
354.39	211.26
354.77	211.33
355.15	211.95
355.54	211.79
355.92	210.86
356.30	210.95
356.68	212.31
357.06	212.55
357.44	212.40
357.82	212.19
358.20	213.24
358.58	213.31
358.97	213.29
359.35	213.26
359.73	213.95
360.11	213.95
360.49	214.00
360.87	213.93
361.25	214.26
361.63	214.93
362.01	215.02
362.39	215.19
362.77	215.48
363.15	215.17
363.53	215.12
363.91	215.45
364.29	215.31
364.67	213.60
365.05	213.81
365.43	214.00
365.81	214.19
366.19	214.26
366.57	215.02
366.95	214.98
367.33	214.60
367.71	214.55
368.09	215.00
368.47	215.19
368.85	215.31
369.23	215.62
369.61	215.05
369.99	215.48
370.37	215.62
370.75	216.62
371.13	216.48
371.51	216.19
371.89	216.33
372.27	216.76
372.65	216.79
373.03	216.52
373.41	216.29
373.78	216.40
374.16	215.31
374.54	214.45
374.92	214.52
375.30	214.60
375.68	214.10
376.06	214.31
376.44	214.00
376.82	214.05
377.19	213.76
377.57	213.45
377.95	212.79
378.33	212.64
378.71	211.29
379.09	211.36
379.47	211.69
379.84	211.50
380.22	211.10
380.60	210.79
380.98	210.93
381.36	211.14
381.73	210.69
382.11	211.10
382.49	211.38
382.87	210.98
383.25	211.02
383.62	213.48
384.00	213.02
384.38	213.29
384.76	213.67
385.13	214.60
385.51	214.88
385.89	215.02
386.27	215.12
386.64	215.45
387.02	215.14
387.40	215.14
387.78	215.19
388.15	215.45
388.53	215.62
388.91	215.48
389.29	215.29
389.66	215.69
390.04	215.45
390.42	215.60
390.79	215.79
391.17	215.81
391.55	213.33
391.92	213.21
392.30	213.38
392.68	212.62
393.05	212.38
393.43	212.45
393.81	212.52
394.18	212.31
394.56	212.38
394.94	212.86
395.31	212.57
395.69	213.12
396.06	213.33
396.44	213.33
396.82	213.14
397.19	214.05
397.57	213.74
397.95	214.21
398.32	213.90
398.70	214.05
399.07	214.52
399.45	214.74
399.82	214.74
400.20	214.57
400.58	214.93
400.95	214.21
401.33	214.48
401.70	215.95
402.08	216.14
402.45	216.17
402.83	216.86
403.20	217.14
403.58	217.00
403.95	217.26
404.33	217.67
404.71	218.26
405.08	219.48
405.46	219.88
405.83	220.02
406.21	220.05
406.58	220.57
406.96	220.69
407.33	221.17
407.70	221.95
408.08	224.00
408.45	224.88
408.83	225.93
409.20	226.40
409.58	225.90
409.95	226.71
410.33	227.69
410.70	227.86
411.08	229.38
411.45	230.21
411.82	231.31
412.20	233.00
412.57	235.33
412.95	234.95
413.32	236.71
413.69	237.95
414.07	239.98
414.44	241.74
414.82	243.69
415.19	246.00
415.56	248.02
415.94	249.43
416.31	252.50
416.68	255.07
417.06	258.67
417.43	262.10
417.81	265.69
418.18	269.26
418.55	273.14
418.93	276.57
419.30	280.98
419.67	285.33
420.04	289.48
420.42	293.71
420.79	300.93
421.16	306.48
421.54	313.48
421.91	319.36
422.28	325.83
422.66	332.33
423.03	339.98
423.40	347.07
423.77	353.93
424.15	360.88
424.52	368.71
424.89	376.71
425.26	384.17
425.64	392.05
426.01	400.12
426.38	409.12
426.75	418.98
427.13	428.05
427.50	437.71
427.87	447.71
428.24	457.60
428.61	465.93
428.99	477.07
429.36	487.57
429.73	499.10
430.10	510.55
430.47	522.36
430.85	533.43
431.22	545.71
431.59	561.10
431.96	573.38
432.33	587.36
432.70	601.31
433.08	617.52
433.45	632.40
433.82	647.45
434.19	664.12
434.56	680.38
434.93	696.19
435.30	711.81
435.68	729.24
436.05	746.40
436.42	763.29
436.79	778.36
437.16	794.88
437.53	812.57
437.90	829.88
438.27	847.79
438.64	865.45
439.01	882.62
439.38	896.05
439.75	911.26
440.13	928.00
440.50	943.36
440.87	955.95
441.24	969.31
441.61	983.93
441.98	994.17
442.35	1006.24
442.72	1018.93
443.09	1032.45
443.46	1039.67
443.83	1044.86
444.20	1049.83
444.57	1056.71
444.94	1060.33
445.31	1063.19
445.68	1069.19
446.05	1070.38
446.42	1069.29
446.79	1068.14
447.16	1066.12
447.53	1064.67
447.90	1058.24
448.27	1051.57
448.64	1043.12
449.01	1036.74
449.37	1026.14
449.74	1014.98
450.11	1003.57
450.48	988.62
450.85	972.55
451.22	960.60
451.59	948.52
451.96	936.10
452.33	920.05
452.70	906.17
453.07	889.31
453.43	869.31
453.80	852.57
454.17	836.64
454.54	821.14
454.91	804.83
455.28	789.33
455.65	774.50
456.02	763.52
456.38	750.95
456.75	735.55
457.12	722.10
457.49	709.83
457.86	695.95
458.23	686.64
458.59	674.60
458.96	662.67
459.33	652.19
459.70	642.55
460.07	634.79
460.43	625.17
460.80	617.00
461.17	610.10
461.54	602.21
461.91	594.52
462.27	586.71
462.64	579.83
463.01	572.19
463.38	565.98
463.74	555.29
464.11	548.55
464.48	542.83
464.85	536.36
465.21	532.64
465.58	528.02
465.95	521.14
466.32	516.57
466.68	511.24
467.05	505.86
467.42	501.00
467.78	495.14
468.15	490.45
468.52	487.00
468.88	481.14
469.25	476.40
469.62	473.02
469.98	469.17
470.35	465.62
470.72	461.86
471.08	456.93
471.45	454.21
471.82	451.69
472.18	448.26
472.55	446.36
472.92	442.14
473.28	438.79
473.65	436.31
474.02	434.12
474.38	432.62
474.75	431.24
475.11	428.79
475.48	427.69
475.85	425.62
476.21	423.43
476.58	422.40
476.94	421.55
477.31	419.95
477.67	418.50
478.04	417.40
478.41	417.26
478.77	418.69
479.14	417.48
479.50	416.64
479.87	416.48
480.23	415.93
480.60	415.52
480.96	415.48
481.33	416.14
481.69	416.02
482.06	415.98
482.42	416.21
482.79	416.67
483.15	417.10
483.52	417.95
483.88	418.31
484.25	419.00
484.61	419.76
484.98	420.36
485.34	422.67
485.71	424.43
486.07	425.48
486.44	425.12
486.80	426.81
487.17	428.29
487.53	431.02
487.90	433.10
488.26	436.31
488.62	439.24
488.99	441.12
489.35	443.62
489.72	445.93
490.08	448.86
490.44	451.24
490.81	454.05
491.17	457.17
491.54	461.02
491.90	464.76
492.26	468.43
492.63	472.36
492.99	475.26
493.36	479.33
493.72	483.79
494.08	488.36
494.45	493.55
494.81	498.52
495.17	502.81
495.54	508.00
495.90	512.26
496.26	517.33
496.63	523.00
496.99	528.21
497.35	533.69
497.72	539.43
498.08	545.81
498.44	552.00
498.80	558.48
499.17	564.64
499.53	570.24
499.89	577.00
500.26	583.90
500.62	590.74
500.98	597.64
501.34	604.17
501.71	611.79
502.07	618.24
502.43	625.69
502.79	632.71
503.16	639.76
503.52	647.19
503.88	653.83
504.24	661.50
504.60	669.48
504.97	677.48
505.33	684.76
505.69	693.52
506.05	701.26
506.41	708.43
506.78	715.79
507.14	723.90
507.50	731.67
507.86	739.71
508.22	747.48
508.59	754.90
508.95	762.93
509.31	771.45
509.67	779.31
510.03	786.55
510.39	794.38
510.75	802.40
511.12	810.29
511.48	818.62
511.84	826.10
512.20	833.64
512.56	841.76
512.92	849.79
513.28	856.36
513.64	863.90
514.00	872.14
514.37	879.67
514.73	887.24
515.09	894.45
515.45	901.57
515.81	908.38
516.17	914.88
516.53	921.05
516.89	925.86
517.25	932.64
517.61	940.10
517.97	946.52
518.33	952.79
518.69	959.19
519.05	965.43
519.41	970.90
519.77	978.07
520.13	984.31
520.49	989.55
520.85	994.88
521.21	1000.62
521.57	1006.62
521.93	1012.05
522.29	1017.90
522.65	1022.62
523.01	1027.36
523.37	1032.24
523.73	1038.12
524.09	1043.52
524.45	1049.14
524.81	1053.93
525.17	1058.71
525.53	1063.50
525.89	1068.00
526.25	1072.64
526.61	1076.40
526.97	1080.88
527.33	1085.40
527.68	1090.95
528.04	1095.36
528.40	1099.62
528.76	1103.67
529.12	1106.71
529.48	1110.98
529.84	1114.74
530.20	1119.48
530.56	1124.31
530.91	1129.83
531.27	1133.26
531.63	1137.83
531.99	1141.26
532.35	1144.88
532.71	1148.48
533.07	1152.00
533.42	1158.12
533.78	1162.38
534.14	1167.00
534.50	1171.05
534.86	1175.21
535.21	1177.26
535.57	1182.45
535.93	1186.57
536.29	1191.67
536.65	1196.29
537.00	1199.81
537.36	1203.83
537.72	1206.67
538.08	1209.95
538.44	1212.29
538.79	1216.57
539.15	1218.93
539.51	1222.76
539.87	1226.52
540.22	1228.83
540.58	1232.79
540.94	1233.74
541.29	1236.67
541.65	1238.81
542.01	1242.79
542.37	1244.55
542.72	1246.74
543.08	1247.86
543.44	1250.19
543.79	1250.98
544.15	1252.81
544.51	1256.33
544.87	1259.02
545.22	1262.45
545.58	1264.57
545.94	1266.95
546.29	1268.86
546.65	1272.19
547.01	1274.48
547.36	1277.07
547.72	1279.55
548.07	1282.05
548.43	1284.52
548.79	1286.38
549.14	1289.02
549.50	1290.57
549.86	1292.57
550.21	1295.45
550.57	1298.81
550.92	1301.48
551.28	1304.93
551.64	1308.26
551.99	1310.55
552.35	1313.17
552.70	1315.81
553.06	1318.76
553.41	1322.17
553.77	1326.83
554.13	1330.31
554.48	1334.69
554.84	1338.57
555.19	1343.07
555.55	1347.69
555.90	1351.71
556.26	1355.33
556.61	1358.95
556.97	1362.31
557.32	1365.93
557.68	1369.98
558.03	1372.98
558.39	1377.38
558.74	1381.17
559.10	1385.12
559.45	1389.02
559.81	1393.36
560.16	1397.45
560.52	1402.12
560.87	1406.64
561.23	1408.74
561.58	1414.74
561.94	1417.74
562.29	1421.43
562.64	1425.67
563.00	1428.45
563.35	1432.76
563.71	1437.83
564.06	1443.02
564.42	1447.95
564.77	1454.43
565.12	1459.45
565.48	1467.67
565.83	1473.33
566.19	1479.71
566.54	1484.76
566.89	1489.76
567.25	1495.02
567.60	1501.12
567.96	1508.17
568.31	1514.88
568.66	1521.12
569.02	1525.26
569.37	1531.31
569.72	1536.14
570.08	1540.88
570.43	1546.71
570.78	1552.81
571.14	1558.52
571.49	1564.10
571.84	1569.67
572.20	1574.05
572.55	1578.67
572.90	1581.00
573.26	1585.24
573.61	1588.64
573.96	1593.31
574.31	1597.76
574.67	1601.40
575.02	1605.55
575.37	1608.10
575.72	1610.38
576.08	1615.64
576.43	1619.52
576.78	1623.24
577.13	1628.48
577.49	1633.00
577.84	1636.93
578.19	1639.95
578.54	1643.88
578.90	1647.55
579.25	1650.21
579.60	1653.69
579.95	1657.24
580.30	1661.40
580.66	1665.45
581.01	1669.05
581.36	1672.31
581.71	1675.86
582.06	1681.81
582.42	1685.14
582.77	1687.95
583.12	1691.60
583.47	1693.74
583.82	1696.88
584.17	1699.93
584.53	1703.19
584.88	1707.02
585.23	1710.24
585.58	1713.36
585.93	1716.12
586.28	1719.10
586.63	1724.24
586.98	1727.69
587.34	1732.40
587.69	1734.31
588.04	1736.95
588.39	1739.67
588.74	1741.62
589.09	1744.60
589.44	1744.48
589.79	1746.88
590.14	1750.24
590.49	1752.45
590.84	1754.57
591.19	1756.62
591.54	1758.29
591.89	1759.07
592.25	1762.24
592.60	1763.64
592.95	1765.50
593.30	1766.98
593.65	1768.93
594.00	1769.00
594.35	1775.00
594.70	1774.69
595.05	1776.86
595.40	1778.12
595.75	1779.26
596.10	1782.10
596.45	1784.36
596.80	1786.10
597.15	1787.24
597.50	1787.57
597.85	1790.07
598.19	1790.79
598.54	1790.83
598.89	1792.36
599.24	1793.71
599.59	1792.95
599.94	1793.69
600.29	1794.71
600.64	1795.81
600.99	1795.60
601.34	1796.98
601.69	1791.86
602.04	1791.29
602.39	1789.95
602.74	1789.02
603.08	1789.36
603.43	1789.69
603.78	1788.19
604.13	1787.71
604.48	1787.40
604.83	1787.62
605.18	1786.02
605.53	1785.60
605.87	1785.17
606.22	1783.50
606.57	1782.55
606.92	1780.45
607.27	1779.45
607.62	1778.74
607.96	1777.67
608.31	1777.69
608.66	1776.33
609.01	1775.19
609.36	1774.45
609.70	1773.07
610.05	1771.19
610.40	1769.31
610.75	1766.24
611.10	1764.79
611.44	1762.12
611.79	1759.33
612.14	1756.10
612.49	1752.79
612.83	1750.45
613.18	1747.33
613.53	1745.60
613.88	1742.24
614.22	1740.24
614.57	1737.10
614.92	1732.52
615.27	1728.69
615.61	1724.48
615.96	1720.69
616.31	1717.48
616.65	1715.98
617.00	1714.52
617.35	1712.45
617.70	1709.64
618.04	1706.10
618.39	1702.48
618.74	1699.62
619.08	1696.19
619.43	1693.21
619.78	1690.21
620.12	1687.00
620.47	1684.79
620.82	1679.81
621.16	1676.26
621.51	1672.71
621.85	1668.79
622.20	1665.26
622.55	1660.95
622.89	1657.31
623.24	1654.50
623.59	1650.62
623.93	1645.07
624.28	1640.33
624.62	1638.62
624.97	1635.62
625.32	1631.24
625.66	1626.88
626.01	1622.52
626.35	1619.17
626.70	1615.55
627.04	1612.24
627.39	1608.12
627.73	1603.93
628.08	1601.14
628.43	1597.69
628.77	1593.60
629.12	1590.33
629.46	1587.43
629.81	1584.26
630.15	1579.62
630.50	1573.71
630.84	1568.83
631.19	1564.10
631.53	1559.33
631.88	1552.26
632.22	1545.50
632.57	1541.86
632.91	1537.38
633.26	1533.71
633.60	1528.52
633.95	1523.19
634.29	1517.19
634.64	1513.38
634.98	1507.93
635.32	1504.45
635.67	1499.93
636.01	1495.07
636.36	1489.71
636.70	1485.45
637.05	1479.83
637.39	1476.00
637.73	1472.12
638.08	1468.45
638.42	1463.93
638.77	1459.98
639.11	1455.14
639.45	1450.90
639.80	1445.57
640.14	1440.95
640.49	1435.33
640.83	1430.31
641.17	1426.00
641.52	1421.52
641.86	1415.40
642.20	1412.19
642.55	1406.26
642.89	1400.60
643.23	1395.21
643.58	1391.40
643.92	1384.57
644.26	1379.95
644.61	1374.62
644.95	1369.67
645.29	1363.93
645.64	1359.60
645.98	1353.90
646.32	1348.88
646.66	1343.33
647.01	1337.93
647.35	1332.52
647.69	1327.19
648.04	1322.05
648.38	1315.86
648.72	1309.67
649.06	1303.90
649.41	1296.98
649.75	1290.31
650.09	1284.40
650.43	1278.05
650.78	1270.76
651.12	1265.12
651.46	1259.05
651.80	1252.52
652.14	1246.36
652.49	1240.07
652.83	1233.52
653.17	1226.79
653.51	1220.21
653.85	1214.62
654.20	1208.02
654.54	1201.05
654.88	1194.74
655.22	1188.93
655.56	1183.10
655.90	1177.81
656.25	1171.55
656.59	1165.12
656.93	1159.43
657.27	1154.38
657.61	1148.81
657.95	1143.52
658.29	1137.29
658.64	1131.52
658.98	1124.71
659.32	1117.74
659.66	1111.74
660.00	1105.67
660.34	1099.50
660.68	1093.86
661.02	1087.40
661.36	1081.76
661.70	1076.48
662.05	1069.93
662.39	1063.88
662.73	1058.74
663.07	1053.90
663.41	1048.83
663.75	1043.57
664.09	1038.62
664.43	1031.76
664.77	1026.02
665.11	1019.07
665.45	1013.60
665.79	1007.40
666.13	1002.29
666.47	997.00
666.81	991.52
667.15	985.88
667.49	981.48
667.83	976.81
668.17	970.86
668.51	965.36
668.85	960.00
669.19	956.12
669.53	949.93
669.87	943.48
670.21	936.88
670.55	931.00
670.89	926.10
671.23	920.14
671.57	915.81
671.91	910.40
672.25	905.90
672.58	901.29
672.92	896.38
673.26	891.50
673.60	886.79
673.94	881.26
674.28	876.14
674.62	871.14
674.96	865.48
675.30	860.90
675.64	856.48
675.97	851.12
676.31	846.07
676.65	841.33
676.99	837.45
677.33	832.48
677.67	827.98
678.01	821.90
678.34	816.69
678.68	811.60
679.02	806.40
679.36	800.90
679.70	795.38
680.04	790.26
680.37	785.10
680.71	779.52
681.05	774.93
681.39	770.36
681.73	764.95
682.06	760.05
682.40	756.00
682.74	751.12
683.08	746.88
683.42	740.71
683.75	736.07
684.09	730.50
684.43	725.90
684.77	721.07
685.10	716.40
685.44	711.55
685.78	706.24
686.12	701.93
686.45	697.52
686.79	692.10
687.13	687.88
687.46	683.40
687.80	679.60
688.14	674.93
688.48	670.50
688.81	666.00
689.15	661.76
689.49	656.26
689.82	651.69
690.16	646.43
690.50	642.81
690.83	638.02
691.17	633.07
691.51	628.60
691.84	624.29
692.18	620.55
692.52	616.93
692.85	612.93
693.19	609.36
693.52	604.90
693.86	600.95
694.20	596.57
694.53	592.26
694.87	587.79
695.21	583.21
695.54	578.33
695.88	574.10
696.21	569.14
696.55	565.10
696.88	561.10
697.22	557.64
697.56	553.81
697.89	549.98
698.23	546.43
698.56	542.31
698.90	538.55
699.23	534.14
699.57	529.81
699.90	526.24
700.24	522.19
700.58	518.74
700.91	515.83
701.25	513.86
701.58	511.17
701.92	508.57
702.25	505.79
702.59	502.60
702.92	499.48
703.26	496.38
703.59	493.31
703.93	491.83
704.26	488.69
704.60	485.24
704.93	482.14
705.26	478.79
705.60	476.17
705.93	472.76
706.27	470.45
706.60	468.19
706.94	465.90
707.27	462.55
707.61	460.10
707.94	456.81
708.27	452.14
708.61	448.52
708.94	445.21
709.28	442.40
709.61	439.57
709.94	436.88
710.28	434.48
710.61	432.17
710.95	427.71
711.28	426.60
711.61	424.21
711.95	422.12
712.28	420.00
712.61	417.33
712.95	415.81
713.28	414.07
713.61	411.07
713.95	408.19
714.28	406.07
714.61	403.31
714.95	401.36
715.28	399.05
715.61	396.98
715.95	394.52
716.28	392.02
716.61	390.57
716.95	388.02
717.28	385.69
717.61	383.31
717.94	380.93
718.28	377.33
718.61	375.29
718.94	372.95
719.27	370.62
719.61	368.88
719.94	366.14
720.27	362.83
720.60	361.12
720.94	359.24
721.27	357.31
721.60	356.07
721.93	354.17
722.27	353.14
722.60	351.17
722.93	349.40
723.26	348.02
723.59	345.88
723.93	344.64
724.26	343.21
724.59	341.69
724.92	340.31
725.25	339.55
725.59	337.88
725.92	336.81
726.25	335.81
726.58	334.52
726.91	333.26
727.24	332.67
727.57	331.33
727.91	329.64
728.24	328.71
728.57	327.05
728.90	325.95
729.23	324.12
729.56	323.79
729.89	322.50
730.22	320.93
730.55	319.64
730.89	318.33
731.22	316.88
731.55	315.52
731.88	314.33
732.21	312.69
732.54	311.62
732.87	310.38
733.20	309.21
733.53	308.07
733.86	307.17
734.19	305.76
734.52	304.76
734.85	305.26
735.18	303.86
735.51	303.50
735.84	302.69
736.17	302.48
736.50	300.74
736.83	302.05
737.16	301.38
737.49	300.55
737.82	299.74
738.15	299.21
738.48	298.43
738.81	297.71
739.14	296.45
739.47	295.36
739.80	294.43
740.13	293.50
740.46	292.26
740.79	290.95
741.12	290.12
741.45	289.21
741.78	287.00
742.11	286.74
742.44	285.52
742.77	284.88
743.10	283.69
743.43	282.57
743.75	279.71
744.08	281.69
744.41	280.93
744.74	279.86
745.07	278.60
745.40	278.00
745.73	278.02
746.06	277.31
746.39	276.88
746.71	275.74
747.04	274.83
747.37	274.10
747.70	273.76
748.03	272.93
748.36	272.33
748.68	271.71
749.01	270.45
749.34	269.57
749.67	268.79
750.00	268.62
750.33	269.76
750.65	269.24
750.98	265.69
751.31	264.90
751.64	264.71
751.97	265.33
752.29	264.64
752.62	263.29
752.95	262.81
753.28	262.10
753.60	261.69
753.93	261.93
754.26	261.48
754.59	260.24
754.91	259.43
755.24	258.76
755.57	258.05
755.90	257.83
756.22	257.10
756.55	256.21
756.88	254.93
757.20	253.07
757.53	251.86
757.86	251.62
758.19	251.24
758.51	250.43
758.84	248.79
759.17	248.29
759.49	247.55
759.82	248.17
760.15	247.83
760.47	247.29
760.80	246.29
761.13	246.07
761.45	245.88
761.78	245.50
762.11	244.90
762.43	244.43
762.76	243.45
763.08	243.74
763.41	243.55
763.74	243.31
764.06	242.67
764.39	242.76
764.71	242.07
765.04	241.36
765.37	240.67
765.69	240.21
766.02	239.90
766.34	239.62
766.67	238.26
767.00	238.19
767.32	238.90
767.65	239.52
767.97	239.07
768.30	238.74
768.62	238.57
768.95	238.33
769.27	238.17
769.60	238.48
769.92	237.62
770.25	236.90
770.57	236.40
770.90	236.33
771.22	235.81
771.55	235.45
771.87	235.52
772.20	235.48
772.52	237.05
772.85	239.14
773.17	239.05
773.50	238.95
773.82	238.19
774.15	237.10
774.47	235.79
774.80	235.48
775.12	235.26
775.45	235.07
775.77	234.76
776.09	234.67
776.42	234.36
776.74	234.71
777.07	234.60
777.39	234.24
777.72	233.93
778.04	233.76
778.36	233.74
778.69	233.62
779.01	233.62
779.33	231.69
779.66	229.17
779.98	228.74
780.31	228.38
780.63	229.12
780.95	229.33
781.28	229.26
781.60	228.83
781.92	228.67
782.25	228.36
782.57	228.24
782.89	227.86
783.22	227.50
783.54	226.88
783.86	227.12
784.19	226.86
784.51	227.19
784.83	226.90
785.16	226.76
785.48	226.64
785.80	226.43
786.12	226.52
786.45	226.36
786.77	226.33
787.09	226.29
787.42	225.38
787.74	225.17
788.06	224.98
788.38	224.93
788.71	224.74
789.03	224.74
789.35	224.74
789.67	224.36
789.99	224.19
790.32	223.79
790.64	223.81
790.96	225.26
791.28	224.33
791.61	224.21
791.93	224.07
792.25	223.76
792.57	224.95
792.89	224.26
793.21	224.17
793.54	224.10
793.86	223.93
794.18	224.00
794.50	223.36
794.82	223.19
795.14	223.55
795.47	223.67
795.79	223.64
796.11	223.29
796.43	223.17
796.75	223.24
797.07	223.45
797.39	223.12
797.71	221.88
798.04	222.14
798.36	222.31
798.68	222.31
799.00	222.36
799.32	221.31
799.64	221.81
799.96	221.69
800.28	221.83
800.60	221.45
800.92	221.52
801.24	221.55
801.56	221.43
801.89	220.98
802.21	221.10
802.53	220.62
802.85	221.05
803.17	221.98
803.49	221.45
803.81	220.98
804.13	220.74
804.45	220.19
804.77	220.14
805.09	219.93
805.41	219.64
805.73	219.17
806.05	218.69
806.37	218.50
806.69	218.26
807.01	217.95
807.33	218.02
807.65	217.17
807.97	218.10
808.28	218.07
808.60	217.95
808.92	217.60
809.24	218.76
809.56	218.17
809.88	217.43
810.20	217.45
810.52	218.05
810.84	217.71
811.16	217.71
811.48	217.67
811.80	218.33
812.12	218.12
812.43	218.62
812.75	218.62
813.07	218.36
813.39	218.57
813.71	218.36
814.03	218.33
814.35	218.52
814.67	217.45
814.98	217.21
815.30	217.12
815.62	216.81
815.94	215.52
816.26	215.50
816.58	215.12
816.89	215.40
817.21	214.81
817.53	214.86
817.85	214.86
818.17	214.71
818.48	213.93
818.80	214.64
819.12	214.14
819.44	213.74
819.76	213.62
820.07	213.50
820.39	213.50
820.71	213.55
821.03	213.90
821.34	213.83
821.66	214.29
821.98	214.76
822.30	214.67
822.61	216.12
822.93	216.17
823.25	216.17
823.57	216.02
823.88	216.26
824.20	216.45
824.52	216.81
824.83	216.90
825.15	216.86
825.47	216.60
825.79	216.86
826.10	216.90
826.42	216.83
826.74	217.00
827.05	216.95
827.37	217.07
827.69	216.50
828.00	216.86
828.32	216.62
828.64	216.24
828.95	217.07
829.27	216.33
829.58	216.10
829.90	216.64
830.22	216.62
830.53	216.38
830.85	215.90
831.17	215.50
831.48	215.29
831.80	215.17
832.11	214.93
832.43	214.69
832.75	214.48
833.06	215.79
833.38	215.31
833.69	215.26
834.01	215.36
834.32	215.50
834.64	215.17
834.96	215.43
835.27	215.21
835.59	214.90
835.90	214.38
836.22	214.31
836.53	213.62
836.85	213.33
837.16	215.43
837.48	215.52
837.79	216.12
838.11	216.10
838.42	216.19
838.74	216.33
839.05	216.12
839.37	216.31
839.68	214.86
840.00	214.69
840.31	214.98
840.63	214.52
840.94	214.45
841.26	214.24
841.57	213.86
841.88	214.26
842.20	213.81
842.51	213.62
842.83	213.71
843.14	215.67
843.46	215.86
843.77	214.67
844.08	214.74
844.40	214.12
844.71	214.12
845.03	213.93
845.34	213.69
845.65	213.76
845.97	213.76
846.28	213.88
846.60	213.98
846.91	213.71
847.22	213.90
847.54	214.31
847.85	214.40
848.16	214.60
848.48	214.05
848.79	215.07
849.10	215.26
849.42	215.55
849.73	213.67
850.04	213.45
850.36	212.95
850.67	213.33
850.98	213.29
851.30	213.48
851.61	213.60
851.92	213.71
852.23	214.45
852.55	214.52
852.86	214.74
853.17	215.05
853.49	215.26
853.80	215.64
854.11	215.60
854.42	216.02
854.74	215.55
855.05	215.76
855.36	214.60
855.67	214.83
855.99	214.93
856.30	217.31
856.61	217.24
856.92	216.98
857.23	216.98
857.55	216.74
857.86	216.57
858.17	216.79
858.48	216.50
858.79	215.98
859.11	216.10
859.42	215.74
859.73	215.36
860.04	215.52
860.35	214.88
860.66	214.29
860.98	213.86
861.29	214.17
861.60	213.98
861.91	214.57
862.22	214.19
862.53	213.76
862.84	211.24
863.16	211.93
863.47	211.55
863.78	211.14
864.09	211.29
864.40	211.26
864.71	211.36
865.02	211.62
865.33	211.31
865.64	210.95
865.95	211.00
866.27	212.60
866.58	212.26
866.89	212.43
867.20	212.43
867.51	212.29
867.82	212.02
868.13	212.62
868.44	212.00
868.75	212.19
869.06	212.33
869.37	212.76
869.68	212.19
869.99	212.43
870.30	212.40
870.61	212.74
870.92	212.26
871.23	211.98
871.54	212.26
871.85	212.90
872.16	213.29
872.47	213.10
872.78	211.76
873.09	211.76
873.40	211.64
873.71	211.95
874.02	212.14
874.33	211.98
874.64	211.38
874.95	211.95
875.26	211.57
875.56	211.57
875.87	211.40
876.18	211.05
876.49	213.31
876.80	213.38
877.11	212.93
877.42	213.36
877.73	213.40
878.04	213.12
878.35	212.95
878.66	212.81
878.96	213.12
879.27	212.95
879.58	212.98
879.89	212.88
880.20	213.17
880.51	213.31
880.82	213.52
881.12	213.71
881.43	213.00
881.74	212.95
882.05	212.69
882.36	212.71
882.67	213.17
882.97	211.05
883.28	210.86
883.59	210.83
883.90	210.93
884.21	211.19
884.51	211.07
884.82	210.74
885.13	210.79
885.44	210.74
885.74	210.88
886.05	210.83
886.36	210.90
886.67	210.36
886.98	211.24
887.28	211.45
887.59	211.45
887.90	211.69
888.20	211.60
888.51	212.24
888.82	212.02
889.13	212.31
889.43	213.90
889.74	213.88
890.05	213.88
890.35	213.76
890.66	213.60
890.97	213.48
891.28	213.21
891.58	213.29
891.89	213.36
892.20	213.10
892.50	212.88
892.81	212.67
893.12	212.60
893.42	211.64
893.73	211.50
894.04	211.38
894.34	211.50
894.65	211.60
894.95	211.17
895.26	211.21
895.57	211.83
895.87	209.88
896.18	210.31
896.48	210.74
896.79	210.64
897.10	210.83
897.40	210.95
897.71	211.31
898.01	211.29
898.32	211.31
898.63	211.14
898.93	211.48
899.24	211.57
899.54	211.67
899.85	211.64
900.15	211.67
900.46	211.81
900.76	212.12
901.07	212.00
901.38	212.10
901.68	212.40
901.99	211.55
902.29	211.93
902.60	211.43
902.90	211.02
903.21	211.26
903.51	211.21
903.82	211.62
904.12	211.86
904.43	211.93
904.73	211.76
905.03	212.12
905.34	213.86
905.64	213.81
905.95	213.86
906.25	213.79
906.56	213.69
906.86	213.74
907.17	213.50
907.47	213.81
907.77	213.52
908.08	213.29
908.38	213.31
908.69	213.36
908.99	214.05
909.30	214.17
909.60	214.05
909.90	213.98
910.21	213.43
910.51	212.76
910.81	212.62
911.12	212.79
911.42	212.83
911.73	210.88
912.03	211.10
912.33	211.19
912.64	211.12
912.94	211.19
913.24	210.86
913.55	210.50
913.85	210.36
914.15	210.90
914.46	211.02
914.76	211.00
915.06	210.69
915.37	210.17
915.67	210.10
915.97	210.17
916.27	209.62
916.58	209.76
916.88	209.88
917.18	209.88
917.49	211.14
917.79	211.02
918.09	211.26
918.39	211.81
918.70	211.69
919.00	211.67
919.30	212.38
919.60	212.33
919.91	212.26
920.21	212.31
920.51	211.69
920.81	211.52
921.12	211.79
921.42	211.81
921.72	211.98
922.02	212.00
922.32	212.07
922.63	212.38
922.93	213.31
923.23	213.48
923.53	213.26
923.83	212.00
924.13	212.24
924.44	212.26
924.74	212.45
925.04	213.00
925.34	213.05
925.64	212.31
925.94	212.48
926.24	213.57
926.55	213.31
926.85	213.69
927.15	213.71
927.45	213.74
927.75	213.88
928.05	213.93
928.35	213.86
928.65	214.26
928.95	214.48
929.26	213.86
929.56	214.07
929.86	214.36
930.16	214.29
930.46	214.12
930.76	214.07
931.06	213.07
931.36	212.76
931.66	213.24
931.96	213.50
932.26	213.57
932.56	212.90
932.86	213.14
933.16	213.21
933.46	213.14
933.76	212.79
934.06	213.31
934.36	214.02
934.66	214.12
934.96	213.98
935.26	214.00
935.56	213.98
935.86	213.71
936.16	213.33
936.46	213.00
936.76	212.81
937.06	212.64
937.36	213.00
937.66	212.90
937.96	212.50
938.26	212.24
938.56	212.07
938.86	212.19
939.16	212.52
939.46	212.60
939.76	212.79
940.06	212.83
940.35	212.21
940.65	211.29
940.95	211.31
941.25	210.76
941.55	210.26
941.85	210.21
942.15	210.55
942.45	211.10
942.75	211.05
943.04	211.07
943.34	211.48
943.64	211.07
943.94	210.71
944.24	210.90
944.54	210.74
944.84	210.64
945.13	210.36
945.43	210.38
945.73	210.24
946.03	210.07
946.33	209.74
946.62	209.67
946.92	209.60
947.22	209.67
947.52	209.86
947.82	210.40
948.11	210.07
948.41	209.57
948.71	209.12
949.01	209.36
949.31	209.21
949.60	208.93
949.90	209.12
950.20	209.17
950.50	209.14
950.79	209.17
951.09	209.60
951.39	209.50
951.69	208.95
951.98	209.57
952.28	209.48
952.58	209.64
952.87	209.43
953.17	209.76
953.47	209.83
953.76	209.67
954.06	209.40
954.36	209.21
954.66	209.33
954.95	209.98
955.25	210.21
955.55	210.62
955.84	210.24
956.14	210.55
956.44	210.71
956.73	210.24
957.03	210.24
957.32	210.02
957.62	209.88
957.92	210.52
958.21	210.05
958.51	212.62
958.81	212.60
959.10	213.10
959.40	213.52
959.69	213.33
959.99	213.83
960.29	213.69
960.58	213.86
960.88	214.74
961.17	214.31
961.47	214.40
961.76	214.00
962.06	214.55
962.36	214.29
962.65	214.55
962.95	214.76
963.24	214.69
963.54	214.88
963.83	215.10
964.13	214.81
964.42	214.36
964.72	212.71
965.01	213.00
965.31	212.81
965.60	212.19
965.90	213.50
966.19	212.83
966.49	212.93
966.78	212.79
967.08	212.48
967.37	212.43
967.67	212.00
967.96	212.40
968.26	212.19
968.55	212.52
968.85	212.43
969.14	212.36
969.43	212.29
969.73	211.98
970.02	211.69
970.32	211.57
970.61	211.50
970.91	210.83
971.20	210.67
971.49	210.26
971.79	210.38
972.08	209.17
972.38	209.36
972.67	209.31
972.96	209.64
973.26	209.10
973.55	209.86
973.85	209.98
974.14	209.67
974.43	209.62
974.73	209.17
975.02	208.98
975.31	209.14
975.61	209.12
975.90	208.95
976.19	209.14
976.49	209.48
976.78	209.76
977.07	209.40
977.37	209.55
977.66	209.98
977.95	209.88
978.24	210.10
978.54	210.40
978.83	210.17
979.12	210.14
979.42	210.38
979.71	209.93
980.00	209.86
980.29	210.00
980.59	209.90
980.88	210.67
981.17	210.52
981.46	210.40
981.76	210.62
982.05	211.38
982.34	211.36
982.63	211.48
982.93	211.33
983.22	212.45
983.51	212.14
983.80	212.40
984.09	212.67
984.39	212.36
984.68	212.12
984.97	212.24
985.26	212.07
985.55	211.98
985.85	211.50
986.14	211.98
986.43	212.12
986.72	212.00
987.01	211.17
987.30	211.29
987.59	211.07
987.89	211.17
988.18	210.64
988.47	210.40
988.76	209.83
989.05	209.86
989.34	209.24
989.63	209.95
989.92	209.71
990.22	209.50
990.51	209.50
990.80	209.50
991.09	209.81
991.38	209.83
991.67	209.67
991.96	209.64
992.25	209.33
992.54	209.02
992.83	209.21
993.12	209.24
993.41	209.64
993.70	210.71
993.99	210.95
994.28	211.07
994.58	211.48
994.87	211.45
995.16	211.24
995.45	211.00
995.74	210.17
996.03	210.33
996.32	210.55
996.61	210.95
996.90	211.00
997.19	210.74
997.48	210.95
997.77	210.83
998.06	211.14
998.34	211.07
998.63	211.26
998.92	211.31
999.21	211.71
999.50	211.69
999.79	211.00
1000.08	210.93
1000.37	211.14
1000.66	210.83
1000.95	211.40
1001.24	211.67
1001.53	211.98
1001.82	212.02
1002.11	211.60
1002.40	211.81
1002.68	212.24
1002.97	213.40
1003.26	213.31
1003.55	213.00
1003.84	213.12
1004.13	213.79
1004.42	213.86
1004.71	213.79
1004.99	213.79
1005.28	214.14
1005.57	213.88
1005.86	213.64
1006.15	213.50
1006.44	212.98
1006.72	213.38
1007.01	212.95
1007.30	212.98
1007.59	212.74
1007.88	212.88
1008.17	213.07
1008.45	212.24
1008.74	211.36
1009.03	210.57
1009.32	210.71
1009.60	210.71
1009.89	210.55
1010.18	209.52
1010.47	209.36
1010.76	209.21
1011.04	209.26
1011.33	209.36
1011.62	209.52
1011.91	209.60
1012.19	209.69
1012.48	209.79
1012.77	209.88
1013.05	210.83
1013.34	210.83
1013.63	210.71
1013.92	210.67
1014.20	210.64
1014.49	211.02
1014.78	211.29
1015.06	210.60
1015.35	210.31
1015.64	210.55
1015.92	211.05
1016.21	211.26
1016.50	211.45
1016.78	211.76
1017.07	211.67
1017.36	210.98
1017.64	210.81
1017.93	210.98
1018.22	210.88
1018.50	211.02
1018.79	210.86
1019.08	210.00
1019.36	210.07
1019.65	209.60
1019.93	210.33
1020.22	210.50
1020.51	211.55
1020.79	211.19
1021.08	210.50
1021.36	209.50
1021.65	211.50
1021.94	211.50
1022.22	211.00
1022.51	199.50
1022.79	222.50
1023.08	213.50
1023.36	233.00
1023.65	204.00
>>>>>End Processed Spectral Data<<<<<
