SpectraSuite Data File
++++++++++++++++++++++++++++++++++++
Date: Tue Apr 02 18:40:52 EDT 2013
User: group
Dark Spectrum Present: No
Reference Spectrum Present: No
Number of Sampled Component Spectra: 1
Spectrometers: USB2E7196
Integration Time (usec): 580000 (USB2E7196)
Spectra Averaged: 2 (USB2E7196)
Boxcar Smoothing: 10 (USB2E7196)
Correct for Electrical Dark: No (USB2E7196)
Strobe/Lamp Enabled: No (USB2E7196)
Correct for Detector Non-linearity: No (USB2E7196)
Correct for Stray Light: No (USB2E7196)
Number of Pixels in Processed Spectrum: 2048
>>>>>Begin Processed Spectral Data<<<<<
339.09	0.00
339.48	192.50
339.86	194.00
340.24	196.50
340.63	199.50
341.01	228.00
341.39	199.00
341.78	209.50
342.16	212.00
342.54	207.00
342.93	197.90
343.31	207.79
343.69	208.40
344.07	208.88
344.46	209.69
344.84	210.19
345.22	209.29
345.60	210.00
345.99	209.95
346.37	209.98
346.75	210.07
347.13	210.14
347.52	210.26
347.90	211.14
348.28	211.21
348.66	211.71
349.05	211.36
349.43	211.64
349.81	211.74
350.19	211.74
350.57	212.00
350.96	212.21
351.34	212.60
351.72	212.74
352.10	212.88
352.48	212.62
352.87	212.55
353.25	212.60
353.63	212.45
354.01	212.52
354.39	212.52
354.77	212.57
355.15	213.17
355.54	212.86
355.92	211.90
356.30	212.05
356.68	213.43
357.06	213.60
357.44	213.26
357.82	213.02
358.20	214.07
358.58	214.10
358.97	214.05
359.35	214.26
359.73	214.71
360.11	215.00
360.49	215.29
360.87	215.38
361.25	215.83
361.63	216.40
362.01	216.62
362.39	216.45
362.77	216.64
363.15	216.45
363.53	216.48
363.91	216.74
364.29	216.48
364.67	214.45
365.05	214.50
365.43	214.71
365.81	215.10
366.19	215.02
366.57	215.83
366.95	215.90
367.33	215.38
367.71	215.36
368.09	215.57
368.47	215.50
368.85	215.48
369.23	215.81
369.61	215.17
369.99	215.76
370.37	216.12
370.75	217.02
371.13	216.40
371.51	216.12
371.89	216.12
372.27	216.21
372.65	216.55
373.03	216.21
373.41	216.05
373.78	216.00
374.16	214.93
374.54	214.07
374.92	214.00
375.30	214.21
375.68	213.88
376.06	214.02
376.44	213.76
376.82	213.71
377.19	213.38
377.57	213.24
377.95	212.45
378.33	212.31
378.71	210.95
379.09	211.57
379.47	212.05
379.84	211.90
380.22	211.79
380.60	211.31
380.98	211.38
381.36	211.52
381.73	211.05
382.11	211.60
382.49	211.88
382.87	211.60
383.25	211.38
383.62	213.81
384.00	213.38
384.38	213.71
384.76	214.31
385.13	215.21
385.51	215.38
385.89	215.24
386.27	215.36
386.64	215.88
387.02	215.62
387.40	215.26
387.78	215.52
388.15	216.00
388.53	215.95
388.91	216.45
389.29	216.50
389.66	217.05
390.04	216.57
390.42	217.05
390.79	217.02
391.17	217.05
391.55	214.62
391.92	214.52
392.30	214.81
392.68	214.43
393.05	214.02
393.43	214.00
393.81	214.17
394.18	213.71
394.56	213.90
394.94	214.40
395.31	214.29
395.69	214.62
396.06	214.81
396.44	214.83
396.82	214.45
397.19	215.29
397.57	214.88
397.95	215.60
398.32	214.79
398.70	215.10
399.07	215.43
399.45	215.45
399.82	215.52
400.20	215.02
400.58	214.98
400.95	214.50
401.33	215.00
401.70	216.38
402.08	216.64
402.45	216.52
402.83	216.98
403.20	217.36
403.58	217.40
403.95	217.67
404.33	218.45
404.71	218.88
405.08	220.12
405.46	220.57
405.83	220.93
406.21	221.38
406.58	221.93
406.96	222.33
407.33	223.07
407.70	224.12
408.08	226.52
408.45	227.38
408.83	228.14
409.20	228.67
409.58	228.48
409.95	229.69
410.33	230.67
410.70	231.12
411.08	232.31
411.45	233.55
411.82	234.52
412.20	235.98
412.57	238.43
412.95	238.12
413.32	240.14
413.69	241.45
414.07	243.24
414.44	245.12
414.82	247.50
415.19	249.81
415.56	251.86
415.94	253.10
416.31	256.07
416.68	259.02
417.06	262.38
417.43	265.79
417.81	269.31
418.18	273.05
418.55	276.60
418.93	280.74
419.30	285.02
419.67	289.71
420.04	294.43
420.42	298.52
420.79	306.05
421.16	311.83
421.54	318.83
421.91	325.52
422.28	331.79
422.66	338.24
423.03	346.55
423.40	353.79
423.77	361.26
424.15	368.95
424.52	376.90
424.89	386.33
425.26	394.67
425.64	402.93
426.01	411.71
426.38	421.29
426.75	431.52
427.13	441.26
427.50	450.67
427.87	461.02
428.24	471.62
428.61	480.33
428.99	491.81
429.36	503.24
429.73	514.98
430.10	527.00
430.47	539.21
430.85	550.55
431.22	563.52
431.59	579.21
431.96	592.29
432.33	607.26
432.70	620.62
433.08	636.69
433.45	652.31
433.82	668.05
434.19	685.62
434.56	703.43
434.93	719.79
435.30	736.90
435.68	755.29
436.05	773.29
436.42	791.48
436.79	808.14
437.16	826.26
437.53	845.71
437.90	864.36
438.27	883.02
438.64	902.07
439.01	919.93
439.38	934.33
439.75	950.21
440.13	967.29
440.50	984.62
440.87	998.95
441.24	1013.19
441.61	1029.02
441.98	1040.48
442.35	1052.76
442.72	1066.43
443.09	1080.74
443.46	1089.33
443.83	1095.31
444.20	1099.81
444.57	1106.33
444.94	1108.67
445.31	1112.07
445.68	1118.81
446.05	1120.48
446.42	1119.02
446.79	1117.67
447.16	1115.38
447.53	1114.14
447.90	1107.64
448.27	1100.76
448.64	1091.81
449.01	1085.19
449.37	1073.55
449.74	1062.14
450.11	1050.14
450.48	1034.48
450.85	1017.67
451.22	1003.88
451.59	991.21
451.96	979.00
452.33	962.69
452.70	948.38
453.07	929.52
453.43	908.50
453.80	890.90
454.17	874.52
454.54	859.00
454.91	842.48
455.28	825.48
455.65	809.98
456.02	797.10
456.38	783.26
456.75	767.24
457.12	753.21
457.49	740.05
457.86	725.14
458.23	715.12
458.59	702.93
458.96	690.26
459.33	678.67
459.70	667.43
460.07	658.83
460.43	648.57
460.80	639.93
461.17	632.43
461.54	623.98
461.91	615.21
462.27	606.26
462.64	598.52
463.01	590.93
463.38	584.29
463.74	573.48
464.11	566.36
464.48	560.29
464.85	553.50
465.21	548.12
465.58	542.76
465.95	535.60
466.32	530.00
466.68	524.50
467.05	519.40
467.42	514.57
467.78	508.57
468.15	503.74
468.52	499.79
468.88	493.50
469.25	488.67
469.62	485.24
469.98	481.14
470.35	477.55
470.72	473.57
471.08	468.93
471.45	466.33
471.82	463.93
472.18	459.90
472.55	457.67
472.92	454.19
473.28	451.07
473.65	448.05
474.02	445.62
474.38	443.55
474.75	441.50
475.11	439.00
475.48	437.24
475.85	435.17
476.21	432.93
476.58	431.86
476.94	430.67
477.31	429.10
477.67	427.76
478.04	426.67
478.41	425.74
478.77	426.74
479.14	425.57
479.50	424.71
479.87	424.40
480.23	424.00
480.60	423.88
480.96	423.69
481.33	424.45
481.69	424.48
482.06	424.88
482.42	424.88
482.79	425.40
483.15	426.19
483.52	427.24
483.88	427.98
484.25	428.62
484.61	429.48
484.98	430.02
485.34	432.10
485.71	433.48
486.07	434.83
486.44	434.69
486.80	436.05
487.17	437.31
487.53	439.88
487.90	442.02
488.26	444.95
488.62	447.83
488.99	449.76
489.35	452.57
489.72	454.83
490.08	457.64
490.44	460.05
490.81	463.02
491.17	466.02
491.54	470.17
491.90	474.12
492.26	477.98
492.63	482.38
492.99	485.62
493.36	489.55
493.72	494.31
494.08	498.48
494.45	503.43
494.81	509.14
495.17	513.76
495.54	518.60
495.90	523.05
496.26	528.48
496.63	533.90
496.99	539.83
497.35	546.24
497.72	552.64
498.08	559.05
498.44	565.64
498.80	572.40
499.17	578.07
499.53	584.14
499.89	590.90
500.26	597.74
500.62	605.02
500.98	613.05
501.34	620.00
501.71	628.21
502.07	635.69
502.43	642.43
502.79	649.43
503.16	656.93
503.52	664.76
503.88	671.86
504.24	680.05
504.60	687.71
504.97	695.64
505.33	703.83
505.69	713.33
506.05	720.98
506.41	729.29
506.78	737.64
507.14	745.83
507.50	754.14
507.86	762.31
508.22	770.64
508.59	777.93
508.95	786.14
509.31	794.79
509.67	803.17
510.03	811.60
510.39	820.76
510.75	829.12
511.12	837.83
511.48	845.88
511.84	853.67
512.20	861.67
512.56	869.64
512.92	877.74
513.28	885.50
513.64	893.12
514.00	901.29
514.37	909.29
514.73	916.69
515.09	924.88
515.45	932.52
515.81	939.74
516.17	947.12
516.53	954.33
516.89	960.62
517.25	967.86
517.61	975.90
517.97	982.64
518.33	989.14
518.69	995.79
519.05	1003.31
519.41	1010.62
519.77	1018.57
520.13	1025.26
520.49	1031.33
520.85	1037.48
521.21	1045.60
521.57	1051.81
521.93	1057.71
522.29	1064.45
522.65	1070.02
523.01	1076.19
523.37	1081.57
523.73	1087.60
524.09	1093.62
524.45	1098.64
524.81	1104.05
525.17	1109.31
525.53	1114.33
525.89	1119.62
526.25	1124.79
526.61	1129.74
526.97	1134.17
527.33	1138.62
527.68	1145.67
528.04	1150.86
528.40	1154.95
528.76	1158.40
529.12	1162.52
529.48	1168.38
529.84	1172.90
530.20	1178.26
530.56	1183.29
530.91	1189.00
531.27	1194.07
531.63	1198.60
531.99	1203.57
532.35	1208.21
532.71	1212.71
533.07	1217.71
533.42	1225.74
533.78	1230.10
534.14	1235.24
534.50	1239.79
534.86	1244.26
535.21	1246.57
535.57	1252.00
535.93	1257.07
536.29	1263.17
536.65	1268.36
537.00	1271.81
537.36	1276.50
537.72	1280.05
538.08	1284.14
538.44	1287.83
538.79	1292.02
539.15	1296.33
539.51	1300.64
539.87	1305.12
540.22	1309.10
540.58	1313.33
540.94	1314.90
541.29	1318.64
541.65	1321.71
542.01	1325.74
542.37	1328.64
542.72	1331.90
543.08	1334.00
543.44	1337.60
543.79	1338.90
544.15	1342.76
544.51	1346.81
544.87	1349.88
545.22	1353.48
545.58	1356.71
545.94	1360.14
546.29	1363.24
546.65	1366.33
547.01	1370.05
547.36	1372.50
547.72	1375.29
548.07	1379.17
548.43	1382.02
548.79	1385.40
549.14	1387.95
549.50	1391.62
549.86	1394.83
550.21	1398.31
550.57	1402.76
550.92	1405.12
551.28	1409.40
551.64	1412.60
551.99	1415.14
552.35	1418.31
552.70	1421.71
553.06	1425.24
553.41	1429.05
553.77	1433.50
554.13	1437.45
554.48	1441.79
554.84	1447.10
555.19	1452.00
555.55	1456.07
555.90	1460.40
556.26	1465.00
556.61	1470.24
556.97	1473.29
557.32	1477.76
557.68	1482.14
558.03	1485.90
558.39	1491.31
558.74	1495.64
559.10	1499.90
559.45	1505.21
559.81	1510.00
560.16	1514.43
560.52	1519.05
560.87	1523.86
561.23	1527.74
561.58	1534.33
561.94	1537.64
562.29	1541.07
562.64	1545.38
563.00	1549.62
563.35	1554.10
563.71	1559.43
564.06	1564.55
564.42	1570.57
564.77	1577.29
565.12	1582.48
565.48	1589.60
565.83	1595.24
566.19	1600.95
566.54	1606.69
566.89	1611.67
567.25	1618.26
567.60	1625.48
567.96	1633.45
568.31	1639.86
568.66	1647.14
569.02	1649.86
569.37	1655.93
569.72	1661.81
570.08	1667.05
570.43	1671.55
570.78	1677.21
571.14	1681.86
571.49	1686.79
571.84	1691.86
572.20	1695.14
572.55	1700.50
572.90	1703.57
573.26	1707.88
573.61	1711.98
573.96	1715.88
574.31	1720.14
574.67	1723.67
575.02	1725.88
575.37	1727.38
575.72	1729.31
576.08	1732.45
576.43	1736.10
576.78	1738.95
577.13	1741.71
577.49	1744.31
577.84	1748.60
578.19	1752.10
578.54	1755.62
578.90	1757.48
579.25	1760.76
579.60	1762.50
579.95	1764.55
580.30	1768.10
580.66	1770.90
581.01	1772.93
581.36	1774.88
581.71	1777.26
582.06	1780.86
582.42	1783.45
582.77	1784.90
583.12	1787.26
583.47	1788.19
583.82	1791.14
584.17	1793.48
584.53	1796.17
584.88	1798.67
585.23	1799.38
585.58	1801.10
585.93	1801.76
586.28	1803.38
586.63	1804.10
586.98	1807.19
587.34	1808.74
587.69	1808.10
588.04	1807.90
588.39	1809.12
588.74	1808.69
589.09	1808.83
589.44	1807.33
589.79	1807.40
590.14	1809.00
590.49	1809.93
590.84	1810.64
591.19	1811.71
591.54	1811.71
591.89	1811.40
592.25	1813.10
592.60	1813.81
592.95	1812.98
593.30	1813.74
593.65	1814.24
594.00	1813.02
594.35	1818.10
594.70	1816.90
595.05	1817.07
595.40	1816.88
595.75	1816.55
596.10	1817.64
596.45	1818.12
596.80	1818.31
597.15	1817.83
597.50	1815.95
597.85	1815.83
598.19	1813.98
598.54	1812.14
598.89	1810.93
599.24	1810.33
599.59	1807.00
599.94	1805.17
600.29	1804.12
600.64	1801.69
600.99	1799.71
601.34	1800.02
601.69	1792.48
602.04	1791.26
602.39	1789.83
602.74	1788.62
603.08	1786.43
603.43	1785.57
603.78	1783.36
604.13	1780.95
604.48	1778.88
604.83	1777.45
605.18	1774.69
605.53	1773.17
605.87	1770.71
606.22	1768.64
606.57	1765.00
606.92	1762.43
607.27	1760.74
607.62	1758.79
607.96	1756.81
608.31	1755.67
608.66	1752.60
609.01	1749.55
609.36	1747.33
609.70	1744.45
610.05	1740.93
610.40	1738.40
610.75	1734.40
611.10	1731.40
611.44	1728.12
611.79	1723.79
612.14	1719.60
612.49	1715.36
612.83	1711.14
613.18	1707.43
613.53	1703.14
613.88	1699.38
614.22	1695.07
614.57	1688.86
614.92	1682.50
615.27	1677.95
615.61	1672.38
615.96	1666.83
616.31	1662.43
616.65	1657.36
617.00	1652.05
617.35	1648.17
617.70	1643.02
618.04	1637.29
618.39	1631.29
618.74	1625.86
619.08	1621.40
619.43	1616.00
619.78	1610.62
620.12	1606.86
620.47	1602.88
620.82	1597.88
621.16	1591.88
621.51	1587.50
621.85	1583.48
622.20	1578.40
622.55	1572.98
622.89	1567.55
623.24	1562.93
623.59	1557.83
623.93	1552.86
624.28	1548.21
624.62	1544.10
624.97	1540.50
625.32	1536.19
625.66	1532.29
626.01	1527.98
626.35	1523.79
626.70	1519.12
627.04	1515.36
627.39	1509.60
627.73	1503.86
628.08	1500.00
628.43	1495.29
628.77	1490.24
629.12	1486.00
629.46	1482.29
629.81	1476.83
630.15	1471.36
630.50	1466.26
630.84	1460.88
631.19	1455.69
631.53	1450.12
631.88	1442.52
632.22	1435.74
632.57	1430.71
632.91	1423.88
633.26	1417.76
633.60	1411.71
633.95	1406.10
634.29	1399.71
634.64	1393.90
634.98	1387.19
635.32	1381.69
635.67	1376.90
636.01	1370.86
636.36	1363.55
636.70	1358.05
637.05	1352.86
637.39	1347.79
637.73	1343.38
638.08	1338.17
638.42	1332.57
638.77	1326.79
639.11	1322.10
639.45	1315.74
639.80	1309.10
640.14	1304.17
640.49	1298.40
640.83	1292.40
641.17	1286.55
641.52	1279.95
641.86	1273.98
642.20	1269.45
642.55	1262.00
642.89	1255.69
643.23	1249.12
643.58	1244.79
643.92	1237.50
644.26	1230.93
644.61	1225.19
644.95	1216.86
645.29	1210.02
645.64	1203.79
645.98	1196.95
646.32	1190.17
646.66	1183.19
647.01	1176.31
647.35	1170.24
647.69	1164.14
648.04	1158.64
648.38	1152.62
648.72	1146.64
649.06	1140.36
649.41	1133.36
649.75	1126.90
650.09	1120.71
650.43	1114.50
650.78	1106.81
651.12	1100.17
651.46	1093.71
651.80	1086.76
652.14	1081.05
652.49	1075.33
652.83	1068.71
653.17	1062.64
653.51	1055.45
653.85	1049.76
654.20	1043.33
654.54	1035.50
654.88	1028.43
655.22	1021.24
655.56	1014.26
655.90	1007.74
656.25	1001.05
656.59	994.00
656.93	987.50
657.27	981.64
657.61	975.19
657.95	969.24
658.29	963.29
658.64	957.52
658.98	950.76
659.32	944.00
659.66	936.88
660.00	930.10
660.34	924.00
660.68	918.26
661.02	912.29
661.36	906.33
661.70	901.62
662.05	896.38
662.39	890.45
662.73	885.57
663.07	881.10
663.41	874.88
663.75	868.67
664.09	863.38
664.43	856.60
664.77	850.60
665.11	844.64
665.45	839.29
665.79	833.19
666.13	827.57
666.47	822.31
666.81	816.95
667.15	811.40
667.49	806.07
667.83	801.00
668.17	795.38
668.51	789.74
668.85	784.17
669.19	779.71
669.53	773.98
669.87	767.79
670.21	761.24
670.55	756.36
670.89	752.36
671.23	746.62
671.57	741.71
671.91	737.48
672.25	732.26
672.58	728.17
672.92	723.26
673.26	718.55
673.60	713.26
673.94	708.79
674.28	704.62
674.62	700.64
674.96	695.81
675.30	691.81
675.64	687.76
675.97	682.98
676.31	677.40
676.65	673.05
676.99	669.55
677.33	665.10
677.67	660.83
678.01	656.19
678.34	652.26
678.68	648.67
679.02	643.74
679.36	639.24
679.70	633.90
680.04	629.19
680.37	624.71
680.71	620.50
681.05	616.00
681.39	611.38
681.73	606.24
682.06	601.71
682.40	596.81
682.74	592.40
683.08	588.62
683.42	584.14
683.75	580.52
684.09	575.93
684.43	571.69
684.77	567.40
685.10	562.88
685.44	559.00
685.78	554.45
686.12	551.02
686.45	547.14
686.79	542.90
687.13	539.74
687.46	535.88
687.80	532.74
688.14	529.12
688.48	525.74
688.81	522.38
689.15	519.67
689.49	516.31
689.82	512.95
690.16	508.67
690.50	505.19
690.83	501.17
691.17	497.36
691.51	494.02
691.84	490.83
692.18	487.93
692.52	484.74
692.85	481.98
693.19	479.38
693.52	476.45
693.86	473.45
694.20	470.26
694.53	467.21
694.87	463.71
695.21	460.24
695.54	456.67
695.88	452.88
696.21	449.05
696.55	445.81
696.88	442.98
697.22	440.21
697.56	437.40
697.89	434.62
698.23	432.24
698.56	429.40
698.90	426.74
699.23	423.38
699.57	420.55
699.90	417.19
700.24	413.43
700.58	411.00
700.91	408.90
701.25	407.79
701.58	406.02
701.92	404.21
702.25	401.64
702.59	399.21
702.92	397.26
703.26	394.93
703.59	392.83
703.93	392.00
704.26	390.05
704.60	388.05
704.93	385.93
705.26	383.57
705.60	381.76
705.93	379.10
706.27	377.69
706.60	376.00
706.94	375.26
707.27	373.24
707.61	371.40
707.94	369.19
708.27	365.86
708.61	363.40
708.94	361.05
709.28	359.60
709.61	358.05
709.94	356.38
710.28	354.69
710.61	352.95
710.95	349.43
711.28	348.76
711.61	347.12
711.95	345.74
712.28	343.74
712.61	342.24
712.95	341.90
713.28	341.02
713.61	339.31
713.95	336.67
714.28	335.38
714.61	333.71
714.95	332.45
715.28	330.43
715.61	328.90
715.95	327.79
716.28	326.02
716.61	324.90
716.95	323.38
717.28	322.12
717.61	320.33
717.94	318.93
718.28	316.36
718.61	314.74
718.94	313.02
719.27	311.83
719.61	310.67
719.94	308.57
720.27	306.26
720.60	304.52
720.94	303.40
721.27	302.43
721.60	301.57
721.93	299.83
722.27	299.69
722.60	298.81
722.93	297.33
723.26	296.79
723.59	295.10
723.93	294.24
724.26	293.24
724.59	292.45
724.92	291.83
725.25	291.24
725.59	290.43
725.92	289.95
726.25	289.10
726.58	288.14
726.91	287.33
727.24	286.93
727.57	286.55
727.91	285.43
728.24	284.33
728.57	283.14
728.90	282.83
729.23	281.57
729.56	281.45
729.89	280.88
730.22	279.62
730.55	278.88
730.89	278.12
731.22	277.19
731.55	276.43
731.88	275.79
732.21	274.71
732.54	273.79
732.87	272.62
733.20	272.00
733.53	271.38
733.86	270.88
734.19	269.71
734.52	269.19
734.85	270.33
735.18	269.60
735.51	269.33
735.84	268.86
736.17	268.57
736.50	267.10
736.83	268.69
737.16	268.24
737.49	268.02
737.82	267.24
738.15	267.07
738.48	266.33
738.81	265.57
739.14	264.83
739.47	264.33
739.80	264.02
740.13	263.64
740.46	262.48
740.79	261.45
741.12	261.07
741.45	260.05
741.78	258.26
742.11	258.43
742.44	257.62
742.77	257.29
743.10	256.55
743.43	255.98
743.75	253.33
744.08	255.43
744.41	254.81
744.74	254.33
745.07	253.60
745.40	253.76
745.73	254.10
746.06	253.83
746.39	253.57
746.71	252.90
747.04	252.26
747.37	252.05
747.70	251.98
748.03	251.67
748.36	251.81
748.68	251.14
749.01	250.17
749.34	249.88
749.67	249.52
750.00	249.31
750.33	250.62
750.65	250.52
750.98	247.64
751.31	247.38
751.64	247.12
751.97	247.81
752.29	247.29
752.62	245.90
752.95	245.38
753.28	244.86
753.60	244.55
753.93	244.74
754.26	244.55
754.59	243.93
754.91	243.36
755.24	242.64
755.57	242.29
755.90	241.95
756.22	241.45
756.55	240.62
756.88	239.93
757.20	238.05
757.53	237.26
757.86	237.10
758.19	236.86
758.51	236.64
758.84	235.17
759.17	234.50
759.49	234.38
759.82	235.48
760.15	235.24
760.47	234.86
760.80	234.07
761.13	233.98
761.45	233.45
761.78	233.02
762.11	232.95
762.43	232.76
762.76	232.50
763.08	232.45
763.41	232.57
763.74	232.57
764.06	232.31
764.39	231.93
764.71	231.76
765.04	231.10
765.37	230.48
765.69	230.19
766.02	230.14
766.34	229.95
766.67	228.76
767.00	229.14
767.32	230.29
767.65	231.31
767.97	230.90
768.30	231.00
768.62	230.93
768.95	230.45
769.27	230.21
769.60	230.29
769.92	229.67
770.25	228.81
770.57	228.19
770.90	228.00
771.22	227.88
771.55	227.52
771.87	227.52
772.20	227.31
772.52	228.79
772.85	231.05
773.17	231.05
773.50	231.05
773.82	230.31
774.15	228.93
774.47	227.45
774.80	227.07
775.12	227.05
775.45	227.12
775.77	227.26
776.09	227.26
776.42	227.29
776.74	227.88
777.07	227.90
777.39	228.05
777.72	227.95
778.04	228.02
778.36	227.95
778.69	227.81
779.01	228.02
779.33	226.38
779.66	223.81
779.98	223.38
780.31	223.33
780.63	223.88
780.95	224.29
781.28	224.36
781.60	224.21
781.92	223.98
782.25	223.83
782.57	223.50
782.89	223.45
783.22	223.36
783.54	222.69
783.86	222.90
784.19	222.55
784.51	222.98
784.83	222.71
785.16	222.38
785.48	222.50
785.80	222.48
786.12	222.64
786.45	222.71
786.77	222.74
787.09	222.38
787.42	221.95
787.74	221.57
788.06	221.55
788.38	221.62
788.71	221.26
789.03	221.12
789.35	221.36
789.67	220.93
789.99	220.62
790.32	220.48
790.64	220.79
790.96	222.43
791.28	221.67
791.61	221.43
791.93	221.52
792.25	221.21
792.57	222.62
792.89	221.88
793.21	221.90
793.54	221.90
793.86	221.81
794.18	221.74
794.50	221.55
794.82	221.55
795.14	221.88
795.47	222.38
795.79	222.52
796.11	221.88
796.43	221.79
796.75	221.79
797.07	221.76
797.39	221.29
797.71	219.95
798.04	220.10
798.36	220.21
798.68	220.10
799.00	220.43
799.32	219.07
799.64	219.79
799.96	219.60
800.28	219.74
800.60	219.43
800.92	219.50
801.24	219.31
801.56	219.10
801.89	218.62
802.21	218.83
802.53	218.29
802.85	218.88
803.17	219.79
803.49	219.50
803.81	219.43
804.13	219.40
804.45	219.00
804.77	219.17
805.09	219.12
805.41	218.76
805.73	218.21
806.05	217.76
806.37	217.67
806.69	217.55
807.01	217.31
807.33	217.55
807.65	216.81
807.97	217.95
808.28	217.88
808.60	217.90
808.92	217.52
809.24	219.05
809.56	218.74
809.88	218.05
810.20	218.19
810.52	218.62
810.84	218.31
811.16	218.10
811.48	217.90
811.80	218.55
812.12	218.69
812.43	218.88
812.75	219.12
813.07	218.62
813.39	218.93
813.71	218.52
814.03	218.24
814.35	218.36
814.67	217.43
814.98	217.05
815.30	217.00
815.62	216.52
815.94	215.00
816.26	214.83
816.58	214.45
816.89	214.40
817.21	213.83
817.53	214.10
817.85	214.33
818.17	214.21
818.48	213.29
818.80	213.69
819.12	213.45
819.44	213.07
819.76	212.95
820.07	212.81
820.39	212.95
820.71	213.12
821.03	213.36
821.34	213.19
821.66	213.88
821.98	214.19
822.30	214.14
822.61	215.38
822.93	215.21
823.25	215.05
823.57	214.86
823.88	215.33
824.20	215.19
824.52	215.36
824.83	215.36
825.15	215.21
825.47	215.14
825.79	215.43
826.10	215.45
826.42	215.33
826.74	215.45
827.05	215.50
827.37	215.50
827.69	215.26
828.00	215.50
828.32	215.12
828.64	214.76
828.95	216.02
829.27	215.31
829.58	215.33
829.90	216.00
830.22	216.24
830.53	215.74
830.85	215.45
831.17	215.02
831.48	215.19
831.80	215.31
832.11	214.86
832.43	214.50
832.75	214.43
833.06	215.52
833.38	214.86
833.69	214.64
834.01	214.74
834.32	214.81
834.64	214.36
834.96	214.45
835.27	214.60
835.59	213.69
835.90	213.29
836.22	213.48
836.53	212.95
836.85	212.71
837.16	214.81
837.48	214.83
837.79	215.45
838.11	215.29
838.42	215.45
838.74	215.90
839.05	215.81
839.37	215.86
839.68	214.64
840.00	214.74
840.31	215.12
840.63	214.90
840.94	214.57
841.26	214.64
841.57	214.64
841.88	214.69
842.20	214.29
842.51	214.24
842.83	214.02
843.14	215.86
843.46	215.71
843.77	214.60
844.08	214.55
844.40	213.93
844.71	213.69
845.03	213.50
845.34	213.24
845.65	213.17
845.97	212.93
846.28	213.14
846.60	213.29
846.91	212.95
847.22	212.95
847.54	213.43
847.85	213.45
848.16	213.17
848.48	212.86
848.79	213.95
849.10	214.17
849.42	214.43
849.73	212.48
850.04	212.88
850.36	212.00
850.67	212.64
850.98	212.81
851.30	213.12
851.61	213.05
851.92	213.19
852.23	213.79
852.55	214.02
852.86	214.14
853.17	214.33
853.49	214.76
853.80	215.19
854.11	215.36
854.42	215.60
854.74	215.19
855.05	215.07
855.36	213.88
855.67	213.93
855.99	213.81
856.30	216.24
856.61	216.00
856.92	216.19
857.23	216.02
857.55	215.71
857.86	215.55
858.17	215.76
858.48	215.40
858.79	215.14
859.11	215.57
859.42	215.48
859.73	215.26
860.04	215.05
860.35	214.40
860.66	213.69
860.98	213.64
861.29	213.95
861.60	213.83
861.91	214.36
862.22	213.86
862.53	213.62
862.84	211.12
863.16	211.36
863.47	211.10
863.78	210.83
864.09	211.00
864.40	211.10
864.71	211.02
865.02	211.31
865.33	211.07
865.64	210.50
865.95	210.43
866.27	211.64
866.58	211.71
866.89	212.14
867.20	212.24
867.51	211.90
867.82	211.95
868.13	212.81
868.44	212.50
868.75	213.17
869.06	213.33
869.37	213.62
869.68	213.00
869.99	213.36
870.30	213.50
870.61	213.71
870.92	213.40
871.23	213.33
871.54	213.69
871.85	213.98
872.16	214.43
872.47	214.50
872.78	213.17
873.09	213.17
873.40	212.74
873.71	212.83
874.02	212.86
874.33	212.88
874.64	212.19
874.95	212.55
875.26	212.12
875.56	212.00
875.87	212.10
876.18	212.24
876.49	214.38
876.80	214.21
877.11	213.79
877.42	213.90
877.73	213.93
878.04	213.64
878.35	213.74
878.66	213.38
878.96	213.29
879.27	213.40
879.58	213.33
879.89	213.36
880.20	213.79
880.51	213.81
880.82	213.69
881.12	213.88
881.43	213.17
881.74	212.83
882.05	212.86
882.36	212.90
882.67	212.86
882.97	210.55
883.28	210.48
883.59	210.33
883.90	210.74
884.21	211.12
884.51	210.86
884.82	210.60
885.13	210.83
885.44	210.67
885.74	210.64
886.05	210.52
886.36	210.45
886.67	209.79
886.98	210.62
887.28	210.88
887.59	210.93
887.90	211.21
888.20	211.29
888.51	211.62
888.82	211.26
889.13	211.52
889.43	213.19
889.74	213.07
890.05	213.24
890.35	212.79
890.66	212.45
890.97	212.24
891.28	212.07
891.58	211.95
891.89	211.95
892.20	211.83
892.50	211.83
892.81	211.83
893.12	212.29
893.42	211.57
893.73	211.67
894.04	211.88
894.34	212.12
894.65	212.24
894.95	211.93
895.26	212.36
895.57	213.31
895.87	211.21
896.18	211.60
896.48	211.86
896.79	211.98
897.10	212.43
897.40	212.64
897.71	212.81
898.01	212.79
898.32	213.02
898.63	212.98
898.93	212.83
899.24	212.93
899.54	212.48
899.85	212.38
900.15	212.00
900.46	211.74
900.76	211.81
901.07	211.74
901.38	211.79
901.68	211.62
901.99	210.64
902.29	210.88
902.60	210.57
902.90	210.17
903.21	210.05
903.51	209.60
903.82	209.90
904.12	209.93
904.43	209.93
904.73	209.88
905.03	210.12
905.34	212.21
905.64	211.98
905.95	212.02
906.25	211.93
906.56	212.12
906.86	212.10
907.17	211.95
907.47	212.00
907.77	211.76
908.08	211.50
908.38	211.57
908.69	211.83
908.99	212.10
909.30	212.31
909.60	212.38
909.90	212.64
910.21	212.07
910.51	212.02
910.81	211.95
911.12	211.95
911.42	211.83
911.73	209.71
912.03	209.88
912.33	210.45
912.64	210.45
912.94	210.17
913.24	209.86
913.55	209.74
913.85	209.71
914.15	210.17
914.46	210.36
914.76	210.36
915.06	210.12
915.37	209.71
915.67	209.86
915.97	209.83
916.27	209.26
916.58	209.45
916.88	209.24
917.18	209.40
917.49	211.12
917.79	210.98
918.09	211.40
918.39	211.90
918.70	211.67
919.00	211.86
919.30	213.02
919.60	212.93
919.91	212.64
920.21	212.69
920.51	212.33
920.81	212.05
921.12	212.17
921.42	212.31
921.72	212.79
922.02	212.64
922.32	213.10
922.63	213.50
922.93	214.55
923.23	214.71
923.53	214.29
923.83	212.81
924.13	213.14
924.44	212.88
924.74	213.31
925.04	213.67
925.34	213.71
925.64	212.86
925.94	213.05
926.24	214.38
926.55	214.21
926.85	214.57
927.15	214.64
927.45	214.81
927.75	214.57
928.05	214.45
928.35	214.45
928.65	214.62
928.95	214.62
929.26	213.93
929.56	214.19
929.86	214.69
930.16	214.40
930.46	214.07
930.76	214.17
931.06	213.12
931.36	212.67
931.66	212.90
931.96	212.95
932.26	213.05
932.56	212.10
932.86	212.33
933.16	212.14
933.46	212.02
933.76	211.55
934.06	212.17
934.36	212.76
934.66	212.55
934.96	212.10
935.26	212.12
935.56	212.26
935.86	211.71
936.16	211.26
936.46	211.17
936.76	211.10
937.06	210.79
937.36	211.14
937.66	211.21
937.96	211.02
938.26	210.71
938.56	210.48
938.86	210.67
939.16	210.98
939.46	211.17
939.76	211.43
940.06	211.67
940.35	211.10
940.65	210.21
940.95	210.60
941.25	210.40
941.55	210.21
941.85	209.83
942.15	210.67
942.45	211.26
942.75	211.36
943.04	211.60
943.34	212.05
943.64	211.86
943.94	211.57
944.24	211.79
944.54	211.98
944.84	212.17
945.13	211.88
945.43	211.55
945.73	211.43
946.03	211.24
946.33	210.88
946.62	210.86
946.92	210.79
947.22	210.83
947.52	210.71
947.82	210.98
948.11	210.83
948.41	210.19
948.71	209.62
949.01	209.69
949.31	209.71
949.60	209.50
949.90	209.71
950.20	209.64
950.50	209.50
950.79	209.48
951.09	209.67
951.39	209.76
951.69	209.43
951.98	209.95
952.28	210.12
952.58	210.31
952.87	210.38
953.17	210.86
953.47	210.55
953.76	210.83
954.06	210.48
954.36	210.43
954.66	210.40
954.95	211.05
955.25	210.95
955.55	210.93
955.84	211.02
956.14	211.14
956.44	211.29
956.73	210.71
957.03	210.64
957.32	210.55
957.62	210.45
957.92	210.95
958.21	210.52
958.51	213.02
958.81	213.05
959.10	213.24
959.40	213.36
959.69	213.55
959.99	213.69
960.29	213.67
960.58	213.76
960.88	214.43
961.17	214.14
961.47	214.48
961.76	214.21
962.06	214.40
962.36	214.21
962.65	214.38
962.95	214.64
963.24	214.29
963.54	214.38
963.83	214.38
964.13	214.55
964.42	214.10
964.72	212.31
965.01	212.40
965.31	212.19
965.60	211.67
965.90	213.05
966.19	212.40
966.49	212.60
966.78	212.45
967.08	212.36
967.37	212.43
967.67	212.10
967.96	212.62
968.26	212.50
968.55	212.86
968.85	212.74
969.14	212.62
969.43	213.19
969.73	213.21
970.02	213.10
970.32	212.69
970.61	212.71
970.91	212.12
971.20	211.67
971.49	211.45
971.79	211.86
972.08	210.31
972.38	210.79
972.67	210.48
972.96	210.88
973.26	210.45
973.55	210.88
973.85	210.95
974.14	210.71
974.43	210.90
974.73	210.29
975.02	210.14
975.31	210.43
975.61	210.36
975.90	210.02
976.19	209.69
976.49	209.69
976.78	209.76
977.07	209.64
977.37	210.05
977.66	210.38
977.95	210.12
978.24	210.29
978.54	210.71
978.83	210.81
979.12	210.50
979.42	210.52
979.71	210.10
980.00	209.79
980.29	209.88
980.59	209.43
980.88	210.26
981.17	210.02
981.46	210.05
981.76	209.74
982.05	210.55
982.34	211.00
982.63	211.24
982.93	211.60
983.22	212.21
983.51	212.38
983.80	212.67
984.09	212.93
984.39	212.88
984.68	212.71
984.97	212.81
985.26	212.62
985.55	212.83
985.85	212.55
986.14	213.00
986.43	213.19
986.72	212.98
987.01	212.07
987.30	212.26
987.59	211.83
987.89	212.17
988.18	211.43
988.47	211.10
988.76	210.86
989.05	210.50
989.34	210.12
989.63	210.45
989.92	210.17
990.22	209.88
990.51	209.76
990.80	209.50
991.09	209.69
991.38	209.86
991.67	209.62
991.96	209.50
992.25	209.69
992.54	209.24
992.83	209.52
993.12	209.71
993.41	210.05
993.70	211.12
993.99	211.45
994.28	211.74
994.58	212.19
994.87	212.07
995.16	211.93
995.45	211.74
995.74	210.88
996.03	210.90
996.32	211.26
996.61	211.79
996.90	211.74
997.19	211.67
997.48	211.69
997.77	211.62
998.06	211.60
998.34	211.29
998.63	211.33
998.92	211.38
999.21	211.57
999.50	211.71
999.79	211.05
1000.08	210.95
1000.37	211.19
1000.66	211.00
1000.95	211.52
1001.24	211.76
1001.53	212.17
1001.82	212.36
1002.11	212.00
1002.40	212.17
1002.68	212.52
1002.97	213.95
1003.26	213.79
1003.55	213.71
1003.84	213.67
1004.13	214.55
1004.42	214.31
1004.71	214.43
1004.99	214.19
1005.28	214.55
1005.57	214.38
1005.86	214.00
1006.15	213.76
1006.44	213.12
1006.72	213.19
1007.01	212.88
1007.30	212.76
1007.59	212.55
1007.88	212.45
1008.17	212.93
1008.45	212.55
1008.74	211.55
1009.03	210.50
1009.32	210.62
1009.60	210.76
1009.89	210.74
1010.18	209.81
1010.47	209.88
1010.76	209.76
1011.04	209.93
1011.33	210.60
1011.62	210.50
1011.91	210.71
1012.19	210.86
1012.48	210.86
1012.77	210.98
1013.05	211.88
1013.34	212.21
1013.63	212.07
1013.92	212.21
1014.20	211.74
1014.49	211.67
1014.78	212.02
1015.06	211.45
1015.35	211.38
1015.64	211.40
1015.92	211.81
1016.21	211.93
1016.50	211.79
1016.78	211.81
1017.07	211.71
1017.36	210.64
1017.64	210.55
1017.93	210.81
1018.22	210.24
1018.50	210.36
1018.79	210.26
1019.08	209.00
1019.36	208.90
1019.65	208.64
1019.93	209.12
1020.22	209.60
1020.51	210.81
1020.79	210.43
1021.08	201.50
1021.36	208.00
1021.65	211.50
1021.94	203.50
1022.22	211.50
1022.51	206.00
1022.79	219.00
1023.08	214.50
1023.36	237.00
1023.65	203.50
>>>>>End Processed Spectral Data<<<<<
