SpectraSuite Data File
++++++++++++++++++++++++++++++++++++
Date: Tue Apr 02 18:44:26 EDT 2013
User: group
Dark Spectrum Present: No
Reference Spectrum Present: No
Number of Sampled Component Spectra: 1
Spectrometers: USB2E7196
Integration Time (usec): 580000 (USB2E7196)
Spectra Averaged: 2 (USB2E7196)
Boxcar Smoothing: 10 (USB2E7196)
Correct for Electrical Dark: No (USB2E7196)
Strobe/Lamp Enabled: No (USB2E7196)
Correct for Detector Non-linearity: No (USB2E7196)
Correct for Stray Light: No (USB2E7196)
Number of Pixels in Processed Spectrum: 2048
>>>>>Begin Processed Spectral Data<<<<<
339.09	0.00
339.48	191.00
339.86	197.00
340.24	200.00
340.63	198.00
341.01	233.00
341.39	200.50
341.78	208.00
342.16	214.00
342.54	205.50
342.93	198.02
343.31	207.88
343.69	208.64
344.07	209.14
344.46	209.81
344.84	210.33
345.22	209.24
345.60	209.81
345.99	209.98
346.37	209.69
346.75	209.79
347.13	209.95
347.52	210.12
347.90	210.98
348.28	211.21
348.66	211.67
349.05	211.38
349.43	211.67
349.81	212.00
350.19	211.98
350.57	212.24
350.96	212.17
351.34	212.36
351.72	212.62
352.10	212.64
352.48	212.26
352.87	212.17
353.25	212.14
353.63	212.02
354.01	211.90
354.39	212.26
354.77	212.40
355.15	212.76
355.54	212.52
355.92	211.88
356.30	211.81
356.68	213.02
357.06	213.29
357.44	213.00
357.82	212.81
358.20	213.83
358.58	213.76
358.97	213.86
359.35	214.33
359.73	214.69
360.11	214.74
360.49	215.19
360.87	215.36
361.25	215.52
361.63	216.19
362.01	216.29
362.39	216.12
362.77	216.31
363.15	216.40
363.53	216.38
363.91	216.38
364.29	216.21
364.67	214.38
365.05	214.33
365.43	214.76
365.81	215.12
366.19	215.21
366.57	216.00
366.95	216.14
367.33	215.57
367.71	215.43
368.09	215.74
368.47	215.48
368.85	215.40
369.23	216.07
369.61	215.43
369.99	216.07
370.37	216.40
370.75	217.45
371.13	217.14
371.51	216.93
371.89	217.31
372.27	217.57
372.65	217.88
373.03	218.14
373.41	218.10
373.78	218.02
374.16	217.00
374.54	216.48
374.92	216.38
375.30	216.50
375.68	216.12
376.06	216.29
376.44	216.14
376.82	216.31
377.19	215.95
377.57	215.83
377.95	215.19
378.33	214.81
378.71	213.43
379.09	213.57
379.47	213.93
379.84	213.67
380.22	213.38
380.60	212.98
380.98	212.79
381.36	212.60
381.73	212.12
382.11	212.36
382.49	212.36
382.87	212.07
383.25	212.12
383.62	214.45
384.00	214.12
384.38	214.36
384.76	214.79
385.13	215.52
385.51	215.52
385.89	215.43
386.27	215.29
386.64	215.60
387.02	215.57
387.40	215.38
387.78	215.76
388.15	216.00
388.53	215.90
388.91	215.90
389.29	215.62
389.66	216.10
390.04	215.93
390.42	215.95
390.79	216.14
391.17	216.12
391.55	214.07
391.92	214.10
392.30	214.45
392.68	214.07
393.05	213.90
393.43	214.17
393.81	214.31
394.18	214.24
394.56	214.14
394.94	214.38
395.31	214.24
395.69	214.52
396.06	214.74
396.44	214.98
396.82	214.67
397.19	216.05
397.57	215.93
397.95	216.19
398.32	215.95
398.70	216.07
399.07	216.55
399.45	216.21
399.82	215.93
400.20	215.48
400.58	215.36
400.95	214.33
401.33	214.67
401.70	216.07
402.08	216.36
402.45	216.43
402.83	216.83
403.20	217.07
403.58	216.74
403.95	217.07
404.33	217.69
404.71	218.07
405.08	218.90
405.46	219.19
405.83	219.69
406.21	219.93
406.58	220.45
406.96	220.64
407.33	221.38
407.70	222.17
408.08	224.55
408.45	225.55
408.83	226.86
409.20	227.24
409.58	226.79
409.95	227.79
410.33	228.98
410.70	229.40
411.08	230.79
411.45	231.93
411.82	232.83
412.20	234.14
412.57	236.60
412.95	236.19
413.32	237.93
413.69	239.02
414.07	240.95
414.44	242.69
414.82	244.57
415.19	247.00
415.56	249.26
415.94	250.10
416.31	252.62
416.68	255.17
417.06	258.29
417.43	261.95
417.81	265.48
418.18	268.98
418.55	272.95
418.93	276.90
419.30	280.90
419.67	285.40
420.04	289.67
420.42	293.76
420.79	300.76
421.16	306.55
421.54	313.57
421.91	319.69
422.28	325.93
422.66	332.52
423.03	340.40
423.40	347.29
423.77	354.45
424.15	361.88
424.52	369.88
424.89	378.79
425.26	386.33
425.64	393.43
426.01	401.57
426.38	410.02
426.75	419.43
427.13	428.95
427.50	438.45
427.87	448.33
428.24	458.21
428.61	466.90
428.99	478.00
429.36	488.79
429.73	499.98
430.10	510.98
430.47	522.69
430.85	533.21
431.22	546.02
431.59	561.36
431.96	574.21
432.33	588.00
432.70	601.26
433.08	616.93
433.45	632.60
433.82	648.38
434.19	665.45
434.56	681.79
434.93	697.40
435.30	713.31
435.68	731.26
436.05	748.86
436.42	765.60
436.79	781.26
437.16	798.14
437.53	815.71
437.90	833.83
438.27	851.24
438.64	869.07
439.01	885.95
439.38	898.95
439.75	913.76
440.13	931.07
440.50	946.67
440.87	960.17
441.24	973.12
441.61	987.76
441.98	998.60
442.35	1011.26
442.72	1024.40
443.09	1037.90
443.46	1045.50
443.83	1050.52
444.20	1055.14
444.57	1061.02
444.94	1064.12
445.31	1068.33
445.68	1073.76
446.05	1075.57
446.42	1074.64
446.79	1073.74
447.16	1072.24
447.53	1070.81
447.90	1063.74
448.27	1057.52
448.64	1048.21
449.01	1042.48
449.37	1030.93
449.74	1019.88
450.11	1008.81
450.48	993.55
450.85	977.71
451.22	964.90
451.59	953.40
451.96	942.38
452.33	926.90
452.70	913.19
453.07	895.71
453.43	876.48
453.80	859.86
454.17	843.90
454.54	827.81
454.91	811.69
455.28	796.10
455.65	781.52
456.02	770.29
456.38	758.02
456.75	742.79
457.12	728.83
457.49	715.98
457.86	700.90
458.23	691.40
458.59	680.19
458.96	668.81
459.33	657.45
459.70	646.67
460.07	638.55
460.43	628.48
460.80	619.60
461.17	612.57
461.54	604.64
461.91	596.57
462.27	588.69
462.64	581.43
463.01	573.93
463.38	567.31
463.74	556.33
464.11	549.93
464.48	543.95
464.85	538.48
465.21	534.38
465.58	529.50
465.95	522.69
466.32	517.17
466.68	511.45
467.05	506.79
467.42	501.71
467.78	496.40
468.15	491.81
468.52	488.02
468.88	481.93
469.25	476.93
469.62	474.02
469.98	470.36
470.35	467.19
470.72	463.31
471.08	458.79
471.45	455.93
471.82	453.21
472.18	449.81
472.55	447.19
472.92	443.33
473.28	440.50
473.65	437.45
474.02	434.83
474.38	432.98
474.75	431.10
475.11	429.05
475.48	427.62
475.85	425.57
476.21	423.76
476.58	422.79
476.94	422.02
477.31	420.36
477.67	419.19
478.04	418.24
478.41	417.81
478.77	419.38
479.14	418.33
479.50	417.36
479.87	417.00
480.23	416.74
480.60	416.81
480.96	416.88
481.33	418.02
481.69	417.93
482.06	417.79
482.42	417.98
482.79	418.43
483.15	418.05
483.52	419.17
483.88	419.67
484.25	420.02
484.61	420.36
484.98	420.83
485.34	422.12
485.71	423.64
486.07	424.71
486.44	424.07
486.80	425.64
487.17	427.21
487.53	429.74
487.90	432.14
488.26	435.07
488.62	437.10
488.99	439.12
489.35	441.60
489.72	444.40
490.08	447.21
490.44	449.74
490.81	453.52
491.17	456.40
491.54	459.95
491.90	463.83
492.26	467.64
492.63	471.57
492.99	475.26
493.36	479.19
493.72	484.07
494.08	488.17
494.45	493.00
494.81	497.79
495.17	502.33
495.54	507.31
495.90	511.55
496.26	516.81
496.63	522.29
496.99	527.90
497.35	533.43
497.72	539.50
498.08	545.38
498.44	551.50
498.80	557.76
499.17	564.19
499.53	570.48
499.89	577.21
500.26	584.07
500.62	591.07
500.98	597.86
501.34	604.69
501.71	612.02
502.07	618.88
502.43	625.71
502.79	632.14
503.16	639.31
503.52	646.79
503.88	654.24
504.24	661.31
504.60	668.69
504.97	676.60
505.33	683.83
505.69	692.40
506.05	699.95
506.41	707.33
506.78	714.57
507.14	722.05
507.50	730.19
507.86	737.98
508.22	745.05
508.59	752.17
508.95	759.83
509.31	769.12
509.67	777.07
510.03	785.40
510.39	793.40
510.75	800.81
511.12	808.55
511.48	815.74
511.84	823.07
512.20	830.24
512.56	837.83
512.92	845.31
513.28	852.52
513.64	859.40
514.00	867.36
514.37	875.10
514.73	882.86
515.09	889.83
515.45	896.38
515.81	903.81
516.17	911.12
516.53	917.07
516.89	922.76
517.25	929.10
517.61	935.93
517.97	942.26
518.33	948.40
518.69	954.40
519.05	961.14
519.41	968.17
519.77	976.05
520.13	981.67
520.49	987.19
520.85	992.76
521.21	999.57
521.57	1005.57
521.93	1010.38
522.29	1015.95
522.65	1020.81
523.01	1026.83
523.37	1031.76
523.73	1036.55
524.09	1041.90
524.45	1045.90
524.81	1050.88
525.17	1054.98
525.53	1060.17
525.89	1065.24
526.25	1070.93
526.61	1074.62
526.97	1078.02
527.33	1081.69
527.68	1087.79
528.04	1092.57
528.40	1096.26
528.76	1099.83
529.12	1103.69
529.48	1108.26
529.84	1111.74
530.20	1116.48
530.56	1120.86
530.91	1125.21
531.27	1130.29
531.63	1134.71
531.99	1139.48
532.35	1142.52
532.71	1146.55
533.07	1150.90
533.42	1157.31
533.78	1161.05
534.14	1166.81
534.50	1171.74
534.86	1176.50
535.21	1178.40
535.57	1183.05
535.93	1187.67
536.29	1192.38
536.65	1196.38
537.00	1200.17
537.36	1203.76
537.72	1206.88
538.08	1209.76
538.44	1213.14
538.79	1215.74
539.15	1218.98
539.51	1222.00
539.87	1226.60
540.22	1229.57
540.58	1232.93
540.94	1234.26
541.29	1236.86
541.65	1237.86
542.01	1241.05
542.37	1242.62
542.72	1244.67
543.08	1245.81
543.44	1247.95
543.79	1248.90
544.15	1251.38
544.51	1254.79
544.87	1257.79
545.22	1260.98
545.58	1263.83
545.94	1266.21
546.29	1269.29
546.65	1271.76
547.01	1274.64
547.36	1277.24
547.72	1280.40
548.07	1282.21
548.43	1284.07
548.79	1285.81
549.14	1288.45
549.50	1290.90
549.86	1293.48
550.21	1296.93
550.57	1301.26
550.92	1303.86
551.28	1307.83
551.64	1310.29
551.99	1312.93
552.35	1315.52
552.70	1318.07
553.06	1322.00
553.41	1325.45
553.77	1329.88
554.13	1333.67
554.48	1337.88
554.84	1341.79
555.19	1345.26
555.55	1350.52
555.90	1354.71
556.26	1358.93
556.61	1362.29
556.97	1365.62
557.32	1369.71
557.68	1373.52
558.03	1376.24
558.39	1380.17
558.74	1383.43
559.10	1387.88
559.45	1392.14
559.81	1397.50
560.16	1401.10
560.52	1404.88
560.87	1409.64
561.23	1412.69
561.58	1418.71
561.94	1422.14
562.29	1426.31
562.64	1431.95
563.00	1435.83
563.35	1439.81
563.71	1444.48
564.06	1451.02
564.42	1455.71
564.77	1461.48
565.12	1468.07
565.48	1475.71
565.83	1482.12
566.19	1488.14
566.54	1493.36
566.89	1499.02
567.25	1504.67
567.60	1512.57
567.96	1521.00
568.31	1527.90
568.66	1534.12
569.02	1538.40
569.37	1544.36
569.72	1549.83
570.08	1553.90
570.43	1559.14
570.78	1565.31
571.14	1571.57
571.49	1577.19
571.84	1583.83
572.20	1589.24
572.55	1593.57
572.90	1597.24
573.26	1602.10
573.61	1607.50
573.96	1612.83
574.31	1616.90
574.67	1620.26
575.02	1623.69
575.37	1625.12
575.72	1626.88
576.08	1631.43
576.43	1635.29
576.78	1638.79
577.13	1642.38
577.49	1646.36
577.84	1651.31
578.19	1654.79
578.54	1658.52
578.90	1662.40
579.25	1664.71
579.60	1666.67
579.95	1669.19
580.30	1672.00
580.66	1675.29
581.01	1678.48
581.36	1681.52
581.71	1685.48
582.06	1689.95
582.42	1693.45
582.77	1696.40
583.12	1700.57
583.47	1703.83
583.82	1706.02
584.17	1708.64
584.53	1712.29
584.88	1715.67
585.23	1718.26
585.58	1721.55
585.93	1723.76
586.28	1725.64
586.63	1728.98
586.98	1732.67
587.34	1736.98
587.69	1739.45
588.04	1741.36
588.39	1743.07
588.74	1744.00
589.09	1746.24
589.44	1746.86
589.79	1749.10
590.14	1751.50
590.49	1753.62
590.84	1753.76
591.19	1756.02
591.54	1758.29
591.89	1759.81
592.25	1763.45
592.60	1763.69
592.95	1765.33
593.30	1767.55
593.65	1768.21
594.00	1767.71
594.35	1774.50
594.70	1774.45
595.05	1775.76
595.40	1776.86
595.75	1777.52
596.10	1779.38
596.45	1780.17
596.80	1782.12
597.15	1782.90
597.50	1782.93
597.85	1783.43
598.19	1784.05
598.54	1784.60
598.89	1784.57
599.24	1785.33
599.59	1783.69
599.94	1783.12
600.29	1782.48
600.64	1781.62
600.99	1782.60
601.34	1784.81
601.69	1778.60
602.04	1778.31
602.39	1777.93
602.74	1778.36
603.08	1777.60
603.43	1777.95
603.78	1777.50
604.13	1776.71
604.48	1774.43
604.83	1774.14
605.18	1774.36
605.53	1774.67
605.87	1773.36
606.22	1772.95
606.57	1771.05
606.92	1769.48
607.27	1769.88
607.62	1770.14
607.96	1770.14
608.31	1770.19
608.66	1768.71
609.01	1767.62
609.36	1767.21
609.70	1765.48
610.05	1762.64
610.40	1762.45
610.75	1759.83
611.10	1758.14
611.44	1755.55
611.79	1754.07
612.14	1751.31
612.49	1746.98
612.83	1743.02
613.18	1740.55
613.53	1738.02
613.88	1734.52
614.22	1731.40
614.57	1727.07
614.92	1722.43
615.27	1717.74
615.61	1712.19
615.96	1707.83
616.31	1704.29
616.65	1701.60
617.00	1698.86
617.35	1696.62
617.70	1693.24
618.04	1690.17
618.39	1685.48
618.74	1682.33
619.08	1679.29
619.43	1676.62
619.78	1674.17
620.12	1672.33
620.47	1668.81
620.82	1663.52
621.16	1660.02
621.51	1657.98
621.85	1654.79
622.20	1650.98
622.55	1647.86
622.89	1644.83
623.24	1642.29
623.59	1639.10
623.93	1634.14
624.28	1629.33
624.62	1626.98
624.97	1623.33
625.32	1618.88
625.66	1615.69
626.01	1610.98
626.35	1607.38
626.70	1602.81
627.04	1599.62
627.39	1594.50
627.73	1591.45
628.08	1588.95
628.43	1585.74
628.77	1580.64
629.12	1576.83
629.46	1573.52
629.81	1569.17
630.15	1565.07
630.50	1559.76
630.84	1554.79
631.19	1549.83
631.53	1545.55
631.88	1538.69
632.22	1532.71
632.57	1528.76
632.91	1523.83
633.26	1519.81
633.60	1513.48
633.95	1507.86
634.29	1502.12
634.64	1497.88
634.98	1491.57
635.32	1487.79
635.67	1484.07
636.01	1480.24
636.36	1474.50
636.70	1469.93
637.05	1464.90
637.39	1460.64
637.73	1455.98
638.08	1452.38
638.42	1446.86
638.77	1442.95
639.11	1438.62
639.45	1433.31
639.80	1427.93
640.14	1422.79
640.49	1417.50
640.83	1413.38
641.17	1409.83
641.52	1404.67
641.86	1399.69
642.20	1396.57
642.55	1390.38
642.89	1383.86
643.23	1377.67
643.58	1373.83
643.92	1367.71
644.26	1362.69
644.61	1357.00
644.95	1351.21
645.29	1344.50
645.64	1340.79
645.98	1335.12
646.32	1329.62
646.66	1323.86
647.01	1318.17
647.35	1312.52
647.69	1306.50
648.04	1300.57
648.38	1294.21
648.72	1288.17
649.06	1281.69
649.41	1275.19
649.75	1269.05
650.09	1263.40
650.43	1256.81
650.78	1249.74
651.12	1242.95
651.46	1236.40
651.80	1230.29
652.14	1224.26
652.49	1218.45
652.83	1211.33
653.17	1203.88
653.51	1196.76
653.85	1191.17
654.20	1184.57
654.54	1177.45
654.88	1171.29
655.22	1164.90
655.56	1158.07
655.90	1151.81
656.25	1145.83
656.59	1139.31
656.93	1132.60
657.27	1127.48
657.61	1121.00
657.95	1114.69
658.29	1109.43
658.64	1104.17
658.98	1096.76
659.32	1089.76
659.66	1083.38
660.00	1077.31
660.34	1071.24
660.68	1065.29
661.02	1059.02
661.36	1052.93
661.70	1047.24
662.05	1041.07
662.39	1035.36
662.73	1030.17
663.07	1024.90
663.41	1018.69
663.75	1011.90
664.09	1006.38
664.43	998.88
664.77	993.43
665.11	987.45
665.45	980.90
665.79	974.50
666.13	968.81
666.47	963.17
666.81	956.64
667.15	950.86
667.49	945.69
667.83	940.52
668.17	934.19
668.51	928.14
668.85	922.57
669.19	918.14
669.53	911.69
669.87	905.64
670.21	899.38
670.55	893.93
670.89	889.52
671.23	884.62
671.57	879.10
671.91	873.64
672.25	868.57
672.58	864.12
672.92	857.71
673.26	852.95
673.60	847.50
673.94	842.64
674.28	837.38
674.62	832.86
674.96	827.31
675.30	822.74
675.64	817.76
675.97	812.90
676.31	806.76
676.65	801.71
676.99	797.55
677.33	792.31
677.67	786.90
678.01	780.88
678.34	775.62
678.68	770.98
679.02	765.57
679.36	760.31
679.70	755.02
680.04	750.33
680.37	744.64
680.71	740.24
681.05	735.45
681.39	730.67
681.73	725.29
682.06	720.64
682.40	715.90
682.74	711.60
683.08	707.45
683.42	702.40
683.75	697.95
684.09	692.40
684.43	687.67
684.77	682.93
685.10	678.40
685.44	673.29
685.78	668.55
686.12	663.86
686.45	659.45
686.79	654.55
687.13	650.76
687.46	646.79
687.80	643.43
688.14	639.07
688.48	634.83
688.81	630.74
689.15	626.81
689.49	622.69
689.82	618.48
690.16	613.24
690.50	609.17
690.83	604.76
691.17	599.83
691.51	595.69
691.84	592.02
692.18	588.36
692.52	584.26
692.85	580.86
693.19	578.24
693.52	574.07
693.86	569.71
694.20	565.50
694.53	561.62
694.87	556.79
695.21	552.36
695.54	548.21
695.88	543.40
696.21	538.74
696.55	534.52
696.88	530.36
697.22	526.43
697.56	523.19
697.89	519.62
698.23	517.26
698.56	513.52
698.90	509.88
699.23	505.60
699.57	502.14
699.90	498.14
700.24	494.00
700.58	490.81
700.91	487.90
701.25	486.29
701.58	483.67
701.92	481.00
702.25	478.31
702.59	474.76
702.92	472.00
703.26	469.19
703.59	466.21
703.93	465.14
704.26	462.90
704.60	459.93
704.93	457.26
705.26	453.64
705.60	451.52
705.93	448.36
706.27	446.45
706.60	444.57
706.94	442.31
707.27	439.19
707.61	436.57
707.94	433.81
708.27	429.48
708.61	426.07
708.94	423.26
709.28	420.76
709.61	418.17
709.94	415.79
710.28	413.17
710.61	411.00
710.95	406.60
711.28	405.33
711.61	402.83
711.95	400.76
712.28	398.38
712.61	395.71
712.95	394.74
713.28	392.83
713.61	390.05
713.95	387.55
714.28	385.71
714.61	383.48
714.95	381.45
715.28	378.95
715.61	376.79
715.95	374.71
716.28	372.43
716.61	371.21
716.95	369.12
717.28	367.19
717.61	365.07
717.94	363.43
718.28	359.95
718.61	358.07
718.94	355.86
719.27	354.00
719.61	352.21
719.94	349.71
720.27	347.12
720.60	345.10
720.94	343.19
721.27	341.81
721.60	340.60
721.93	339.12
722.27	338.90
722.60	337.95
722.93	336.14
723.26	335.19
723.59	332.95
723.93	331.40
724.26	330.21
724.59	328.60
724.92	327.19
725.25	326.57
725.59	325.26
725.92	324.33
726.25	323.33
726.58	322.40
726.91	320.95
727.24	319.95
727.57	318.71
727.91	317.29
728.24	316.05
728.57	314.67
728.90	313.45
729.23	311.33
729.56	310.81
729.89	310.17
730.22	308.33
730.55	307.52
730.89	306.60
731.22	305.45
731.55	304.50
731.88	303.62
732.21	302.17
732.54	301.00
732.87	299.69
733.20	298.67
733.53	297.38
733.86	296.83
734.19	295.55
734.52	295.02
734.85	295.76
735.18	294.48
735.51	293.95
735.84	293.26
736.17	293.10
736.50	291.07
736.83	292.38
737.16	291.86
737.49	291.05
737.82	290.45
738.15	290.00
738.48	289.21
738.81	288.24
739.14	287.29
739.47	286.48
739.80	285.86
740.13	285.29
740.46	284.26
740.79	283.00
741.12	282.29
741.45	281.12
741.78	279.24
742.11	279.17
742.44	277.98
742.77	277.33
743.10	276.17
743.43	275.48
743.75	272.38
744.08	274.48
744.41	273.83
744.74	272.74
745.07	271.31
745.40	270.83
745.73	270.98
746.06	270.24
746.39	269.83
746.71	268.88
747.04	267.98
747.37	267.21
747.70	266.79
748.03	266.33
748.36	266.14
748.68	265.19
749.01	263.81
749.34	263.45
749.67	262.95
750.00	262.67
750.33	263.62
750.65	263.33
750.98	259.81
751.31	259.26
751.64	258.74
751.97	259.57
752.29	258.83
752.62	257.48
752.95	256.95
753.28	256.17
753.60	255.45
753.93	255.52
754.26	255.45
754.59	254.36
754.91	253.81
755.24	253.07
755.57	252.64
755.90	252.19
756.22	251.36
756.55	250.48
756.88	249.43
757.20	247.62
757.53	246.83
757.86	246.38
758.19	246.12
758.51	245.76
758.84	244.14
759.17	243.48
759.49	243.31
759.82	243.88
760.15	243.62
760.47	243.17
760.80	241.98
761.13	241.60
761.45	241.52
761.78	241.12
762.11	240.81
762.43	240.50
762.76	240.38
763.08	240.31
763.41	240.43
763.74	240.38
764.06	239.93
764.39	239.36
764.71	239.19
765.04	238.33
765.37	238.00
765.69	237.67
766.02	237.40
766.34	236.83
766.67	235.95
767.00	236.05
767.32	236.83
767.65	237.93
767.97	237.71
768.30	237.36
768.62	237.19
768.95	236.67
769.27	236.40
769.60	236.21
769.92	235.67
770.25	234.86
770.57	234.52
770.90	234.31
771.22	233.95
771.55	233.69
771.87	233.83
772.20	233.36
772.52	234.83
772.85	237.38
773.17	237.52
773.50	237.19
773.82	236.48
774.15	235.50
774.47	233.79
774.80	233.48
775.12	233.33
775.45	233.10
775.77	232.93
776.09	232.88
776.42	232.81
776.74	233.57
777.07	233.33
777.39	232.76
777.72	232.38
778.04	232.60
778.36	232.29
778.69	232.00
779.01	232.10
779.33	230.19
779.66	227.69
779.98	227.10
780.31	226.81
780.63	227.74
780.95	228.10
781.28	228.12
781.60	227.55
781.92	227.55
782.25	227.26
782.57	227.38
782.89	226.88
783.22	226.38
783.54	225.64
783.86	225.60
784.19	225.60
784.51	226.07
784.83	225.50
785.16	225.43
785.48	225.29
785.80	225.19
786.12	225.33
786.45	225.02
786.77	225.29
787.09	225.36
787.42	224.67
787.74	224.52
788.06	224.52
788.38	224.26
788.71	223.88
789.03	223.76
789.35	223.88
789.67	223.62
789.99	223.69
790.32	223.12
790.64	223.69
790.96	225.31
791.28	224.48
791.61	224.29
791.93	224.26
792.25	224.31
792.57	225.60
792.89	225.02
793.21	225.17
793.54	224.71
793.86	224.19
794.18	224.02
794.50	223.64
794.82	223.50
795.14	223.88
795.47	224.17
795.79	224.12
796.11	223.50
796.43	223.57
796.75	223.57
797.07	223.67
797.39	223.10
797.71	221.67
798.04	221.86
798.36	222.19
798.68	221.93
799.00	221.88
799.32	220.55
799.64	220.98
799.96	220.64
800.28	220.93
800.60	220.62
800.92	220.76
801.24	220.29
801.56	220.45
801.89	220.17
802.21	220.07
802.53	219.69
802.85	220.05
803.17	220.93
803.49	220.43
803.81	220.02
804.13	220.02
804.45	219.62
804.77	219.69
805.09	219.36
805.41	219.33
805.73	218.83
806.05	218.52
806.37	218.31
806.69	218.12
807.01	217.98
807.33	218.38
807.65	217.48
807.97	218.57
808.28	218.38
808.60	218.50
808.92	218.31
809.24	219.64
809.56	219.38
809.88	218.50
810.20	218.62
810.52	219.02
810.84	218.60
811.16	218.33
811.48	217.98
811.80	218.86
812.12	218.71
812.43	219.21
812.75	219.55
813.07	219.24
813.39	219.48
813.71	219.00
814.03	218.69
814.35	218.79
814.67	217.74
814.98	217.50
815.30	217.24
815.62	216.76
815.94	215.29
816.26	215.17
816.58	214.86
816.89	214.90
817.21	214.38
817.53	214.33
817.85	214.60
818.17	214.81
818.48	214.05
818.80	214.55
819.12	214.21
819.44	213.69
819.76	213.55
820.07	213.55
820.39	213.86
820.71	214.05
821.03	214.10
821.34	214.02
821.66	214.26
821.98	214.43
822.30	214.67
822.61	216.02
822.93	216.07
823.25	216.02
823.57	215.90
823.88	216.43
824.20	216.50
824.52	216.71
824.83	216.69
825.15	216.10
825.47	215.83
825.79	215.83
826.10	215.50
826.42	215.62
826.74	215.83
827.05	215.55
827.37	215.69
827.69	215.52
828.00	215.60
828.32	215.50
828.64	215.21
828.95	216.05
829.27	215.48
829.58	215.43
829.90	215.90
830.22	215.90
830.53	215.40
830.85	215.26
831.17	214.83
831.48	214.76
831.80	215.12
832.11	214.81
832.43	214.69
832.75	214.95
833.06	216.00
833.38	215.02
833.69	214.93
834.01	214.88
834.32	214.74
834.64	214.55
834.96	214.60
835.27	214.69
835.59	214.17
835.90	213.52
836.22	213.21
836.53	212.55
836.85	212.50
837.16	214.67
837.48	214.62
837.79	215.26
838.11	215.43
838.42	215.60
838.74	215.98
839.05	215.88
839.37	215.69
839.68	214.50
840.00	214.62
840.31	214.88
840.63	214.57
840.94	214.50
841.26	214.33
841.57	214.33
841.88	214.50
842.20	214.10
842.51	214.10
842.83	214.07
843.14	216.05
843.46	216.17
843.77	215.07
844.08	214.95
844.40	214.19
844.71	213.81
845.03	213.38
845.34	213.24
845.65	213.02
845.97	213.33
846.28	213.26
846.60	213.55
846.91	213.24
847.22	213.48
847.54	214.02
847.85	214.24
848.16	213.88
848.48	213.50
848.79	214.40
849.10	214.40
849.42	214.60
849.73	212.71
850.04	212.50
850.36	211.81
850.67	212.17
850.98	212.26
851.30	212.55
851.61	212.50
851.92	212.55
852.23	213.21
852.55	213.19
852.86	213.45
853.17	213.40
853.49	213.79
853.80	214.02
854.11	214.02
854.42	214.31
854.74	214.26
855.05	214.38
855.36	213.33
855.67	213.55
855.99	213.74
856.30	216.33
856.61	216.14
856.92	216.07
857.23	216.17
857.55	216.12
857.86	216.00
858.17	216.31
858.48	215.86
858.79	215.62
859.11	215.95
859.42	215.86
859.73	215.93
860.04	215.98
860.35	215.36
860.66	214.95
860.98	215.07
861.29	215.45
861.60	215.26
861.91	215.90
862.22	215.62
862.53	215.43
862.84	213.07
863.16	213.76
863.47	213.40
863.78	213.29
864.09	213.48
864.40	213.71
864.71	213.86
865.02	214.31
865.33	213.90
865.64	213.19
865.95	213.02
866.27	214.43
866.58	214.24
866.89	214.50
867.20	214.38
867.51	213.79
867.82	213.55
868.13	214.12
868.44	213.62
868.75	214.19
869.06	214.29
869.37	214.26
869.68	213.60
869.99	214.05
870.30	214.19
870.61	214.36
870.92	214.10
871.23	214.02
871.54	214.40
871.85	214.98
872.16	215.21
872.47	215.38
872.78	214.02
873.09	214.12
873.40	213.81
873.71	213.81
874.02	214.10
874.33	213.86
874.64	213.57
874.95	213.98
875.26	213.33
875.56	213.14
875.87	213.21
876.18	213.10
876.49	215.05
876.80	214.69
877.11	214.14
877.42	214.24
877.73	214.05
878.04	213.52
878.35	213.31
878.66	213.52
878.96	213.26
879.27	213.10
879.58	213.10
879.89	213.14
880.20	214.05
880.51	213.88
880.82	214.00
881.12	214.12
881.43	213.86
881.74	213.69
882.05	213.45
882.36	213.45
882.67	213.69
882.97	211.29
883.28	211.17
883.59	211.24
883.90	211.26
884.21	211.69
884.51	211.60
884.82	211.43
885.13	211.38
885.44	211.48
885.74	211.62
886.05	211.69
886.36	211.83
886.67	211.02
886.98	211.90
887.28	212.19
887.59	211.93
887.90	211.76
888.20	211.81
888.51	212.17
888.82	211.62
889.13	211.79
889.43	213.55
889.74	213.52
890.05	213.50
890.35	213.45
890.66	213.12
890.97	212.86
891.28	212.74
891.58	212.79
891.89	212.71
892.20	212.40
892.50	212.00
892.81	211.62
893.12	211.64
893.42	210.60
893.73	210.55
894.04	210.71
894.34	210.86
894.65	210.76
894.95	210.67
895.26	211.07
895.57	211.86
895.87	210.05
896.18	210.48
896.48	210.52
896.79	210.24
897.10	210.62
897.40	210.71
897.71	211.02
898.01	210.69
898.32	210.83
898.63	210.76
898.93	210.83
899.24	211.00
899.54	210.69
899.85	210.74
900.15	210.62
900.46	210.67
900.76	210.74
901.07	210.62
901.38	210.76
901.68	210.83
901.99	209.88
902.29	210.14
902.60	209.81
902.90	209.62
903.21	209.64
903.51	209.55
903.82	210.24
904.12	210.17
904.43	210.62
904.73	210.69
905.03	210.79
905.34	212.93
905.64	212.83
905.95	213.00
906.25	213.21
906.56	213.07
906.86	212.98
907.17	212.83
907.47	213.10
907.77	212.81
908.08	212.45
908.38	212.52
908.69	212.71
908.99	213.14
909.30	213.64
909.60	213.98
909.90	213.95
910.21	213.17
910.51	212.81
910.81	212.90
911.12	213.12
911.42	213.17
911.73	211.02
912.03	211.17
912.33	211.38
912.64	211.24
912.94	211.24
913.24	210.88
913.55	210.79
913.85	210.69
914.15	211.05
914.46	211.38
914.76	211.17
915.06	210.81
915.37	210.55
915.67	210.12
915.97	209.95
916.27	209.45
916.58	209.74
916.88	209.93
917.18	209.45
917.49	210.74
917.79	210.76
918.09	210.90
918.39	211.57
918.70	211.67
919.00	211.69
919.30	212.79
919.60	212.90
919.91	212.67
920.21	212.81
920.51	212.36
920.81	212.14
921.12	212.52
921.42	212.48
921.72	212.67
922.02	213.07
922.32	213.45
922.63	213.60
922.93	214.50
923.23	214.48
923.53	214.43
923.83	212.95
924.13	213.17
924.44	213.29
924.74	213.50
925.04	213.95
925.34	214.02
925.64	213.31
925.94	213.26
926.24	214.67
926.55	214.55
926.85	215.05
927.15	215.05
927.45	215.17
927.75	215.21
928.05	214.93
928.35	214.26
928.65	214.36
928.95	214.69
929.26	213.74
929.56	213.88
929.86	214.21
930.16	213.93
930.46	213.71
930.76	213.50
931.06	212.57
931.36	211.83
931.66	212.05
931.96	212.02
932.26	212.17
932.56	211.43
932.86	211.57
933.16	211.45
933.46	211.24
933.76	210.95
934.06	211.55
934.36	212.36
934.66	212.69
934.96	212.48
935.26	212.52
935.56	212.93
935.86	212.55
936.16	212.17
936.46	212.17
936.76	212.02
937.06	212.00
937.36	212.19
937.66	212.36
937.96	212.14
938.26	211.64
938.56	211.48
938.86	211.24
939.16	211.71
939.46	211.81
939.76	212.05
940.06	211.69
940.35	211.38
940.65	210.40
940.95	210.48
941.25	209.90
941.55	209.48
941.85	209.36
942.15	210.07
942.45	210.74
942.75	210.69
943.04	210.90
943.34	211.40
943.64	211.26
943.94	211.10
944.24	211.00
944.54	211.24
944.84	211.33
945.13	211.10
945.43	210.60
945.73	210.50
946.03	210.26
946.33	210.33
946.62	210.02
946.92	210.17
947.22	210.33
947.52	210.55
947.82	210.93
948.11	210.71
948.41	210.07
948.71	209.31
949.01	209.52
949.31	209.48
949.60	209.24
949.90	209.57
950.20	209.50
950.50	209.76
950.79	209.64
951.09	209.86
951.39	209.79
951.69	209.57
951.98	209.81
952.28	209.93
952.58	209.98
952.87	209.95
953.17	210.10
953.47	209.90
953.76	209.90
954.06	209.48
954.36	209.19
954.66	209.24
954.95	209.74
955.25	209.93
955.55	209.86
955.84	209.55
956.14	209.57
956.44	209.62
956.73	209.29
957.03	209.45
957.32	209.36
957.62	209.40
957.92	209.74
958.21	209.55
958.51	211.88
958.81	212.02
959.10	212.33
959.40	212.81
959.69	212.90
959.99	213.19
960.29	213.14
960.58	213.17
960.88	213.90
961.17	213.74
961.47	213.74
961.76	213.71
962.06	214.10
962.36	213.79
962.65	213.93
962.95	213.93
963.24	214.00
963.54	214.14
963.83	214.26
964.13	214.24
964.42	213.81
964.72	212.14
965.01	212.10
965.31	211.79
965.60	211.24
965.90	212.74
966.19	212.07
966.49	212.43
966.78	212.52
967.08	212.38
967.37	212.57
967.67	212.33
967.96	212.62
968.26	212.45
968.55	212.76
968.85	212.76
969.14	212.90
969.43	212.62
969.73	212.40
970.02	212.19
970.32	212.12
970.61	212.19
970.91	211.76
971.20	211.60
971.49	211.62
971.79	212.10
972.08	210.55
972.38	210.98
972.67	210.98
972.96	211.10
973.26	210.64
973.55	211.24
973.85	211.17
974.14	211.02
974.43	211.33
974.73	211.05
975.02	210.79
975.31	210.74
975.61	210.57
975.90	210.40
976.19	210.36
976.49	210.36
976.78	210.45
977.07	210.36
977.37	210.45
977.66	210.55
977.95	210.00
978.24	210.05
978.54	210.64
978.83	210.31
979.12	210.12
979.42	210.07
979.71	209.43
980.00	209.17
980.29	209.21
980.59	208.71
980.88	209.26
981.17	209.10
981.46	209.10
981.76	209.29
982.05	210.05
982.34	210.26
982.63	210.50
982.93	210.48
983.22	210.98
983.51	210.95
983.80	211.36
984.09	211.62
984.39	211.62
984.68	211.12
984.97	211.12
985.26	211.17
985.55	211.48
985.85	211.29
986.14	211.79
986.43	212.10
986.72	211.90
987.01	211.31
987.30	211.48
987.59	211.40
987.89	211.45
988.18	210.79
988.47	210.43
988.76	210.31
989.05	210.36
989.34	209.83
989.63	210.69
989.92	210.19
990.22	209.93
990.51	209.76
990.80	209.76
991.09	210.24
991.38	210.48
991.67	210.36
991.96	210.43
992.25	210.62
992.54	210.24
992.83	210.55
993.12	210.48
993.41	210.76
993.70	211.60
993.99	211.95
994.28	211.98
994.58	212.43
994.87	212.12
995.16	212.07
995.45	212.07
995.74	211.02
996.03	211.45
996.32	211.76
996.61	212.43
996.90	212.31
997.19	212.00
997.48	211.90
997.77	211.52
998.06	211.33
998.34	210.88
998.63	210.98
998.92	211.02
999.21	211.52
999.50	211.52
999.79	210.83
1000.08	210.71
1000.37	211.02
1000.66	210.79
1000.95	211.43
1001.24	211.19
1001.53	211.43
1001.82	211.57
1002.11	211.19
1002.40	211.38
1002.68	211.36
1002.97	212.93
1003.26	212.76
1003.55	212.64
1003.84	212.88
1004.13	213.57
1004.42	213.67
1004.71	213.38
1004.99	213.05
1005.28	213.38
1005.57	213.33
1005.86	213.14
1006.15	213.07
1006.44	212.79
1006.72	213.17
1007.01	212.74
1007.30	212.95
1007.59	212.71
1007.88	212.62
1008.17	212.71
1008.45	212.31
1008.74	211.76
1009.03	210.76
1009.32	210.60
1009.60	210.62
1009.89	210.48
1010.18	209.64
1010.47	209.62
1010.76	209.74
1011.04	209.71
1011.33	209.57
1011.62	209.67
1011.91	209.71
1012.19	209.86
1012.48	209.67
1012.77	209.43
1013.05	210.36
1013.34	210.38
1013.63	210.29
1013.92	210.55
1014.20	210.26
1014.49	210.31
1014.78	210.31
1015.06	209.55
1015.35	209.64
1015.64	209.88
1015.92	210.24
1016.21	210.50
1016.50	210.36
1016.78	210.88
1017.07	211.05
1017.36	210.57
1017.64	210.31
1017.93	210.57
1018.22	210.12
1018.50	210.29
1018.79	210.36
1019.08	209.12
1019.36	209.29
1019.65	209.29
1019.93	209.74
1020.22	209.98
1020.51	211.05
1020.79	210.76
1021.08	205.00
1021.36	207.50
1021.65	212.00
1021.94	204.00
1022.22	212.50
1022.51	207.00
1022.79	219.00
1023.08	209.50
1023.36	235.00
1023.65	202.00
>>>>>End Processed Spectral Data<<<<<
