SpectraSuite Data File
++++++++++++++++++++++++++++++++++++
Date: Tue Apr 02 18:37:29 EDT 2013
User: group
Dark Spectrum Present: No
Reference Spectrum Present: No
Number of Sampled Component Spectra: 1
Spectrometers: USB2E7196
Integration Time (usec): 580000 (USB2E7196)
Spectra Averaged: 2 (USB2E7196)
Boxcar Smoothing: 10 (USB2E7196)
Correct for Electrical Dark: No (USB2E7196)
Strobe/Lamp Enabled: No (USB2E7196)
Correct for Detector Non-linearity: No (USB2E7196)
Correct for Stray Light: No (USB2E7196)
Number of Pixels in Processed Spectrum: 2048
>>>>>Begin Processed Spectral Data<<<<<
339.09	0.00
339.48	195.50
339.86	195.50
340.24	199.50
340.63	201.00
341.01	235.00
341.39	203.00
341.78	206.50
342.16	215.50
342.54	203.50
342.93	199.36
343.31	209.26
343.69	210.00
344.07	210.76
344.46	211.48
344.84	212.00
345.22	210.57
345.60	210.95
345.99	211.24
346.37	210.95
346.75	211.38
347.13	211.50
347.52	211.55
347.90	212.24
348.28	212.33
348.66	212.76
349.05	211.90
349.43	212.21
349.81	212.43
350.19	212.57
350.57	213.00
350.96	213.45
351.34	213.79
351.72	213.83
352.10	213.76
352.48	213.67
352.87	213.40
353.25	213.83
353.63	213.79
354.01	213.88
354.39	214.29
354.77	214.10
355.15	214.69
355.54	214.52
355.92	214.12
356.30	213.90
356.68	215.10
357.06	215.33
357.44	215.19
357.82	215.10
358.20	215.81
358.58	215.24
358.97	215.17
359.35	215.48
359.73	215.88
360.11	215.86
360.49	216.10
360.87	216.21
361.25	216.31
361.63	217.07
362.01	217.05
362.39	216.55
362.77	216.76
363.15	216.36
363.53	216.31
363.91	216.17
364.29	216.45
364.67	214.48
365.05	214.60
365.43	214.95
365.81	215.24
366.19	215.38
366.57	216.33
366.95	216.43
367.33	215.83
367.71	215.76
368.09	216.19
368.47	215.95
368.85	215.83
369.23	216.24
369.61	215.26
369.99	215.71
370.37	216.19
370.75	217.12
371.13	216.67
371.51	216.67
371.89	217.00
372.27	216.93
372.65	217.24
373.03	217.29
373.41	216.81
373.78	216.64
374.16	215.43
374.54	214.88
374.92	214.50
375.30	214.71
375.68	214.24
376.06	214.26
376.44	214.12
376.82	214.38
377.19	214.02
377.57	214.29
377.95	213.64
378.33	213.45
378.71	212.17
379.09	212.62
379.47	212.71
379.84	212.17
380.22	211.98
380.60	211.60
380.98	211.21
381.36	211.24
381.73	210.90
382.11	211.36
382.49	211.57
382.87	211.50
383.25	211.55
383.62	213.86
384.00	213.50
384.38	213.62
384.76	214.24
385.13	215.29
385.51	215.21
385.89	215.14
386.27	215.17
386.64	215.83
387.02	215.57
387.40	215.48
387.78	215.93
388.15	216.24
388.53	216.19
388.91	216.40
389.29	216.57
389.66	217.05
390.04	216.88
390.42	217.00
390.79	217.10
391.17	216.86
391.55	214.79
391.92	214.86
392.30	214.98
392.68	214.31
393.05	213.86
393.43	213.98
393.81	213.95
394.18	213.83
394.56	213.69
394.94	214.45
395.31	214.19
395.69	214.95
396.06	215.21
396.44	215.48
396.82	215.50
397.19	216.64
397.57	216.40
397.95	216.62
398.32	216.19
398.70	216.50
399.07	217.05
399.45	216.81
399.82	216.79
400.20	216.67
400.58	216.69
400.95	216.05
401.33	216.62
401.70	218.40
402.08	218.40
402.45	218.43
402.83	218.62
403.20	219.02
403.58	218.64
403.95	219.19
404.33	219.69
404.71	220.14
405.08	220.95
405.46	221.29
405.83	222.00
406.21	222.43
406.58	222.76
406.96	223.21
407.33	224.19
407.70	225.02
408.08	227.40
408.45	228.60
408.83	229.74
409.20	230.19
409.58	229.48
409.95	230.93
410.33	232.33
410.70	232.83
411.08	234.24
411.45	235.48
411.82	236.21
412.20	237.93
412.57	240.36
412.95	240.33
413.32	242.33
413.69	243.52
414.07	245.69
414.44	247.90
414.82	249.90
415.19	252.33
415.56	254.79
415.94	256.36
416.31	259.45
416.68	262.93
417.06	266.50
417.43	270.93
417.81	274.83
418.18	278.71
418.55	283.17
418.93	288.02
419.30	293.00
419.67	298.40
420.04	303.55
420.42	308.67
420.79	316.86
421.16	323.14
421.54	331.62
421.91	338.57
422.28	345.71
422.66	353.48
423.03	362.48
423.40	370.62
423.77	378.98
424.15	387.31
424.52	395.95
424.89	406.36
425.26	415.45
425.64	424.29
426.01	433.98
426.38	444.40
426.75	455.17
427.13	466.05
427.50	477.24
427.87	489.00
428.24	501.02
428.61	511.05
428.99	524.90
429.36	537.74
429.73	551.12
430.10	564.62
430.47	578.74
430.85	591.88
431.22	606.74
431.59	624.19
431.96	639.52
432.33	657.02
432.70	672.57
433.08	691.43
433.45	709.29
433.82	727.95
434.19	748.17
434.56	768.48
434.93	787.93
435.30	807.07
435.68	827.93
436.05	848.36
436.42	869.36
436.79	888.38
437.16	909.19
437.53	931.19
437.90	953.21
438.27	974.50
438.64	996.29
439.01	1017.12
439.38	1034.48
439.75	1052.40
440.13	1072.02
440.50	1091.64
440.87	1107.60
441.24	1124.71
441.61	1142.45
441.98	1156.45
442.35	1171.10
442.72	1186.67
443.09	1203.17
443.46	1212.90
443.83	1219.64
444.20	1225.10
444.57	1232.17
444.94	1235.19
445.31	1239.62
445.68	1245.36
446.05	1248.17
446.42	1246.74
446.79	1244.90
447.16	1243.12
447.53	1242.12
447.90	1234.81
448.27	1227.07
448.64	1217.19
449.01	1210.05
449.37	1197.05
449.74	1183.64
450.11	1170.24
450.48	1152.14
450.85	1133.10
451.22	1117.98
451.59	1103.88
451.96	1090.29
452.33	1071.98
452.70	1055.95
453.07	1035.48
453.43	1012.88
453.80	992.40
454.17	974.07
454.54	955.98
454.91	936.33
455.28	917.12
455.65	899.71
456.02	885.55
456.38	869.98
456.75	851.05
457.12	835.29
457.49	819.57
457.86	802.43
458.23	790.86
458.59	777.12
458.96	762.64
459.33	749.69
459.70	737.36
460.07	727.43
460.43	715.71
460.80	705.21
461.17	696.88
461.54	687.29
461.91	677.17
462.27	667.45
462.64	658.62
463.01	649.83
463.38	641.45
463.74	629.74
464.11	622.21
464.48	615.45
464.85	607.43
465.21	601.98
465.58	596.43
465.95	588.14
466.32	582.17
466.68	576.05
467.05	570.29
467.42	563.93
467.78	557.00
468.15	550.69
468.52	546.19
468.88	539.21
469.25	533.71
469.62	529.93
469.98	525.57
470.35	521.52
470.72	517.21
471.08	512.00
471.45	508.57
471.82	505.17
472.18	501.12
472.55	498.71
472.92	494.60
473.28	490.90
473.65	487.74
474.02	484.90
474.38	483.24
474.75	480.95
475.11	478.60
475.48	477.31
475.85	475.81
476.21	473.71
476.58	472.12
476.94	470.93
477.31	469.19
477.67	467.57
478.04	466.17
478.41	465.57
478.77	466.95
479.14	465.60
479.50	464.95
479.87	464.55
480.23	464.05
480.60	463.98
480.96	463.52
481.33	464.79
481.69	464.43
482.06	464.38
482.42	464.79
482.79	465.21
483.15	465.76
483.52	466.79
483.88	467.40
484.25	468.64
484.61	469.67
484.98	471.10
485.34	473.57
485.71	475.67
486.07	477.45
486.44	477.79
486.80	480.14
487.17	481.81
487.53	485.05
487.90	487.88
488.26	491.64
488.62	495.55
488.99	498.14
489.35	502.14
489.72	505.21
490.08	508.79
490.44	512.81
490.81	517.12
491.17	521.36
491.54	526.07
491.90	530.95
492.26	535.43
492.63	540.74
492.99	545.45
493.36	551.36
493.72	557.00
494.08	562.48
494.45	568.62
494.81	575.24
495.17	581.05
495.54	587.57
495.90	593.55
496.26	599.62
496.63	606.64
496.99	613.21
497.35	621.43
497.72	629.07
498.08	636.55
498.44	644.07
498.80	652.36
499.17	660.38
499.53	668.90
499.89	677.95
500.26	686.52
500.62	695.14
500.98	703.88
501.34	712.79
501.71	722.43
502.07	731.57
502.43	740.93
502.79	750.12
503.16	759.67
503.52	769.48
503.88	779.33
504.24	789.45
504.60	799.55
504.97	809.38
505.33	819.64
505.69	830.79
506.05	841.29
506.41	851.26
506.78	860.90
507.14	870.69
507.50	881.45
507.86	891.98
508.22	902.67
508.59	912.26
508.95	923.38
509.31	934.93
509.67	945.45
510.03	956.00
510.39	966.48
510.75	976.62
511.12	986.17
511.48	996.95
511.84	1006.81
512.20	1016.67
512.56	1026.50
512.92	1035.48
513.28	1044.83
513.64	1054.48
514.00	1064.38
514.37	1075.50
514.73	1085.33
515.09	1094.55
515.45	1103.50
515.81	1112.69
516.17	1121.79
516.53	1129.95
516.89	1137.69
517.25	1145.81
517.61	1154.88
517.97	1163.00
518.33	1170.74
518.69	1180.02
519.05	1187.62
519.41	1195.81
519.77	1205.40
520.13	1213.21
520.49	1220.98
520.85	1227.86
521.21	1235.50
521.57	1242.38
521.93	1248.21
522.29	1255.12
522.65	1260.52
523.01	1267.29
523.37	1273.19
523.73	1279.71
524.09	1286.14
524.45	1291.52
524.81	1297.21
525.17	1301.81
525.53	1306.88
525.89	1312.55
526.25	1317.50
526.61	1322.07
526.97	1326.52
527.33	1330.45
527.68	1336.14
528.04	1341.00
528.40	1345.31
528.76	1349.50
529.12	1354.14
529.48	1359.26
529.84	1362.33
530.20	1367.67
530.56	1370.67
530.91	1374.86
531.27	1378.26
531.63	1381.31
531.99	1384.40
532.35	1387.45
532.71	1391.29
533.07	1395.95
533.42	1401.52
533.78	1404.95
534.14	1408.74
534.50	1411.83
534.86	1415.00
535.21	1416.62
535.57	1419.86
535.93	1422.86
536.29	1426.05
536.65	1428.24
537.00	1429.81
537.36	1433.12
537.72	1434.98
538.08	1437.90
538.44	1439.86
538.79	1442.52
539.15	1444.19
539.51	1446.79
539.87	1449.48
540.22	1451.07
540.58	1452.64
540.94	1452.64
541.29	1453.67
541.65	1453.64
542.01	1454.43
542.37	1455.29
542.72	1455.19
543.08	1454.98
543.44	1454.81
543.79	1453.64
544.15	1454.29
544.51	1454.45
544.87	1454.83
545.22	1454.67
545.58	1454.19
545.94	1453.55
546.29	1452.71
546.65	1452.24
547.01	1451.31
547.36	1450.38
547.72	1448.98
548.07	1447.17
548.43	1445.07
548.79	1443.81
549.14	1442.95
549.50	1442.10
549.86	1439.26
550.21	1438.67
550.57	1438.40
550.92	1437.12
551.28	1436.00
551.64	1434.83
551.99	1434.60
552.35	1432.48
552.70	1430.10
553.06	1428.83
553.41	1427.31
553.77	1427.19
554.13	1425.98
554.48	1425.79
554.84	1425.33
555.19	1424.43
555.55	1424.79
555.90	1423.93
556.26	1422.48
556.61	1421.64
556.97	1419.43
557.32	1418.64
557.68	1416.43
558.03	1413.88
558.39	1412.38
558.74	1411.17
559.10	1409.90
559.45	1407.33
559.81	1405.86
560.16	1405.40
560.52	1403.07
560.87	1402.57
561.23	1399.24
561.58	1399.31
561.94	1396.21
562.29	1393.79
562.64	1391.93
563.00	1388.98
563.35	1387.10
563.71	1385.74
564.06	1384.14
564.42	1383.48
564.77	1382.12
565.12	1381.88
565.48	1382.48
565.83	1382.19
566.19	1381.71
566.54	1379.45
566.89	1378.19
567.25	1377.24
567.60	1377.43
567.96	1378.50
568.31	1377.24
568.66	1376.79
569.02	1373.36
569.37	1371.74
569.72	1370.52
570.08	1368.50
570.43	1366.19
570.78	1364.31
571.14	1362.79
571.49	1360.74
571.84	1358.81
572.20	1356.50
572.55	1354.26
572.90	1349.40
573.26	1345.98
573.61	1343.31
573.96	1340.62
574.31	1337.79
574.67	1333.95
575.02	1329.40
575.37	1324.95
575.72	1320.40
576.08	1317.14
576.43	1314.24
576.78	1310.88
577.13	1306.24
577.49	1302.98
577.84	1299.50
578.19	1296.02
578.54	1291.98
578.90	1288.36
579.25	1284.45
579.60	1281.05
579.95	1276.67
580.30	1273.90
580.66	1271.31
581.01	1266.40
581.36	1261.88
581.71	1257.71
582.06	1255.76
582.42	1251.64
582.77	1246.83
583.12	1242.86
583.47	1238.57
583.82	1234.62
584.17	1231.36
584.53	1228.90
584.88	1225.02
585.23	1222.26
585.58	1217.67
585.93	1213.50
586.28	1209.69
586.63	1206.55
586.98	1202.05
587.34	1198.69
587.69	1193.86
588.04	1188.74
588.39	1184.86
588.74	1179.81
589.09	1176.00
589.44	1169.43
589.79	1164.95
590.14	1161.12
590.49	1157.24
590.84	1151.74
591.19	1146.98
591.54	1142.02
591.89	1136.71
592.25	1133.62
592.60	1128.19
592.95	1124.45
593.30	1120.12
593.65	1114.52
594.00	1108.55
594.35	1110.10
594.70	1104.26
595.05	1100.45
595.40	1095.71
595.75	1091.50
596.10	1088.86
596.45	1084.45
596.80	1080.43
597.15	1076.21
597.50	1071.45
597.85	1067.45
598.19	1063.98
598.54	1059.93
598.89	1055.93
599.24	1052.07
599.59	1046.71
599.94	1042.36
600.29	1037.67
600.64	1033.45
600.99	1030.14
601.34	1026.74
601.69	1016.64
602.04	1011.93
602.39	1006.95
602.74	1003.48
603.08	999.00
603.43	994.88
603.78	990.40
604.13	985.43
604.48	980.62
604.83	976.36
605.18	971.55
605.53	967.07
605.87	962.79
606.22	957.95
606.57	952.60
606.92	948.12
607.27	943.55
607.62	939.48
607.96	934.60
608.31	930.36
608.66	925.79
609.01	921.29
609.36	918.19
609.70	914.83
610.05	909.48
610.40	904.79
610.75	899.62
611.10	895.29
611.44	891.98
611.79	887.74
612.14	883.38
612.49	877.69
612.83	873.05
613.18	868.40
613.53	863.98
613.88	859.64
614.22	854.83
614.57	849.98
614.92	844.83
615.27	840.55
615.61	835.45
615.96	830.60
616.31	826.17
616.65	822.50
617.00	817.38
617.35	813.43
617.70	809.07
618.04	804.64
618.39	799.64
618.74	795.05
619.08	790.71
619.43	786.95
619.78	783.50
620.12	779.60
620.47	775.74
620.82	771.62
621.16	767.45
621.51	764.48
621.85	760.36
622.20	757.29
622.55	753.31
622.89	749.95
623.24	746.48
623.59	742.76
623.93	738.62
624.28	735.67
624.62	734.26
624.97	732.02
625.32	728.50
625.66	725.50
626.01	721.79
626.35	718.90
626.70	715.33
627.04	712.17
627.39	709.29
627.73	706.29
628.08	703.05
628.43	699.40
628.77	694.95
629.12	692.17
629.46	688.86
629.81	685.31
630.15	681.55
630.50	677.62
630.84	673.48
631.19	669.67
631.53	665.67
631.88	659.45
632.22	654.86
632.57	651.98
632.91	648.07
633.26	644.86
633.60	640.60
633.95	636.64
634.29	633.29
634.64	629.81
634.98	625.69
635.32	622.81
635.67	620.26
636.01	616.83
636.36	613.17
636.70	610.38
637.05	607.31
637.39	604.05
637.73	601.52
638.08	600.07
638.42	596.79
638.77	594.64
639.11	592.12
639.45	588.64
639.80	585.07
640.14	582.14
640.49	579.00
640.83	576.12
641.17	573.62
641.52	570.74
641.86	567.36
642.20	565.45
642.55	561.50
642.89	558.36
643.23	555.76
643.58	553.67
643.92	549.69
644.26	546.83
644.61	544.02
644.95	540.64
645.29	536.67
645.64	534.31
645.98	530.43
646.32	527.76
646.66	524.93
647.01	522.19
647.35	519.79
647.69	517.19
648.04	514.50
648.38	511.62
648.72	508.93
649.06	506.17
649.41	502.57
649.75	500.57
650.09	498.10
650.43	495.36
650.78	492.02
651.12	489.38
651.46	486.74
651.80	484.48
652.14	481.69
652.49	479.76
652.83	476.86
653.17	474.07
653.51	471.07
653.85	468.88
654.20	466.60
654.54	463.98
654.88	461.26
655.22	459.88
655.56	457.10
655.90	454.60
656.25	452.29
656.59	450.00
656.93	447.57
657.27	445.81
657.61	443.29
657.95	441.67
658.29	439.69
658.64	437.62
658.98	435.14
659.32	433.19
659.66	430.79
660.00	428.83
660.34	427.48
660.68	425.50
661.02	423.40
661.36	421.05
661.70	419.00
662.05	417.24
662.39	414.86
662.73	413.67
663.07	412.83
663.41	411.14
663.75	408.88
664.09	406.98
664.43	404.45
664.77	403.02
665.11	400.76
665.45	398.79
665.79	397.62
666.13	395.64
666.47	394.00
666.81	392.21
667.15	390.29
667.49	388.55
667.83	387.45
668.17	385.90
668.51	384.31
668.85	383.17
669.19	382.33
669.53	380.36
669.87	378.50
670.21	376.19
670.55	374.83
670.89	374.74
671.23	373.29
671.57	371.74
671.91	370.43
672.25	369.48
672.58	369.02
672.92	366.83
673.26	365.98
673.60	364.95
673.94	363.93
674.28	362.93
674.62	361.71
674.96	360.29
675.30	359.05
675.64	357.76
675.97	356.50
676.31	354.64
676.65	353.19
676.99	352.74
677.33	351.31
677.67	349.90
678.01	347.62
678.34	346.43
678.68	345.64
679.02	344.24
679.36	342.76
679.70	340.64
680.04	339.57
680.37	338.33
680.71	336.67
681.05	335.29
681.39	333.95
681.73	332.38
682.06	331.17
682.40	329.90
682.74	329.10
683.08	328.62
683.42	327.48
683.75	326.86
684.09	325.02
684.43	324.12
684.77	323.00
685.10	321.95
685.44	321.05
685.78	319.95
686.12	318.81
686.45	317.86
686.79	316.93
687.13	316.36
687.46	315.17
687.80	314.93
688.14	313.64
688.48	312.90
688.81	312.21
689.15	311.81
689.49	310.52
689.82	309.52
690.16	307.45
690.50	306.43
690.83	305.24
691.17	304.19
691.51	303.10
691.84	302.55
692.18	301.81
692.52	300.79
692.85	299.83
693.19	299.76
693.52	298.52
693.86	297.86
694.20	296.86
694.53	296.19
694.87	294.98
695.21	294.12
695.54	293.17
695.88	292.00
696.21	290.33
696.55	289.69
696.88	289.21
697.22	288.55
697.56	288.14
697.89	287.17
698.23	286.81
698.56	285.86
698.90	284.88
699.23	283.76
699.57	283.50
699.90	282.83
700.24	281.43
700.58	280.90
700.91	280.52
701.25	281.10
701.58	281.05
701.92	280.86
702.25	280.29
702.59	279.62
702.92	279.21
703.26	279.02
703.59	278.86
703.93	279.45
704.26	279.05
704.60	278.48
704.93	278.00
705.26	276.74
705.60	276.64
705.93	275.76
706.27	275.69
706.60	275.10
706.94	275.29
707.27	274.64
707.61	274.14
707.94	273.19
708.27	271.50
708.61	270.17
708.94	269.21
709.28	269.14
709.61	268.50
709.94	267.98
710.28	267.17
710.61	266.50
710.95	264.21
711.28	264.95
711.61	264.21
711.95	264.38
712.28	263.71
712.61	263.07
712.95	263.81
713.28	264.17
713.61	263.19
713.95	262.19
714.28	261.79
714.61	261.21
714.95	260.50
715.28	259.33
715.61	258.95
715.95	258.60
716.28	257.43
716.61	257.19
716.95	256.40
717.28	256.24
717.61	255.43
717.94	255.02
718.28	253.12
718.61	252.60
718.94	251.57
719.27	251.33
719.61	251.02
719.94	249.86
720.27	248.40
720.60	248.00
720.94	247.43
721.27	247.21
721.60	247.21
721.93	247.05
722.27	247.64
722.60	247.55
722.93	247.12
723.26	246.76
723.59	245.95
723.93	246.17
724.26	245.86
724.59	245.50
724.92	245.31
725.25	245.93
725.59	245.88
725.92	245.86
726.25	245.57
726.58	245.29
726.91	244.79
727.24	245.00
727.57	244.81
727.91	244.19
728.24	243.98
728.57	243.29
728.90	243.17
729.23	242.21
729.56	242.71
729.89	242.19
730.22	242.26
730.55	242.05
730.89	241.86
731.22	241.26
731.55	241.12
731.88	240.83
732.21	239.74
732.54	239.02
732.87	238.74
733.20	238.67
733.53	238.60
733.86	238.60
734.19	237.93
734.52	237.98
734.85	239.05
735.18	238.74
735.51	239.26
735.84	239.29
736.17	239.88
736.50	238.55
736.83	240.86
737.16	240.71
737.49	240.76
737.82	240.19
738.15	240.48
738.48	240.29
738.81	240.10
739.14	239.86
739.47	239.71
739.80	239.26
740.13	239.38
740.46	238.79
740.79	238.36
741.12	238.02
741.45	237.33
741.78	236.02
742.11	236.21
742.44	235.38
742.77	235.36
743.10	234.74
743.43	234.36
743.75	232.07
744.08	234.38
744.41	233.88
744.74	233.74
745.07	233.10
745.40	233.40
745.73	234.31
746.06	234.29
746.39	234.31
746.71	234.10
747.04	233.45
747.37	233.29
747.70	233.62
748.03	233.88
748.36	233.98
748.68	233.95
749.01	233.31
749.34	233.40
749.67	233.07
750.00	233.07
750.33	234.71
750.65	234.74
750.98	232.14
751.31	232.24
751.64	232.24
751.97	233.02
752.29	232.62
752.62	231.36
752.95	231.10
753.28	230.76
753.60	230.57
753.93	231.17
754.26	231.00
754.59	230.05
754.91	229.38
755.24	229.14
755.57	228.95
755.90	228.62
756.22	228.21
756.55	227.81
756.88	227.40
757.20	226.00
757.53	225.21
757.86	224.90
758.19	224.81
758.51	224.55
758.84	223.60
759.17	223.29
759.49	223.21
759.82	224.14
760.15	224.36
760.47	224.26
760.80	223.52
761.13	223.88
761.45	223.76
761.78	223.88
762.11	224.07
762.43	224.00
762.76	224.00
763.08	224.12
763.41	224.05
763.74	224.02
764.06	223.67
764.39	223.69
764.71	223.45
765.04	223.21
765.37	223.07
765.69	223.02
766.02	222.74
766.34	222.62
766.67	221.60
767.00	221.76
767.32	222.74
767.65	223.95
767.97	223.50
768.30	223.67
768.62	223.52
768.95	223.10
769.27	223.05
769.60	223.21
769.92	222.69
770.25	222.31
770.57	222.02
770.90	222.02
771.22	221.71
771.55	221.93
771.87	221.93
772.20	221.74
772.52	223.48
772.85	226.02
773.17	225.90
773.50	225.83
773.82	225.48
774.15	224.19
774.47	222.62
774.80	222.31
775.12	222.19
775.45	222.00
775.77	221.93
776.09	221.93
776.42	222.00
776.74	222.67
777.07	222.76
777.39	222.64
777.72	222.29
778.04	222.57
778.36	222.21
778.69	222.21
779.01	222.33
779.33	220.21
779.66	218.12
779.98	218.07
780.31	218.21
780.63	219.07
780.95	219.69
781.28	219.88
781.60	219.71
781.92	219.36
782.25	219.48
782.57	219.69
782.89	219.19
783.22	218.79
783.54	218.31
783.86	218.38
784.19	218.05
784.51	218.69
784.83	218.38
785.16	218.36
785.48	218.60
785.80	218.57
786.12	218.90
786.45	218.55
786.77	218.64
787.09	218.40
787.42	217.62
787.74	217.62
788.06	217.67
788.38	217.62
788.71	217.74
789.03	217.71
789.35	217.64
789.67	217.62
789.99	217.76
790.32	217.50
790.64	217.69
790.96	219.57
791.28	218.67
791.61	218.71
791.93	218.88
792.25	218.40
792.57	219.64
792.89	219.10
793.21	219.36
793.54	219.17
793.86	219.00
794.18	219.07
794.50	218.52
794.82	218.31
795.14	218.88
795.47	219.26
795.79	219.48
796.11	219.26
796.43	219.05
796.75	219.05
797.07	219.29
797.39	219.19
797.71	217.64
798.04	217.93
798.36	217.98
798.68	217.81
799.00	218.14
799.32	217.10
799.64	217.67
799.96	217.62
800.28	217.98
800.60	217.76
800.92	217.90
801.24	217.71
801.56	217.88
801.89	217.50
802.21	217.76
802.53	217.21
802.85	217.52
803.17	218.67
803.49	218.33
803.81	218.21
804.13	218.00
804.45	218.02
804.77	218.29
805.09	218.26
805.41	218.05
805.73	217.52
806.05	217.02
806.37	216.83
806.69	216.50
807.01	216.21
807.33	216.45
807.65	215.81
807.97	216.83
808.28	216.57
808.60	216.62
808.92	216.10
809.24	217.40
809.56	217.05
809.88	216.38
810.20	216.38
810.52	216.62
810.84	216.29
811.16	215.79
811.48	215.64
811.80	216.36
812.12	216.26
812.43	216.55
812.75	216.88
813.07	216.60
813.39	216.67
813.71	216.62
814.03	216.36
814.35	216.52
814.67	215.50
814.98	215.45
815.30	215.29
815.62	215.17
815.94	213.81
816.26	213.95
816.58	213.31
816.89	213.43
817.21	213.12
817.53	213.29
817.85	213.62
818.17	213.74
818.48	212.88
818.80	213.67
819.12	213.48
819.44	213.10
819.76	212.98
820.07	213.02
820.39	213.14
820.71	213.29
821.03	213.14
821.34	213.21
821.66	213.52
821.98	213.90
822.30	213.76
822.61	215.05
822.93	214.95
823.25	215.02
823.57	214.83
823.88	215.24
824.20	215.24
824.52	215.43
824.83	215.12
825.15	214.93
825.47	214.48
825.79	214.71
826.10	214.64
826.42	214.62
826.74	215.02
827.05	214.62
827.37	214.81
827.69	214.74
828.00	215.00
828.32	215.05
828.64	214.64
828.95	215.86
829.27	215.31
829.58	215.55
829.90	216.05
830.22	216.38
830.53	215.83
830.85	215.52
831.17	215.05
831.48	215.10
831.80	215.33
832.11	214.98
832.43	214.79
832.75	214.86
833.06	216.19
833.38	215.40
833.69	215.31
834.01	215.45
834.32	215.21
834.64	214.74
834.96	214.60
835.27	214.50
835.59	213.64
835.90	213.05
836.22	212.79
836.53	212.40
836.85	212.26
837.16	214.26
837.48	214.45
837.79	215.17
838.11	215.17
838.42	215.26
838.74	215.81
839.05	215.55
839.37	215.36
839.68	213.98
840.00	213.76
840.31	214.21
840.63	213.81
840.94	213.69
841.26	213.67
841.57	213.67
841.88	213.83
842.20	213.57
842.51	213.52
842.83	213.45
843.14	215.29
843.46	215.29
843.77	214.05
844.08	214.00
844.40	213.29
844.71	213.24
845.03	212.88
845.34	212.67
845.65	212.71
845.97	212.74
846.28	212.88
846.60	213.26
846.91	213.05
847.22	213.10
847.54	213.62
847.85	213.95
848.16	214.00
848.48	213.88
848.79	214.74
849.10	215.21
849.42	215.36
849.73	213.45
850.04	213.17
850.36	212.64
850.67	213.07
850.98	213.24
851.30	213.48
851.61	213.40
851.92	213.33
852.23	214.24
852.55	214.48
852.86	214.67
853.17	214.90
853.49	215.36
853.80	215.83
854.11	216.00
854.42	216.38
854.74	215.98
855.05	216.12
855.36	215.17
855.67	215.00
855.99	215.17
856.30	217.50
856.61	217.38
856.92	217.26
857.23	217.19
857.55	217.02
857.86	216.83
858.17	217.21
858.48	216.95
858.79	216.38
859.11	216.57
859.42	216.45
859.73	216.17
860.04	215.90
860.35	215.14
860.66	214.48
860.98	214.02
861.29	214.36
861.60	214.14
861.91	214.52
862.22	214.19
862.53	213.60
862.84	211.29
863.16	211.90
863.47	211.69
863.78	211.33
864.09	211.50
864.40	211.60
864.71	211.57
865.02	211.93
865.33	211.43
865.64	210.98
865.95	210.88
866.27	212.02
866.58	211.74
866.89	212.10
867.20	212.24
867.51	211.95
867.82	211.90
868.13	212.64
868.44	212.17
868.75	212.43
869.06	212.79
869.37	213.10
869.68	212.55
869.99	212.79
870.30	213.10
870.61	213.17
870.92	212.83
871.23	212.71
871.54	212.98
871.85	213.71
872.16	214.02
872.47	213.86
872.78	212.45
873.09	212.81
873.40	212.74
873.71	212.86
874.02	213.05
874.33	212.88
874.64	212.19
874.95	212.67
875.26	212.24
875.56	212.05
875.87	211.83
876.18	211.76
876.49	214.19
876.80	214.12
877.11	213.81
877.42	214.00
877.73	214.00
878.04	213.64
878.35	213.45
878.66	213.48
878.96	213.45
879.27	213.83
879.58	213.64
879.89	213.60
880.20	214.21
880.51	214.21
880.82	214.17
881.12	214.33
881.43	213.76
881.74	213.55
882.05	213.45
882.36	213.67
882.67	214.05
882.97	211.64
883.28	211.40
883.59	211.36
883.90	211.55
884.21	211.88
884.51	211.69
884.82	211.43
885.13	211.55
885.44	211.74
885.74	211.76
886.05	211.79
886.36	211.64
886.67	210.83
886.98	211.81
887.28	212.02
887.59	212.02
887.90	212.21
888.20	212.62
888.51	213.17
888.82	212.60
889.13	212.55
889.43	214.14
889.74	214.05
890.05	214.05
890.35	213.71
890.66	213.45
890.97	213.43
891.28	213.24
891.58	213.12
891.89	213.00
892.20	212.76
892.50	212.55
892.81	212.50
893.12	212.52
893.42	211.74
893.73	211.90
894.04	212.12
894.34	212.38
894.65	212.21
894.95	211.95
895.26	212.45
895.57	213.48
895.87	211.60
896.18	212.05
896.48	212.26
896.79	212.31
897.10	212.64
897.40	212.69
897.71	213.07
898.01	212.88
898.32	213.31
898.63	213.24
898.93	213.31
899.24	213.52
899.54	213.62
899.85	213.36
900.15	212.93
900.46	212.81
900.76	212.90
901.07	213.00
901.38	212.86
901.68	212.88
901.99	211.64
902.29	211.81
902.60	211.48
902.90	211.19
903.21	211.12
903.51	210.86
903.82	211.26
904.12	211.31
904.43	211.36
904.73	210.95
905.03	211.17
905.34	213.14
905.64	213.00
905.95	212.81
906.25	212.79
906.56	212.90
906.86	212.93
907.17	212.67
907.47	212.69
907.77	212.55
908.08	212.33
908.38	212.62
908.69	212.98
908.99	213.33
909.30	213.64
909.60	213.79
909.90	213.98
910.21	213.60
910.51	213.38
910.81	213.57
911.12	213.67
911.42	213.67
911.73	211.48
912.03	211.43
912.33	212.02
912.64	212.10
912.94	212.02
913.24	211.43
913.55	211.21
913.85	211.17
914.15	211.62
914.46	211.79
914.76	211.57
915.06	211.29
915.37	210.98
915.67	210.71
915.97	210.74
916.27	210.31
916.58	210.52
916.88	210.33
917.18	210.14
917.49	211.62
917.79	211.48
918.09	212.07
918.39	212.74
918.70	212.52
919.00	212.62
919.30	213.55
919.60	213.86
919.91	213.74
920.21	213.83
920.51	213.38
920.81	213.21
921.12	213.48
921.42	213.40
921.72	213.60
922.02	213.79
922.32	214.05
922.63	214.19
922.93	215.17
923.23	215.40
923.53	215.40
923.83	214.05
924.13	214.40
924.44	214.14
924.74	214.45
925.04	214.86
925.34	214.83
925.64	213.76
925.94	213.57
926.24	214.95
926.55	214.57
926.85	214.71
927.15	214.71
927.45	214.88
927.75	215.10
928.05	215.00
928.35	214.88
928.65	215.26
928.95	215.45
929.26	214.55
929.56	214.79
929.86	214.98
930.16	214.76
930.46	214.48
930.76	214.52
931.06	213.57
931.36	213.24
931.66	213.36
931.96	213.76
932.26	213.98
932.56	213.10
932.86	213.29
933.16	213.40
933.46	213.31
933.76	213.10
934.06	213.40
934.36	214.29
934.66	214.24
934.96	213.90
935.26	213.83
935.56	214.02
935.86	213.40
936.16	213.24
936.46	213.26
936.76	213.05
937.06	212.93
937.36	212.93
937.66	212.69
937.96	212.71
938.26	212.19
938.56	212.12
938.86	212.10
939.16	212.38
939.46	212.52
939.76	212.79
940.06	212.67
940.35	212.14
940.65	211.14
940.95	211.57
941.25	211.05
941.55	210.69
941.85	210.50
942.15	211.17
942.45	211.55
942.75	211.45
943.04	211.64
943.34	212.07
943.64	211.95
943.94	211.57
944.24	211.43
944.54	211.50
944.84	211.48
945.13	211.21
945.43	211.05
945.73	210.81
946.03	210.62
946.33	210.67
946.62	210.69
946.92	210.50
947.22	210.36
947.52	210.60
947.82	211.21
948.11	211.07
948.41	210.71
948.71	210.21
949.01	210.48
949.31	210.40
949.60	210.02
949.90	210.55
950.20	210.79
950.50	211.07
950.79	211.07
951.09	211.50
951.39	211.60
951.69	211.38
951.98	212.12
952.28	211.98
952.58	211.60
952.87	211.60
953.17	212.02
953.47	211.71
953.76	211.62
954.06	211.19
954.36	210.95
954.66	210.71
954.95	211.19
955.25	211.26
955.55	211.43
955.84	211.24
956.14	211.26
956.44	211.24
956.73	210.62
957.03	210.79
957.32	210.40
957.62	210.14
957.92	210.43
958.21	209.90
958.51	212.29
958.81	212.55
959.10	212.62
959.40	212.83
959.69	213.07
959.99	213.24
960.29	213.07
960.58	212.95
960.88	213.60
961.17	213.43
961.47	213.60
961.76	213.48
962.06	213.93
962.36	213.52
962.65	213.69
962.95	213.90
963.24	213.81
963.54	214.05
963.83	214.33
964.13	214.19
964.42	213.90
964.72	212.31
965.01	212.43
965.31	212.14
965.60	211.88
965.90	212.83
966.19	212.40
966.49	212.38
966.78	212.57
967.08	212.57
967.37	212.55
967.67	211.95
967.96	212.21
968.26	211.98
968.55	212.31
968.85	212.24
969.14	212.48
969.43	212.19
969.73	211.95
970.02	212.00
970.32	212.17
970.61	212.14
970.91	211.36
971.20	211.19
971.49	211.26
971.79	211.21
972.08	210.07
972.38	210.48
972.67	210.67
972.96	210.69
973.26	210.26
973.55	210.74
973.85	210.76
974.14	210.36
974.43	210.55
974.73	210.26
975.02	210.00
975.31	209.71
975.61	210.07
975.90	209.90
976.19	209.57
976.49	209.45
976.78	209.71
977.07	209.93
977.37	209.79
977.66	210.00
977.95	209.83
978.24	209.98
978.54	210.17
978.83	210.17
979.12	210.17
979.42	210.33
979.71	210.02
980.00	210.14
980.29	210.24
980.59	209.76
980.88	210.52
981.17	210.48
981.46	210.57
981.76	210.45
982.05	211.02
982.34	211.07
982.63	210.95
982.93	210.79
983.22	211.05
983.51	211.45
983.80	211.64
984.09	212.02
984.39	212.02
984.68	211.64
984.97	211.60
985.26	211.43
985.55	211.64
985.85	211.33
986.14	211.50
986.43	212.02
986.72	212.12
987.01	211.19
987.30	211.33
987.59	211.21
987.89	211.29
988.18	210.79
988.47	210.64
988.76	210.69
989.05	210.60
989.34	210.52
989.63	210.83
989.92	210.43
990.22	210.05
990.51	209.83
990.80	209.86
991.09	210.05
991.38	210.31
991.67	209.83
991.96	209.50
992.25	209.33
992.54	209.00
992.83	209.07
993.12	209.05
993.41	209.52
993.70	210.45
993.99	210.93
994.28	211.36
994.58	211.81
994.87	211.67
995.16	211.62
995.45	211.38
995.74	210.93
996.03	211.48
996.32	211.79
996.61	212.26
996.90	212.31
997.19	212.29
997.48	212.24
997.77	212.14
998.06	212.38
998.34	212.50
998.63	212.31
998.92	212.10
999.21	212.57
999.50	212.24
999.79	211.57
1000.08	211.43
1000.37	211.21
1000.66	210.90
1000.95	211.60
1001.24	211.69
1001.53	212.14
1001.82	211.93
1002.11	211.36
1002.40	211.60
1002.68	212.00
1002.97	213.43
1003.26	213.02
1003.55	212.90
1003.84	213.21
1004.13	213.93
1004.42	213.76
1004.71	213.83
1004.99	213.88
1005.28	214.19
1005.57	214.21
1005.86	213.95
1006.15	213.81
1006.44	213.50
1006.72	213.69
1007.01	213.43
1007.30	213.33
1007.59	213.19
1007.88	213.14
1008.17	213.40
1008.45	213.12
1008.74	212.52
1009.03	211.52
1009.32	211.62
1009.60	211.48
1009.89	211.19
1010.18	210.29
1010.47	210.40
1010.76	210.36
1011.04	210.14
1011.33	210.33
1011.62	210.43
1011.91	210.62
1012.19	210.60
1012.48	210.71
1012.77	210.67
1013.05	211.52
1013.34	211.60
1013.63	211.19
1013.92	211.45
1014.20	211.19
1014.49	211.24
1014.78	211.36
1015.06	210.69
1015.35	210.69
1015.64	211.21
1015.92	211.60
1016.21	211.88
1016.50	211.74
1016.78	212.07
1017.07	212.52
1017.36	211.76
1017.64	211.52
1017.93	211.79
1018.22	211.74
1018.50	211.88
1018.79	211.86
1019.08	210.93
1019.36	211.12
1019.65	211.00
1019.93	211.45
1020.22	211.76
1020.51	212.57
1020.79	212.40
1021.08	209.50
1021.36	210.50
1021.65	210.00
1021.94	213.00
1022.22	213.50
1022.51	205.50
1022.79	221.50
1023.08	213.50
1023.36	232.00
1023.65	210.00
>>>>>End Processed Spectral Data<<<<<
