SpectraSuite Data File
++++++++++++++++++++++++++++++++++++
Date: Tue Apr 02 18:38:44 EDT 2013
User: group
Dark Spectrum Present: No
Reference Spectrum Present: No
Number of Sampled Component Spectra: 1
Spectrometers: USB2E7196
Integration Time (usec): 580000 (USB2E7196)
Spectra Averaged: 2 (USB2E7196)
Boxcar Smoothing: 10 (USB2E7196)
Correct for Electrical Dark: No (USB2E7196)
Strobe/Lamp Enabled: No (USB2E7196)
Correct for Detector Non-linearity: No (USB2E7196)
Correct for Stray Light: No (USB2E7196)
Number of Pixels in Processed Spectrum: 2048
>>>>>Begin Processed Spectral Data<<<<<
339.09	0.00
339.48	194.00
339.86	193.00
340.24	195.50
340.63	198.50
341.01	229.00
341.39	199.00
341.78	210.50
342.16	212.50
342.54	203.00
342.93	196.98
343.31	206.83
343.69	207.33
344.07	207.88
344.46	208.60
344.84	209.19
345.22	208.19
345.60	208.76
345.99	208.67
346.37	208.62
346.75	208.86
347.13	208.95
347.52	209.33
347.90	209.95
348.28	210.17
348.66	210.43
349.05	209.86
349.43	209.90
349.81	210.19
350.19	210.29
350.57	210.29
350.96	210.57
351.34	210.62
351.72	210.83
352.10	211.00
352.48	210.83
352.87	210.64
353.25	210.74
353.63	210.50
354.01	210.71
354.39	210.57
354.77	210.57
355.15	211.19
355.54	211.00
355.92	210.40
356.30	210.10
356.68	211.50
357.06	211.55
357.44	211.29
357.82	211.26
358.20	212.26
358.58	212.48
358.97	212.29
359.35	212.86
359.73	213.26
360.11	213.29
360.49	213.36
360.87	213.69
361.25	214.00
361.63	215.02
362.01	215.00
362.39	215.10
362.77	215.45
363.15	215.29
363.53	215.48
363.91	215.64
364.29	215.90
364.67	213.98
365.05	214.38
365.43	214.81
365.81	215.12
366.19	215.21
366.57	216.12
366.95	216.26
367.33	216.00
367.71	215.86
368.09	216.50
368.47	216.88
368.85	216.74
369.23	217.07
369.61	216.19
369.99	216.79
370.37	217.07
370.75	218.10
371.13	217.76
371.51	217.43
371.89	217.83
372.27	218.07
372.65	218.43
373.03	218.45
373.41	218.14
373.78	218.05
374.16	216.86
374.54	216.29
374.92	216.19
375.30	216.14
375.68	215.93
376.06	216.02
376.44	215.90
376.82	215.95
377.19	215.83
377.57	215.83
377.95	215.36
378.33	215.55
378.71	214.21
379.09	214.69
379.47	214.86
379.84	214.33
380.22	214.02
380.60	213.83
380.98	213.71
381.36	213.86
381.73	213.74
382.11	214.26
382.49	214.31
382.87	213.98
383.25	214.00
383.62	216.36
384.00	215.55
384.38	215.55
384.76	216.02
385.13	216.83
385.51	216.90
385.89	216.60
386.27	216.33
386.64	216.67
387.02	216.48
387.40	216.43
387.78	216.60
388.15	216.79
388.53	216.57
388.91	216.45
389.29	216.36
389.66	216.79
390.04	216.55
390.42	216.79
390.79	217.05
391.17	217.05
391.55	214.83
391.92	215.14
392.30	215.33
392.68	214.88
393.05	214.55
393.43	214.79
393.81	214.88
394.18	214.71
394.56	214.86
394.94	214.93
395.31	215.00
395.69	215.60
396.06	216.00
396.44	216.33
396.82	216.29
397.19	217.43
397.57	217.00
397.95	217.29
398.32	216.83
398.70	217.07
399.07	217.31
399.45	217.33
399.82	217.24
400.20	217.10
400.58	217.33
400.95	216.86
401.33	217.26
401.70	219.05
402.08	219.07
402.45	219.24
402.83	219.64
403.20	219.64
403.58	219.76
403.95	220.19
404.33	220.71
404.71	221.12
405.08	222.21
405.46	222.50
405.83	222.90
406.21	223.38
406.58	223.98
406.96	224.79
407.33	225.48
407.70	226.36
408.08	228.55
408.45	229.31
408.83	230.31
409.20	230.76
409.58	230.40
409.95	231.69
410.33	232.45
410.70	233.17
411.08	234.62
411.45	235.48
411.82	236.40
412.20	238.05
412.57	240.67
412.95	240.57
413.32	242.74
413.69	244.55
414.07	246.62
414.44	248.67
414.82	250.74
415.19	253.33
415.56	255.98
415.94	257.48
416.31	260.86
416.68	264.21
417.06	268.10
417.43	271.93
417.81	275.93
418.18	280.26
418.55	284.83
418.93	289.60
419.30	294.71
419.67	299.95
420.04	304.83
420.42	310.12
420.79	318.33
421.16	324.90
421.54	332.48
421.91	339.38
422.28	346.36
422.66	353.74
423.03	362.62
423.40	370.69
423.77	379.48
424.15	387.81
424.52	396.45
424.89	406.48
425.26	415.43
425.64	424.12
426.01	433.38
426.38	443.48
426.75	454.45
427.13	465.07
427.50	476.26
427.87	488.12
428.24	499.98
428.61	509.67
428.99	523.10
429.36	536.02
429.73	549.40
430.10	562.98
430.47	577.29
430.85	590.02
431.22	604.90
431.59	621.83
431.96	636.95
432.33	653.93
432.70	669.02
433.08	688.26
433.45	706.26
433.82	724.38
434.19	744.45
434.56	763.86
434.93	782.33
435.30	801.12
435.68	821.64
436.05	841.83
436.42	861.88
436.79	879.67
437.16	900.14
437.53	921.50
437.90	942.29
438.27	963.31
438.64	985.21
439.01	1005.55
439.38	1022.38
439.75	1039.14
440.13	1058.81
440.50	1078.05
440.87	1092.83
441.24	1108.57
441.61	1126.64
441.98	1139.95
442.35	1153.60
442.72	1169.45
443.09	1184.24
443.46	1194.14
443.83	1201.05
444.20	1206.90
444.57	1214.40
444.94	1217.17
445.31	1221.14
445.68	1227.90
446.05	1228.33
446.42	1226.86
446.79	1224.69
447.16	1221.81
447.53	1221.31
447.90	1213.40
448.27	1206.05
448.64	1195.74
449.01	1188.38
449.37	1174.74
449.74	1161.69
450.11	1149.33
450.48	1131.64
450.85	1113.88
451.22	1098.57
451.59	1083.38
451.96	1069.76
452.33	1051.69
452.70	1035.31
453.07	1014.93
453.43	992.14
453.80	973.67
454.17	954.14
454.54	935.86
454.91	917.81
455.28	898.31
455.65	881.10
456.02	867.14
456.38	852.69
456.75	834.48
457.12	819.00
457.49	803.64
457.86	787.17
458.23	775.29
458.59	761.43
458.96	747.12
459.33	734.69
459.70	722.36
460.07	712.88
460.43	701.90
460.80	691.71
461.17	682.52
461.54	672.14
461.91	663.33
462.27	653.88
462.64	644.95
463.01	636.38
463.38	628.40
463.74	615.90
464.11	607.86
464.48	601.64
464.85	594.21
465.21	589.02
465.58	582.86
465.95	575.26
466.32	569.83
466.68	563.60
467.05	557.43
467.42	551.60
467.78	545.05
468.15	539.07
468.52	534.81
468.88	528.52
469.25	523.50
469.62	519.45
469.98	514.93
470.35	510.86
470.72	506.74
471.08	501.62
471.45	498.43
471.82	495.26
472.18	491.00
472.55	488.17
472.92	484.12
473.28	480.43
473.65	476.93
474.02	473.60
474.38	471.67
474.75	469.83
475.11	467.10
475.48	464.83
475.85	462.76
476.21	460.60
476.58	459.24
476.94	457.90
477.31	456.31
477.67	455.10
478.04	453.55
478.41	453.12
478.77	454.45
479.14	453.29
479.50	452.74
479.87	452.43
480.23	452.33
480.60	451.52
480.96	451.14
481.33	452.43
481.69	452.26
482.06	451.90
482.42	452.29
482.79	452.60
483.15	453.38
483.52	454.43
483.88	454.93
484.25	455.74
484.61	456.86
484.98	457.55
485.34	459.88
485.71	461.76
486.07	463.43
486.44	463.29
486.80	465.60
487.17	467.69
487.53	470.40
487.90	472.50
488.26	475.79
488.62	479.26
488.99	480.95
489.35	484.71
489.72	488.43
490.08	491.67
490.44	495.21
490.81	498.93
491.17	502.48
491.54	506.64
491.90	511.67
492.26	516.26
492.63	520.83
492.99	525.00
493.36	529.93
493.72	535.21
494.08	540.95
494.45	546.86
494.81	553.05
495.17	558.93
495.54	565.62
495.90	571.83
496.26	578.24
496.63	585.62
496.99	591.93
497.35	599.14
497.72	606.45
498.08	613.64
498.44	621.05
498.80	629.17
499.17	637.29
499.53	644.40
499.89	652.67
500.26	661.17
500.62	669.40
500.98	678.38
501.34	686.98
501.71	696.19
502.07	705.02
502.43	713.12
502.79	722.10
503.16	731.33
503.52	740.88
503.88	749.69
504.24	759.48
504.60	769.95
504.97	779.79
505.33	789.31
505.69	800.33
506.05	810.83
506.41	821.31
506.78	831.55
507.14	842.24
507.50	852.74
507.86	863.52
508.22	874.40
508.59	884.76
508.95	896.00
509.31	907.05
509.67	917.14
510.03	927.38
510.39	937.60
510.75	948.14
511.12	957.95
511.48	969.19
511.84	979.36
512.20	990.17
512.56	1000.88
512.92	1012.19
513.28	1022.60
513.64	1033.10
514.00	1043.29
514.37	1053.64
514.73	1064.17
515.09	1075.05
515.45	1084.74
515.81	1094.52
516.17	1104.69
516.53	1113.48
516.89	1122.14
517.25	1131.90
517.61	1142.83
517.97	1152.81
518.33	1162.45
518.69	1172.93
519.05	1183.00
519.41	1192.48
519.77	1202.64
520.13	1211.43
520.49	1220.19
520.85	1228.50
521.21	1238.05
521.57	1248.05
521.93	1256.36
522.29	1265.60
522.65	1273.74
523.01	1283.50
523.37	1292.21
523.73	1300.10
524.09	1309.31
524.45	1318.19
524.81	1326.21
525.17	1334.81
525.53	1342.79
525.89	1351.26
526.25	1358.67
526.61	1364.83
526.97	1372.71
527.33	1378.98
527.68	1388.31
528.04	1395.26
528.40	1403.00
528.76	1409.50
529.12	1416.62
529.48	1424.71
529.84	1430.38
530.20	1437.43
530.56	1444.02
530.91	1451.79
531.27	1459.29
531.63	1466.86
531.99	1473.02
532.35	1479.90
532.71	1485.36
533.07	1492.05
533.42	1501.19
533.78	1508.50
534.14	1516.26
534.50	1522.76
534.86	1530.19
535.21	1534.55
535.57	1541.50
535.93	1548.00
536.29	1554.81
536.65	1560.26
537.00	1566.26
537.36	1573.17
537.72	1578.86
538.08	1584.67
538.44	1588.57
538.79	1594.00
539.15	1597.26
539.51	1603.55
539.87	1609.90
540.22	1615.74
540.58	1621.83
540.94	1624.24
541.29	1629.57
541.65	1633.57
542.01	1638.60
542.37	1642.24
542.72	1646.19
543.08	1650.26
543.44	1654.64
543.79	1657.62
544.15	1661.81
544.51	1666.21
544.87	1670.74
545.22	1675.31
545.58	1678.81
545.94	1682.90
546.29	1686.67
546.65	1691.64
547.01	1693.79
547.36	1696.86
547.72	1699.31
548.07	1702.17
548.43	1704.88
548.79	1707.05
549.14	1709.86
549.50	1712.21
549.86	1714.43
550.21	1718.24
550.57	1721.83
550.92	1724.19
551.28	1727.55
551.64	1729.64
551.99	1732.57
552.35	1734.00
552.70	1735.40
553.06	1738.38
553.41	1741.90
553.77	1745.19
554.13	1747.74
554.48	1751.38
554.84	1753.79
555.19	1758.00
555.55	1761.81
555.90	1764.19
556.26	1766.50
556.61	1769.76
556.97	1772.45
557.32	1775.98
557.68	1778.33
558.03	1780.48
558.39	1782.57
558.74	1784.81
559.10	1788.40
559.45	1790.10
559.81	1792.83
560.16	1795.05
560.52	1796.67
560.87	1798.45
561.23	1799.57
561.58	1802.40
561.94	1804.31
562.29	1806.12
562.64	1807.36
563.00	1807.55
563.35	1809.38
563.71	1811.79
564.06	1813.36
564.42	1815.24
564.77	1817.24
565.12	1819.48
565.48	1823.55
565.83	1826.98
566.19	1829.38
566.54	1829.74
566.89	1831.00
567.25	1833.90
567.60	1837.52
567.96	1841.48
568.31	1844.36
568.66	1847.81
569.02	1848.62
569.37	1849.67
569.72	1851.62
570.08	1852.17
570.43	1853.43
570.78	1855.33
571.14	1856.05
571.49	1857.12
571.84	1858.33
572.20	1859.17
572.55	1860.74
572.90	1859.17
573.26	1857.50
573.61	1856.83
573.96	1858.02
574.31	1858.21
574.67	1857.02
575.02	1854.90
575.37	1852.79
575.72	1851.14
576.08	1849.31
576.43	1847.95
576.78	1846.81
577.13	1845.02
577.49	1844.43
577.84	1844.00
578.19	1841.64
578.54	1841.50
578.90	1839.88
579.25	1837.26
579.60	1834.40
579.95	1829.88
580.30	1827.55
580.66	1826.62
581.01	1824.50
581.36	1820.81
581.71	1818.21
582.06	1816.40
582.42	1814.76
582.77	1811.00
583.12	1807.93
583.47	1804.24
583.82	1801.48
584.17	1798.74
584.53	1796.88
584.88	1793.10
585.23	1789.95
585.58	1786.64
585.93	1781.48
586.28	1778.60
586.63	1776.12
586.98	1773.19
587.34	1770.83
587.69	1766.26
588.04	1762.43
588.39	1758.93
588.74	1754.19
589.09	1750.45
589.44	1744.67
589.79	1739.79
590.14	1736.31
590.49	1731.07
590.84	1726.05
591.19	1721.40
591.54	1716.90
591.89	1711.55
592.25	1708.55
592.60	1702.90
592.95	1698.90
593.30	1695.55
593.65	1690.36
594.00	1684.90
594.35	1685.36
594.70	1679.74
595.05	1675.71
595.40	1670.38
595.75	1665.29
596.10	1662.26
596.45	1657.62
596.80	1654.12
597.15	1649.69
597.50	1644.19
597.85	1640.83
598.19	1637.00
598.54	1631.38
598.89	1625.74
599.24	1620.81
599.59	1615.19
599.94	1609.95
600.29	1604.86
600.64	1599.48
600.99	1595.10
601.34	1590.14
601.69	1579.24
602.04	1574.29
602.39	1568.83
602.74	1564.93
603.08	1559.71
603.43	1554.88
603.78	1549.62
604.13	1543.88
604.48	1538.24
604.83	1533.21
605.18	1527.19
605.53	1521.83
605.87	1517.02
606.22	1511.86
606.57	1505.86
606.92	1499.10
607.27	1494.19
607.62	1488.40
607.96	1482.48
608.31	1476.50
608.66	1470.57
609.01	1464.38
609.36	1459.12
609.70	1453.10
610.05	1445.76
610.40	1440.57
610.75	1432.88
611.10	1426.40
611.44	1420.55
611.79	1413.40
612.14	1407.00
612.49	1400.02
612.83	1393.02
613.18	1387.07
613.53	1381.02
613.88	1374.50
614.22	1368.12
614.57	1361.07
614.92	1353.95
615.27	1346.83
615.61	1339.74
615.96	1332.90
616.31	1326.67
616.65	1320.69
617.00	1314.40
617.35	1307.74
617.70	1300.14
618.04	1294.36
618.39	1286.95
618.74	1280.26
619.08	1274.19
619.43	1267.55
619.78	1261.67
620.12	1255.62
620.47	1249.10
620.82	1242.21
621.16	1235.60
621.51	1230.93
621.85	1224.10
622.20	1218.10
622.55	1211.17
622.89	1204.31
623.24	1198.24
623.59	1191.74
623.93	1185.14
624.28	1179.31
624.62	1175.07
624.97	1170.38
625.32	1164.74
625.66	1159.90
626.01	1153.31
626.35	1147.86
626.70	1142.60
627.04	1137.24
627.39	1131.21
627.73	1126.36
628.08	1121.76
628.43	1116.05
628.77	1109.10
629.12	1103.90
629.46	1098.31
629.81	1093.38
630.15	1088.52
630.50	1082.40
630.84	1076.86
631.19	1070.62
631.53	1064.10
631.88	1055.83
632.22	1048.71
632.57	1042.76
632.91	1035.86
633.26	1030.52
633.60	1023.93
633.95	1017.31
634.29	1010.81
634.64	1004.43
634.98	996.50
635.32	990.24
635.67	984.52
636.01	978.52
636.36	971.40
636.70	965.67
637.05	959.81
637.39	953.12
637.73	947.43
638.08	941.93
638.42	935.40
638.77	929.74
639.11	924.52
639.45	918.93
639.80	912.90
640.14	907.48
640.49	901.69
640.83	895.69
641.17	889.93
641.52	883.86
641.86	878.33
642.20	873.79
642.55	867.12
642.89	861.31
643.23	855.24
643.58	851.12
643.92	844.33
644.26	838.74
644.61	833.45
644.95	828.00
645.29	822.17
645.64	817.50
645.98	811.40
646.32	806.24
646.66	800.00
647.01	794.21
647.35	789.05
647.69	783.26
648.04	778.55
648.38	773.31
648.72	768.43
649.06	762.98
649.41	757.05
649.75	751.95
650.09	747.21
650.43	742.21
650.78	735.88
651.12	731.33
651.46	725.69
651.80	720.48
652.14	714.98
652.49	709.98
652.83	704.88
653.17	700.12
653.51	694.71
653.85	690.50
654.20	685.90
654.54	680.62
654.88	675.19
655.22	671.36
655.56	666.29
655.90	661.29
656.25	656.67
656.59	652.33
656.93	648.14
657.27	643.74
657.61	638.86
657.95	634.88
658.29	630.19
658.64	626.19
658.98	621.69
659.32	617.07
659.66	612.24
660.00	608.07
660.34	603.71
660.68	599.33
661.02	594.60
661.36	590.07
661.70	585.76
662.05	582.24
662.39	577.79
662.73	575.29
663.07	572.31
663.41	568.71
663.75	564.69
664.09	561.05
664.43	556.50
664.77	553.33
665.11	549.67
665.45	546.24
665.79	542.55
666.13	538.79
666.47	535.95
666.81	532.67
667.15	528.45
667.49	525.57
667.83	523.21
668.17	520.36
668.51	517.31
668.85	514.67
669.19	511.90
669.53	508.12
669.87	504.14
670.21	500.24
670.55	496.98
670.89	494.83
671.23	491.45
671.57	488.21
671.91	484.79
672.25	481.76
672.58	479.67
672.92	476.14
673.26	473.38
673.60	470.52
673.94	468.33
674.28	466.05
674.62	463.33
674.96	459.95
675.30	457.19
675.64	454.31
675.97	451.71
676.31	449.05
676.65	446.57
676.99	444.60
677.33	442.07
677.67	439.50
678.01	435.83
678.34	433.40
678.68	431.38
679.02	429.31
679.36	426.86
679.70	423.26
680.04	421.00
680.37	418.67
680.71	416.17
681.05	413.45
681.39	411.10
681.73	408.57
682.06	406.48
682.40	404.14
682.74	402.48
683.08	400.95
683.42	398.33
683.75	396.33
684.09	393.38
684.43	391.02
684.77	388.98
685.10	387.17
685.44	385.29
685.78	383.50
686.12	381.36
686.45	379.57
686.79	378.02
687.13	376.86
687.46	374.62
687.80	373.05
688.14	371.33
688.48	369.74
688.81	368.10
689.15	366.79
689.49	364.98
689.82	363.02
690.16	360.19
690.50	358.31
690.83	356.36
691.17	354.64
691.51	352.90
691.84	351.57
692.18	349.79
692.52	348.07
692.85	346.55
693.19	345.67
693.52	344.05
693.86	342.24
694.20	340.36
694.53	339.24
694.87	337.52
695.21	335.67
695.54	333.90
695.88	331.83
696.21	329.67
696.55	328.33
696.88	326.67
697.22	325.10
697.56	324.26
697.89	322.83
698.23	322.07
698.56	321.05
698.90	319.50
699.23	318.26
699.57	316.79
699.90	315.19
700.24	313.48
700.58	312.33
700.91	311.50
701.25	311.93
701.58	311.31
701.92	310.45
702.25	309.40
702.59	307.83
702.92	307.10
703.26	306.10
703.59	304.86
703.93	305.52
704.26	305.26
704.60	304.02
704.93	302.83
705.26	301.52
705.60	300.71
705.93	299.40
706.27	298.79
706.60	298.48
706.94	298.40
707.27	297.26
707.61	296.29
707.94	295.29
708.27	292.71
708.61	291.17
708.94	290.24
709.28	289.38
709.61	288.90
709.94	288.43
710.28	287.50
710.61	286.83
710.95	283.95
711.28	284.14
711.61	283.26
711.95	283.21
712.28	281.93
712.61	280.81
712.95	281.36
713.28	281.38
713.61	280.10
713.95	278.98
714.28	278.19
714.61	277.00
714.95	276.10
715.28	275.19
715.61	274.62
715.95	274.17
716.28	273.29
716.61	272.79
716.95	271.55
717.28	270.74
717.61	269.83
717.94	269.33
718.28	267.21
718.61	266.50
718.94	265.05
719.27	264.62
719.61	264.21
719.94	262.86
720.27	261.17
720.60	260.21
720.94	259.50
721.27	259.31
721.60	259.31
721.93	258.83
722.27	259.14
722.60	258.83
722.93	257.86
723.26	257.55
723.59	256.69
723.93	256.64
724.26	256.31
724.59	255.69
724.92	255.45
725.25	255.74
725.59	255.26
725.92	255.36
726.25	254.98
726.58	254.52
726.91	254.12
727.24	254.38
727.57	254.07
727.91	253.19
728.24	252.64
728.57	251.93
728.90	251.67
729.23	250.69
729.56	251.05
729.89	250.88
730.22	250.38
730.55	250.07
730.89	249.33
731.22	248.93
731.55	248.83
731.88	248.33
732.21	247.43
732.54	246.76
732.87	246.52
733.20	246.26
733.53	246.07
733.86	245.81
734.19	245.10
734.52	245.26
734.85	246.33
735.18	245.90
735.51	246.45
735.84	246.24
736.17	246.50
736.50	245.19
736.83	247.17
737.16	247.07
737.49	246.98
737.82	246.93
738.15	247.05
738.48	246.67
738.81	246.38
739.14	245.95
739.47	245.71
739.80	245.19
740.13	245.29
740.46	244.43
740.79	243.95
741.12	243.33
741.45	242.62
741.78	241.33
742.11	241.55
742.44	240.62
742.77	240.69
743.10	239.98
743.43	239.64
743.75	237.24
744.08	239.55
744.41	239.31
744.74	238.86
745.07	238.14
745.40	238.21
745.73	238.79
746.06	238.71
746.39	238.90
746.71	238.52
747.04	237.95
747.37	237.81
747.70	237.98
748.03	237.81
748.36	238.07
748.68	237.64
749.01	236.71
749.34	236.62
749.67	236.17
750.00	236.14
750.33	237.57
750.65	237.43
750.98	234.71
751.31	234.50
751.64	234.38
751.97	235.52
752.29	235.38
752.62	234.55
752.95	234.19
753.28	233.60
753.60	233.45
753.93	233.64
754.26	233.43
754.59	232.62
754.91	232.19
755.24	231.79
755.57	231.79
755.90	231.67
756.22	231.07
756.55	230.55
756.88	230.29
757.20	228.81
757.53	227.79
757.86	227.64
758.19	227.69
758.51	227.60
758.84	226.29
759.17	225.88
759.49	225.76
759.82	226.64
760.15	226.95
760.47	226.64
760.80	225.88
761.13	226.38
761.45	226.21
761.78	226.33
762.11	226.24
762.43	225.83
762.76	225.55
763.08	225.88
763.41	226.24
763.74	226.05
764.06	225.62
764.39	225.86
764.71	225.52
765.04	225.19
765.37	224.76
765.69	224.67
766.02	224.26
766.34	224.07
766.67	223.07
767.00	223.38
767.32	224.52
767.65	225.57
767.97	225.31
768.30	225.24
768.62	225.26
768.95	224.79
769.27	224.74
769.60	225.43
769.92	224.90
770.25	224.33
770.57	224.17
770.90	224.17
771.22	224.14
771.55	224.24
771.87	224.12
772.20	224.40
772.52	225.90
772.85	228.38
773.17	228.38
773.50	228.12
773.82	227.45
774.15	226.07
774.47	224.76
774.80	224.60
775.12	224.67
775.45	224.48
775.77	224.60
776.09	224.62
776.42	224.21
776.74	225.02
777.07	224.86
777.39	224.52
777.72	224.31
778.04	224.12
778.36	223.98
778.69	223.76
779.01	223.57
779.33	221.71
779.66	219.50
779.98	219.17
780.31	219.19
780.63	220.07
780.95	220.43
781.28	220.45
781.60	219.98
781.92	219.74
782.25	219.67
782.57	219.62
782.89	219.50
783.22	219.36
783.54	218.90
783.86	219.05
784.19	218.83
784.51	219.64
784.83	219.55
785.16	219.26
785.48	219.43
785.80	219.31
786.12	219.40
786.45	219.14
786.77	219.43
787.09	219.40
787.42	218.55
787.74	218.64
788.06	218.79
788.38	218.69
788.71	218.50
789.03	218.40
789.35	218.52
789.67	218.19
789.99	218.14
790.32	217.50
790.64	217.52
790.96	219.38
791.28	218.64
791.61	218.38
791.93	218.67
792.25	218.52
792.57	220.12
792.89	219.76
793.21	220.00
793.54	219.60
793.86	219.38
794.18	219.40
794.50	218.95
794.82	218.95
795.14	219.40
795.47	219.83
795.79	219.95
796.11	219.52
796.43	219.45
796.75	219.43
797.07	219.55
797.39	219.60
797.71	218.10
798.04	218.02
798.36	218.45
798.68	218.24
799.00	218.38
799.32	216.98
799.64	217.55
799.96	217.26
800.28	217.74
800.60	217.52
800.92	217.71
801.24	217.88
801.56	217.52
801.89	217.31
802.21	217.38
802.53	217.07
802.85	217.40
803.17	218.48
803.49	218.07
803.81	218.02
804.13	217.88
804.45	217.60
804.77	217.64
805.09	217.40
805.41	217.29
805.73	216.93
806.05	216.69
806.37	216.12
806.69	216.00
807.01	215.83
807.33	216.02
807.65	215.12
807.97	215.88
808.28	215.93
808.60	215.67
808.92	215.43
809.24	216.81
809.56	216.52
809.88	215.76
810.20	216.10
810.52	216.57
810.84	216.26
811.16	216.14
811.48	216.00
811.80	216.71
812.12	216.57
812.43	216.90
812.75	217.26
813.07	217.48
813.39	217.62
813.71	217.38
814.03	217.40
814.35	217.50
814.67	216.55
814.98	216.52
815.30	216.57
815.62	216.05
815.94	214.52
816.26	214.71
816.58	214.55
816.89	214.50
817.21	213.95
817.53	214.02
817.85	214.02
818.17	214.00
818.48	213.21
818.80	213.67
819.12	213.50
819.44	212.88
819.76	212.62
820.07	212.69
820.39	212.57
820.71	212.62
821.03	212.86
821.34	212.88
821.66	213.21
821.98	213.45
822.30	213.67
822.61	214.93
822.93	214.88
823.25	214.52
823.57	214.33
823.88	214.81
824.20	214.76
824.52	215.12
824.83	215.21
825.15	215.07
825.47	215.00
825.79	215.00
826.10	215.14
826.42	215.17
826.74	215.38
827.05	215.31
827.37	215.45
827.69	215.36
828.00	215.43
828.32	215.60
828.64	215.50
828.95	216.26
829.27	215.88
829.58	215.67
829.90	216.10
830.22	216.31
830.53	215.83
830.85	215.64
831.17	215.31
831.48	215.21
831.80	215.07
832.11	214.93
832.43	214.76
832.75	214.76
833.06	215.79
833.38	215.05
833.69	214.93
834.01	214.86
834.32	214.76
834.64	214.74
834.96	214.38
835.27	214.10
835.59	213.38
835.90	212.88
836.22	213.17
836.53	212.93
836.85	212.79
837.16	214.95
837.48	215.14
837.79	215.93
838.11	215.95
838.42	216.10
838.74	216.26
839.05	215.95
839.37	215.40
839.68	214.21
840.00	214.43
840.31	214.62
840.63	214.55
840.94	214.45
841.26	214.05
841.57	214.12
841.88	214.52
842.20	214.36
842.51	214.02
842.83	213.93
843.14	215.62
843.46	215.64
843.77	214.38
844.08	214.19
844.40	213.52
844.71	213.33
845.03	213.31
845.34	213.17
845.65	213.14
845.97	213.55
846.28	213.76
846.60	213.67
846.91	213.55
847.22	213.50
847.54	213.90
847.85	214.24
848.16	214.02
848.48	213.62
848.79	214.64
849.10	214.81
849.42	214.76
849.73	213.12
850.04	213.10
850.36	212.26
850.67	212.76
850.98	212.81
851.30	213.19
851.61	212.98
851.92	212.93
852.23	213.64
852.55	213.86
852.86	213.86
853.17	214.14
853.49	214.71
853.80	215.02
854.11	215.24
854.42	215.29
854.74	215.05
855.05	215.12
855.36	214.05
855.67	214.38
855.99	214.33
856.30	216.52
856.61	216.29
856.92	216.60
857.23	216.40
857.55	216.12
857.86	215.76
858.17	216.33
858.48	216.10
858.79	215.74
859.11	215.79
859.42	215.69
859.73	215.50
860.04	215.19
860.35	214.69
860.66	213.88
860.98	213.76
861.29	214.05
861.60	213.95
861.91	214.38
862.22	213.95
862.53	213.79
862.84	211.45
863.16	212.00
863.47	211.38
863.78	211.29
864.09	211.48
864.40	211.52
864.71	211.40
865.02	211.60
865.33	211.43
865.64	211.21
865.95	211.26
866.27	212.64
866.58	212.50
866.89	212.81
867.20	212.74
867.51	212.60
867.82	212.60
868.13	213.31
868.44	213.00
868.75	213.40
869.06	213.52
869.37	213.83
869.68	213.00
869.99	213.43
870.30	213.69
870.61	213.71
870.92	213.69
871.23	213.45
871.54	213.69
871.85	214.05
872.16	214.45
872.47	214.21
872.78	212.86
873.09	213.00
873.40	212.50
873.71	212.86
874.02	213.02
874.33	212.71
874.64	212.05
874.95	212.40
875.26	212.10
875.56	211.98
875.87	211.98
876.18	212.29
876.49	214.21
876.80	213.81
877.11	213.43
877.42	213.64
877.73	213.57
878.04	213.38
878.35	213.48
878.66	213.50
878.96	213.50
879.27	213.48
879.58	213.40
879.89	213.52
880.20	214.10
880.51	213.81
880.82	213.88
881.12	213.98
881.43	213.50
881.74	213.26
882.05	213.21
882.36	213.36
882.67	213.36
882.97	211.17
883.28	210.90
883.59	210.98
883.90	211.05
884.21	211.62
884.51	211.43
884.82	211.21
885.13	210.83
885.44	210.93
885.74	211.00
886.05	211.00
886.36	211.29
886.67	210.50
886.98	211.62
887.28	211.95
887.59	212.07
887.90	212.29
888.20	212.21
888.51	212.50
888.82	212.00
889.13	212.17
889.43	214.05
889.74	214.19
890.05	214.12
890.35	213.83
890.66	213.45
890.97	213.24
891.28	212.76
891.58	212.83
891.89	212.64
892.20	212.45
892.50	212.02
892.81	211.71
893.12	211.90
893.42	211.07
893.73	211.02
894.04	211.05
894.34	211.19
894.65	211.19
894.95	210.93
895.26	210.88
895.57	212.05
895.87	209.95
896.18	210.40
896.48	210.64
896.79	210.50
897.10	210.76
897.40	211.00
897.71	211.29
898.01	211.29
898.32	211.86
898.63	211.90
898.93	212.14
899.24	212.21
899.54	211.86
899.85	211.83
900.15	211.79
900.46	211.64
900.76	211.74
901.07	211.76
901.38	211.88
901.68	212.33
901.99	211.14
902.29	211.50
902.60	211.07
902.90	210.86
903.21	210.93
903.51	210.76
903.82	211.36
904.12	211.40
904.43	211.48
904.73	211.10
905.03	211.19
905.34	213.05
905.64	212.76
905.95	212.88
906.25	212.83
906.56	212.64
906.86	212.76
907.17	212.57
907.47	212.88
907.77	212.69
908.08	212.29
908.38	212.62
908.69	212.57
908.99	213.19
909.30	213.50
909.60	213.64
909.90	213.79
910.21	213.12
910.51	213.10
910.81	213.14
911.12	213.33
911.42	213.45
911.73	211.62
912.03	211.90
912.33	212.17
912.64	212.17
912.94	212.33
913.24	211.86
913.55	211.62
913.85	211.24
914.15	211.62
914.46	211.76
914.76	211.52
915.06	211.57
915.37	211.17
915.67	210.86
915.97	210.95
916.27	210.38
916.58	210.50
916.88	210.33
917.18	210.19
917.49	211.60
917.79	211.38
918.09	211.69
918.39	212.31
918.70	212.36
919.00	212.31
919.30	213.21
919.60	213.29
919.91	213.26
920.21	213.52
920.51	213.33
920.81	213.43
921.12	213.52
921.42	213.52
921.72	213.62
922.02	213.86
922.32	213.93
922.63	214.10
922.93	215.10
923.23	215.24
923.53	215.12
923.83	213.81
924.13	213.83
924.44	213.64
924.74	213.95
925.04	214.24
925.34	214.12
925.64	213.21
925.94	213.29
926.24	214.48
926.55	214.24
926.85	214.52
927.15	214.31
927.45	214.26
927.75	214.05
928.05	214.17
928.35	214.05
928.65	214.38
928.95	214.62
929.26	213.76
929.56	213.95
929.86	214.26
930.16	214.17
930.46	213.98
930.76	214.19
931.06	213.05
931.36	212.71
931.66	213.17
931.96	213.17
932.26	213.26
932.56	212.21
932.86	212.43
933.16	212.29
933.46	212.24
933.76	212.21
934.06	213.02
934.36	213.79
934.66	213.74
934.96	213.67
935.26	213.74
935.56	213.93
935.86	213.60
936.16	213.36
936.46	213.00
936.76	213.12
937.06	212.52
937.36	212.83
937.66	212.88
937.96	212.69
938.26	212.60
938.56	212.60
938.86	213.05
939.16	213.60
939.46	213.67
939.76	213.79
940.06	213.69
940.35	213.10
940.65	212.02
940.95	212.19
941.25	211.45
941.55	211.21
941.85	211.31
942.15	212.10
942.45	212.45
942.75	212.43
943.04	212.36
943.34	213.00
943.64	212.83
943.94	212.31
944.24	212.50
944.54	212.55
944.84	212.38
945.13	211.83
945.43	211.31
945.73	211.26
946.03	211.10
946.33	210.90
946.62	210.52
946.92	210.64
947.22	210.86
947.52	211.26
947.82	211.55
948.11	211.02
948.41	210.31
948.71	209.71
949.01	210.14
949.31	210.19
949.60	210.00
949.90	210.38
950.20	210.55
950.50	210.48
950.79	210.33
951.09	210.57
951.39	210.52
951.69	210.33
951.98	210.50
952.28	210.74
952.58	210.62
952.87	210.81
953.17	211.02
953.47	210.74
953.76	210.79
954.06	210.43
954.36	210.40
954.66	210.31
954.95	210.88
955.25	210.81
955.55	210.86
955.84	210.67
956.14	210.74
956.44	210.83
956.73	210.21
957.03	210.26
957.32	210.31
957.62	210.31
957.92	210.90
958.21	210.98
958.51	213.10
958.81	213.40
959.10	213.67
959.40	213.98
959.69	213.88
959.99	213.86
960.29	214.05
960.58	214.07
960.88	214.93
961.17	214.86
961.47	214.93
961.76	214.86
962.06	215.07
962.36	214.74
962.65	214.90
962.95	215.17
963.24	215.07
963.54	215.14
963.83	215.50
964.13	215.14
964.42	214.43
964.72	212.93
965.01	213.05
965.31	212.76
965.60	212.02
965.90	213.52
966.19	213.26
966.49	213.14
966.78	213.17
967.08	212.79
967.37	212.67
967.67	212.26
967.96	212.64
968.26	212.64
968.55	212.93
968.85	212.98
969.14	212.98
969.43	213.24
969.73	213.12
970.02	212.88
970.32	212.88
970.61	213.05
970.91	212.29
971.20	212.05
971.49	212.14
971.79	212.57
972.08	210.90
972.38	211.17
972.67	211.05
972.96	211.26
973.26	210.95
973.55	211.48
973.85	211.50
974.14	211.33
974.43	211.52
974.73	211.02
975.02	210.76
975.31	210.76
975.61	210.24
975.90	209.93
976.19	209.76
976.49	210.05
976.78	210.00
977.07	210.05
977.37	210.02
977.66	210.12
977.95	209.90
978.24	210.24
978.54	210.52
978.83	210.55
979.12	210.43
979.42	210.45
979.71	210.05
980.00	210.05
980.29	210.21
980.59	209.76
980.88	210.45
981.17	210.45
981.46	210.71
981.76	210.95
982.05	211.71
982.34	211.83
982.63	211.60
982.93	211.71
983.22	212.38
983.51	212.43
983.80	212.64
984.09	212.83
984.39	212.64
984.68	212.26
984.97	212.43
985.26	212.17
985.55	212.33
985.85	212.17
986.14	212.50
986.43	212.38
986.72	212.17
987.01	211.50
987.30	211.64
987.59	211.19
987.89	211.00
988.18	210.24
988.47	210.17
988.76	210.05
989.05	209.93
989.34	209.55
989.63	210.02
989.92	209.76
990.22	209.38
990.51	209.33
990.80	209.45
991.09	209.62
991.38	209.83
991.67	209.76
991.96	209.62
992.25	209.52
992.54	209.26
992.83	209.36
993.12	209.48
993.41	209.81
993.70	210.69
993.99	211.33
994.28	211.98
994.58	212.38
994.87	212.14
995.16	212.07
995.45	211.98
995.74	211.40
996.03	211.71
996.32	212.31
996.61	212.62
996.90	212.17
997.19	211.79
997.48	211.88
997.77	211.55
998.06	211.69
998.34	211.57
998.63	211.57
998.92	211.55
999.21	211.83
999.50	211.71
999.79	211.12
1000.08	211.02
1000.37	210.76
1000.66	210.29
1000.95	210.71
1001.24	210.88
1001.53	211.21
1001.82	210.98
1002.11	210.48
1002.40	210.45
1002.68	211.21
1002.97	212.90
1003.26	213.02
1003.55	212.88
1003.84	212.81
1004.13	213.43
1004.42	213.38
1004.71	213.36
1004.99	213.45
1005.28	213.95
1005.57	213.79
1005.86	213.50
1006.15	213.26
1006.44	212.83
1006.72	212.98
1007.01	212.81
1007.30	212.79
1007.59	212.31
1007.88	212.43
1008.17	212.69
1008.45	212.29
1008.74	211.29
1009.03	210.69
1009.32	210.55
1009.60	210.40
1009.89	210.45
1010.18	209.26
1010.47	209.10
1010.76	209.17
1011.04	209.21
1011.33	209.12
1011.62	209.17
1011.91	209.52
1012.19	209.57
1012.48	209.57
1012.77	209.57
1013.05	210.45
1013.34	210.62
1013.63	210.45
1013.92	210.64
1014.20	210.43
1014.49	210.52
1014.78	210.79
1015.06	209.86
1015.35	210.10
1015.64	210.31
1015.92	210.79
1016.21	211.40
1016.50	211.62
1016.78	211.88
1017.07	211.88
1017.36	211.43
1017.64	211.40
1017.93	211.57
1018.22	211.52
1018.50	211.69
1018.79	211.64
1019.08	210.69
1019.36	210.60
1019.65	210.67
1019.93	211.12
1020.22	211.43
1020.51	212.45
1020.79	211.98
1021.08	209.00
1021.36	207.00
1021.65	208.00
1021.94	210.00
1022.22	210.50
1022.51	208.00
1022.79	218.50
1023.08	213.50
1023.36	234.50
1023.65	202.50
>>>>>End Processed Spectral Data<<<<<
