SpectraSuite Data File
++++++++++++++++++++++++++++++++++++
Date: Tue Apr 02 18:46:20 EDT 2013
User: group
Dark Spectrum Present: No
Reference Spectrum Present: No
Number of Sampled Component Spectra: 1
Spectrometers: USB2E7196
Integration Time (usec): 580000 (USB2E7196)
Spectra Averaged: 2 (USB2E7196)
Boxcar Smoothing: 10 (USB2E7196)
Correct for Electrical Dark: No (USB2E7196)
Strobe/Lamp Enabled: No (USB2E7196)
Correct for Detector Non-linearity: No (USB2E7196)
Correct for Stray Light: No (USB2E7196)
Number of Pixels in Processed Spectrum: 2048
>>>>>Begin Processed Spectral Data<<<<<
339.09	0.00
339.48	193.00
339.86	197.00
340.24	194.00
340.63	199.00
341.01	231.00
341.39	203.50
341.78	205.00
342.16	212.50
342.54	202.50
342.93	197.83
343.31	207.55
343.69	208.19
344.07	208.62
344.46	209.55
344.84	210.07
345.22	208.88
345.60	209.21
345.99	209.31
346.37	209.24
346.75	209.43
347.13	209.71
347.52	209.79
347.90	210.45
348.28	210.36
348.66	210.64
349.05	209.98
349.43	210.50
349.81	210.86
350.19	210.90
350.57	211.10
350.96	211.57
351.34	211.81
351.72	212.07
352.10	212.24
352.48	212.12
352.87	212.24
353.25	212.43
353.63	212.31
354.01	212.26
354.39	212.33
354.77	212.33
355.15	212.69
355.54	212.43
355.92	211.93
356.30	212.05
356.68	213.21
357.06	213.26
357.44	212.81
357.82	212.67
358.20	213.60
358.58	213.50
358.97	213.43
359.35	213.95
359.73	214.21
360.11	214.17
360.49	214.10
360.87	213.81
361.25	213.93
361.63	214.62
362.01	215.07
362.39	214.76
362.77	215.10
363.15	214.79
363.53	214.86
363.91	214.88
364.29	214.74
364.67	212.81
365.05	212.95
365.43	213.21
365.81	213.57
366.19	213.64
366.57	214.36
366.95	214.31
367.33	213.90
367.71	213.76
368.09	214.12
368.47	214.24
368.85	214.31
369.23	214.86
369.61	214.17
369.99	214.60
370.37	214.98
370.75	215.98
371.13	215.90
371.51	215.52
371.89	215.90
372.27	216.19
372.65	216.50
373.03	216.64
373.41	216.60
373.78	216.48
374.16	215.48
374.54	214.93
374.92	214.69
375.30	214.81
375.68	214.40
376.06	214.45
376.44	214.29
376.82	214.43
377.19	214.12
377.57	214.17
377.95	213.45
378.33	213.33
378.71	212.05
379.09	212.24
379.47	212.69
379.84	212.29
380.22	211.98
380.60	211.76
380.98	211.60
381.36	211.26
381.73	210.90
382.11	211.36
382.49	211.31
382.87	211.07
383.25	210.95
383.62	213.26
384.00	213.07
384.38	213.17
384.76	213.62
385.13	214.60
385.51	214.60
385.89	214.67
386.27	214.93
386.64	215.31
387.02	215.12
387.40	215.05
387.78	215.24
388.15	215.38
388.53	215.17
388.91	215.19
389.29	215.24
389.66	215.60
390.04	215.29
390.42	215.69
390.79	215.98
391.17	215.86
391.55	213.88
391.92	213.67
392.30	213.83
392.68	213.26
393.05	212.81
393.43	213.00
393.81	213.17
394.18	212.86
394.56	213.02
394.94	213.40
395.31	213.33
395.69	213.98
396.06	214.17
396.44	214.40
396.82	214.33
397.19	215.55
397.57	215.31
397.95	215.55
398.32	214.90
398.70	215.12
399.07	215.86
399.45	215.90
399.82	216.10
400.20	215.93
400.58	216.31
400.95	215.69
401.33	216.07
401.70	217.31
402.08	217.31
402.45	217.29
402.83	217.88
403.20	217.90
403.58	217.69
403.95	218.43
404.33	218.90
404.71	219.14
405.08	220.19
405.46	220.48
405.83	221.00
406.21	221.48
406.58	222.00
406.96	222.17
407.33	222.67
407.70	223.26
408.08	225.55
408.45	226.19
408.83	227.21
409.20	227.55
409.58	227.31
409.95	228.60
410.33	229.50
410.70	229.81
411.08	230.95
411.45	231.95
411.82	232.57
412.20	234.14
412.57	236.38
412.95	236.07
413.32	238.00
413.69	239.29
414.07	241.00
414.44	242.64
414.82	244.26
415.19	246.57
415.56	248.93
415.94	250.00
416.31	252.81
416.68	255.29
417.06	258.48
417.43	261.90
417.81	265.10
418.18	268.74
418.55	272.50
418.93	276.74
419.30	280.98
419.67	285.24
420.04	289.62
420.42	293.83
420.79	301.00
421.16	306.67
421.54	313.55
421.91	319.79
422.28	325.86
422.66	332.69
423.03	340.69
423.40	347.43
423.77	354.40
424.15	361.62
424.52	369.17
424.89	377.95
425.26	385.43
425.64	392.95
426.01	401.05
426.38	409.81
426.75	419.29
427.13	428.38
427.50	438.12
427.87	447.86
428.24	458.14
428.61	466.57
428.99	477.29
429.36	487.74
429.73	498.45
430.10	509.93
430.47	521.38
430.85	531.64
431.22	544.31
431.59	559.40
431.96	571.95
432.33	585.79
432.70	599.71
433.08	615.48
433.45	630.71
433.82	645.79
434.19	662.93
434.56	679.05
434.93	694.50
435.30	709.93
435.68	727.21
436.05	744.24
436.42	760.52
436.79	776.07
437.16	793.00
437.53	811.33
437.90	828.83
438.27	846.21
438.64	864.40
439.01	881.43
439.38	894.55
439.75	908.90
440.13	925.76
440.50	940.74
440.87	953.79
441.24	966.76
441.61	981.29
441.98	991.57
442.35	1003.29
442.72	1016.57
443.09	1030.00
443.46	1037.24
443.83	1042.17
444.20	1047.10
444.57	1053.07
444.94	1056.60
445.31	1059.74
445.68	1065.62
446.05	1067.07
446.42	1065.69
446.79	1064.60
447.16	1063.17
447.53	1062.45
447.90	1056.02
448.27	1049.43
448.64	1041.02
449.01	1035.62
449.37	1024.62
449.74	1013.55
450.11	1002.74
450.48	988.19
450.85	972.26
451.22	959.95
451.59	948.45
451.96	936.74
452.33	921.88
452.70	907.76
453.07	890.88
453.43	871.29
453.80	855.12
454.17	839.83
454.54	824.14
454.91	808.21
455.28	792.40
455.65	778.02
456.02	767.00
456.38	754.07
456.75	738.36
457.12	725.24
457.49	712.69
457.86	698.50
458.23	688.50
458.59	677.00
458.96	665.10
459.33	654.33
459.70	644.14
460.07	635.57
460.43	625.57
460.80	617.57
461.17	610.26
461.54	602.07
461.91	593.64
462.27	585.45
462.64	578.19
463.01	570.40
463.38	564.07
463.74	553.24
464.11	546.57
464.48	540.88
464.85	535.17
465.21	530.67
465.58	525.81
465.95	518.81
466.32	514.21
466.68	509.40
467.05	504.52
467.42	499.52
467.78	494.00
468.15	489.12
468.52	485.40
468.88	479.79
469.25	475.60
469.62	472.10
469.98	468.10
470.35	464.81
470.72	461.36
471.08	456.74
471.45	454.00
471.82	451.83
472.18	448.12
472.55	445.21
472.92	441.50
473.28	438.81
473.65	435.90
474.02	433.57
474.38	431.95
474.75	429.79
475.11	427.52
475.48	425.93
475.85	424.21
476.21	421.55
476.58	420.29
476.94	418.98
477.31	417.93
477.67	416.98
478.04	415.71
478.41	415.24
478.77	416.67
479.14	415.55
479.50	414.67
479.87	414.71
480.23	414.55
480.60	414.31
480.96	413.93
481.33	414.93
481.69	414.67
482.06	414.48
482.42	414.64
482.79	415.14
483.15	415.52
483.52	416.67
483.88	417.48
484.25	418.36
484.61	418.83
484.98	419.40
485.34	420.81
485.71	422.31
486.07	423.90
486.44	423.38
486.80	425.10
487.17	426.29
487.53	428.19
487.90	430.21
488.26	433.43
488.62	436.14
488.99	438.62
489.35	441.12
489.72	443.67
490.08	446.45
490.44	449.26
490.81	453.14
491.17	456.14
491.54	459.29
491.90	463.10
492.26	467.00
492.63	471.14
492.99	474.90
493.36	478.88
493.72	483.14
494.08	487.60
494.45	492.43
494.81	497.62
495.17	502.07
495.54	507.38
495.90	512.17
496.26	516.88
496.63	522.21
496.99	527.79
497.35	533.55
497.72	539.86
498.08	545.86
498.44	551.24
498.80	557.38
499.17	564.07
499.53	569.98
499.89	576.48
500.26	583.14
500.62	589.83
500.98	596.60
501.34	602.98
501.71	610.38
502.07	617.21
502.43	624.19
502.79	631.60
503.16	638.71
503.52	646.02
503.88	653.67
504.24	660.74
504.60	668.02
504.97	675.69
505.33	683.29
505.69	692.31
506.05	700.17
506.41	707.74
506.78	715.52
507.14	723.26
507.50	731.36
507.86	738.86
508.22	747.02
508.59	754.69
508.95	762.93
509.31	771.52
509.67	779.38
510.03	786.43
510.39	794.26
510.75	801.93
511.12	809.14
511.48	816.50
511.84	823.81
512.20	832.00
512.56	839.33
512.92	846.90
513.28	853.43
513.64	860.81
514.00	868.52
514.37	875.50
514.73	883.31
515.09	890.93
515.45	898.38
515.81	904.95
516.17	911.93
516.53	918.26
516.89	924.07
517.25	930.83
517.61	938.69
517.97	944.79
518.33	951.21
518.69	957.74
519.05	964.52
519.41	971.07
519.77	977.69
520.13	983.69
520.49	989.26
520.85	995.10
521.21	1001.64
521.57	1007.57
521.93	1012.95
522.29	1017.71
522.65	1021.81
523.01	1027.00
523.37	1031.95
523.73	1037.17
524.09	1042.29
524.45	1046.98
524.81	1051.31
525.17	1056.21
525.53	1060.57
525.89	1065.19
526.25	1070.38
526.61	1074.98
526.97	1078.83
527.33	1082.81
527.68	1089.74
528.04	1093.50
528.40	1097.40
528.76	1101.55
529.12	1105.62
529.48	1110.50
529.84	1115.29
530.20	1120.07
530.56	1124.81
530.91	1129.00
531.27	1133.52
531.63	1138.14
531.99	1141.95
532.35	1146.43
532.71	1149.83
533.07	1155.02
533.42	1161.48
533.78	1165.33
534.14	1169.86
534.50	1174.00
534.86	1178.79
535.21	1180.45
535.57	1185.05
535.93	1188.50
536.29	1192.74
536.65	1196.62
537.00	1200.19
537.36	1203.52
537.72	1207.05
538.08	1210.24
538.44	1213.71
538.79	1217.24
539.15	1220.19
539.51	1223.88
539.87	1226.38
540.22	1228.55
540.58	1231.90
540.94	1232.48
541.29	1235.50
541.65	1236.98
542.01	1240.12
542.37	1242.50
542.72	1245.10
543.08	1246.90
543.44	1250.29
543.79	1250.50
544.15	1253.07
544.51	1255.74
544.87	1258.40
545.22	1261.00
545.58	1262.71
545.94	1265.67
546.29	1268.02
546.65	1270.76
547.01	1273.12
547.36	1276.36
547.72	1279.69
548.07	1281.64
548.43	1284.55
548.79	1285.86
549.14	1288.40
549.50	1291.50
549.86	1292.83
550.21	1295.38
550.57	1298.45
550.92	1300.62
551.28	1305.26
551.64	1307.98
551.99	1311.29
552.35	1313.31
552.70	1316.55
553.06	1320.86
553.41	1323.24
553.77	1327.26
554.13	1330.40
554.48	1334.67
554.84	1338.88
555.19	1342.60
555.55	1348.26
555.90	1351.02
556.26	1355.36
556.61	1359.33
556.97	1362.05
557.32	1366.55
557.68	1370.29
558.03	1373.24
558.39	1377.40
558.74	1380.64
559.10	1384.31
559.45	1387.90
559.81	1392.98
560.16	1396.55
560.52	1399.38
560.87	1404.14
561.23	1407.38
561.58	1412.93
561.94	1416.19
562.29	1419.98
562.64	1424.55
563.00	1426.62
563.35	1432.02
563.71	1437.10
564.06	1442.74
564.42	1448.60
564.77	1453.95
565.12	1459.36
565.48	1467.24
565.83	1472.17
566.19	1478.48
566.54	1484.43
566.89	1489.43
567.25	1495.90
567.60	1502.60
567.96	1510.57
568.31	1516.48
568.66	1523.19
569.02	1528.14
569.37	1533.33
569.72	1538.48
570.08	1543.45
570.43	1549.45
570.78	1554.81
571.14	1559.57
571.49	1564.52
571.84	1570.17
572.20	1575.00
572.55	1580.17
572.90	1583.79
573.26	1588.55
573.61	1592.50
573.96	1597.07
574.31	1601.52
574.67	1604.50
575.02	1608.24
575.37	1610.40
575.72	1614.55
576.08	1617.43
576.43	1620.12
576.78	1623.93
577.13	1628.26
577.49	1632.24
577.84	1636.07
578.19	1639.57
578.54	1643.86
578.90	1648.26
579.25	1651.00
579.60	1653.83
579.95	1657.05
580.30	1660.43
580.66	1665.21
581.01	1668.93
581.36	1671.52
581.71	1675.43
582.06	1680.43
582.42	1684.64
582.77	1687.79
583.12	1691.02
583.47	1694.81
583.82	1699.38
584.17	1703.40
584.53	1707.17
584.88	1711.14
585.23	1714.79
585.58	1717.31
585.93	1720.33
586.28	1722.95
586.63	1726.95
586.98	1729.88
587.34	1733.64
587.69	1736.74
588.04	1738.98
588.39	1741.67
588.74	1743.64
589.09	1746.14
589.44	1746.19
589.79	1747.86
590.14	1750.29
590.49	1751.88
590.84	1753.24
591.19	1754.24
591.54	1755.86
591.89	1757.05
592.25	1759.76
592.60	1760.52
592.95	1763.21
593.30	1764.81
593.65	1764.90
594.00	1764.93
594.35	1771.83
594.70	1771.45
595.05	1772.71
595.40	1774.05
595.75	1775.10
596.10	1777.48
596.45	1779.29
596.80	1780.95
597.15	1781.93
597.50	1782.90
597.85	1784.71
598.19	1784.86
598.54	1785.64
598.89	1786.43
599.24	1787.62
599.59	1787.48
599.94	1787.31
600.29	1786.79
600.64	1787.00
600.99	1787.95
601.34	1788.90
601.69	1783.86
602.04	1784.29
602.39	1783.98
602.74	1783.95
603.08	1783.40
603.43	1783.24
603.78	1781.74
604.13	1782.31
604.48	1781.98
604.83	1782.21
605.18	1781.76
605.53	1782.38
605.87	1782.17
606.22	1780.48
606.57	1779.14
606.92	1777.36
607.27	1777.10
607.62	1777.05
607.96	1776.81
608.31	1776.45
608.66	1775.19
609.01	1774.24
609.36	1773.90
609.70	1772.21
610.05	1769.67
610.40	1768.33
610.75	1765.86
611.10	1764.52
611.44	1761.76
611.79	1759.07
612.14	1756.19
612.49	1752.74
612.83	1750.17
613.18	1747.57
613.53	1745.83
613.88	1742.17
614.22	1738.71
614.57	1735.71
614.92	1732.00
615.27	1728.29
615.61	1724.26
615.96	1720.05
616.31	1716.38
616.65	1713.50
617.00	1710.40
617.35	1708.14
617.70	1704.33
618.04	1701.43
618.39	1698.52
618.74	1695.19
619.08	1691.55
619.43	1688.55
619.78	1685.67
620.12	1681.57
620.47	1678.38
620.82	1673.86
621.16	1670.19
621.51	1668.14
621.85	1664.19
622.20	1661.17
622.55	1657.45
622.89	1654.52
623.24	1652.19
623.59	1648.79
623.93	1644.67
624.28	1640.43
624.62	1637.57
624.97	1635.19
625.32	1630.36
625.66	1625.36
626.01	1621.45
626.35	1617.93
626.70	1613.10
627.04	1610.48
627.39	1607.21
627.73	1604.14
628.08	1601.45
628.43	1598.36
628.77	1594.57
629.12	1591.90
629.46	1587.74
629.81	1584.43
630.15	1579.17
630.50	1573.50
630.84	1568.43
631.19	1562.76
631.53	1557.50
631.88	1550.95
632.22	1545.26
632.57	1541.71
632.91	1537.07
633.26	1532.60
633.60	1527.74
633.95	1523.64
634.29	1516.95
634.64	1512.69
634.98	1506.10
635.32	1501.62
635.67	1498.05
636.01	1493.55
636.36	1488.17
636.70	1484.10
637.05	1479.10
637.39	1475.14
637.73	1471.50
638.08	1467.88
638.42	1464.10
638.77	1460.98
639.11	1456.88
639.45	1451.71
639.80	1446.50
640.14	1442.21
640.49	1437.64
640.83	1432.43
641.17	1428.12
641.52	1424.05
641.86	1418.36
642.20	1415.57
642.55	1409.57
642.89	1403.00
643.23	1397.10
643.58	1392.67
643.92	1386.14
644.26	1380.29
644.61	1375.76
644.95	1370.45
645.29	1364.17
645.64	1358.98
645.98	1352.79
646.32	1347.19
646.66	1342.05
647.01	1335.90
647.35	1329.83
647.69	1323.60
648.04	1318.86
648.38	1312.12
648.72	1306.10
649.06	1300.31
649.41	1293.02
649.75	1287.26
650.09	1281.31
650.43	1274.76
650.78	1268.17
651.12	1262.40
651.46	1256.69
651.80	1250.14
652.14	1243.48
652.49	1238.48
652.83	1232.05
653.17	1226.05
653.51	1219.29
653.85	1212.64
654.20	1206.83
654.54	1200.40
654.88	1194.55
655.22	1189.10
655.56	1182.79
655.90	1176.17
656.25	1170.57
656.59	1164.05
656.93	1158.05
657.27	1152.81
657.61	1146.45
657.95	1140.74
658.29	1134.40
658.64	1128.21
658.98	1121.45
659.32	1115.62
659.66	1108.79
660.00	1102.74
660.34	1096.48
660.68	1090.90
661.02	1084.98
661.36	1078.90
661.70	1073.19
662.05	1066.60
662.39	1059.81
662.73	1054.81
663.07	1050.05
663.41	1043.62
663.75	1038.17
664.09	1033.10
664.43	1026.86
664.77	1021.38
665.11	1014.50
665.45	1008.88
665.79	1002.52
666.13	996.88
666.47	990.86
666.81	985.07
667.15	979.45
667.49	974.26
667.83	969.29
668.17	963.76
668.51	958.60
668.85	953.81
669.19	949.98
669.53	944.17
669.87	937.95
670.21	932.17
670.55	926.69
670.89	921.86
671.23	915.93
671.57	910.38
671.91	905.26
672.25	900.74
672.58	896.07
672.92	891.12
673.26	885.74
673.60	880.76
673.94	875.33
674.28	870.10
674.62	865.57
674.96	860.55
675.30	855.86
675.64	850.81
675.97	845.64
676.31	839.71
676.65	834.81
676.99	831.33
677.33	826.17
677.67	821.33
678.01	815.21
678.34	810.24
678.68	805.90
679.02	800.14
679.36	794.43
679.70	789.19
680.04	784.24
680.37	779.62
680.71	775.02
681.05	771.10
681.39	766.07
681.73	760.67
682.06	755.76
682.40	751.07
682.74	746.81
683.08	742.12
683.42	737.55
683.75	732.79
684.09	727.07
684.43	722.71
684.77	717.64
685.10	713.45
685.44	709.05
685.78	703.88
686.12	699.90
686.45	695.38
686.79	690.50
687.13	685.81
687.46	681.02
687.80	676.62
688.14	672.12
688.48	667.83
688.81	663.33
689.15	658.86
689.49	654.17
689.82	649.36
690.16	644.02
690.50	639.26
690.83	634.50
691.17	629.95
691.51	624.98
691.84	620.93
692.18	616.60
692.52	612.12
692.85	608.57
693.19	605.02
693.52	600.86
693.86	596.33
694.20	592.69
694.53	588.55
694.87	584.24
695.21	579.33
695.54	575.00
695.88	570.62
696.21	565.76
696.55	561.36
696.88	557.36
697.22	553.98
697.56	550.40
697.89	546.57
698.23	542.90
698.56	539.21
698.90	535.71
699.23	531.64
699.57	527.86
699.90	523.43
700.24	519.29
700.58	515.79
700.91	512.81
701.25	510.76
701.58	508.05
701.92	504.86
702.25	501.81
702.59	498.57
702.92	495.38
703.26	492.83
703.59	490.43
703.93	489.00
704.26	485.90
704.60	482.67
704.93	479.31
705.26	476.10
705.60	473.21
705.93	469.76
706.27	467.64
706.60	465.31
706.94	463.43
707.27	460.05
707.61	457.40
707.94	454.36
708.27	449.57
708.61	446.12
708.94	443.33
709.28	441.02
709.61	438.40
709.94	436.02
710.28	432.98
710.61	429.81
710.95	425.31
711.28	424.29
711.61	421.71
711.95	419.86
712.28	417.17
712.61	414.45
712.95	412.69
713.28	411.07
713.61	408.10
713.95	404.93
714.28	402.98
714.61	400.45
714.95	398.12
715.28	395.74
715.61	393.40
715.95	391.24
716.28	388.40
716.61	386.38
716.95	384.05
717.28	381.88
717.61	379.71
717.94	377.81
718.28	374.26
718.61	372.21
718.94	370.02
719.27	368.00
719.61	366.21
719.94	363.88
720.27	360.64
720.60	358.52
720.94	356.62
721.27	354.64
721.60	353.17
721.93	351.38
722.27	350.67
722.60	349.36
722.93	347.21
723.26	346.00
723.59	344.10
723.93	342.67
724.26	341.38
724.59	340.19
724.92	338.69
725.25	337.81
725.59	336.24
725.92	335.26
726.25	334.00
726.58	332.81
726.91	331.26
727.24	330.40
727.57	329.40
727.91	327.81
728.24	326.90
728.57	325.24
728.90	324.12
729.23	322.17
729.56	321.83
729.89	320.83
730.22	319.31
730.55	317.95
730.89	316.88
731.22	315.38
731.55	313.93
731.88	313.19
732.21	311.29
732.54	309.93
732.87	308.57
733.20	307.76
733.53	306.40
733.86	305.67
734.19	304.05
734.52	303.48
734.85	303.79
735.18	302.48
735.51	302.45
735.84	301.98
736.17	301.55
736.50	299.52
736.83	300.83
737.16	300.02
737.49	299.71
737.82	298.83
738.15	298.45
738.48	297.62
738.81	296.33
739.14	295.48
739.47	294.60
739.80	293.52
740.13	292.43
740.46	291.48
740.79	290.52
741.12	289.93
741.45	288.38
741.78	286.43
742.11	285.90
742.44	284.45
742.77	283.45
743.10	282.12
743.43	281.05
743.75	278.19
744.08	279.98
744.41	278.45
744.74	277.57
745.07	276.10
745.40	275.71
745.73	275.98
746.06	275.40
746.39	275.26
746.71	274.26
747.04	273.38
747.37	272.60
747.70	272.26
748.03	271.60
748.36	271.19
748.68	270.64
749.01	269.45
749.34	268.71
749.67	268.31
750.00	268.12
750.33	269.24
750.65	268.69
750.98	265.57
751.31	265.31
751.64	264.48
751.97	265.43
752.29	264.60
752.62	262.98
752.95	262.17
753.28	261.14
753.60	260.71
753.93	260.88
754.26	260.36
754.59	259.17
754.91	258.24
755.24	257.71
755.57	257.14
755.90	256.74
756.22	256.07
756.55	254.95
756.88	254.00
757.20	252.05
757.53	250.98
757.86	250.24
758.19	249.81
758.51	249.36
758.84	247.60
759.17	246.88
759.49	246.40
759.82	247.07
760.15	247.19
760.47	246.76
760.80	245.48
761.13	245.60
761.45	245.24
761.78	245.19
762.11	244.57
762.43	244.10
762.76	243.64
763.08	243.55
763.41	243.36
763.74	243.17
764.06	242.88
764.39	242.67
764.71	242.45
765.04	241.98
765.37	241.55
765.69	241.07
766.02	240.62
766.34	240.26
766.67	239.19
767.00	238.83
767.32	239.48
767.65	240.71
767.97	239.93
768.30	239.86
768.62	239.31
768.95	239.05
769.27	238.69
769.60	238.81
769.92	238.17
770.25	237.67
770.57	237.17
770.90	236.64
771.22	236.29
771.55	236.19
771.87	235.95
772.20	235.71
772.52	237.38
772.85	239.88
773.17	239.74
773.50	239.36
773.82	238.69
774.15	237.71
774.47	236.00
774.80	235.71
775.12	235.33
775.45	235.29
775.77	235.31
776.09	235.57
776.42	235.29
776.74	235.88
777.07	235.64
777.39	235.33
777.72	235.05
778.04	234.93
778.36	234.26
778.69	234.31
779.01	234.24
779.33	232.17
779.66	229.57
779.98	229.19
780.31	228.95
780.63	229.81
780.95	229.60
781.28	229.45
781.60	229.33
781.92	229.12
782.25	228.79
782.57	228.48
782.89	227.76
783.22	227.57
783.54	226.81
783.86	226.74
784.19	226.60
784.51	227.07
784.83	226.74
785.16	226.79
785.48	226.50
785.80	226.45
786.12	226.57
786.45	226.21
786.77	226.40
787.09	226.02
787.42	224.95
787.74	225.00
788.06	224.98
788.38	224.81
788.71	224.45
789.03	224.36
789.35	224.38
789.67	223.93
789.99	223.81
790.32	223.36
790.64	223.36
790.96	224.95
791.28	224.02
791.61	223.79
791.93	223.64
792.25	223.64
792.57	224.83
792.89	224.17
793.21	224.40
793.54	223.98
793.86	223.95
794.18	224.12
794.50	223.64
794.82	223.64
795.14	223.60
795.47	223.90
795.79	224.05
796.11	223.60
796.43	223.71
796.75	223.57
797.07	223.38
797.39	223.19
797.71	221.57
798.04	221.57
798.36	221.86
798.68	221.57
799.00	221.45
799.32	220.14
799.64	220.90
799.96	220.79
800.28	221.14
800.60	220.93
800.92	220.88
801.24	220.86
801.56	221.05
801.89	220.95
802.21	221.07
802.53	220.60
802.85	220.90
803.17	221.64
803.49	221.36
803.81	221.52
804.13	221.40
804.45	220.90
804.77	221.19
805.09	221.19
805.41	221.02
805.73	220.64
806.05	220.43
806.37	219.81
806.69	219.67
807.01	219.24
807.33	219.31
807.65	218.64
807.97	219.55
808.28	219.12
808.60	219.05
808.92	218.69
809.24	220.00
809.56	219.76
809.88	219.29
810.20	219.33
810.52	219.74
810.84	219.60
811.16	219.62
811.48	219.33
811.80	219.88
812.12	220.10
812.43	220.33
812.75	220.33
813.07	220.19
813.39	220.26
813.71	219.98
814.03	219.62
814.35	219.45
814.67	218.45
814.98	218.43
815.30	218.43
815.62	218.07
815.94	216.48
816.26	216.55
816.58	215.98
816.89	216.17
817.21	215.69
817.53	215.60
817.85	215.55
818.17	215.55
818.48	214.88
818.80	215.12
819.12	214.90
819.44	214.71
819.76	214.57
820.07	214.52
820.39	214.69
820.71	215.05
821.03	215.10
821.34	214.79
821.66	214.98
821.98	215.14
822.30	215.05
822.61	216.31
822.93	215.81
823.25	215.81
823.57	215.40
823.88	215.57
824.20	215.60
824.52	216.14
824.83	215.93
825.15	215.36
825.47	215.36
825.79	215.40
826.10	215.07
826.42	215.00
826.74	215.10
827.05	214.98
827.37	215.05
827.69	215.17
828.00	215.29
828.32	215.10
828.64	214.60
828.95	215.71
829.27	215.24
829.58	215.40
829.90	215.95
830.22	216.02
830.53	215.79
830.85	215.45
831.17	214.93
831.48	214.93
831.80	215.29
832.11	214.90
832.43	214.69
832.75	214.74
833.06	215.90
833.38	215.29
833.69	215.24
834.01	215.24
834.32	215.07
834.64	214.93
834.96	215.14
835.27	214.98
835.59	214.29
835.90	213.76
836.22	213.76
836.53	213.21
836.85	213.05
837.16	214.74
837.48	214.93
837.79	215.62
838.11	215.88
838.42	215.81
838.74	216.24
839.05	216.05
839.37	216.17
839.68	214.88
840.00	214.86
840.31	215.07
840.63	214.95
840.94	214.60
841.26	214.60
841.57	214.48
841.88	215.02
842.20	214.81
842.51	214.76
842.83	214.79
843.14	216.36
843.46	216.45
843.77	215.69
844.08	215.48
844.40	214.67
844.71	214.52
845.03	214.17
845.34	213.86
845.65	213.98
845.97	213.98
846.28	214.19
846.60	214.31
846.91	214.07
847.22	213.93
847.54	214.60
847.85	214.81
848.16	214.64
848.48	214.24
848.79	214.93
849.10	215.07
849.42	215.05
849.73	213.40
850.04	213.29
850.36	212.45
850.67	212.74
850.98	212.74
851.30	212.93
851.61	213.00
851.92	213.07
852.23	213.48
852.55	213.69
852.86	213.93
853.17	214.31
853.49	214.81
853.80	215.33
854.11	215.36
854.42	215.55
854.74	215.33
855.05	215.33
855.36	214.31
855.67	214.43
855.99	214.40
856.30	216.83
856.61	216.79
856.92	216.93
857.23	217.24
857.55	217.02
857.86	216.83
858.17	217.52
858.48	217.19
858.79	217.07
859.11	217.05
859.42	216.86
859.73	216.40
860.04	216.19
860.35	215.40
860.66	214.81
860.98	214.60
861.29	214.88
861.60	214.86
861.91	215.26
862.22	214.93
862.53	214.79
862.84	212.31
863.16	213.07
863.47	212.71
863.78	212.19
864.09	212.50
864.40	212.74
864.71	212.40
865.02	212.64
865.33	212.50
865.64	212.14
865.95	212.05
866.27	213.26
866.58	212.93
866.89	213.40
867.20	213.52
867.51	213.36
867.82	213.26
868.13	213.98
868.44	213.64
868.75	214.05
869.06	214.19
869.37	214.36
869.68	213.48
869.99	213.83
870.30	213.88
870.61	214.14
870.92	213.71
871.23	213.36
871.54	213.55
871.85	213.62
872.16	214.12
872.47	214.10
872.78	212.90
873.09	213.24
873.40	212.93
873.71	213.02
874.02	213.14
874.33	212.86
874.64	212.24
874.95	212.55
875.26	212.05
875.56	212.07
875.87	212.07
876.18	212.26
876.49	214.10
876.80	214.17
877.11	213.81
877.42	213.86
877.73	214.00
878.04	213.67
878.35	213.74
878.66	213.55
878.96	213.55
879.27	213.60
879.58	213.45
879.89	213.38
880.20	213.98
880.51	213.76
880.82	213.64
881.12	213.60
881.43	213.10
881.74	213.10
882.05	213.00
882.36	213.21
882.67	213.21
882.97	211.10
883.28	210.90
883.59	210.69
883.90	210.98
884.21	211.31
884.51	211.29
884.82	211.14
885.13	211.02
885.44	211.14
885.74	211.29
886.05	211.24
886.36	211.10
886.67	210.60
886.98	211.62
887.28	212.02
887.59	212.05
887.90	212.43
888.20	212.24
888.51	212.52
888.82	212.12
889.13	212.33
889.43	213.83
889.74	213.93
890.05	214.02
890.35	213.76
890.66	213.55
890.97	213.62
891.28	213.48
891.58	213.64
891.89	213.45
892.20	213.17
892.50	212.86
892.81	213.02
893.12	212.67
893.42	211.76
893.73	211.79
894.04	211.81
894.34	211.76
894.65	211.83
894.95	211.60
895.26	211.67
895.57	212.43
895.87	210.71
896.18	210.88
896.48	210.88
896.79	210.81
897.10	210.95
897.40	210.79
897.71	210.74
898.01	210.62
898.32	210.69
898.63	210.62
898.93	211.10
899.24	211.02
899.54	211.05
899.85	211.05
900.15	210.86
900.46	211.00
900.76	211.38
901.07	211.26
901.38	211.21
901.68	211.48
901.99	210.43
902.29	210.48
902.60	210.26
902.90	210.07
903.21	210.29
903.51	210.19
903.82	210.60
904.12	210.55
904.43	210.38
904.73	210.29
905.03	210.52
905.34	212.31
905.64	212.17
905.95	212.36
906.25	212.33
906.56	212.52
906.86	212.50
907.17	212.14
907.47	212.26
907.77	212.14
908.08	211.86
908.38	212.00
908.69	212.36
908.99	212.74
909.30	213.10
909.60	213.10
909.90	213.29
910.21	212.81
910.51	213.10
910.81	213.21
911.12	213.62
911.42	213.40
911.73	211.14
912.03	211.43
912.33	211.86
912.64	211.83
912.94	211.57
913.24	211.12
913.55	211.02
913.85	210.98
914.15	211.50
914.46	211.93
914.76	211.67
915.06	211.64
915.37	211.43
915.67	211.38
915.97	211.48
916.27	210.90
916.58	211.19
916.88	210.86
917.18	210.81
917.49	212.12
917.79	212.21
918.09	212.60
918.39	213.05
918.70	212.88
919.00	212.81
919.30	213.93
919.60	213.88
919.91	213.64
920.21	213.71
920.51	213.12
920.81	212.64
921.12	213.14
921.42	213.00
921.72	212.98
922.02	212.95
922.32	213.05
922.63	213.17
922.93	214.02
923.23	214.26
923.53	214.12
923.83	212.74
924.13	212.83
924.44	212.88
924.74	213.07
925.04	213.69
925.34	213.60
925.64	212.71
925.94	212.83
926.24	214.12
926.55	213.93
926.85	214.36
927.15	214.52
927.45	214.26
927.75	214.19
928.05	214.19
928.35	213.93
928.65	214.05
928.95	214.45
929.26	213.64
929.56	213.74
929.86	213.93
930.16	213.60
930.46	213.62
930.76	213.74
931.06	213.00
931.36	212.19
931.66	212.64
931.96	212.81
932.26	213.05
932.56	212.24
932.86	212.43
933.16	212.29
933.46	212.05
933.76	211.81
934.06	212.26
934.36	213.19
934.66	213.36
934.96	213.17
935.26	213.19
935.56	213.48
935.86	212.86
936.16	212.88
936.46	212.83
936.76	212.64
937.06	212.19
937.36	212.14
937.66	212.48
937.96	212.29
938.26	211.81
938.56	211.64
938.86	211.52
939.16	212.02
939.46	212.21
939.76	212.36
940.06	212.45
940.35	211.88
940.65	210.90
940.95	211.12
941.25	210.50
941.55	209.98
941.85	209.81
942.15	210.45
942.45	210.79
942.75	210.71
943.04	210.55
943.34	210.90
943.64	210.76
943.94	210.14
944.24	210.26
944.54	210.48
944.84	210.36
945.13	210.05
945.43	209.60
945.73	209.45
946.03	209.10
946.33	208.83
946.62	208.67
946.92	208.31
947.22	208.24
947.52	208.55
947.82	209.14
948.11	208.74
948.41	208.55
948.71	207.83
949.01	207.98
949.31	208.19
949.60	208.00
949.90	208.36
950.20	208.38
950.50	208.29
950.79	208.00
951.09	208.45
951.39	208.57
951.69	208.55
951.98	209.02
952.28	209.21
952.58	209.52
952.87	209.74
953.17	210.12
953.47	210.07
953.76	210.10
954.06	209.43
954.36	209.43
954.66	209.19
954.95	209.98
955.25	209.95
955.55	210.02
955.84	209.95
956.14	210.10
956.44	210.24
956.73	210.10
957.03	210.26
957.32	210.14
957.62	210.12
957.92	210.29
958.21	210.19
958.51	212.57
958.81	212.79
959.10	212.90
959.40	213.38
959.69	213.50
959.99	213.93
960.29	213.95
960.58	213.90
960.88	214.81
961.17	214.33
961.47	214.76
961.76	214.64
962.06	215.17
962.36	215.05
962.65	215.10
962.95	215.07
963.24	214.95
963.54	215.07
963.83	215.33
964.13	215.33
964.42	214.64
964.72	213.00
965.01	212.93
965.31	212.93
965.60	212.45
965.90	213.64
966.19	213.17
966.49	213.76
966.78	213.81
967.08	213.60
967.37	213.79
967.67	213.19
967.96	213.50
968.26	213.29
968.55	213.36
968.85	213.33
969.14	213.55
969.43	213.43
969.73	213.05
970.02	212.88
970.32	212.95
970.61	212.95
970.91	212.50
971.20	212.02
971.49	211.81
971.79	212.14
972.08	210.60
972.38	210.71
972.67	210.43
972.96	210.69
973.26	210.19
973.55	210.69
973.85	210.90
974.14	210.60
974.43	210.69
974.73	210.38
975.02	210.29
975.31	210.14
975.61	210.14
975.90	210.12
976.19	210.05
976.49	210.00
976.78	210.31
977.07	210.29
977.37	210.76
977.66	211.00
977.95	210.57
978.24	210.93
978.54	211.17
978.83	211.05
979.12	210.83
979.42	210.93
979.71	210.57
980.00	210.57
980.29	210.67
980.59	210.26
980.88	210.88
981.17	210.79
981.46	210.88
981.76	210.88
982.05	211.43
982.34	211.74
982.63	211.88
982.93	211.67
983.22	212.26
983.51	212.10
983.80	212.38
984.09	212.81
984.39	212.43
984.68	212.52
984.97	212.67
985.26	212.69
985.55	212.76
985.85	212.33
986.14	212.55
986.43	213.05
986.72	212.93
987.01	212.29
987.30	212.31
987.59	212.17
987.89	212.31
988.18	211.90
988.47	211.60
988.76	211.38
989.05	211.21
989.34	210.83
989.63	211.43
989.92	210.95
990.22	210.64
990.51	210.83
990.80	210.52
991.09	210.69
991.38	210.76
991.67	210.60
991.96	210.48
992.25	210.45
992.54	209.95
992.83	210.29
993.12	210.48
993.41	210.95
993.70	211.45
993.99	211.76
994.28	212.00
994.58	212.43
994.87	212.17
995.16	212.21
995.45	212.00
995.74	211.24
996.03	211.57
996.32	211.69
996.61	211.95
996.90	211.90
997.19	211.45
997.48	211.60
997.77	211.40
998.06	211.62
998.34	211.52
998.63	211.50
998.92	211.38
999.21	211.55
999.50	211.38
999.79	210.98
1000.08	210.95
1000.37	211.02
1000.66	210.50
1000.95	211.07
1001.24	211.48
1001.53	211.83
1001.82	211.88
1002.11	211.40
1002.40	211.74
1002.68	212.12
1002.97	213.50
1003.26	213.60
1003.55	213.21
1003.84	213.43
1004.13	214.14
1004.42	214.05
1004.71	213.83
1004.99	213.48
1005.28	213.90
1005.57	213.83
1005.86	213.69
1006.15	213.48
1006.44	213.05
1006.72	213.33
1007.01	212.95
1007.30	212.79
1007.59	212.36
1007.88	212.24
1008.17	212.60
1008.45	212.29
1008.74	211.71
1009.03	210.71
1009.32	210.69
1009.60	210.55
1009.89	210.45
1010.18	209.64
1010.47	209.55
1010.76	209.79
1011.04	209.93
1011.33	209.79
1011.62	209.93
1011.91	210.05
1012.19	210.05
1012.48	210.26
1012.77	210.12
1013.05	211.12
1013.34	211.14
1013.63	211.31
1013.92	211.52
1014.20	211.24
1014.49	211.26
1014.78	211.19
1015.06	210.62
1015.35	210.55
1015.64	210.83
1015.92	210.98
1016.21	211.02
1016.50	210.98
1016.78	211.26
1017.07	211.45
1017.36	211.05
1017.64	210.55
1017.93	210.60
1018.22	210.48
1018.50	210.21
1018.79	210.29
1019.08	209.07
1019.36	209.07
1019.65	208.55
1019.93	208.93
1020.22	209.31
1020.51	210.31
1020.79	210.29
1021.08	206.00
1021.36	206.00
1021.65	211.00
1021.94	205.50
1022.22	212.00
1022.51	201.50
1022.79	217.50
1023.08	214.00
1023.36	235.00
1023.65	207.50
>>>>>End Processed Spectral Data<<<<<
