SpectraSuite Data File
++++++++++++++++++++++++++++++++++++
Date: Tue Apr 02 18:41:39 EDT 2013
User: group
Dark Spectrum Present: No
Reference Spectrum Present: No
Number of Sampled Component Spectra: 1
Spectrometers: USB2E7196
Integration Time (usec): 580000 (USB2E7196)
Spectra Averaged: 2 (USB2E7196)
Boxcar Smoothing: 10 (USB2E7196)
Correct for Electrical Dark: No (USB2E7196)
Strobe/Lamp Enabled: No (USB2E7196)
Correct for Detector Non-linearity: No (USB2E7196)
Correct for Stray Light: No (USB2E7196)
Number of Pixels in Processed Spectrum: 2048
>>>>>Begin Processed Spectral Data<<<<<
339.09	0.00
339.48	193.00
339.86	196.50
340.24	196.00
340.63	198.00
341.01	231.50
341.39	203.50
341.78	208.00
342.16	212.00
342.54	208.50
342.93	199.38
343.31	209.24
343.69	209.90
344.07	210.50
344.46	211.26
344.84	211.95
345.22	211.00
345.60	211.43
345.99	211.50
346.37	211.43
346.75	211.38
347.13	211.12
347.52	211.05
347.90	211.48
348.28	211.62
348.66	211.88
349.05	211.40
349.43	211.45
349.81	211.57
350.19	211.55
350.57	211.55
350.96	211.74
351.34	212.07
351.72	212.07
352.10	211.98
352.48	212.10
352.87	211.98
353.25	211.81
353.63	211.43
354.01	211.24
354.39	211.31
354.77	211.21
355.15	212.05
355.54	211.90
355.92	211.36
356.30	211.14
356.68	212.43
357.06	212.48
357.44	212.02
357.82	211.76
358.20	212.69
358.58	212.57
358.97	212.50
359.35	212.74
359.73	213.05
360.11	212.98
360.49	212.71
360.87	212.74
361.25	212.98
361.63	213.64
362.01	213.83
362.39	213.71
362.77	213.95
363.15	213.67
363.53	213.48
363.91	213.93
364.29	213.86
364.67	211.93
365.05	212.12
365.43	212.52
365.81	212.83
366.19	212.83
366.57	213.69
366.95	213.48
367.33	212.93
367.71	213.00
368.09	213.36
368.47	213.55
368.85	213.31
369.23	213.69
369.61	213.07
369.99	213.69
370.37	213.83
370.75	214.86
371.13	214.69
371.51	214.74
371.89	214.57
372.27	215.05
372.65	215.14
373.03	215.05
373.41	214.88
373.78	214.55
374.16	213.43
374.54	212.74
374.92	212.62
375.30	212.55
375.68	212.31
376.06	212.52
376.44	212.17
376.82	212.55
377.19	212.52
377.57	212.60
377.95	212.10
378.33	212.05
378.71	210.95
379.09	211.02
379.47	211.26
379.84	211.12
380.22	210.95
380.60	210.60
380.98	210.43
381.36	210.74
381.73	210.71
382.11	211.36
382.49	211.50
382.87	211.62
383.25	211.90
383.62	214.21
384.00	213.69
384.38	214.10
384.76	214.48
385.13	215.29
385.51	215.45
385.89	215.10
386.27	215.26
386.64	215.55
387.02	215.31
387.40	215.02
387.78	215.17
388.15	215.12
388.53	215.10
388.91	215.36
389.29	214.88
389.66	215.26
390.04	214.86
390.42	215.29
390.79	215.45
391.17	215.67
391.55	213.43
391.92	213.48
392.30	213.55
392.68	213.12
393.05	212.83
393.43	212.79
393.81	212.95
394.18	212.71
394.56	212.83
394.94	213.31
395.31	213.26
395.69	213.74
396.06	214.02
396.44	214.52
396.82	214.19
397.19	215.21
397.57	214.93
397.95	215.31
398.32	214.57
398.70	214.71
399.07	214.74
399.45	214.62
399.82	214.88
400.20	214.57
400.58	214.55
400.95	213.83
401.33	214.48
401.70	216.17
402.08	216.26
402.45	216.17
402.83	216.86
403.20	217.17
403.58	217.26
403.95	217.79
404.33	218.17
404.71	218.48
405.08	219.81
405.46	220.31
405.83	220.74
406.21	221.31
406.58	221.48
406.96	221.98
407.33	222.69
407.70	223.31
408.08	225.52
408.45	226.36
408.83	227.48
409.20	227.76
409.58	227.29
409.95	228.62
410.33	229.69
410.70	229.93
411.08	231.29
411.45	232.31
411.82	233.31
412.20	234.69
412.57	237.38
412.95	237.21
413.32	238.74
413.69	240.17
414.07	241.90
414.44	243.76
414.82	245.83
415.19	248.38
415.56	250.67
415.94	251.86
416.31	254.81
416.68	257.60
417.06	261.05
417.43	264.64
417.81	268.26
418.18	271.93
418.55	276.00
418.93	279.95
419.30	284.29
419.67	288.62
420.04	293.05
420.42	297.74
420.79	304.79
421.16	310.76
421.54	317.88
421.91	324.29
422.28	330.71
422.66	337.45
423.03	345.50
423.40	352.33
423.77	359.93
424.15	367.00
424.52	374.86
424.89	384.02
425.26	391.95
425.64	399.48
426.01	408.17
426.38	417.19
426.75	426.55
427.13	435.67
427.50	445.36
427.87	455.33
428.24	465.50
428.61	474.26
428.99	485.90
429.36	496.07
429.73	507.26
430.10	519.12
430.47	530.98
430.85	541.86
431.22	555.02
431.59	570.52
431.96	583.71
432.33	598.07
432.70	611.57
433.08	627.90
433.45	643.38
433.82	658.57
434.19	675.62
434.56	693.67
434.93	709.64
435.30	726.12
435.68	744.17
436.05	761.62
436.42	778.88
436.79	795.14
437.16	813.21
437.53	831.95
437.90	850.57
438.27	868.57
438.64	886.71
439.01	903.79
439.38	917.43
439.75	932.52
440.13	949.60
440.50	965.05
440.87	978.05
441.24	991.86
441.61	1007.14
441.98	1018.48
442.35	1030.48
442.72	1044.00
443.09	1057.38
443.46	1066.02
443.83	1071.50
444.20	1076.62
444.57	1082.52
444.94	1086.24
445.31	1089.26
445.68	1094.62
446.05	1096.17
446.42	1094.93
446.79	1094.00
447.16	1092.10
447.53	1091.29
447.90	1085.07
448.27	1079.29
448.64	1070.71
449.01	1064.29
449.37	1052.98
449.74	1041.60
450.11	1029.95
450.48	1014.81
450.85	999.10
451.22	985.86
451.59	973.45
451.96	961.45
452.33	945.36
452.70	930.14
453.07	913.24
453.43	893.10
453.80	876.38
454.17	860.36
454.54	844.43
454.91	827.67
455.28	810.95
455.65	795.79
456.02	783.79
456.38	770.90
456.75	754.98
457.12	741.17
457.49	727.83
457.86	712.50
458.23	702.38
458.59	690.17
458.96	678.19
459.33	666.86
459.70	656.02
460.07	647.74
460.43	638.10
460.80	629.19
461.17	622.00
461.54	613.31
461.91	605.02
462.27	596.48
462.64	589.33
463.01	581.76
463.38	574.76
463.74	563.45
464.11	556.36
464.48	550.50
464.85	544.24
465.21	540.50
465.58	535.88
465.95	528.69
466.32	523.79
466.68	518.12
467.05	513.31
467.42	508.17
467.78	502.95
468.15	497.81
468.52	494.12
468.88	488.02
469.25	483.43
469.62	480.26
469.98	476.62
470.35	473.33
470.72	469.69
471.08	464.69
471.45	462.24
471.82	459.64
472.18	456.10
472.55	453.29
472.92	448.90
473.28	445.33
473.65	443.12
474.02	440.24
474.38	438.50
474.75	436.64
475.11	434.50
475.48	432.12
475.85	430.64
476.21	428.50
476.58	427.17
476.94	425.88
477.31	424.14
477.67	422.67
478.04	421.21
478.41	420.48
478.77	422.38
479.14	421.14
479.50	420.26
479.87	420.24
480.23	419.98
480.60	419.90
480.96	420.38
481.33	420.95
481.69	421.19
482.06	420.79
482.42	421.17
482.79	421.62
483.15	422.02
483.52	423.14
483.88	423.69
484.25	424.36
484.61	425.31
484.98	426.26
485.34	428.36
485.71	429.93
486.07	431.24
486.44	430.74
486.80	432.38
487.17	434.07
487.53	436.52
487.90	438.95
488.26	441.88
488.62	444.50
488.99	446.21
489.35	448.62
489.72	451.52
490.08	453.48
490.44	456.02
490.81	459.67
491.17	462.60
491.54	465.83
491.90	469.81
492.26	473.29
492.63	477.29
492.99	480.52
493.36	484.74
493.72	489.19
494.08	493.43
494.45	498.17
494.81	503.07
495.17	506.98
495.54	511.88
495.90	516.31
496.26	521.57
496.63	527.29
496.99	532.76
497.35	538.05
497.72	544.45
498.08	550.60
498.44	556.36
498.80	562.69
499.17	569.29
499.53	575.43
499.89	582.48
500.26	588.98
500.62	595.67
500.98	602.60
501.34	609.55
501.71	617.64
502.07	625.07
502.43	631.83
502.79	639.17
503.16	646.60
503.52	653.43
503.88	660.64
504.24	668.74
504.60	676.52
504.97	684.76
505.33	692.38
505.69	700.98
506.05	709.00
506.41	716.57
506.78	724.24
507.14	732.07
507.50	740.21
507.86	747.98
508.22	756.29
508.59	763.71
508.95	772.21
509.31	780.21
509.67	788.36
510.03	796.69
510.39	805.43
510.75	813.60
511.12	822.02
511.48	829.64
511.84	836.74
512.20	844.21
512.56	851.93
512.92	859.60
513.28	866.83
513.64	874.19
514.00	882.10
514.37	889.74
514.73	897.57
515.09	904.71
515.45	912.10
515.81	919.07
516.17	927.21
516.53	933.45
516.89	939.43
517.25	945.76
517.61	953.05
517.97	958.90
518.33	965.10
518.69	972.40
519.05	979.38
519.41	985.64
519.77	993.50
520.13	999.07
520.49	1005.00
520.85	1010.71
521.21	1017.48
521.57	1023.50
521.93	1028.98
522.29	1034.83
522.65	1040.48
523.01	1046.60
523.37	1052.00
523.73	1057.00
524.09	1062.76
524.45	1068.02
524.81	1073.12
525.17	1078.71
525.53	1083.52
525.89	1087.93
526.25	1092.48
526.61	1097.02
526.97	1101.86
527.33	1105.95
527.68	1112.55
528.04	1117.71
528.40	1122.48
528.76	1126.29
529.12	1130.62
529.48	1135.67
529.84	1139.48
530.20	1144.19
530.56	1149.17
530.91	1154.24
531.27	1158.14
531.63	1162.31
531.99	1166.57
532.35	1170.83
532.71	1174.86
533.07	1179.93
533.42	1187.55
533.78	1191.19
534.14	1196.00
534.50	1200.62
534.86	1205.52
535.21	1208.52
535.57	1212.71
535.93	1216.93
536.29	1222.36
536.65	1226.55
537.00	1230.02
537.36	1234.29
537.72	1237.31
538.08	1240.93
538.44	1243.93
538.79	1248.26
539.15	1251.69
539.51	1255.12
539.87	1259.52
540.22	1263.10
540.58	1266.26
540.94	1267.43
541.29	1271.33
541.65	1274.00
542.01	1277.90
542.37	1280.10
542.72	1282.74
543.08	1285.05
543.44	1288.64
543.79	1290.21
544.15	1293.88
544.51	1297.67
544.87	1300.71
545.22	1305.33
545.58	1308.38
545.94	1312.05
546.29	1314.60
546.65	1317.83
547.01	1321.40
547.36	1324.10
547.72	1325.95
548.07	1329.71
548.43	1332.07
548.79	1335.07
549.14	1337.88
549.50	1340.62
549.86	1343.50
550.21	1347.02
550.57	1350.52
550.92	1353.38
551.28	1357.21
551.64	1359.74
551.99	1363.21
552.35	1366.55
552.70	1368.69
553.06	1371.40
553.41	1374.38
553.77	1379.95
554.13	1383.76
554.48	1387.76
554.84	1392.26
555.19	1396.98
555.55	1402.40
555.90	1406.45
556.26	1411.07
556.61	1415.43
556.97	1418.69
557.32	1423.48
557.68	1427.76
558.03	1431.95
558.39	1436.05
558.74	1439.71
559.10	1444.55
559.45	1448.88
559.81	1453.24
560.16	1458.07
560.52	1463.17
560.87	1467.95
561.23	1471.10
561.58	1477.64
561.94	1481.95
562.29	1486.57
562.64	1491.67
563.00	1494.26
563.35	1499.10
563.71	1503.50
564.06	1509.05
564.42	1515.05
564.77	1520.10
565.12	1526.38
565.48	1533.57
565.83	1539.74
566.19	1545.45
566.54	1550.55
566.89	1555.38
567.25	1562.12
567.60	1568.95
567.96	1576.38
568.31	1582.71
568.66	1588.69
569.02	1592.12
569.37	1597.36
569.72	1601.98
570.08	1607.12
570.43	1612.86
570.78	1618.88
571.14	1624.00
571.49	1629.05
571.84	1634.17
572.20	1639.02
572.55	1643.24
572.90	1647.29
573.26	1651.05
573.61	1655.43
573.96	1660.07
574.31	1664.74
574.67	1667.50
575.02	1670.19
575.37	1670.74
575.72	1673.76
576.08	1677.71
576.43	1681.74
576.78	1685.69
577.13	1689.62
577.49	1692.98
577.84	1696.29
578.19	1700.12
578.54	1704.98
578.90	1708.36
579.25	1711.21
579.60	1712.76
579.95	1715.02
580.30	1717.98
580.66	1721.95
581.01	1725.93
581.36	1728.67
581.71	1731.79
582.06	1736.93
582.42	1740.71
582.77	1744.98
583.12	1747.14
583.47	1749.31
583.82	1752.05
584.17	1754.17
584.53	1757.05
584.88	1759.71
585.23	1763.14
585.58	1765.31
585.93	1765.90
586.28	1768.17
586.63	1770.83
586.98	1775.02
587.34	1778.12
587.69	1779.81
588.04	1781.43
588.39	1783.29
588.74	1783.69
589.09	1784.93
589.44	1784.45
589.79	1785.31
590.14	1787.14
590.49	1788.71
590.84	1789.36
591.19	1790.21
591.54	1791.10
591.89	1791.29
592.25	1793.45
592.60	1792.71
592.95	1793.43
593.30	1794.81
593.65	1794.90
594.00	1794.02
594.35	1798.67
594.70	1797.62
595.05	1798.76
595.40	1798.17
595.75	1797.86
596.10	1799.07
596.45	1799.26
596.80	1799.40
597.15	1799.76
597.50	1799.62
597.85	1801.07
598.19	1801.26
598.54	1801.52
598.89	1802.10
599.24	1802.93
599.59	1801.05
599.94	1801.26
600.29	1800.90
600.64	1800.21
600.99	1799.90
601.34	1800.43
601.69	1795.24
602.04	1794.90
602.39	1793.17
602.74	1793.74
603.08	1791.71
603.43	1790.86
603.78	1790.19
604.13	1790.00
604.48	1787.60
604.83	1786.55
605.18	1785.14
605.53	1784.12
605.87	1782.52
606.22	1781.05
606.57	1778.98
606.92	1777.07
607.27	1775.33
607.62	1773.43
607.96	1772.40
608.31	1770.88
608.66	1768.95
609.01	1766.07
609.36	1764.76
609.70	1762.21
610.05	1758.79
610.40	1756.98
610.75	1753.83
611.10	1751.07
611.44	1747.36
611.79	1745.33
612.14	1741.38
612.49	1736.57
612.83	1733.36
613.18	1729.88
613.53	1726.40
613.88	1722.31
614.22	1718.38
614.57	1714.33
614.92	1709.55
615.27	1703.81
615.61	1699.14
615.96	1694.88
616.31	1691.31
616.65	1687.76
617.00	1683.86
617.35	1679.50
617.70	1675.07
618.04	1670.43
618.39	1665.36
618.74	1660.95
619.08	1655.40
619.43	1651.17
619.78	1647.14
620.12	1642.14
620.47	1637.60
620.82	1631.98
621.16	1626.90
621.51	1622.90
621.85	1617.86
622.20	1612.74
622.55	1607.83
622.89	1603.50
623.24	1599.00
623.59	1594.00
623.93	1588.21
624.28	1582.95
624.62	1580.67
624.97	1578.26
625.32	1575.31
625.66	1571.02
626.01	1565.90
626.35	1562.26
626.70	1558.02
627.04	1554.55
627.39	1549.76
627.73	1545.95
628.08	1542.43
628.43	1538.57
628.77	1533.48
629.12	1529.69
629.46	1526.24
629.81	1522.02
630.15	1516.33
630.50	1510.67
630.84	1505.00
631.19	1499.12
631.53	1493.69
631.88	1485.29
632.22	1476.74
632.57	1470.90
632.91	1465.36
633.26	1460.50
633.60	1455.10
633.95	1448.62
634.29	1442.07
634.64	1436.45
634.98	1430.02
635.32	1424.90
635.67	1419.60
636.01	1414.83
636.36	1408.33
636.70	1402.31
637.05	1396.69
637.39	1391.64
637.73	1386.95
638.08	1383.17
638.42	1378.43
638.77	1374.12
639.11	1368.74
639.45	1364.48
639.80	1358.48
640.14	1352.19
640.49	1346.55
640.83	1339.98
641.17	1335.17
641.52	1329.38
641.86	1324.79
642.20	1319.81
642.55	1313.02
642.89	1306.00
643.23	1299.48
643.58	1294.71
643.92	1287.76
644.26	1282.17
644.61	1276.45
644.95	1270.00
645.29	1262.45
645.64	1257.10
645.98	1250.05
646.32	1244.71
646.66	1237.33
647.01	1230.95
647.35	1225.33
647.69	1219.19
648.04	1214.17
648.38	1207.86
648.72	1201.33
649.06	1193.81
649.41	1185.90
649.75	1179.24
650.09	1172.90
650.43	1165.45
650.78	1157.64
651.12	1151.43
651.46	1144.12
651.80	1137.26
652.14	1131.07
652.49	1125.93
652.83	1118.40
653.17	1111.76
653.51	1104.81
653.85	1098.95
654.20	1092.17
654.54	1085.29
654.88	1077.81
655.22	1071.38
655.56	1063.79
655.90	1057.95
656.25	1051.90
656.59	1046.33
656.93	1039.62
657.27	1034.60
657.61	1028.98
657.95	1022.95
658.29	1017.10
658.64	1011.95
658.98	1005.83
659.32	998.57
659.66	990.76
660.00	985.07
660.34	978.67
660.68	971.86
661.02	965.88
661.36	959.76
661.70	953.95
662.05	948.50
662.39	941.83
662.73	937.17
663.07	931.33
663.41	925.14
663.75	918.26
664.09	913.17
664.43	905.71
664.77	899.50
665.11	893.81
665.45	888.50
665.79	882.38
666.13	876.12
666.47	870.60
666.81	865.64
667.15	859.45
667.49	854.69
667.83	850.21
668.17	845.02
668.51	839.79
668.85	834.31
669.19	829.71
669.53	823.55
669.87	817.26
670.21	811.38
670.55	805.81
670.89	802.19
671.23	797.00
671.57	792.50
671.91	787.90
672.25	783.05
672.58	778.10
672.92	773.07
673.26	768.05
673.60	763.17
673.94	758.12
674.28	753.12
674.62	748.48
674.96	743.31
675.30	738.74
675.64	733.90
675.97	729.19
676.31	723.71
676.65	719.52
676.99	715.83
677.33	710.88
677.67	706.81
678.01	701.48
678.34	696.60
678.68	692.33
679.02	687.29
679.36	682.67
679.70	677.88
680.04	673.29
680.37	668.81
680.71	664.05
681.05	659.93
681.39	656.02
681.73	651.12
682.06	646.43
682.40	641.36
682.74	637.14
683.08	633.76
683.42	629.17
683.75	624.98
684.09	619.74
684.43	615.29
684.77	610.38
685.10	605.95
685.44	601.45
685.78	596.67
686.12	592.52
686.45	587.67
686.79	583.02
687.13	579.48
687.46	575.71
687.80	572.12
688.14	568.02
688.48	564.10
688.81	560.62
689.15	557.45
689.49	553.98
689.82	549.83
690.16	544.98
690.50	541.17
690.83	537.02
691.17	533.02
691.51	529.74
691.84	526.26
692.18	522.76
692.52	519.02
692.85	516.36
693.19	513.86
693.52	511.05
693.86	507.60
694.20	503.48
694.53	499.88
694.87	496.31
695.21	492.19
695.54	488.36
695.88	484.29
696.21	479.81
696.55	476.36
696.88	473.21
697.22	470.19
697.56	467.52
697.89	464.38
698.23	461.79
698.56	458.45
698.90	455.71
699.23	452.02
699.57	449.14
699.90	445.26
700.24	441.52
700.58	438.52
700.91	435.88
701.25	434.64
701.58	432.50
701.92	430.24
702.25	427.81
702.59	424.95
702.92	422.67
703.26	420.50
703.59	417.81
703.93	417.29
704.26	414.69
704.60	412.02
704.93	409.71
705.26	407.02
705.60	405.33
705.93	402.55
706.27	400.88
706.60	399.33
706.94	398.26
707.27	395.83
707.61	393.74
707.94	391.48
708.27	387.88
708.61	385.17
708.94	382.81
709.28	381.02
709.61	379.00
709.94	376.79
710.28	374.95
710.61	373.33
710.95	369.12
711.28	368.57
711.61	366.33
711.95	364.81
712.28	363.00
712.61	360.69
712.95	359.90
713.28	359.10
713.61	356.88
713.95	354.43
714.28	353.05
714.61	351.33
714.95	349.67
715.28	347.40
715.61	345.57
715.95	344.02
716.28	342.12
716.61	340.74
716.95	338.69
717.28	336.76
717.61	334.93
717.94	333.64
718.28	330.83
718.61	329.71
718.94	327.62
719.27	326.19
719.61	324.76
719.94	322.69
720.27	319.76
720.60	317.93
720.94	316.36
721.27	314.90
721.60	313.52
721.93	311.98
722.27	311.86
722.60	311.12
722.93	309.52
723.26	308.50
723.59	307.12
723.93	306.45
724.26	305.64
724.59	304.40
724.92	303.05
725.25	302.33
725.59	301.10
725.92	300.38
726.25	299.40
726.58	298.33
726.91	297.50
727.24	296.98
727.57	296.43
727.91	295.29
728.24	294.62
728.57	293.55
728.90	292.98
729.23	291.40
729.56	291.12
729.89	290.50
730.22	289.36
730.55	288.50
730.89	287.43
731.22	286.50
731.55	285.33
731.88	285.17
732.21	283.86
732.54	282.71
732.87	281.93
733.20	281.02
733.53	280.38
733.86	279.71
734.19	278.71
734.52	278.12
734.85	278.81
735.18	277.81
735.51	277.62
735.84	277.00
736.17	276.93
736.50	275.14
736.83	276.98
737.16	276.40
737.49	275.88
737.82	275.40
738.15	275.17
738.48	274.83
738.81	273.74
739.14	273.00
739.47	272.43
739.80	271.79
740.13	271.21
740.46	270.29
740.79	269.10
741.12	268.43
741.45	267.45
741.78	265.90
742.11	265.69
742.44	264.60
742.77	264.17
743.10	263.02
743.43	262.52
743.75	259.40
744.08	261.52
744.41	260.29
744.74	259.62
745.07	258.43
745.40	258.31
745.73	258.33
746.06	257.93
746.39	257.71
746.71	257.12
747.04	256.31
747.37	255.62
747.70	255.43
748.03	254.93
748.36	254.86
748.68	254.29
749.01	253.21
749.34	252.71
749.67	252.24
750.00	252.19
750.33	253.17
750.65	252.88
750.98	249.79
751.31	249.64
751.64	249.31
751.97	250.02
752.29	249.36
752.62	248.26
752.95	247.83
753.28	247.02
753.60	246.50
753.93	246.74
754.26	246.79
754.59	245.98
754.91	245.69
755.24	245.12
755.57	244.45
755.90	244.07
756.22	243.67
756.55	242.83
756.88	241.98
757.20	240.17
757.53	239.36
757.86	238.86
758.19	238.98
758.51	238.62
758.84	237.12
759.17	236.55
759.49	236.21
759.82	236.71
760.15	236.86
760.47	236.45
760.80	235.43
761.13	235.43
761.45	235.24
761.78	234.90
762.11	234.43
762.43	234.02
762.76	233.67
763.08	233.55
763.41	233.62
763.74	233.62
764.06	233.40
764.39	233.55
764.71	233.48
765.04	232.93
765.37	232.45
765.69	232.50
766.02	232.24
766.34	232.00
766.67	231.00
767.00	230.93
767.32	231.88
767.65	233.12
767.97	232.55
768.30	232.40
768.62	232.26
768.95	231.90
769.27	231.74
769.60	231.83
769.92	231.67
770.25	231.00
770.57	230.33
770.90	230.12
771.22	229.57
771.55	229.36
771.87	229.07
772.20	228.90
772.52	230.50
772.85	232.67
773.17	232.62
773.50	232.36
773.82	232.12
774.15	230.88
774.47	229.43
774.80	229.10
775.12	228.95
775.45	228.52
775.77	228.55
776.09	228.43
776.42	228.33
776.74	228.69
777.07	228.38
777.39	228.24
777.72	227.90
778.04	228.07
778.36	227.60
778.69	227.86
779.01	227.86
779.33	225.81
779.66	223.52
779.98	223.33
780.31	223.33
780.63	223.64
780.95	224.07
781.28	223.93
781.60	223.74
781.92	223.60
782.25	223.86
782.57	223.76
782.89	223.71
783.22	223.45
783.54	222.74
783.86	223.00
784.19	222.95
784.51	223.43
784.83	222.83
785.16	222.83
785.48	222.76
785.80	222.57
786.12	222.67
786.45	222.60
786.77	222.29
787.09	221.93
787.42	221.07
787.74	220.95
788.06	220.95
788.38	220.95
788.71	220.81
789.03	220.67
789.35	220.88
789.67	220.52
789.99	220.57
790.32	220.45
790.64	220.60
790.96	222.50
791.28	221.76
791.61	221.69
791.93	221.83
792.25	221.57
792.57	223.02
792.89	222.43
793.21	222.50
793.54	222.40
793.86	222.55
794.18	222.74
794.50	222.36
794.82	222.07
795.14	222.33
795.47	222.26
795.79	222.31
796.11	221.71
796.43	221.74
796.75	221.86
797.07	221.76
797.39	221.64
797.71	219.62
798.04	219.76
798.36	219.90
798.68	219.76
799.00	219.74
799.32	218.52
799.64	219.05
799.96	218.83
800.28	219.40
800.60	219.12
800.92	219.21
801.24	218.76
801.56	219.12
801.89	218.69
802.21	219.02
802.53	218.50
802.85	219.05
803.17	219.79
803.49	219.05
803.81	218.79
804.13	218.64
804.45	218.62
804.77	218.67
805.09	218.62
805.41	218.52
805.73	218.10
806.05	217.69
806.37	217.50
806.69	217.40
807.01	217.12
807.33	217.38
807.65	216.60
807.97	217.71
808.28	217.38
808.60	217.26
808.92	217.00
809.24	218.29
809.56	217.81
809.88	217.12
810.20	217.45
810.52	218.05
810.84	217.60
811.16	217.40
811.48	217.26
811.80	217.95
812.12	217.81
812.43	218.07
812.75	218.24
813.07	217.95
813.39	217.95
813.71	217.67
814.03	217.45
814.35	217.64
814.67	216.71
814.98	216.50
815.30	216.50
815.62	215.93
815.94	214.57
816.26	214.43
816.58	214.19
816.89	214.21
817.21	213.55
817.53	213.81
817.85	213.64
818.17	213.64
818.48	212.69
818.80	213.21
819.12	212.98
819.44	212.36
819.76	212.40
820.07	212.33
820.39	212.36
820.71	212.24
821.03	212.24
821.34	212.24
821.66	212.69
821.98	212.98
822.30	213.10
822.61	214.29
822.93	214.33
823.25	214.29
823.57	214.12
823.88	214.50
824.20	214.29
824.52	214.83
824.83	214.76
825.15	214.52
825.47	214.43
825.79	214.79
826.10	214.76
826.42	214.52
826.74	214.81
827.05	214.45
827.37	214.26
827.69	214.38
828.00	214.24
828.32	214.07
828.64	213.74
828.95	214.69
829.27	214.14
829.58	214.36
829.90	214.79
830.22	214.98
830.53	214.62
830.85	214.43
831.17	214.14
831.48	214.10
831.80	214.33
832.11	214.02
832.43	213.64
832.75	213.64
833.06	215.00
833.38	214.33
833.69	214.40
834.01	214.67
834.32	214.45
834.64	214.33
834.96	214.33
835.27	214.29
835.59	213.67
835.90	213.21
836.22	212.88
836.53	212.43
836.85	212.21
837.16	214.14
837.48	214.55
837.79	214.98
838.11	214.95
838.42	214.90
838.74	215.12
839.05	214.98
839.37	215.24
839.68	214.05
840.00	214.50
840.31	214.79
840.63	214.76
840.94	214.55
841.26	214.55
841.57	214.60
841.88	214.93
842.20	214.69
842.51	214.74
842.83	214.81
843.14	216.62
843.46	216.48
843.77	215.43
844.08	215.24
844.40	214.48
844.71	214.55
845.03	214.57
845.34	214.24
845.65	214.17
845.97	214.26
846.28	214.12
846.60	213.86
846.91	213.81
847.22	213.67
847.54	214.31
847.85	214.48
848.16	214.24
848.48	213.83
848.79	214.95
849.10	215.02
849.42	215.21
849.73	213.33
850.04	213.48
850.36	212.76
850.67	213.14
850.98	213.31
851.30	213.40
851.61	213.29
851.92	213.40
852.23	214.02
852.55	213.95
852.86	214.10
853.17	214.12
853.49	214.24
853.80	214.64
854.11	214.48
854.42	214.90
854.74	214.76
855.05	214.86
855.36	213.67
855.67	213.74
855.99	213.76
856.30	216.24
856.61	216.10
856.92	216.07
857.23	216.07
857.55	215.93
857.86	215.69
858.17	216.12
858.48	215.81
858.79	215.52
859.11	215.60
859.42	215.52
859.73	215.40
860.04	215.50
860.35	215.17
860.66	214.81
860.98	214.50
861.29	214.79
861.60	214.81
861.91	215.17
862.22	214.88
862.53	214.57
862.84	212.29
863.16	213.02
863.47	212.81
863.78	212.69
864.09	212.95
864.40	213.26
864.71	213.02
865.02	213.48
865.33	213.19
865.64	212.98
865.95	212.93
866.27	214.24
866.58	213.86
866.89	213.95
867.20	213.60
867.51	213.24
867.82	213.10
868.13	213.50
868.44	213.12
868.75	213.43
869.06	213.48
869.37	213.69
869.68	212.71
869.99	213.17
870.30	212.95
870.61	213.02
870.92	212.52
871.23	212.69
871.54	212.79
871.85	213.40
872.16	213.55
872.47	213.36
872.78	212.21
873.09	212.36
873.40	212.24
873.71	212.57
874.02	212.71
874.33	212.48
874.64	212.05
874.95	212.43
875.26	211.90
875.56	211.60
875.87	211.36
876.18	211.40
876.49	213.36
876.80	213.29
877.11	212.90
877.42	213.07
877.73	212.95
878.04	212.67
878.35	212.64
878.66	212.60
878.96	212.81
879.27	212.86
879.58	212.95
879.89	212.74
880.20	213.21
880.51	213.17
880.82	213.38
881.12	213.40
881.43	212.95
881.74	213.00
882.05	213.31
882.36	213.40
882.67	213.69
882.97	211.43
883.28	210.98
883.59	210.83
883.90	211.00
884.21	211.45
884.51	211.29
884.82	210.81
885.13	210.86
885.44	210.60
885.74	210.45
886.05	210.19
886.36	210.19
886.67	209.55
886.98	210.69
887.28	210.93
887.59	210.83
887.90	211.12
888.20	210.93
888.51	211.29
888.82	210.90
889.13	211.29
889.43	212.81
889.74	213.14
890.05	213.19
890.35	213.31
890.66	212.74
890.97	212.55
891.28	212.52
891.58	212.60
891.89	212.76
892.20	212.64
892.50	212.57
892.81	212.64
893.12	212.93
893.42	212.05
893.73	212.02
894.04	212.31
894.34	212.26
894.65	212.43
894.95	212.21
895.26	212.52
895.57	213.33
895.87	211.52
896.18	211.88
896.48	212.21
896.79	211.88
897.10	212.14
897.40	212.38
897.71	212.45
898.01	212.17
898.32	212.26
898.63	211.93
898.93	212.21
899.24	212.40
899.54	212.17
899.85	211.69
900.15	211.67
900.46	211.74
900.76	211.98
901.07	211.98
901.38	211.71
901.68	211.86
901.99	210.60
902.29	210.74
902.60	210.52
902.90	210.31
903.21	210.50
903.51	210.38
903.82	210.74
904.12	211.05
904.43	211.19
904.73	211.07
905.03	211.55
905.34	213.36
905.64	213.00
905.95	212.90
906.25	213.26
906.56	213.00
906.86	212.93
907.17	212.67
907.47	212.69
907.77	212.81
908.08	212.33
908.38	212.50
908.69	212.88
908.99	213.17
909.30	213.19
909.60	213.10
909.90	213.29
910.21	212.79
910.51	212.43
910.81	212.38
911.12	212.71
911.42	212.62
911.73	210.48
912.03	210.88
912.33	211.45
912.64	211.24
912.94	211.21
913.24	210.81
913.55	210.64
913.85	210.29
914.15	210.55
914.46	210.90
914.76	210.67
915.06	210.33
915.37	209.95
915.67	209.86
915.97	209.79
916.27	209.24
916.58	209.43
916.88	209.33
917.18	209.33
917.49	210.60
917.79	210.45
918.09	210.83
918.39	211.14
918.70	210.86
919.00	210.79
919.30	211.76
919.60	211.76
919.91	211.81
920.21	212.38
920.51	212.07
920.81	211.81
921.12	212.26
921.42	212.31
921.72	212.45
922.02	212.57
922.32	212.95
922.63	213.02
922.93	214.05
923.23	214.19
923.53	214.07
923.83	212.62
924.13	212.76
924.44	212.74
924.74	212.98
925.04	213.60
925.34	213.81
925.64	212.67
925.94	212.71
926.24	213.57
926.55	213.33
926.85	213.57
927.15	213.55
927.45	213.48
927.75	213.55
928.05	213.57
928.35	213.45
928.65	213.69
928.95	213.90
929.26	213.10
929.56	213.62
929.86	213.90
930.16	213.93
930.46	214.19
930.76	214.21
931.06	213.38
931.36	212.71
931.66	212.83
931.96	213.43
932.26	213.57
932.56	213.00
932.86	213.10
933.16	212.90
933.46	213.05
933.76	212.86
934.06	213.33
934.36	214.19
934.66	214.33
934.96	214.14
935.26	214.19
935.56	214.31
935.86	213.74
936.16	213.36
936.46	213.14
936.76	212.71
937.06	212.36
937.36	212.62
937.66	212.69
937.96	212.69
938.26	212.02
938.56	211.95
938.86	211.90
939.16	212.29
939.46	212.60
939.76	212.55
940.06	212.55
940.35	211.86
940.65	210.76
940.95	211.07
941.25	210.45
941.55	210.29
941.85	210.26
942.15	210.62
942.45	211.29
942.75	211.31
943.04	211.33
943.34	211.79
943.64	211.45
943.94	211.26
944.24	211.24
944.54	211.52
944.84	211.50
945.13	211.38
945.43	211.02
945.73	210.86
946.03	210.86
946.33	210.48
946.62	210.64
946.92	210.76
947.22	210.67
947.52	210.88
947.82	211.24
948.11	210.81
948.41	210.26
948.71	209.83
949.01	210.02
949.31	210.10
949.60	209.90
949.90	210.14
950.20	209.95
950.50	209.98
950.79	209.76
951.09	210.00
951.39	210.02
951.69	209.90
951.98	210.33
952.28	210.38
952.58	210.57
952.87	210.62
953.17	210.90
953.47	210.43
953.76	210.60
954.06	210.10
954.36	210.07
954.66	210.00
954.95	210.48
955.25	210.55
955.55	210.76
955.84	210.55
956.14	210.76
956.44	211.02
956.73	210.62
957.03	210.79
957.32	210.67
957.62	210.60
957.92	211.12
958.21	210.88
958.51	213.40
958.81	213.57
959.10	213.76
959.40	214.00
959.69	214.52
959.99	214.62
960.29	214.71
960.58	214.76
960.88	215.83
961.17	215.45
961.47	215.76
961.76	215.43
962.06	215.93
962.36	215.79
962.65	216.00
962.95	216.07
963.24	216.05
963.54	216.00
963.83	216.12
964.13	216.07
964.42	215.67
964.72	213.88
965.01	214.07
965.31	213.60
965.60	213.38
965.90	214.48
966.19	214.05
966.49	214.29
966.78	214.17
967.08	213.83
967.37	213.88
967.67	213.45
967.96	214.05
968.26	213.95
968.55	214.14
968.85	214.05
969.14	214.12
969.43	214.07
969.73	213.86
970.02	213.62
970.32	213.19
970.61	212.98
970.91	212.17
971.20	211.69
971.49	211.81
971.79	211.83
972.08	210.19
972.38	210.31
972.67	210.10
972.96	210.38
973.26	210.10
973.55	210.79
973.85	210.71
974.14	210.38
974.43	210.26
974.73	209.93
975.02	209.71
975.31	209.64
975.61	209.50
975.90	209.40
976.19	209.24
976.49	209.45
976.78	209.90
977.07	209.74
977.37	210.00
977.66	210.02
977.95	209.64
978.24	209.88
978.54	210.19
978.83	209.90
979.12	209.69
979.42	209.71
979.71	209.24
980.00	209.17
980.29	209.33
980.59	209.02
980.88	209.55
981.17	209.50
981.46	209.48
981.76	209.57
982.05	210.43
982.34	210.57
982.63	210.71
982.93	210.62
983.22	211.43
983.51	211.43
983.80	211.81
984.09	212.29
984.39	212.17
984.68	212.05
984.97	212.38
985.26	212.29
985.55	212.24
985.85	211.83
986.14	212.21
986.43	212.38
986.72	212.33
987.01	211.64
987.30	211.69
987.59	211.67
987.89	211.71
988.18	210.86
988.47	210.83
988.76	210.43
989.05	209.98
989.34	209.67
989.63	210.14
989.92	209.81
990.22	209.31
990.51	209.36
990.80	209.33
991.09	209.40
991.38	209.50
991.67	209.21
991.96	208.98
992.25	208.83
992.54	208.33
992.83	208.40
993.12	208.48
993.41	208.88
993.70	209.90
993.99	210.24
994.28	210.71
994.58	210.79
994.87	210.64
995.16	210.86
995.45	210.60
995.74	209.93
996.03	210.05
996.32	210.60
996.61	211.14
996.90	210.88
997.19	210.79
997.48	210.93
997.77	210.93
998.06	211.38
998.34	211.50
998.63	211.60
998.92	211.48
999.21	211.64
999.50	211.62
999.79	210.81
1000.08	210.69
1000.37	210.93
1000.66	210.76
1000.95	211.38
1001.24	211.62
1001.53	211.90
1001.82	211.74
1002.11	211.29
1002.40	211.50
1002.68	211.74
1002.97	213.36
1003.26	213.12
1003.55	212.88
1003.84	213.02
1004.13	213.38
1004.42	213.07
1004.71	213.07
1004.99	213.17
1005.28	213.93
1005.57	213.45
1005.86	213.26
1006.15	213.19
1006.44	212.52
1006.72	212.88
1007.01	212.60
1007.30	212.43
1007.59	212.24
1007.88	212.45
1008.17	212.76
1008.45	212.12
1008.74	211.31
1009.03	210.36
1009.32	210.36
1009.60	210.31
1009.89	210.17
1010.18	209.50
1010.47	209.48
1010.76	209.52
1011.04	209.52
1011.33	209.45
1011.62	209.88
1011.91	210.12
1012.19	210.19
1012.48	210.33
1012.77	210.55
1013.05	211.43
1013.34	211.31
1013.63	211.05
1013.92	210.95
1014.20	210.69
1014.49	210.81
1014.78	210.98
1015.06	210.26
1015.35	210.21
1015.64	210.50
1015.92	210.74
1016.21	210.98
1016.50	210.79
1016.78	210.98
1017.07	211.02
1017.36	210.50
1017.64	210.19
1017.93	210.26
1018.22	210.00
1018.50	209.93
1018.79	209.86
1019.08	208.98
1019.36	209.12
1019.65	209.19
1019.93	209.83
1020.22	210.33
1020.51	211.33
1020.79	211.07
1021.08	206.50
1021.36	206.50
1021.65	216.00
1021.94	212.00
1022.22	208.50
1022.51	208.00
1022.79	219.50
1023.08	214.00
1023.36	233.50
1023.65	204.00
>>>>>End Processed Spectral Data<<<<<
