SpectraSuite Data File
++++++++++++++++++++++++++++++++++++
Date: Tue Apr 02 18:41:24 EDT 2013
User: group
Dark Spectrum Present: No
Reference Spectrum Present: No
Number of Sampled Component Spectra: 1
Spectrometers: USB2E7196
Integration Time (usec): 580000 (USB2E7196)
Spectra Averaged: 2 (USB2E7196)
Boxcar Smoothing: 10 (USB2E7196)
Correct for Electrical Dark: No (USB2E7196)
Strobe/Lamp Enabled: No (USB2E7196)
Correct for Detector Non-linearity: No (USB2E7196)
Correct for Stray Light: No (USB2E7196)
Number of Pixels in Processed Spectrum: 2048
>>>>>Begin Processed Spectral Data<<<<<
339.09	0.00
339.48	193.50
339.86	198.50
340.24	196.50
340.63	196.50
341.01	231.50
341.39	202.00
341.78	211.00
342.16	213.50
342.54	205.50
342.93	199.29
343.31	209.05
343.69	209.62
344.07	210.10
344.46	210.81
344.84	211.43
345.22	210.24
345.60	210.52
345.99	210.57
346.37	210.36
346.75	210.48
347.13	210.57
347.52	210.62
347.90	211.26
348.28	210.98
348.66	211.48
349.05	210.60
349.43	210.62
349.81	210.74
350.19	210.64
350.57	210.52
350.96	210.67
351.34	211.00
351.72	211.07
352.10	210.90
352.48	210.36
352.87	210.24
353.25	210.31
353.63	210.33
354.01	210.36
354.39	210.48
354.77	210.52
355.15	210.79
355.54	210.40
355.92	209.52
356.30	209.67
356.68	210.69
357.06	210.95
357.44	210.57
357.82	210.45
358.20	211.38
358.58	211.38
358.97	211.29
359.35	211.67
359.73	211.79
360.11	212.02
360.49	212.48
360.87	212.52
361.25	212.76
361.63	213.40
362.01	213.45
362.39	213.07
362.77	213.12
363.15	213.07
363.53	213.40
363.91	213.67
364.29	213.57
364.67	211.74
365.05	211.67
365.43	212.00
365.81	212.33
366.19	212.43
366.57	213.33
366.95	213.19
367.33	212.55
367.71	212.71
368.09	212.79
368.47	212.90
368.85	213.05
369.23	213.62
369.61	212.88
369.99	213.52
370.37	214.21
370.75	215.21
371.13	214.60
371.51	214.14
371.89	214.40
372.27	214.86
372.65	215.24
373.03	215.21
373.41	215.17
373.78	215.00
374.16	214.17
374.54	213.45
374.92	213.36
375.30	213.74
375.68	213.40
376.06	213.74
376.44	213.69
376.82	213.79
377.19	213.55
377.57	213.60
377.95	212.88
378.33	212.76
378.71	211.76
379.09	212.14
379.47	212.52
379.84	212.69
380.22	212.36
380.60	211.71
380.98	212.00
381.36	211.88
381.73	211.71
382.11	212.14
382.49	212.45
382.87	212.38
383.25	212.40
383.62	214.95
384.00	214.48
384.38	214.62
384.76	215.17
385.13	216.00
385.51	216.14
385.89	216.02
386.27	216.10
386.64	216.14
387.02	216.26
387.40	216.12
387.78	216.17
388.15	216.36
388.53	216.62
388.91	216.48
389.29	216.38
389.66	216.64
390.04	216.43
390.42	216.64
390.79	216.79
391.17	216.60
391.55	214.33
391.92	214.43
392.30	214.76
392.68	214.12
393.05	213.88
393.43	213.95
393.81	214.21
394.18	213.81
394.56	214.10
394.94	214.45
395.31	214.36
395.69	214.81
396.06	215.17
396.44	215.40
396.82	215.29
397.19	216.38
397.57	216.36
397.95	216.74
398.32	216.24
398.70	216.31
399.07	216.93
399.45	217.00
399.82	217.17
400.20	216.79
400.58	216.88
400.95	216.07
401.33	216.60
401.70	217.95
402.08	218.21
402.45	218.26
402.83	218.74
403.20	219.12
403.58	218.83
403.95	219.10
404.33	219.52
404.71	219.81
405.08	220.95
405.46	221.26
405.83	221.45
406.21	221.64
406.58	222.26
406.96	222.45
407.33	222.98
407.70	223.60
408.08	225.76
408.45	226.83
408.83	227.98
409.20	228.17
409.58	227.86
409.95	229.02
410.33	229.95
410.70	230.14
411.08	231.38
411.45	232.71
411.82	233.50
412.20	234.98
412.57	237.64
412.95	237.40
413.32	239.19
413.69	240.55
414.07	242.50
414.44	244.24
414.82	246.14
415.19	248.55
415.56	250.81
415.94	252.24
416.31	254.90
416.68	257.60
417.06	261.12
417.43	264.74
417.81	268.05
418.18	271.71
418.55	275.76
418.93	279.88
419.30	284.05
419.67	288.95
420.04	293.38
420.42	297.60
420.79	304.55
421.16	310.29
421.54	317.67
421.91	323.98
422.28	329.90
422.66	337.05
423.03	345.00
423.40	352.38
423.77	359.71
424.15	367.05
424.52	374.90
424.89	383.60
425.26	391.55
425.64	399.52
426.01	407.88
426.38	416.93
426.75	426.62
427.13	436.26
427.50	446.00
427.87	456.52
428.24	467.07
428.61	476.00
428.99	487.83
429.36	498.74
429.73	510.02
430.10	522.10
430.47	534.07
430.85	545.14
431.22	557.69
431.59	572.93
431.96	586.52
432.33	601.07
432.70	615.19
433.08	631.60
433.45	647.50
433.82	663.26
434.19	680.76
434.56	698.05
434.93	713.95
435.30	730.43
435.68	748.26
436.05	765.76
436.42	783.38
436.79	799.36
437.16	817.14
437.53	836.64
437.90	855.05
438.27	873.02
438.64	891.98
439.01	909.40
439.38	923.33
439.75	938.55
440.13	956.10
440.50	972.14
440.87	985.55
441.24	999.31
441.61	1014.79
441.98	1026.19
442.35	1038.21
442.72	1051.88
443.09	1065.79
443.46	1073.31
443.83	1078.93
444.20	1084.05
444.57	1089.98
444.94	1093.02
445.31	1095.95
445.68	1102.10
446.05	1103.60
446.42	1101.64
446.79	1100.29
447.16	1098.43
447.53	1097.24
447.90	1090.38
448.27	1083.50
448.64	1073.69
449.01	1067.33
449.37	1055.21
449.74	1043.81
450.11	1031.81
450.48	1016.88
450.85	1000.21
451.22	987.14
451.59	974.31
451.96	962.05
452.33	946.33
452.70	931.45
453.07	913.88
453.43	893.38
453.80	876.19
454.17	860.33
454.54	844.67
454.91	828.02
455.28	811.26
455.65	795.64
456.02	784.12
456.38	771.43
456.75	755.33
457.12	742.43
457.49	728.64
457.86	714.60
458.23	703.98
458.59	692.17
458.96	680.21
459.33	669.29
459.70	658.55
460.07	649.76
460.43	639.83
460.80	631.10
461.17	623.45
461.54	615.17
461.91	606.38
462.27	597.79
462.64	591.10
463.01	583.50
463.38	576.88
463.74	566.07
464.11	559.57
464.48	553.50
464.85	546.71
465.21	542.76
465.58	537.43
465.95	530.38
466.32	525.12
466.68	519.57
467.05	514.33
467.42	509.05
467.78	503.60
468.15	498.43
468.52	494.40
468.88	488.88
469.25	484.05
469.62	480.98
469.98	477.00
470.35	472.79
470.72	469.19
471.08	464.60
471.45	461.43
471.82	458.74
472.18	455.19
472.55	452.26
472.92	448.40
473.28	445.10
473.65	442.33
474.02	439.26
474.38	437.38
474.75	435.86
475.11	433.43
475.48	431.93
475.85	430.57
476.21	428.60
476.58	427.21
476.94	426.10
477.31	424.52
477.67	423.19
478.04	422.05
478.41	421.62
478.77	422.79
479.14	421.76
479.50	420.62
479.87	420.17
480.23	419.79
480.60	419.12
480.96	419.40
481.33	420.07
481.69	420.26
482.06	420.26
482.42	420.48
482.79	421.31
483.15	421.62
483.52	422.62
483.88	423.17
484.25	424.12
484.61	425.07
484.98	425.95
485.34	428.07
485.71	429.74
486.07	430.26
486.44	430.26
486.80	432.21
487.17	434.12
487.53	436.98
487.90	439.57
488.26	442.81
488.62	445.43
488.99	447.31
489.35	450.21
489.72	453.29
490.08	456.05
490.44	458.50
490.81	461.79
491.17	464.33
491.54	467.81
491.90	471.52
492.26	475.07
492.63	479.14
492.99	482.62
493.36	486.71
493.72	491.43
494.08	495.74
494.45	500.14
494.81	504.98
495.17	509.05
495.54	514.17
495.90	518.62
496.26	523.86
496.63	529.74
496.99	534.88
497.35	540.43
497.72	546.38
498.08	552.31
498.44	558.67
498.80	565.33
499.17	571.79
499.53	577.60
499.89	584.67
500.26	591.90
500.62	598.81
500.98	605.93
501.34	612.62
501.71	620.50
502.07	628.05
502.43	635.12
502.79	642.29
503.16	649.45
503.52	657.36
503.88	664.50
504.24	672.00
504.60	680.26
504.97	688.02
505.33	695.31
505.69	704.69
506.05	712.21
506.41	720.12
506.78	727.88
507.14	736.21
507.50	743.90
507.86	751.50
508.22	760.29
508.59	767.74
508.95	776.55
509.31	784.86
509.67	792.55
510.03	801.00
510.39	809.02
510.75	817.07
511.12	824.40
511.48	832.26
511.84	839.90
512.20	847.45
512.56	855.52
512.92	863.50
513.28	870.57
513.64	878.36
514.00	886.10
514.37	893.93
514.73	902.00
515.09	909.50
515.45	916.69
515.81	923.02
516.17	930.40
516.53	936.88
516.89	942.83
517.25	949.74
517.61	956.60
517.97	963.40
518.33	970.74
518.69	978.60
519.05	985.86
519.41	993.17
519.77	1000.62
520.13	1006.83
520.49	1013.02
520.85	1018.76
521.21	1025.55
521.57	1032.21
521.93	1037.45
522.29	1042.88
522.65	1048.50
523.01	1054.69
523.37	1059.95
523.73	1065.24
524.09	1070.71
524.45	1076.02
524.81	1080.62
525.17	1085.88
525.53	1091.43
525.89	1095.98
526.25	1100.45
526.61	1104.52
526.97	1108.26
527.33	1112.14
527.68	1118.52
528.04	1123.52
528.40	1127.62
528.76	1131.50
529.12	1136.17
529.48	1142.02
529.84	1146.21
530.20	1150.76
530.56	1154.93
530.91	1159.79
531.27	1164.60
531.63	1169.05
531.99	1173.12
532.35	1177.74
532.71	1181.50
533.07	1186.07
533.42	1192.62
533.78	1196.90
534.14	1201.83
534.50	1206.76
534.86	1212.60
535.21	1215.24
535.57	1219.76
535.93	1224.64
536.29	1229.55
536.65	1232.55
537.00	1235.69
537.36	1239.93
537.72	1243.57
538.08	1247.43
538.44	1250.81
538.79	1254.90
539.15	1258.67
539.51	1263.19
539.87	1267.26
540.22	1271.21
540.58	1275.14
540.94	1276.69
541.29	1279.98
541.65	1282.81
542.01	1286.60
542.37	1288.67
542.72	1291.90
543.08	1294.48
543.44	1297.40
543.79	1300.31
544.15	1303.83
544.51	1307.38
544.87	1310.60
545.22	1313.83
545.58	1317.17
545.94	1320.64
546.29	1324.05
546.65	1327.14
547.01	1329.55
547.36	1332.93
547.72	1336.07
548.07	1338.74
548.43	1341.19
548.79	1343.33
549.14	1346.67
549.50	1349.88
549.86	1352.40
550.21	1355.79
550.57	1359.88
550.92	1363.05
551.28	1366.48
551.64	1370.55
551.99	1373.64
552.35	1376.69
552.70	1380.86
553.06	1384.07
553.41	1387.69
553.77	1391.71
554.13	1396.14
554.48	1400.86
554.84	1405.05
555.19	1409.50
555.55	1415.02
555.90	1419.93
556.26	1425.31
556.61	1429.12
556.97	1433.17
557.32	1437.79
557.68	1441.36
558.03	1445.31
558.39	1449.79
558.74	1453.36
559.10	1457.12
559.45	1462.71
559.81	1467.43
560.16	1471.21
560.52	1476.67
560.87	1482.14
561.23	1486.21
561.58	1491.83
561.94	1496.02
562.29	1500.55
562.64	1505.93
563.00	1509.60
563.35	1514.19
563.71	1518.93
564.06	1525.02
564.42	1529.74
564.77	1535.60
565.12	1542.43
565.48	1550.19
565.83	1556.31
566.19	1562.90
566.54	1568.76
566.89	1573.14
567.25	1579.88
567.60	1588.26
567.96	1594.86
568.31	1601.69
568.66	1608.02
569.02	1612.38
569.37	1617.86
569.72	1624.00
570.08	1628.52
570.43	1633.71
570.78	1639.40
571.14	1645.07
571.49	1649.64
571.84	1655.00
572.20	1659.95
572.55	1664.07
572.90	1666.40
573.26	1670.38
573.61	1674.19
573.96	1678.19
574.31	1682.79
574.67	1685.93
575.02	1687.81
575.37	1691.12
575.72	1692.67
576.08	1696.17
576.43	1699.79
576.78	1702.33
577.13	1705.07
577.49	1708.57
577.84	1712.14
578.19	1715.55
578.54	1719.07
578.90	1722.62
579.25	1725.12
579.60	1727.19
579.95	1729.83
580.30	1732.88
580.66	1736.88
581.01	1740.00
581.36	1742.29
581.71	1744.79
582.06	1748.93
582.42	1752.45
582.77	1753.76
583.12	1757.26
583.47	1759.57
583.82	1761.81
584.17	1764.71
584.53	1767.48
584.88	1769.88
585.23	1772.38
585.58	1773.95
585.93	1775.14
586.28	1777.26
586.63	1779.40
586.98	1781.64
587.34	1784.52
587.69	1786.55
588.04	1788.14
588.39	1789.90
588.74	1791.12
589.09	1792.57
589.44	1792.12
589.79	1792.17
590.14	1794.21
590.49	1794.60
590.84	1794.90
591.19	1796.10
591.54	1797.67
591.89	1797.07
592.25	1798.76
592.60	1798.00
592.95	1797.98
593.30	1799.14
593.65	1799.10
594.00	1798.67
594.35	1804.12
594.70	1802.71
595.05	1802.50
595.40	1801.86
595.75	1801.55
596.10	1802.29
596.45	1802.40
596.80	1802.36
597.15	1802.50
597.50	1800.76
597.85	1801.19
598.19	1800.31
598.54	1799.64
598.89	1798.83
599.24	1799.90
599.59	1797.71
599.94	1798.57
600.29	1798.38
600.64	1797.14
600.99	1796.36
601.34	1796.98
601.69	1791.55
602.04	1791.40
602.39	1790.19
602.74	1789.17
603.08	1786.74
603.43	1786.36
603.78	1785.40
604.13	1784.69
604.48	1783.40
604.83	1784.21
605.18	1783.43
605.53	1782.95
605.87	1781.10
606.22	1779.79
606.57	1777.67
606.92	1776.83
607.27	1774.57
607.62	1773.00
607.96	1771.90
608.31	1770.74
608.66	1768.79
609.01	1765.74
609.36	1764.21
609.70	1762.07
610.05	1759.05
610.40	1758.00
610.75	1754.33
611.10	1751.57
611.44	1748.60
611.79	1745.14
612.14	1740.81
612.49	1736.07
612.83	1731.83
613.18	1728.14
613.53	1724.00
613.88	1719.95
614.22	1715.33
614.57	1710.36
614.92	1705.81
615.27	1701.64
615.61	1696.74
615.96	1690.90
616.31	1687.21
616.65	1682.98
617.00	1678.12
617.35	1674.45
617.70	1669.62
618.04	1665.33
618.39	1659.86
618.74	1655.14
619.08	1650.43
619.43	1645.55
619.78	1641.36
620.12	1637.07
620.47	1633.33
620.82	1628.71
621.16	1623.62
621.51	1619.98
621.85	1615.93
622.20	1611.19
622.55	1605.29
622.89	1600.24
623.24	1596.71
623.59	1591.33
623.93	1586.02
624.28	1582.60
624.62	1579.45
624.97	1576.29
625.32	1571.76
625.66	1568.31
626.01	1563.02
626.35	1559.31
626.70	1554.69
627.04	1550.90
627.39	1545.98
627.73	1542.40
628.08	1538.86
628.43	1534.57
628.77	1529.00
629.12	1524.60
629.46	1520.24
629.81	1515.93
630.15	1510.90
630.50	1505.64
630.84	1501.12
631.19	1495.26
631.53	1489.40
631.88	1482.07
632.22	1474.29
632.57	1469.14
632.91	1462.60
633.26	1457.79
633.60	1451.40
633.95	1445.31
634.29	1438.33
634.64	1433.76
634.98	1426.26
635.32	1421.12
635.67	1415.76
636.01	1411.10
636.36	1404.90
636.70	1399.83
637.05	1394.02
637.39	1388.48
637.73	1384.21
638.08	1379.62
638.42	1374.50
638.77	1368.52
639.11	1362.38
639.45	1357.76
639.80	1351.24
640.14	1345.79
640.49	1339.19
640.83	1332.67
641.17	1327.86
641.52	1322.71
641.86	1316.40
642.20	1312.76
642.55	1305.79
642.89	1299.19
643.23	1291.76
643.58	1286.67
643.92	1279.81
644.26	1273.76
644.61	1267.71
644.95	1259.83
645.29	1251.95
645.64	1245.88
645.98	1240.17
646.32	1235.00
646.66	1227.52
647.01	1220.81
647.35	1215.02
647.69	1209.81
648.04	1204.86
648.38	1197.90
648.72	1190.95
649.06	1184.21
649.41	1175.81
649.75	1168.69
650.09	1162.76
650.43	1156.02
650.78	1147.98
651.12	1141.67
651.46	1134.98
651.80	1128.31
652.14	1122.24
652.49	1116.83
652.83	1109.83
653.17	1102.79
653.51	1094.64
653.85	1088.79
654.20	1082.26
654.54	1075.02
654.88	1067.21
655.22	1060.36
655.56	1053.98
655.90	1047.57
656.25	1040.93
656.59	1034.40
656.93	1028.40
657.27	1022.55
657.61	1016.45
657.95	1010.50
658.29	1004.40
658.64	998.50
658.98	992.64
659.32	985.48
659.66	978.55
660.00	972.50
660.34	966.76
660.68	960.90
661.02	955.17
661.36	949.31
661.70	943.67
662.05	938.00
662.39	932.40
662.73	927.12
663.07	921.45
663.41	915.14
663.75	909.38
664.09	903.48
664.43	896.43
664.77	890.29
665.11	884.31
665.45	878.26
665.79	872.55
666.13	865.86
666.47	860.52
666.81	854.55
667.15	848.31
667.49	841.83
667.83	837.26
668.17	831.21
668.51	825.52
668.85	819.74
669.19	815.26
669.53	808.79
669.87	801.83
670.21	796.10
670.55	790.95
670.89	786.10
671.23	780.81
671.57	775.98
671.91	771.86
672.25	767.05
672.58	762.50
672.92	756.60
673.26	752.10
673.60	747.21
673.94	742.55
674.28	738.33
674.62	734.05
674.96	729.10
675.30	724.95
675.64	720.69
675.97	716.33
676.31	711.31
676.65	706.62
676.99	703.60
677.33	699.07
677.67	694.88
678.01	689.64
678.34	685.07
678.68	680.71
679.02	675.69
679.36	671.05
679.70	665.71
680.04	661.29
680.37	656.50
680.71	651.74
681.05	647.60
681.39	643.07
681.73	638.45
682.06	633.71
682.40	629.12
682.74	625.17
683.08	620.88
683.42	615.71
683.75	612.19
684.09	607.12
684.43	602.64
684.77	598.14
685.10	593.76
685.44	589.21
685.78	585.10
686.12	580.88
686.45	576.43
686.79	572.24
687.13	568.74
687.46	565.14
687.80	561.69
688.14	557.50
688.48	553.57
688.81	549.83
689.15	546.71
689.49	542.71
689.82	538.98
690.16	534.55
690.50	531.29
690.83	527.10
691.17	522.98
691.51	519.50
691.84	516.02
692.18	512.86
692.52	509.69
692.85	506.43
693.19	503.43
693.52	500.45
693.86	497.10
694.20	493.81
694.53	490.31
694.87	486.38
695.21	482.71
695.54	479.02
695.88	475.26
696.21	470.83
696.55	467.19
696.88	463.69
697.22	460.74
697.56	458.14
697.89	454.83
698.23	452.36
698.56	449.29
698.90	446.36
699.23	442.83
699.57	440.07
699.90	436.64
700.24	433.38
700.58	430.02
700.91	427.45
701.25	425.88
701.58	423.83
701.92	422.29
702.25	419.95
702.59	417.48
702.92	415.10
703.26	412.62
703.59	410.40
703.93	409.55
704.26	407.24
704.60	404.95
704.93	402.86
705.26	400.45
705.60	398.60
705.93	395.93
706.27	394.40
706.60	392.33
706.94	390.86
707.27	388.33
707.61	386.67
707.94	384.40
708.27	381.10
708.61	378.26
708.94	375.50
709.28	373.40
709.61	371.60
709.94	369.86
710.28	368.33
710.61	366.24
710.95	362.69
711.28	362.07
711.61	359.81
711.95	358.50
712.28	356.38
712.61	354.48
712.95	354.14
713.28	353.29
713.61	351.26
713.95	349.05
714.28	347.62
714.61	345.74
714.95	344.00
715.28	342.00
715.61	340.52
715.95	339.52
716.28	337.64
716.61	336.21
716.95	334.12
717.28	332.62
717.61	331.12
717.94	329.31
718.28	326.40
718.61	324.93
718.94	322.81
719.27	321.52
719.61	319.88
719.94	317.71
720.27	315.26
720.60	313.76
720.94	312.33
721.27	311.05
721.60	310.17
721.93	308.88
722.27	308.50
722.60	307.52
722.93	305.93
723.26	305.33
723.59	303.74
723.93	302.98
724.26	301.90
724.59	300.81
724.92	300.45
725.25	299.74
725.59	298.48
725.92	297.67
726.25	296.64
726.58	295.93
726.91	295.12
727.24	294.43
727.57	293.60
727.91	292.40
728.24	292.02
728.57	290.88
728.90	290.45
729.23	288.71
729.56	288.76
729.89	287.71
730.22	286.48
730.55	285.76
730.89	285.19
731.22	284.19
731.55	283.45
731.88	282.26
732.21	281.33
732.54	280.62
732.87	280.21
733.20	279.67
733.53	278.79
733.86	278.00
734.19	276.90
734.52	276.31
734.85	277.19
735.18	275.76
735.51	275.71
735.84	275.00
736.17	275.02
736.50	273.33
736.83	275.31
737.16	274.71
737.49	274.12
737.82	273.19
738.15	272.86
738.48	272.00
738.81	271.12
739.14	270.24
739.47	269.55
739.80	268.40
740.13	267.98
740.46	266.98
740.79	266.02
741.12	265.40
741.45	264.79
741.78	263.00
742.11	263.17
742.44	262.17
742.77	261.81
743.10	260.79
743.43	260.17
743.75	257.33
744.08	259.45
744.41	258.62
744.74	257.93
745.07	257.26
745.40	257.21
745.73	257.98
746.06	257.62
746.39	257.40
746.71	256.90
747.04	255.93
747.37	255.40
747.70	255.14
748.03	255.14
748.36	254.88
748.68	254.57
749.01	253.43
749.34	253.02
749.67	252.48
750.00	252.48
750.33	253.52
750.65	253.17
750.98	250.29
751.31	250.10
751.64	249.81
751.97	250.52
752.29	249.81
752.62	248.19
752.95	247.71
753.28	246.83
753.60	246.50
753.93	246.79
754.26	246.88
754.59	246.10
754.91	245.19
755.24	244.67
755.57	244.05
755.90	243.76
756.22	243.00
756.55	242.43
756.88	241.60
757.20	239.79
757.53	238.79
757.86	238.26
758.19	238.29
758.51	237.74
758.84	236.21
759.17	235.93
759.49	235.76
759.82	236.81
760.15	236.79
760.47	236.29
760.80	235.33
761.13	235.26
761.45	235.21
761.78	235.10
762.11	234.76
762.43	234.43
762.76	234.02
763.08	233.93
763.41	233.52
763.74	233.36
764.06	233.17
764.39	233.05
764.71	232.74
765.04	231.98
765.37	231.95
765.69	231.57
766.02	231.31
766.34	230.86
766.67	229.26
767.00	229.48
767.32	230.48
767.65	231.50
767.97	231.19
768.30	230.86
768.62	230.62
768.95	230.24
769.27	230.05
769.60	230.12
769.92	229.98
770.25	229.57
770.57	229.19
770.90	228.95
771.22	228.86
771.55	228.69
771.87	228.76
772.20	228.48
772.52	230.31
772.85	232.57
773.17	232.55
773.50	232.57
773.82	232.00
774.15	230.98
774.47	229.57
774.80	229.19
775.12	229.07
775.45	228.52
775.77	228.71
776.09	228.62
776.42	228.57
776.74	228.83
777.07	228.62
777.39	228.62
777.72	228.07
778.04	228.19
778.36	228.17
778.69	228.19
779.01	228.33
779.33	226.45
779.66	223.93
779.98	223.88
780.31	223.60
780.63	224.33
780.95	224.55
781.28	224.45
781.60	224.19
781.92	224.14
782.25	224.36
782.57	223.90
782.89	223.79
783.22	223.43
783.54	222.79
783.86	223.05
784.19	222.67
784.51	223.38
784.83	222.81
785.16	222.57
785.48	222.24
785.80	221.93
786.12	222.26
786.45	222.40
786.77	222.31
787.09	222.43
787.42	221.38
787.74	221.31
788.06	221.36
788.38	221.19
788.71	221.02
789.03	220.81
789.35	221.05
789.67	220.74
789.99	220.98
790.32	220.79
790.64	220.98
790.96	222.64
791.28	221.90
791.61	221.90
791.93	222.02
792.25	222.00
792.57	223.48
792.89	222.50
793.21	222.55
793.54	222.38
793.86	222.05
794.18	222.43
794.50	221.86
794.82	221.90
795.14	222.19
795.47	222.31
795.79	222.60
796.11	221.95
796.43	221.52
796.75	221.26
797.07	221.60
797.39	221.57
797.71	220.05
798.04	220.38
798.36	220.57
798.68	220.36
799.00	220.55
799.32	219.40
799.64	220.17
799.96	220.24
800.28	220.33
800.60	220.21
800.92	220.24
801.24	220.21
801.56	220.00
801.89	219.50
802.21	219.64
802.53	219.02
802.85	219.57
803.17	221.17
803.49	221.00
803.81	220.55
804.13	220.33
804.45	220.10
804.77	220.10
805.09	219.86
805.41	219.62
805.73	219.26
806.05	219.00
806.37	218.52
806.69	217.88
807.01	217.76
807.33	217.86
807.65	217.29
807.97	218.50
808.28	218.38
808.60	218.45
808.92	218.07
809.24	219.64
809.56	219.67
809.88	218.83
810.20	218.98
810.52	219.33
810.84	218.98
811.16	218.81
811.48	218.55
811.80	219.24
812.12	219.21
812.43	219.60
812.75	219.48
813.07	219.50
813.39	219.81
813.71	219.48
814.03	219.29
814.35	219.31
814.67	218.17
814.98	218.02
815.30	217.93
815.62	217.62
815.94	216.07
816.26	215.90
816.58	215.19
816.89	215.33
817.21	214.90
817.53	215.07
817.85	215.02
818.17	215.00
818.48	214.38
818.80	214.74
819.12	214.21
819.44	213.71
819.76	213.29
820.07	212.93
820.39	213.14
820.71	213.19
821.03	212.95
821.34	212.83
821.66	213.21
821.98	213.62
822.30	213.64
822.61	215.07
822.93	214.83
823.25	215.10
823.57	214.50
823.88	214.86
824.20	214.50
824.52	214.88
824.83	214.71
825.15	214.38
825.47	214.31
825.79	214.33
826.10	214.38
826.42	214.40
826.74	214.90
827.05	214.69
827.37	214.67
827.69	214.74
828.00	214.67
828.32	214.45
828.64	214.02
828.95	215.12
829.27	214.38
829.58	214.26
829.90	214.48
830.22	214.93
830.53	214.48
830.85	214.48
831.17	214.07
831.48	214.05
831.80	214.10
832.11	213.93
832.43	213.57
832.75	213.55
833.06	214.79
833.38	214.10
833.69	214.05
834.01	214.26
834.32	214.19
834.64	213.83
834.96	213.79
835.27	213.93
835.59	213.17
835.90	212.60
836.22	212.69
836.53	212.40
836.85	212.19
837.16	214.19
837.48	214.24
837.79	214.98
838.11	215.26
838.42	215.36
838.74	215.55
839.05	215.43
839.37	215.38
839.68	214.14
840.00	214.02
840.31	214.17
840.63	213.98
840.94	213.76
841.26	213.50
841.57	213.64
841.88	213.76
842.20	213.50
842.51	213.43
842.83	213.36
843.14	215.07
843.46	215.12
843.77	214.05
844.08	213.90
844.40	213.33
844.71	212.88
845.03	212.57
845.34	212.43
845.65	212.69
845.97	212.86
846.28	212.95
846.60	213.10
846.91	213.00
847.22	212.79
847.54	213.50
847.85	214.14
848.16	214.02
848.48	213.55
848.79	214.36
849.10	214.71
849.42	214.90
849.73	213.14
850.04	213.00
850.36	212.17
850.67	212.55
850.98	212.31
851.30	212.45
851.61	212.52
851.92	212.45
852.23	213.05
852.55	212.86
852.86	213.10
853.17	213.48
853.49	213.88
853.80	214.55
854.11	214.50
854.42	214.69
854.74	214.55
855.05	214.95
855.36	213.81
855.67	213.95
855.99	213.76
856.30	216.12
856.61	216.10
856.92	216.36
857.23	216.24
857.55	216.10
857.86	216.14
858.17	216.60
858.48	216.31
858.79	215.83
859.11	216.17
859.42	215.81
859.73	215.38
860.04	215.17
860.35	214.24
860.66	213.76
860.98	213.74
861.29	214.02
861.60	213.69
861.91	214.33
862.22	214.02
862.53	213.83
862.84	211.36
863.16	211.93
863.47	211.45
863.78	211.55
864.09	211.67
864.40	212.05
864.71	211.79
865.02	211.98
865.33	211.79
865.64	211.62
865.95	211.45
866.27	212.81
866.58	212.55
866.89	213.07
867.20	212.86
867.51	212.29
867.82	211.90
868.13	212.60
868.44	212.10
868.75	212.43
869.06	212.62
869.37	212.74
869.68	211.86
869.99	212.31
870.30	212.36
870.61	212.74
870.92	212.14
871.23	212.07
871.54	212.40
871.85	212.95
872.16	213.31
872.47	213.24
872.78	212.14
873.09	212.48
873.40	212.33
873.71	212.60
874.02	212.83
874.33	212.69
874.64	212.26
874.95	212.79
875.26	212.31
875.56	212.19
875.87	212.07
876.18	211.98
876.49	214.07
876.80	213.93
877.11	213.45
877.42	213.69
877.73	213.69
878.04	213.33
878.35	213.36
878.66	213.12
878.96	213.24
879.27	213.19
879.58	213.07
879.89	212.76
880.20	213.19
880.51	213.24
880.82	213.29
881.12	213.40
881.43	212.90
881.74	212.81
882.05	212.71
882.36	212.95
882.67	213.24
882.97	211.00
883.28	210.81
883.59	210.67
883.90	210.81
884.21	211.17
884.51	211.17
884.82	210.83
885.13	210.90
885.44	211.00
885.74	211.02
886.05	210.93
886.36	211.19
886.67	210.50
886.98	211.43
887.28	211.93
887.59	211.76
887.90	211.98
888.20	211.83
888.51	212.31
888.82	211.95
889.13	212.12
889.43	213.64
889.74	213.67
890.05	213.74
890.35	213.71
890.66	213.43
890.97	213.14
891.28	212.79
891.58	212.88
891.89	213.02
892.20	212.62
892.50	212.45
892.81	212.36
893.12	212.36
893.42	211.24
893.73	211.10
894.04	211.07
894.34	211.02
894.65	210.95
894.95	210.57
895.26	210.86
895.57	211.79
895.87	209.88
896.18	210.29
896.48	210.50
896.79	210.29
897.10	210.64
897.40	210.95
897.71	211.19
898.01	210.83
898.32	210.95
898.63	211.07
898.93	211.21
899.24	211.38
899.54	211.33
899.85	211.48
900.15	211.40
900.46	211.52
900.76	211.69
901.07	211.64
901.38	211.79
901.68	212.02
901.99	210.81
902.29	211.05
902.60	210.60
902.90	210.50
903.21	210.55
903.51	210.24
903.82	210.38
904.12	210.57
904.43	210.95
904.73	210.81
905.03	210.98
905.34	213.10
905.64	213.05
905.95	213.19
906.25	213.05
906.56	213.07
906.86	212.93
907.17	212.67
907.47	212.83
907.77	212.52
908.08	211.95
908.38	212.29
908.69	212.52
908.99	213.29
909.30	213.43
909.60	213.57
909.90	213.76
910.21	213.43
910.51	213.02
910.81	212.93
911.12	213.10
911.42	213.19
911.73	210.86
912.03	210.90
912.33	211.33
912.64	211.57
912.94	211.33
913.24	211.17
913.55	211.12
913.85	211.00
914.15	211.45
914.46	211.93
914.76	211.71
915.06	211.55
915.37	211.10
915.67	210.76
915.97	210.83
916.27	210.52
916.58	210.76
916.88	210.90
917.18	210.79
917.49	212.14
917.79	211.79
918.09	212.14
918.39	212.90
918.70	212.57
919.00	212.45
919.30	213.48
919.60	213.31
919.91	213.26
920.21	213.55
920.51	213.12
920.81	213.00
921.12	213.43
921.42	213.31
921.72	213.33
922.02	213.57
922.32	213.57
922.63	213.52
922.93	214.38
923.23	214.43
923.53	214.31
923.83	212.95
924.13	213.36
924.44	213.64
924.74	213.83
925.04	214.31
925.34	214.21
925.64	213.24
925.94	213.17
926.24	214.36
926.55	213.95
926.85	214.40
927.15	214.38
927.45	214.24
927.75	214.40
928.05	214.40
928.35	214.33
928.65	214.76
928.95	214.93
929.26	214.17
929.56	214.43
929.86	214.55
930.16	214.12
930.46	213.79
930.76	213.67
931.06	212.69
931.36	212.29
931.66	212.86
931.96	212.98
932.26	213.31
932.56	212.29
932.86	212.69
933.16	212.43
933.46	212.17
933.76	211.88
934.06	212.29
934.36	212.71
934.66	212.55
934.96	212.26
935.26	212.26
935.56	212.48
935.86	212.02
936.16	211.74
936.46	211.48
936.76	211.50
937.06	211.31
937.36	211.29
937.66	211.31
937.96	210.98
938.26	210.79
938.56	210.57
938.86	210.69
939.16	211.02
939.46	211.33
939.76	211.55
940.06	211.69
940.35	211.21
940.65	210.48
940.95	210.79
941.25	210.29
941.55	210.21
941.85	210.10
942.15	210.67
942.45	211.31
942.75	211.38
943.04	211.50
943.34	211.69
943.64	211.29
943.94	211.07
944.24	211.02
944.54	211.19
944.84	211.10
945.13	210.74
945.43	210.21
945.73	210.14
946.03	209.90
946.33	209.88
946.62	209.71
946.92	209.67
947.22	209.74
947.52	209.90
947.82	210.19
948.11	209.90
948.41	209.33
948.71	208.79
949.01	209.14
949.31	208.90
949.60	208.98
949.90	209.48
950.20	209.45
950.50	209.40
950.79	209.07
951.09	209.43
951.39	209.55
951.69	209.45
951.98	209.62
952.28	209.67
952.58	209.48
952.87	209.55
953.17	209.88
953.47	209.57
953.76	209.40
954.06	209.00
954.36	208.79
954.66	208.90
954.95	209.45
955.25	209.62
955.55	209.79
955.84	209.33
956.14	209.55
956.44	209.48
956.73	209.17
957.03	209.50
957.32	209.52
957.62	209.52
957.92	209.93
958.21	209.76
958.51	212.17
958.81	212.43
959.10	212.67
959.40	213.21
959.69	213.48
959.99	213.90
960.29	213.93
960.58	214.05
960.88	214.95
961.17	214.60
961.47	214.86
961.76	214.81
962.06	215.38
962.36	214.98
962.65	215.24
962.95	215.50
963.24	215.33
963.54	215.43
963.83	215.60
964.13	215.62
964.42	215.33
964.72	213.67
965.01	213.83
965.31	213.74
965.60	213.07
965.90	214.26
966.19	213.76
966.49	214.07
966.78	213.90
967.08	213.57
967.37	213.81
967.67	213.36
967.96	213.88
968.26	213.40
968.55	213.88
968.85	213.67
969.14	213.48
969.43	213.45
969.73	213.31
970.02	213.10
970.32	212.83
970.61	212.81
970.91	212.33
971.20	211.90
971.49	211.86
971.79	212.21
972.08	210.98
972.38	211.21
972.67	211.14
972.96	211.50
973.26	211.17
973.55	211.74
973.85	211.55
974.14	211.14
974.43	211.52
974.73	211.07
975.02	211.10
975.31	211.43
975.61	211.17
975.90	211.00
976.19	210.86
976.49	211.21
976.78	211.29
977.07	211.19
977.37	211.31
977.66	211.43
977.95	211.07
978.24	211.10
978.54	211.45
978.83	210.95
979.12	210.98
979.42	211.02
979.71	210.38
980.00	210.60
980.29	210.71
980.59	210.26
980.88	210.81
981.17	210.98
981.46	210.90
981.76	211.07
982.05	211.81
982.34	211.81
982.63	211.69
982.93	211.86
983.22	212.52
983.51	212.64
983.80	212.74
984.09	213.05
984.39	212.88
984.68	212.83
984.97	213.12
985.26	212.90
985.55	212.90
985.85	212.52
986.14	212.74
986.43	212.86
986.72	212.74
987.01	212.05
987.30	211.81
987.59	211.43
987.89	211.52
988.18	210.81
988.47	210.76
988.76	210.83
989.05	210.52
989.34	210.00
989.63	210.45
989.92	210.26
990.22	209.98
990.51	209.83
990.80	209.60
991.09	209.79
991.38	209.86
991.67	209.69
991.96	209.64
992.25	209.69
992.54	209.40
992.83	209.52
993.12	209.62
993.41	210.02
993.70	211.17
993.99	211.69
994.28	211.95
994.58	212.60
994.87	212.10
995.16	212.14
995.45	212.07
995.74	211.38
996.03	211.71
996.32	212.05
996.61	212.79
996.90	212.52
997.19	212.60
997.48	212.67
997.77	212.48
998.06	212.60
998.34	212.50
998.63	212.48
998.92	212.48
999.21	212.88
999.50	212.83
999.79	211.88
1000.08	211.60
1000.37	211.62
1000.66	211.26
1000.95	211.79
1001.24	211.86
1001.53	212.12
1001.82	212.02
1002.11	211.43
1002.40	211.69
1002.68	212.00
1002.97	213.62
1003.26	213.02
1003.55	212.95
1003.84	213.19
1004.13	213.98
1004.42	213.55
1004.71	213.57
1004.99	213.52
1005.28	213.98
1005.57	213.83
1005.86	213.60
1006.15	213.45
1006.44	213.14
1006.72	213.36
1007.01	213.17
1007.30	213.29
1007.59	213.12
1007.88	213.26
1008.17	213.48
1008.45	212.86
1008.74	211.86
1009.03	211.10
1009.32	211.36
1009.60	211.21
1009.89	211.07
1010.18	210.33
1010.47	210.64
1010.76	210.31
1011.04	210.31
1011.33	210.38
1011.62	210.45
1011.91	210.90
1012.19	210.90
1012.48	210.79
1012.77	210.60
1013.05	211.33
1013.34	211.31
1013.63	210.88
1013.92	210.86
1014.20	210.57
1014.49	210.64
1014.78	211.02
1015.06	210.29
1015.35	210.31
1015.64	210.60
1015.92	210.79
1016.21	210.90
1016.50	210.95
1016.78	211.50
1017.07	211.76
1017.36	211.10
1017.64	210.86
1017.93	210.86
1018.22	210.90
1018.50	210.95
1018.79	210.90
1019.08	209.86
1019.36	209.79
1019.65	210.05
1019.93	210.52
1020.22	210.88
1020.51	212.19
1020.79	211.83
1021.08	210.50
1021.36	206.00
1021.65	210.00
1021.94	206.00
1022.22	209.50
1022.51	210.00
1022.79	217.50
1023.08	211.00
1023.36	240.00
1023.65	205.00
>>>>>End Processed Spectral Data<<<<<
