SpectraSuite Data File
++++++++++++++++++++++++++++++++++++
Date: Tue Apr 02 18:42:16 EDT 2013
User: group
Dark Spectrum Present: No
Reference Spectrum Present: No
Number of Sampled Component Spectra: 1
Spectrometers: USB2E7196
Integration Time (usec): 580000 (USB2E7196)
Spectra Averaged: 2 (USB2E7196)
Boxcar Smoothing: 10 (USB2E7196)
Correct for Electrical Dark: No (USB2E7196)
Strobe/Lamp Enabled: No (USB2E7196)
Correct for Detector Non-linearity: No (USB2E7196)
Correct for Stray Light: No (USB2E7196)
Number of Pixels in Processed Spectrum: 2048
>>>>>Begin Processed Spectral Data<<<<<
339.09	0.00
339.48	195.00
339.86	195.00
340.24	193.00
340.63	196.00
341.01	233.00
341.39	202.50
341.78	204.00
342.16	209.50
342.54	209.50
342.93	197.55
343.31	207.33
343.69	207.62
344.07	208.10
344.46	209.00
344.84	209.74
345.22	208.57
345.60	208.83
345.99	209.12
346.37	209.07
346.75	209.02
347.13	209.14
347.52	209.24
347.90	209.83
348.28	209.69
348.66	210.21
349.05	209.57
349.43	209.88
349.81	210.07
350.19	210.17
350.57	210.40
350.96	210.64
351.34	210.90
351.72	211.33
352.10	211.62
352.48	211.52
352.87	211.50
353.25	211.48
353.63	211.43
354.01	211.57
354.39	211.71
354.77	211.88
355.15	212.62
355.54	212.48
355.92	212.02
356.30	212.38
356.68	213.60
357.06	214.10
357.44	213.62
357.82	213.76
358.20	214.50
358.58	214.24
358.97	214.48
359.35	214.98
359.73	215.29
360.11	215.21
360.49	215.50
360.87	215.60
361.25	216.12
361.63	217.19
362.01	217.29
362.39	217.36
362.77	217.57
363.15	217.48
363.53	217.52
363.91	217.79
364.29	217.71
364.67	216.19
365.05	216.12
365.43	216.60
365.81	216.74
366.19	217.29
366.57	218.29
366.95	218.33
367.33	217.79
367.71	217.93
368.09	218.38
368.47	218.33
368.85	218.31
369.23	218.79
369.61	217.95
369.99	218.67
370.37	219.05
370.75	220.02
371.13	219.62
371.51	219.48
371.89	219.69
372.27	219.90
372.65	219.90
373.03	219.95
373.41	219.60
373.78	219.50
374.16	218.40
374.54	217.57
374.92	217.19
375.30	217.19
375.68	216.79
376.06	216.81
376.44	216.62
376.82	216.60
377.19	216.21
377.57	216.00
377.95	215.31
378.33	215.00
378.71	213.48
379.09	213.57
379.47	214.07
379.84	213.81
380.22	213.45
380.60	213.17
380.98	212.88
381.36	213.00
381.73	212.83
382.11	213.12
382.49	213.12
382.87	212.93
383.25	213.07
383.62	215.45
384.00	215.10
384.38	215.00
384.76	215.50
385.13	216.12
385.51	216.29
385.89	216.14
386.27	216.05
386.64	216.62
387.02	216.48
387.40	215.98
387.78	216.00
388.15	216.29
388.53	216.14
388.91	216.14
389.29	215.93
389.66	216.36
390.04	216.07
390.42	216.60
390.79	216.95
391.17	217.07
391.55	214.67
391.92	214.50
392.30	214.93
392.68	214.38
393.05	214.21
393.43	214.21
393.81	214.12
394.18	213.83
394.56	213.76
394.94	214.36
395.31	214.17
395.69	214.55
396.06	214.62
396.44	214.90
396.82	214.79
397.19	215.88
397.57	215.36
397.95	215.95
398.32	215.21
398.70	215.21
399.07	215.40
399.45	215.48
399.82	215.60
400.20	215.50
400.58	215.45
400.95	214.69
401.33	215.12
401.70	216.40
402.08	216.69
402.45	216.76
402.83	217.02
403.20	217.50
403.58	217.55
403.95	218.07
404.33	218.40
404.71	218.74
405.08	220.02
405.46	220.31
405.83	220.48
406.21	220.93
406.58	221.26
406.96	221.64
407.33	222.07
407.70	222.67
408.08	224.60
408.45	225.62
408.83	226.55
409.20	227.19
409.58	226.95
409.95	228.19
410.33	229.24
410.70	229.67
411.08	230.98
411.45	231.98
411.82	232.50
412.20	234.05
412.57	236.50
412.95	236.05
413.32	238.12
413.69	239.62
414.07	241.38
414.44	243.52
414.82	245.67
415.19	248.17
415.56	250.79
415.94	252.26
416.31	255.14
416.68	258.17
417.06	261.29
417.43	265.07
417.81	268.24
418.18	271.83
418.55	275.79
418.93	279.76
419.30	284.07
419.67	288.88
420.04	293.48
420.42	298.17
420.79	305.50
421.16	310.76
421.54	317.67
421.91	323.69
422.28	329.83
422.66	336.40
423.03	344.64
423.40	351.29
423.77	358.19
424.15	365.19
424.52	372.74
424.89	381.48
425.26	388.88
425.64	396.95
426.01	405.43
426.38	414.36
426.75	423.67
427.13	433.00
427.50	442.62
427.87	452.60
428.24	462.43
428.61	470.71
428.99	482.52
429.36	493.48
429.73	504.98
430.10	516.43
430.47	528.02
430.85	538.45
431.22	551.40
431.59	566.71
431.96	580.02
432.33	594.17
432.70	607.83
433.08	624.52
433.45	640.12
433.82	655.45
434.19	672.48
434.56	689.40
434.93	705.02
435.30	721.62
435.68	739.60
436.05	757.24
436.42	774.98
436.79	790.55
437.16	807.57
437.53	825.52
437.90	843.81
438.27	861.90
438.64	879.98
439.01	897.33
439.38	911.17
439.75	925.95
440.13	943.43
440.50	959.62
440.87	973.14
441.24	986.43
441.61	1001.64
441.98	1012.00
442.35	1023.50
442.72	1037.48
443.09	1050.60
443.46	1057.74
443.83	1062.83
444.20	1066.98
444.57	1073.17
444.94	1075.90
445.31	1080.36
445.68	1085.98
446.05	1087.52
446.42	1086.57
446.79	1085.50
447.16	1083.88
447.53	1083.50
447.90	1077.43
448.27	1070.74
448.64	1061.02
449.01	1054.62
449.37	1043.36
449.74	1032.64
450.11	1021.98
450.48	1006.48
450.85	990.29
451.22	977.98
451.59	965.98
451.96	954.02
452.33	938.86
452.70	925.10
453.07	907.19
453.43	887.60
453.80	870.71
454.17	854.74
454.54	838.36
454.91	821.74
455.28	804.76
455.65	788.79
456.02	777.31
456.38	764.64
456.75	749.19
457.12	735.10
457.49	722.07
457.86	707.50
458.23	697.26
458.59	685.90
458.96	673.86
459.33	662.48
459.70	652.76
460.07	643.90
460.43	634.36
460.80	625.74
461.17	618.12
461.54	609.67
461.91	602.05
462.27	594.52
462.64	587.60
463.01	579.74
463.38	573.38
463.74	562.12
464.11	555.33
464.48	549.26
464.85	543.38
465.21	539.29
465.58	534.19
465.95	527.50
466.32	522.57
466.68	517.45
467.05	512.50
467.42	507.05
467.78	501.52
468.15	496.02
468.52	492.43
468.88	486.26
469.25	481.69
469.62	477.76
469.98	473.52
470.35	469.64
470.72	466.76
471.08	462.36
471.45	459.93
471.82	457.29
472.18	453.86
472.55	451.19
472.92	447.33
473.28	444.43
473.65	441.74
474.02	438.69
474.38	436.14
474.75	434.43
475.11	432.07
475.48	430.43
475.85	428.67
476.21	426.38
476.58	425.29
476.94	423.93
477.31	422.19
477.67	420.86
478.04	419.40
478.41	418.33
478.77	419.57
479.14	418.50
479.50	417.93
479.87	417.52
480.23	416.81
480.60	416.14
480.96	415.48
481.33	416.02
481.69	416.45
482.06	416.71
482.42	417.02
482.79	417.48
483.15	417.62
483.52	418.93
483.88	419.40
484.25	420.36
484.61	421.24
484.98	422.26
485.34	424.02
485.71	425.60
486.07	426.83
486.44	426.31
486.80	427.45
487.17	428.45
487.53	430.60
487.90	433.00
488.26	436.21
488.62	439.38
488.99	441.14
489.35	443.50
489.72	446.21
490.08	448.93
490.44	451.52
490.81	455.02
491.17	457.48
491.54	461.26
491.90	465.00
492.26	468.79
492.63	472.60
492.99	476.19
493.36	480.48
493.72	485.00
494.08	489.45
494.45	494.76
494.81	500.17
495.17	504.71
495.54	510.02
495.90	514.98
496.26	520.21
496.63	525.95
496.99	531.33
497.35	537.02
497.72	542.71
498.08	548.74
498.44	554.21
498.80	561.33
499.17	567.12
499.53	573.29
499.89	580.43
500.26	587.12
500.62	593.67
500.98	600.95
501.34	607.60
501.71	614.93
502.07	621.64
502.43	628.40
502.79	635.86
503.16	643.19
503.52	650.88
503.88	657.67
504.24	665.57
504.60	672.83
504.97	680.83
505.33	688.64
505.69	697.40
506.05	705.76
506.41	712.74
506.78	720.55
507.14	728.64
507.50	735.81
507.86	743.88
508.22	752.07
508.59	758.93
508.95	767.02
509.31	776.26
509.67	784.17
510.03	792.10
510.39	799.60
510.75	807.48
511.12	814.52
511.48	822.40
511.84	829.55
512.20	837.55
512.56	845.00
512.92	852.57
513.28	859.55
513.64	866.67
514.00	874.24
514.37	881.10
514.73	888.48
515.09	895.95
515.45	902.40
515.81	908.95
516.17	916.24
516.53	922.69
516.89	927.95
517.25	935.07
517.61	942.29
517.97	949.05
518.33	955.10
518.69	961.98
519.05	968.57
519.41	975.29
519.77	983.10
520.13	988.74
520.49	994.64
520.85	1000.93
521.21	1008.05
521.57	1013.88
521.93	1019.95
522.29	1025.83
522.65	1031.19
523.01	1037.74
523.37	1043.14
523.73	1049.17
524.09	1054.81
524.45	1059.38
524.81	1064.21
525.17	1068.76
525.53	1073.10
525.89	1077.74
526.25	1081.76
526.61	1086.05
526.97	1090.48
527.33	1093.62
527.68	1100.67
528.04	1105.69
528.40	1109.02
528.76	1112.55
529.12	1117.10
529.48	1122.67
529.84	1127.07
530.20	1131.93
530.56	1135.74
530.91	1140.05
531.27	1143.74
531.63	1148.57
531.99	1153.17
532.35	1156.90
532.71	1161.48
533.07	1166.62
533.42	1173.60
533.78	1178.86
534.14	1183.86
534.50	1187.74
534.86	1191.74
535.21	1193.79
535.57	1198.21
535.93	1203.14
536.29	1208.43
536.65	1212.67
537.00	1215.40
537.36	1218.95
537.72	1222.21
538.08	1226.31
538.44	1230.17
538.79	1234.12
539.15	1237.00
539.51	1240.81
539.87	1244.83
540.22	1247.86
540.58	1250.86
540.94	1251.69
541.29	1254.50
541.65	1256.76
542.01	1260.62
542.37	1264.57
542.72	1266.62
543.08	1268.90
543.44	1271.88
543.79	1272.76
544.15	1276.10
544.51	1280.40
544.87	1283.60
545.22	1286.95
545.58	1289.64
545.94	1291.71
546.29	1294.88
546.65	1298.10
547.01	1300.69
547.36	1303.26
547.72	1305.64
548.07	1309.36
548.43	1312.86
548.79	1315.02
549.14	1317.60
549.50	1320.38
549.86	1321.93
550.21	1325.55
550.57	1328.50
550.92	1330.60
551.28	1333.98
551.64	1336.05
551.99	1337.71
552.35	1339.60
552.70	1341.64
553.06	1345.31
553.41	1349.00
553.77	1354.00
554.13	1357.26
554.48	1361.52
554.84	1366.24
555.19	1371.10
555.55	1375.95
555.90	1379.60
556.26	1384.29
556.61	1388.81
556.97	1391.79
557.32	1396.83
557.68	1400.64
558.03	1404.67
558.39	1409.36
558.74	1413.79
559.10	1417.74
559.45	1422.24
559.81	1427.24
560.16	1432.60
560.52	1436.21
560.87	1441.86
561.23	1444.55
561.58	1450.74
561.94	1454.29
562.29	1457.71
562.64	1462.29
563.00	1465.45
563.35	1470.02
563.71	1474.33
564.06	1479.74
564.42	1485.67
564.77	1490.83
565.12	1497.05
565.48	1504.19
565.83	1510.40
566.19	1516.02
566.54	1521.88
566.89	1528.26
567.25	1534.83
567.60	1541.38
567.96	1549.36
568.31	1555.69
568.66	1562.81
569.02	1566.76
569.37	1573.57
569.72	1579.12
570.08	1584.26
570.43	1589.31
570.78	1595.40
571.14	1601.40
571.49	1605.86
571.84	1611.00
572.20	1615.31
572.55	1620.48
572.90	1623.45
573.26	1627.43
573.61	1632.31
573.96	1637.26
574.31	1641.29
574.67	1644.36
575.02	1647.67
575.37	1649.98
575.72	1652.98
576.08	1655.71
576.43	1659.36
576.78	1662.26
577.13	1665.69
577.49	1668.81
577.84	1673.12
578.19	1676.67
578.54	1680.95
578.90	1686.02
579.25	1689.57
579.60	1692.14
579.95	1694.62
580.30	1698.81
580.66	1702.48
581.01	1705.36
581.36	1708.38
581.71	1711.14
582.06	1715.86
582.42	1719.64
582.77	1721.76
583.12	1724.14
583.47	1726.81
583.82	1729.43
584.17	1732.19
584.53	1735.88
584.88	1738.50
585.23	1741.07
585.58	1742.43
585.93	1743.93
586.28	1745.50
586.63	1747.95
586.98	1752.07
587.34	1755.60
587.69	1756.79
588.04	1758.26
588.39	1760.29
588.74	1760.48
589.09	1762.62
589.44	1762.40
589.79	1763.95
590.14	1765.95
590.49	1766.88
590.84	1767.67
591.19	1769.07
591.54	1770.52
591.89	1771.64
592.25	1775.33
592.60	1775.71
592.95	1776.69
593.30	1777.83
593.65	1778.93
594.00	1778.93
594.35	1785.10
594.70	1783.43
595.05	1784.00
595.40	1784.00
595.75	1784.17
596.10	1787.14
596.45	1787.83
596.80	1788.33
597.15	1788.40
597.50	1789.26
597.85	1790.76
598.19	1790.81
598.54	1791.36
598.89	1791.43
599.24	1790.79
599.59	1788.74
599.94	1789.60
600.29	1789.98
600.64	1789.26
600.99	1788.48
601.34	1788.69
601.69	1781.98
602.04	1782.17
602.39	1782.14
602.74	1782.86
603.08	1782.62
603.43	1781.79
603.78	1780.45
604.13	1780.86
604.48	1779.07
604.83	1778.19
605.18	1776.95
605.53	1777.10
605.87	1775.57
606.22	1774.74
606.57	1773.71
606.92	1772.74
607.27	1771.00
607.62	1770.24
607.96	1769.64
608.31	1768.93
608.66	1767.62
609.01	1765.55
609.36	1764.64
609.70	1761.93
610.05	1759.24
610.40	1757.36
610.75	1754.55
611.10	1752.43
611.44	1748.69
611.79	1746.14
612.14	1743.10
612.49	1739.71
612.83	1735.76
613.18	1732.86
613.53	1729.02
613.88	1725.48
614.22	1721.81
614.57	1717.67
614.92	1712.71
615.27	1708.67
615.61	1703.29
615.96	1698.71
616.31	1695.17
616.65	1691.88
617.00	1688.64
617.35	1684.74
617.70	1680.14
618.04	1676.86
618.39	1672.17
618.74	1669.02
619.08	1664.38
619.43	1660.29
619.78	1655.57
620.12	1652.29
620.47	1649.05
620.82	1644.55
621.16	1639.76
621.51	1636.00
621.85	1631.86
622.20	1627.19
622.55	1621.64
622.89	1617.40
623.24	1613.79
623.59	1609.36
623.93	1603.90
624.28	1599.31
624.62	1597.36
624.97	1594.55
625.32	1589.19
625.66	1585.26
626.01	1580.26
626.35	1577.48
626.70	1573.14
627.04	1570.19
627.39	1565.33
627.73	1561.31
628.08	1558.43
628.43	1554.52
628.77	1549.69
629.12	1545.02
629.46	1541.21
629.81	1537.31
630.15	1532.74
630.50	1527.31
630.84	1522.57
631.19	1517.62
631.53	1512.45
631.88	1504.60
632.22	1497.50
632.57	1493.07
632.91	1487.67
633.26	1483.76
633.60	1477.55
633.95	1472.19
634.29	1466.10
634.64	1461.98
634.98	1454.83
635.32	1449.31
635.67	1444.62
636.01	1440.00
636.36	1434.26
636.70	1430.24
637.05	1425.12
637.39	1420.86
637.73	1416.05
638.08	1411.50
638.42	1406.33
638.77	1401.57
639.11	1396.38
639.45	1392.05
639.80	1385.50
640.14	1380.45
640.49	1373.69
640.83	1368.10
641.17	1362.48
641.52	1357.26
641.86	1350.38
642.20	1346.10
642.55	1338.90
642.89	1333.07
643.23	1325.67
643.58	1321.21
643.92	1314.17
644.26	1308.38
644.61	1301.86
644.95	1294.86
645.29	1287.83
645.64	1282.21
645.98	1275.38
646.32	1269.83
646.66	1263.17
647.01	1257.00
647.35	1251.21
647.69	1245.50
648.04	1240.00
648.38	1233.90
648.72	1227.05
649.06	1220.57
649.41	1212.81
649.75	1207.38
650.09	1200.74
650.43	1195.07
650.78	1187.24
651.12	1180.62
651.46	1173.86
651.80	1167.14
652.14	1161.50
652.49	1155.93
652.83	1149.12
653.17	1142.45
653.51	1135.31
653.85	1128.98
654.20	1122.33
654.54	1114.57
654.88	1106.90
655.22	1100.90
655.56	1094.12
655.90	1087.38
656.25	1080.64
656.59	1074.86
656.93	1067.71
657.27	1061.79
657.61	1054.52
657.95	1049.00
658.29	1042.57
658.64	1036.76
658.98	1030.62
659.32	1023.43
659.66	1016.17
660.00	1009.50
660.34	1003.71
660.68	997.50
661.02	990.74
661.36	985.02
661.70	979.21
662.05	973.62
662.39	967.24
662.73	962.31
663.07	958.26
663.41	952.57
663.75	946.43
664.09	940.57
664.43	934.45
664.77	928.71
665.11	922.26
665.45	915.95
665.79	909.79
666.13	903.69
666.47	898.93
666.81	893.19
667.15	887.31
667.49	882.19
667.83	876.90
668.17	871.36
668.51	865.98
668.85	860.64
669.19	855.74
669.53	849.31
669.87	842.45
670.21	835.57
670.55	829.55
670.89	824.71
671.23	819.64
671.57	813.83
671.91	809.02
672.25	803.86
672.58	799.81
672.92	794.19
673.26	789.40
673.60	783.52
673.94	778.62
674.28	774.33
674.62	768.64
674.96	763.90
675.30	759.45
675.64	754.40
675.97	749.71
676.31	744.36
676.65	739.86
676.99	736.00
677.33	731.17
677.67	726.95
678.01	721.86
678.34	717.12
678.68	712.93
679.02	707.93
679.36	703.10
679.70	697.81
680.04	692.83
680.37	688.24
680.71	683.86
681.05	679.52
681.39	674.57
681.73	670.74
682.06	665.55
682.40	660.98
682.74	656.64
683.08	652.88
683.42	648.33
683.75	644.07
684.09	639.02
684.43	634.64
684.77	630.14
685.10	625.71
685.44	621.62
685.78	617.19
686.12	612.90
686.45	608.71
686.79	604.05
687.13	600.98
687.46	597.02
687.80	593.26
688.14	589.17
688.48	585.07
688.81	580.55
689.15	577.38
689.49	573.24
689.82	569.12
690.16	563.95
690.50	559.86
690.83	555.40
691.17	550.95
691.51	547.21
691.84	543.81
692.18	539.86
692.52	535.81
692.85	532.55
693.19	529.81
693.52	526.67
693.86	523.29
694.20	519.31
694.53	515.43
694.87	511.69
695.21	507.69
695.54	504.10
695.88	500.36
696.21	495.79
696.55	492.19
696.88	488.93
697.22	485.95
697.56	483.45
697.89	480.24
698.23	477.71
698.56	474.45
698.90	471.21
699.23	468.40
699.57	465.38
699.90	461.83
700.24	458.26
700.58	454.88
700.91	452.14
701.25	450.71
701.58	448.57
701.92	446.00
702.25	443.48
702.59	440.45
702.92	437.74
703.26	435.76
703.59	433.07
703.93	432.05
704.26	429.50
704.60	426.60
704.93	423.98
705.26	421.05
705.60	418.69
705.93	415.67
706.27	413.36
706.60	411.40
706.94	409.62
707.27	406.62
707.61	404.36
707.94	402.05
708.27	397.81
708.61	394.62
708.94	392.19
709.28	390.00
709.61	387.98
709.94	386.12
710.28	384.05
710.61	382.12
710.95	377.88
711.28	376.93
711.61	374.79
711.95	373.24
712.28	370.98
712.61	368.90
712.95	368.29
713.28	367.14
713.61	364.90
713.95	362.24
714.28	361.00
714.61	359.19
714.95	357.17
715.28	355.45
715.61	354.00
715.95	352.43
716.28	350.64
716.61	349.19
716.95	347.19
717.28	345.14
717.61	343.55
717.94	341.95
718.28	339.05
718.61	337.38
718.94	335.43
719.27	334.29
719.61	332.71
719.94	330.50
720.27	327.79
720.60	325.93
720.94	324.50
721.27	323.02
721.60	321.76
721.93	320.31
722.27	319.86
722.60	318.50
722.93	317.19
723.26	316.14
723.59	314.76
723.93	313.90
724.26	312.83
724.59	311.36
724.92	310.60
725.25	310.12
725.59	309.05
725.92	308.00
726.25	306.69
726.58	305.76
726.91	304.48
727.24	303.60
727.57	302.64
727.91	301.38
728.24	300.36
728.57	299.07
728.90	298.33
729.23	296.40
729.56	295.95
729.89	294.74
730.22	293.38
730.55	292.14
730.89	290.95
731.22	289.93
731.55	289.00
731.88	288.12
732.21	286.62
732.54	285.29
732.87	284.50
733.20	283.93
733.53	283.12
733.86	282.57
734.19	281.50
734.52	280.76
734.85	281.33
735.18	280.45
735.51	280.60
735.84	279.90
736.17	279.98
736.50	278.31
736.83	279.81
737.16	279.24
737.49	278.83
737.82	278.14
738.15	277.40
738.48	276.88
738.81	275.95
739.14	274.93
739.47	274.26
739.80	273.50
740.13	272.98
740.46	271.86
740.79	270.79
741.12	270.36
741.45	269.45
741.78	267.81
742.11	267.64
742.44	266.26
742.77	265.93
743.10	264.86
743.43	264.36
743.75	261.90
744.08	263.90
744.41	262.95
744.74	262.00
745.07	261.17
745.40	260.45
745.73	260.69
746.06	260.36
746.39	260.00
746.71	259.26
747.04	258.40
747.37	257.86
747.70	257.79
748.03	257.48
748.36	257.29
748.68	256.71
749.01	255.52
749.34	255.05
749.67	254.33
750.00	254.33
750.33	255.71
750.65	255.17
750.98	252.21
751.31	251.76
751.64	251.64
751.97	252.43
752.29	252.10
752.62	250.81
752.95	250.69
753.28	250.17
753.60	249.79
753.93	249.98
754.26	249.64
754.59	248.52
754.91	247.76
755.24	247.12
755.57	246.48
755.90	246.14
756.22	245.74
756.55	245.10
756.88	244.10
757.20	242.14
757.53	241.31
757.86	240.93
758.19	240.90
758.51	240.48
758.84	239.02
759.17	238.64
759.49	238.69
759.82	238.95
760.15	238.83
760.47	238.57
760.80	237.64
761.13	237.74
761.45	237.50
761.78	237.21
762.11	237.19
762.43	237.14
762.76	236.79
763.08	236.62
763.41	236.62
763.74	236.38
764.06	235.88
764.39	235.62
764.71	235.36
765.04	234.93
765.37	234.57
765.69	234.12
766.02	233.64
766.34	233.19
766.67	232.26
767.00	232.40
767.32	233.07
767.65	233.88
767.97	233.64
768.30	233.45
768.62	233.10
768.95	232.76
769.27	232.36
769.60	232.64
769.92	232.21
770.25	231.62
770.57	231.14
770.90	231.05
771.22	230.79
771.55	230.60
771.87	230.52
772.20	230.40
772.52	232.17
772.85	234.55
773.17	234.24
773.50	234.00
773.82	233.38
774.15	232.36
774.47	231.05
774.80	230.48
775.12	230.26
775.45	230.33
775.77	229.93
776.09	230.05
776.42	229.88
776.74	230.12
777.07	230.02
777.39	229.93
777.72	229.71
778.04	229.71
778.36	229.36
778.69	229.17
779.01	229.05
779.33	227.07
779.66	224.64
779.98	224.45
780.31	224.19
780.63	224.93
780.95	225.31
781.28	225.19
781.60	224.83
781.92	224.86
782.25	224.38
782.57	224.33
782.89	223.81
783.22	223.21
783.54	222.81
783.86	223.00
784.19	222.74
784.51	223.21
784.83	222.64
785.16	222.50
785.48	222.33
785.80	222.40
786.12	222.67
786.45	222.57
786.77	222.55
787.09	222.50
787.42	221.45
787.74	221.26
788.06	221.21
788.38	221.29
788.71	220.81
789.03	220.81
789.35	220.95
789.67	220.62
789.99	220.86
790.32	220.50
790.64	220.60
790.96	222.52
791.28	221.67
791.61	221.71
791.93	221.76
792.25	221.50
792.57	222.69
792.89	222.24
793.21	222.36
793.54	222.12
793.86	222.17
794.18	222.48
794.50	221.98
794.82	222.05
795.14	222.05
795.47	222.50
795.79	222.74
796.11	222.19
796.43	222.21
796.75	222.05
797.07	222.31
797.39	221.98
797.71	220.24
798.04	220.29
798.36	220.43
798.68	220.17
799.00	220.38
799.32	219.26
799.64	219.55
799.96	219.31
800.28	219.81
800.60	219.31
800.92	219.33
801.24	219.21
801.56	219.07
801.89	219.19
802.21	219.38
802.53	218.83
802.85	219.36
803.17	220.36
803.49	219.81
803.81	219.45
804.13	219.10
804.45	218.88
804.77	219.10
805.09	218.95
805.41	218.86
805.73	218.26
806.05	217.74
806.37	217.76
806.69	217.55
807.01	217.19
807.33	217.57
807.65	216.81
807.97	218.02
808.28	217.93
808.60	217.79
808.92	217.40
809.24	218.90
809.56	218.36
809.88	217.64
810.20	218.00
810.52	218.48
810.84	218.40
811.16	218.29
811.48	218.05
811.80	218.74
812.12	218.62
812.43	219.12
812.75	219.36
813.07	219.05
813.39	219.29
813.71	219.00
814.03	218.76
814.35	219.00
814.67	217.83
814.98	217.62
815.30	217.55
815.62	217.19
815.94	215.62
816.26	215.74
816.58	215.12
816.89	215.07
817.21	214.62
817.53	214.81
817.85	214.76
818.17	214.76
818.48	213.86
818.80	214.36
819.12	214.07
819.44	213.60
819.76	213.31
820.07	213.29
820.39	213.24
820.71	213.29
821.03	213.45
821.34	213.24
821.66	213.74
821.98	213.79
822.30	213.74
822.61	215.10
822.93	215.40
823.25	215.40
823.57	215.17
823.88	215.38
824.20	215.40
824.52	215.86
824.83	215.74
825.15	215.76
825.47	215.74
825.79	216.21
826.10	216.00
826.42	215.79
826.74	216.12
827.05	216.05
827.37	216.12
827.69	215.86
828.00	215.98
828.32	215.86
828.64	215.83
828.95	216.86
829.27	216.26
829.58	215.93
829.90	216.26
830.22	216.60
830.53	216.14
830.85	215.86
831.17	215.29
831.48	215.36
831.80	215.33
832.11	215.14
832.43	214.74
832.75	215.02
833.06	216.48
833.38	215.76
833.69	215.67
834.01	215.83
834.32	215.81
834.64	215.60
834.96	215.67
835.27	215.40
835.59	214.67
835.90	214.14
836.22	214.19
836.53	213.90
836.85	213.83
837.16	215.76
837.48	215.81
837.79	216.48
838.11	216.52
838.42	216.71
838.74	216.95
839.05	216.50
839.37	216.55
839.68	215.17
840.00	214.98
840.31	215.43
840.63	215.05
840.94	214.95
841.26	215.00
841.57	214.57
841.88	214.81
842.20	214.62
842.51	214.50
842.83	214.19
843.14	216.19
843.46	216.02
843.77	215.17
844.08	215.07
844.40	214.60
844.71	214.40
845.03	214.21
845.34	214.00
845.65	214.36
845.97	214.31
846.28	214.60
846.60	214.98
846.91	214.60
847.22	214.76
847.54	215.26
847.85	215.33
848.16	215.48
848.48	215.00
848.79	215.90
849.10	216.07
849.42	216.60
849.73	214.43
850.04	214.55
850.36	213.60
850.67	213.98
850.98	213.81
851.30	213.95
851.61	213.79
851.92	213.79
852.23	214.31
852.55	214.24
852.86	214.12
853.17	214.31
853.49	214.83
853.80	215.02
854.11	215.12
854.42	215.33
854.74	215.10
855.05	215.48
855.36	214.36
855.67	214.31
855.99	214.19
856.30	216.93
856.61	216.74
856.92	216.95
857.23	216.88
857.55	216.79
857.86	216.71
858.17	217.05
858.48	216.81
858.79	216.24
859.11	216.50
859.42	216.50
859.73	215.93
860.04	215.69
860.35	215.12
860.66	214.24
860.98	214.14
861.29	214.48
861.60	214.40
861.91	214.79
862.22	214.64
862.53	214.36
862.84	211.93
863.16	212.43
863.47	211.95
863.78	211.86
864.09	211.98
864.40	212.12
864.71	211.98
865.02	212.36
865.33	212.21
865.64	211.86
865.95	211.76
866.27	213.21
866.58	212.86
866.89	213.14
867.20	213.07
867.51	212.71
867.82	212.26
868.13	212.76
868.44	212.48
868.75	212.88
869.06	212.81
869.37	212.95
869.68	212.17
869.99	212.71
870.30	212.74
870.61	212.88
870.92	212.64
871.23	212.52
871.54	212.38
871.85	212.95
872.16	213.29
872.47	213.31
872.78	212.05
873.09	212.52
873.40	212.38
873.71	212.69
874.02	212.83
874.33	212.79
874.64	212.21
874.95	212.64
875.26	212.33
875.56	212.55
875.87	212.29
876.18	212.38
876.49	214.26
876.80	214.14
877.11	213.71
877.42	213.62
877.73	213.71
878.04	213.69
878.35	213.55
878.66	213.50
878.96	213.55
879.27	213.64
879.58	213.52
879.89	213.29
880.20	213.71
880.51	213.90
880.82	213.90
881.12	214.29
881.43	213.86
881.74	213.71
882.05	213.69
882.36	214.02
882.67	214.29
882.97	212.10
883.28	211.90
883.59	211.95
883.90	212.19
884.21	212.40
884.51	212.14
884.82	211.86
885.13	212.00
885.44	211.95
885.74	211.95
886.05	211.83
886.36	211.76
886.67	211.45
886.98	212.36
887.28	212.64
887.59	212.55
887.90	212.62
888.20	212.60
888.51	212.79
888.82	212.31
889.13	212.33
889.43	214.05
889.74	214.10
890.05	214.07
890.35	213.90
890.66	213.71
890.97	213.69
891.28	213.55
891.58	213.43
891.89	213.50
892.20	213.33
892.50	213.07
892.81	213.43
893.12	213.33
893.42	212.29
893.73	212.31
894.04	212.12
894.34	212.38
894.65	212.21
894.95	212.00
895.26	212.19
895.57	213.19
895.87	211.26
896.18	211.60
896.48	211.76
896.79	211.88
897.10	212.17
897.40	212.26
897.71	212.81
898.01	212.62
898.32	212.74
898.63	212.57
898.93	212.81
899.24	212.43
899.54	212.33
899.85	212.24
900.15	212.19
900.46	212.10
900.76	212.24
901.07	212.29
901.38	212.31
901.68	212.60
901.99	211.43
902.29	211.62
902.60	211.21
902.90	211.07
903.21	211.00
903.51	210.93
903.82	211.38
904.12	211.33
904.43	211.52
904.73	211.29
905.03	211.64
905.34	213.48
905.64	213.67
905.95	213.64
906.25	213.60
906.56	213.60
906.86	213.83
907.17	213.48
907.47	213.48
907.77	213.10
908.08	212.67
908.38	213.12
908.69	213.40
908.99	213.83
909.30	214.24
909.60	214.33
909.90	214.38
910.21	213.79
910.51	213.38
910.81	213.43
911.12	213.71
911.42	213.60
911.73	211.55
912.03	211.64
912.33	212.10
912.64	211.93
912.94	211.71
913.24	211.29
913.55	211.24
913.85	211.10
914.15	211.76
914.46	212.00
914.76	211.45
915.06	211.29
915.37	211.19
915.67	210.90
915.97	210.93
916.27	210.57
916.58	210.83
916.88	210.86
917.18	210.62
917.49	211.93
917.79	211.79
918.09	212.07
918.39	212.60
918.70	212.67
919.00	213.10
919.30	213.90
919.60	213.86
919.91	213.74
920.21	213.86
920.51	213.29
920.81	213.19
921.12	213.76
921.42	213.67
921.72	213.60
922.02	213.81
922.32	214.10
922.63	214.14
922.93	214.93
923.23	215.00
923.53	214.86
923.83	213.40
924.13	213.62
924.44	213.74
924.74	214.05
925.04	214.29
925.34	214.26
925.64	213.86
925.94	213.76
926.24	214.83
926.55	215.00
926.85	215.40
927.15	215.40
927.45	215.43
927.75	215.55
928.05	215.74
928.35	215.64
928.65	215.83
928.95	215.95
929.26	215.19
929.56	215.52
929.86	215.93
930.16	216.00
930.46	215.83
930.76	215.83
931.06	214.93
931.36	214.14
931.66	214.19
931.96	214.12
932.26	214.48
932.56	213.83
932.86	213.79
933.16	213.62
933.46	213.48
933.76	213.02
934.06	213.36
934.36	214.14
934.66	213.98
934.96	213.60
935.26	213.64
935.56	213.88
935.86	213.50
936.16	213.10
936.46	212.76
936.76	212.69
937.06	212.31
937.36	212.29
937.66	212.50
937.96	212.36
938.26	212.02
938.56	211.86
938.86	211.71
939.16	212.02
939.46	212.36
939.76	212.48
940.06	212.62
940.35	212.05
940.65	211.10
940.95	211.17
941.25	210.60
941.55	210.38
941.85	210.19
942.15	210.69
942.45	211.21
942.75	211.19
943.04	211.50
943.34	212.14
943.64	212.10
943.94	211.83
944.24	211.90
944.54	212.02
944.84	211.98
945.13	211.76
945.43	211.52
945.73	211.33
946.03	211.14
946.33	210.79
946.62	210.69
946.92	210.40
947.22	210.81
947.52	211.02
947.82	211.29
948.11	211.07
948.41	210.50
948.71	209.98
949.01	210.02
949.31	209.79
949.60	209.40
949.90	209.79
950.20	209.67
950.50	209.62
950.79	209.60
951.09	209.95
951.39	209.83
951.69	209.60
951.98	210.05
952.28	210.26
952.58	210.26
952.87	210.24
953.17	210.52
953.47	210.14
953.76	210.12
954.06	209.74
954.36	209.52
954.66	209.60
954.95	210.12
955.25	210.43
955.55	210.64
955.84	210.43
956.14	210.55
956.44	210.69
956.73	210.48
957.03	210.57
957.32	210.64
957.62	210.62
957.92	211.17
958.21	210.93
958.51	213.14
958.81	213.60
959.10	214.02
959.40	214.50
959.69	214.67
959.99	215.14
960.29	215.33
960.58	215.55
960.88	216.19
961.17	215.90
961.47	215.95
961.76	215.79
962.06	216.33
962.36	216.10
962.65	216.38
962.95	216.64
963.24	216.50
963.54	216.43
963.83	216.74
964.13	216.52
964.42	215.98
964.72	214.43
965.01	214.40
965.31	214.12
965.60	213.67
965.90	214.69
966.19	214.10
966.49	214.45
966.78	214.24
967.08	214.02
967.37	214.12
967.67	213.98
967.96	214.24
968.26	214.00
968.55	214.29
968.85	214.07
969.14	214.00
969.43	213.90
969.73	213.67
970.02	213.48
970.32	213.45
970.61	213.48
970.91	212.93
971.20	212.55
971.49	212.33
971.79	212.60
972.08	211.36
972.38	211.67
972.67	211.29
972.96	211.74
973.26	211.19
973.55	211.69
973.85	211.50
974.14	211.31
974.43	211.48
974.73	211.12
975.02	210.95
975.31	210.86
975.61	210.83
975.90	210.90
976.19	210.76
976.49	211.00
976.78	210.95
977.07	210.67
977.37	210.71
977.66	211.00
977.95	210.62
978.24	210.76
978.54	211.00
978.83	210.81
979.12	210.45
979.42	210.60
979.71	210.33
980.00	210.26
980.29	210.26
980.59	209.74
980.88	210.45
981.17	210.57
981.46	210.57
981.76	210.38
982.05	210.98
982.34	211.10
982.63	211.17
982.93	211.50
983.22	212.14
983.51	212.24
983.80	212.57
984.09	212.67
984.39	212.52
984.68	212.36
984.97	212.52
985.26	212.29
985.55	212.43
985.85	211.93
986.14	212.31
986.43	212.62
986.72	212.62
987.01	211.74
987.30	211.64
987.59	211.48
987.89	211.74
988.18	211.02
988.47	210.95
988.76	210.52
989.05	210.24
989.34	209.76
989.63	210.36
989.92	210.00
990.22	209.86
990.51	209.81
990.80	209.71
991.09	209.67
991.38	210.07
991.67	209.83
991.96	209.86
992.25	209.83
992.54	209.38
992.83	209.38
993.12	209.36
993.41	209.71
993.70	210.76
993.99	211.21
994.28	211.52
994.58	211.71
994.87	211.40
995.16	211.31
995.45	211.24
995.74	210.62
996.03	210.98
996.32	211.19
996.61	211.69
996.90	211.88
997.19	211.67
997.48	211.67
997.77	211.55
998.06	211.71
998.34	211.57
998.63	211.52
998.92	211.69
999.21	212.07
999.50	211.93
999.79	211.14
1000.08	211.05
1000.37	210.93
1000.66	210.74
1000.95	211.29
1001.24	211.45
1001.53	211.64
1001.82	211.57
1002.11	211.05
1002.40	211.31
1002.68	211.55
1002.97	212.95
1003.26	212.98
1003.55	212.48
1003.84	212.86
1004.13	213.43
1004.42	213.26
1004.71	213.17
1004.99	213.07
1005.28	213.62
1005.57	213.52
1005.86	213.12
1006.15	213.02
1006.44	212.76
1006.72	213.10
1007.01	212.81
1007.30	212.86
1007.59	212.76
1007.88	212.74
1008.17	212.93
1008.45	212.36
1008.74	211.52
1009.03	210.31
1009.32	210.24
1009.60	210.48
1009.89	210.12
1010.18	209.17
1010.47	208.79
1010.76	208.93
1011.04	208.71
1011.33	208.45
1011.62	208.45
1011.91	208.69
1012.19	208.81
1012.48	208.67
1012.77	208.48
1013.05	209.21
1013.34	209.21
1013.63	209.19
1013.92	209.24
1014.20	209.10
1014.49	209.38
1014.78	209.74
1015.06	209.14
1015.35	209.38
1015.64	209.62
1015.92	209.98
1016.21	210.10
1016.50	210.26
1016.78	210.64
1017.07	210.93
1017.36	210.71
1017.64	210.43
1017.93	210.43
1018.22	210.07
1018.50	210.29
1018.79	210.38
1019.08	209.67
1019.36	209.69
1019.65	209.55
1019.93	209.98
1020.22	210.31
1020.51	211.31
1020.79	210.98
1021.08	207.00
1021.36	208.00
1021.65	212.00
1021.94	210.00
1022.22	210.50
1022.51	207.50
1022.79	217.00
1023.08	214.00
1023.36	235.00
1023.65	205.50
>>>>>End Processed Spectral Data<<<<<
