SpectraSuite Data File
++++++++++++++++++++++++++++++++++++
Date: Tue Apr 02 18:37:30 EDT 2013
User: group
Dark Spectrum Present: No
Reference Spectrum Present: No
Number of Sampled Component Spectra: 1
Spectrometers: USB2E7196
Integration Time (usec): 580000 (USB2E7196)
Spectra Averaged: 2 (USB2E7196)
Boxcar Smoothing: 10 (USB2E7196)
Correct for Electrical Dark: No (USB2E7196)
Strobe/Lamp Enabled: No (USB2E7196)
Correct for Detector Non-linearity: No (USB2E7196)
Correct for Stray Light: No (USB2E7196)
Number of Pixels in Processed Spectrum: 2048
>>>>>Begin Processed Spectral Data<<<<<
339.09	0.00
339.48	192.00
339.86	192.00
340.24	194.50
340.63	197.50
341.01	234.50
341.39	204.00
341.78	210.50
342.16	211.50
342.54	201.00
342.93	198.07
343.31	207.98
343.69	208.67
344.07	209.48
344.46	210.43
344.84	211.05
345.22	209.81
345.60	210.17
345.99	210.21
346.37	210.14
346.75	210.50
347.13	210.69
347.52	210.69
347.90	211.10
348.28	211.48
348.66	212.19
349.05	211.57
349.43	211.90
349.81	212.00
350.19	212.40
350.57	212.52
350.96	212.93
351.34	213.26
351.72	213.40
352.10	213.31
352.48	212.83
352.87	212.90
353.25	213.12
353.63	213.10
354.01	213.26
354.39	213.43
354.77	213.74
355.15	214.31
355.54	214.21
355.92	213.71
356.30	213.55
356.68	214.93
357.06	215.24
357.44	215.10
357.82	215.31
358.20	215.98
358.58	216.05
358.97	216.10
359.35	216.38
359.73	216.83
360.11	217.05
360.49	217.40
360.87	217.55
361.25	217.69
361.63	218.52
362.01	218.38
362.39	218.36
362.77	218.38
363.15	218.38
363.53	218.45
363.91	218.69
364.29	218.76
364.67	216.76
365.05	216.93
365.43	217.14
365.81	217.21
366.19	217.29
366.57	218.14
366.95	217.81
367.33	217.26
367.71	217.14
368.09	217.31
368.47	217.26
368.85	217.05
369.23	217.43
369.61	216.67
369.99	217.38
370.37	217.62
370.75	218.48
371.13	217.69
371.51	217.21
371.89	217.12
372.27	217.00
372.65	216.98
373.03	216.81
373.41	216.60
373.78	216.45
374.16	215.57
374.54	214.93
374.92	214.83
375.30	215.05
375.68	214.81
376.06	215.02
376.44	215.00
376.82	215.12
377.19	214.86
377.57	214.62
377.95	214.05
378.33	213.76
378.71	212.55
379.09	213.12
379.47	213.57
379.84	213.60
380.22	213.55
380.60	213.48
380.98	213.31
381.36	213.31
381.73	212.88
382.11	213.33
382.49	213.67
382.87	213.40
383.25	213.43
383.62	215.60
384.00	215.17
384.38	215.43
384.76	215.95
385.13	216.90
385.51	217.07
385.89	216.60
386.27	216.69
386.64	217.12
387.02	216.71
387.40	216.50
387.78	216.76
388.15	216.74
388.53	216.33
388.91	216.31
389.29	216.12
389.66	216.43
390.04	216.02
390.42	215.90
390.79	216.17
391.17	216.02
391.55	214.00
391.92	214.10
392.30	214.10
392.68	213.40
393.05	213.05
393.43	213.02
393.81	213.31
394.18	213.00
394.56	212.95
394.94	213.45
395.31	213.52
395.69	213.98
396.06	214.52
396.44	214.95
396.82	214.79
397.19	215.93
397.57	215.90
397.95	216.50
398.32	215.98
398.70	216.38
399.07	216.88
399.45	216.71
399.82	216.69
400.20	216.64
400.58	216.86
400.95	216.10
401.33	216.71
401.70	218.21
402.08	218.48
402.45	218.67
402.83	218.90
403.20	218.90
403.58	218.62
403.95	219.00
404.33	219.50
404.71	220.05
405.08	221.43
405.46	221.69
405.83	221.83
406.21	222.38
406.58	222.62
406.96	222.95
407.33	223.64
407.70	224.50
408.08	226.67
408.45	227.69
408.83	229.00
409.20	229.38
409.58	229.05
409.95	230.29
410.33	231.17
410.70	231.86
411.08	233.52
411.45	235.10
411.82	236.10
412.20	237.83
412.57	240.45
412.95	239.79
413.32	241.90
413.69	243.40
414.07	245.52
414.44	247.86
414.82	250.33
415.19	253.10
415.56	255.71
415.94	257.31
416.31	260.24
416.68	263.40
417.06	267.12
417.43	271.19
417.81	275.45
418.18	279.79
418.55	283.86
418.93	288.21
419.30	293.10
419.67	298.33
420.04	303.57
420.42	308.45
420.79	316.76
421.16	322.98
421.54	331.05
421.91	337.93
422.28	345.17
422.66	352.74
423.03	361.95
423.40	369.57
423.77	378.12
424.15	386.79
424.52	395.74
424.89	406.00
425.26	415.17
425.64	424.33
426.01	434.24
426.38	444.79
426.75	456.26
427.13	466.62
427.50	478.00
427.87	489.38
428.24	501.55
428.61	512.10
428.99	525.83
429.36	538.50
429.73	551.62
430.10	565.40
430.47	579.64
430.85	591.83
431.22	607.12
431.59	624.10
431.96	639.38
432.33	656.38
432.70	672.76
433.08	692.31
433.45	710.52
433.82	729.26
434.19	750.07
434.56	769.83
434.93	789.07
435.30	808.62
435.68	829.86
436.05	850.50
436.42	870.36
436.79	889.71
437.16	910.52
437.53	932.86
437.90	954.43
438.27	975.21
438.64	997.52
439.01	1018.29
439.38	1035.67
439.75	1053.40
440.13	1073.52
440.50	1091.83
440.87	1107.50
441.24	1123.67
441.61	1141.43
441.98	1154.90
442.35	1170.07
442.72	1185.83
443.09	1201.57
443.46	1210.79
443.83	1216.98
444.20	1223.48
444.57	1230.24
444.94	1234.62
445.31	1238.76
445.68	1245.05
446.05	1247.36
446.42	1246.24
446.79	1245.07
447.16	1242.69
447.53	1241.67
447.90	1234.19
448.27	1227.17
448.64	1216.88
449.01	1210.12
449.37	1196.14
449.74	1182.19
450.11	1168.19
450.48	1150.83
450.85	1131.76
451.22	1118.00
451.59	1104.21
451.96	1090.26
452.33	1072.52
452.70	1054.90
453.07	1034.40
453.43	1011.62
453.80	991.98
454.17	973.24
454.54	954.12
454.91	935.36
455.28	916.19
455.65	898.24
456.02	884.31
456.38	868.90
456.75	849.83
457.12	834.14
457.49	819.40
457.86	802.62
458.23	790.74
458.59	777.00
458.96	762.31
459.33	749.55
459.70	737.43
460.07	727.26
460.43	715.93
460.80	706.00
461.17	697.40
461.54	687.64
461.91	678.05
462.27	668.76
462.64	660.05
463.01	651.36
463.38	643.95
463.74	631.57
464.11	624.00
464.48	617.02
464.85	609.67
465.21	604.33
465.58	598.17
465.95	589.98
466.32	584.12
466.68	577.76
467.05	571.36
467.42	564.95
467.78	558.02
468.15	552.21
468.52	547.26
468.88	540.19
469.25	534.62
469.62	530.45
469.98	526.26
470.35	522.00
470.72	518.02
471.08	512.19
471.45	508.98
471.82	505.48
472.18	501.40
472.55	498.79
472.92	494.33
473.28	491.00
473.65	487.62
474.02	484.48
474.38	482.07
474.75	480.36
475.11	477.57
475.48	475.93
475.85	474.00
476.21	471.88
476.58	470.60
476.94	469.24
477.31	467.69
477.67	465.90
478.04	464.71
478.41	463.81
478.77	465.29
479.14	464.02
479.50	463.05
479.87	462.98
480.23	462.40
480.60	462.21
480.96	462.52
481.33	463.81
481.69	464.10
482.06	464.26
482.42	465.07
482.79	465.95
483.15	466.29
483.52	467.79
483.88	469.02
484.25	470.21
484.61	471.21
484.98	472.38
485.34	474.86
485.71	476.81
486.07	478.76
486.44	479.14
486.80	481.45
487.17	483.83
487.53	486.67
487.90	489.64
488.26	494.07
488.62	497.38
488.99	500.33
489.35	503.71
489.72	507.40
490.08	510.26
490.44	513.95
490.81	518.98
491.17	522.71
491.54	527.57
491.90	532.17
492.26	537.38
492.63	542.19
492.99	546.76
493.36	552.14
493.72	557.90
494.08	563.88
494.45	570.21
494.81	576.90
495.17	582.74
495.54	589.67
495.90	595.60
496.26	602.52
496.63	609.31
496.99	616.55
497.35	624.02
497.72	631.93
498.08	639.71
498.44	646.74
498.80	655.57
499.17	663.43
499.53	671.79
499.89	680.24
500.26	689.52
500.62	698.07
500.98	707.69
501.34	716.29
501.71	726.50
502.07	735.19
502.43	743.90
502.79	753.24
503.16	762.24
503.52	771.26
503.88	780.00
504.24	789.93
504.60	799.88
504.97	809.93
505.33	819.62
505.69	830.48
506.05	840.86
506.41	850.62
506.78	860.12
507.14	870.14
507.50	880.79
507.86	890.98
508.22	901.74
508.59	911.05
508.95	921.57
509.31	931.50
509.67	942.24
510.03	952.29
510.39	962.79
510.75	972.69
511.12	983.57
511.48	993.69
511.84	1003.76
512.20	1013.14
512.56	1023.19
512.92	1033.10
513.28	1042.81
513.64	1052.98
514.00	1062.31
514.37	1072.14
514.73	1081.95
515.09	1091.12
515.45	1100.05
515.81	1109.55
516.17	1118.79
516.53	1127.26
516.89	1135.55
517.25	1144.24
517.61	1153.29
517.97	1161.38
518.33	1169.76
518.69	1178.07
519.05	1186.81
519.41	1194.90
519.77	1204.81
520.13	1211.86
520.49	1219.17
520.85	1226.17
521.21	1233.86
521.57	1241.29
521.93	1247.95
522.29	1254.50
522.65	1260.31
523.01	1267.76
523.37	1273.21
523.73	1279.45
524.09	1285.40
524.45	1290.57
524.81	1295.71
525.17	1301.12
525.53	1306.62
525.89	1312.19
526.25	1316.90
526.61	1322.07
526.97	1326.29
527.33	1330.21
527.68	1336.79
528.04	1341.52
528.40	1345.93
528.76	1349.76
529.12	1353.52
529.48	1358.38
529.84	1361.64
530.20	1366.31
530.56	1369.26
530.91	1373.76
531.27	1377.79
531.63	1381.50
531.99	1385.12
532.35	1388.45
532.71	1391.60
533.07	1395.31
533.42	1400.71
533.78	1404.05
534.14	1407.40
534.50	1410.62
534.86	1414.14
535.21	1415.00
535.57	1418.83
535.93	1421.33
536.29	1425.17
536.65	1428.19
537.00	1430.67
537.36	1433.45
537.72	1434.90
538.08	1436.98
538.44	1438.64
538.79	1439.86
539.15	1441.81
539.51	1444.38
539.87	1446.76
540.22	1449.05
540.58	1450.21
540.94	1449.76
541.29	1451.14
541.65	1451.07
542.01	1452.24
542.37	1451.21
542.72	1451.67
543.08	1450.62
543.44	1451.07
543.79	1449.00
544.15	1449.74
544.51	1450.05
544.87	1450.95
545.22	1451.76
545.58	1452.24
545.94	1451.43
546.29	1451.45
546.65	1450.14
547.01	1448.55
547.36	1446.93
547.72	1445.55
548.07	1444.69
548.43	1442.88
548.79	1441.36
549.14	1440.12
549.50	1439.36
549.86	1437.79
550.21	1437.19
550.57	1437.19
550.92	1435.88
551.28	1435.90
551.64	1434.33
551.99	1432.33
552.35	1430.05
552.70	1428.26
553.06	1426.81
553.41	1426.24
553.77	1425.79
554.13	1425.67
554.48	1424.88
554.84	1424.98
555.19	1424.17
555.55	1424.43
555.90	1423.57
556.26	1422.00
556.61	1420.67
556.97	1418.45
557.32	1418.29
557.68	1416.81
558.03	1415.31
558.39	1414.05
558.74	1412.26
559.10	1410.79
559.45	1409.21
559.81	1407.86
560.16	1406.05
560.52	1403.64
560.87	1401.90
561.23	1399.26
561.58	1398.95
561.94	1397.05
562.29	1394.24
562.64	1392.74
563.00	1389.14
563.35	1386.83
563.71	1386.12
564.06	1385.43
564.42	1384.52
564.77	1382.83
565.12	1381.36
565.48	1381.36
565.83	1379.81
566.19	1377.93
566.54	1375.26
566.89	1374.12
567.25	1373.67
567.60	1373.83
567.96	1374.48
568.31	1373.71
568.66	1373.26
569.02	1369.60
569.37	1367.76
569.72	1366.57
570.08	1364.26
570.43	1363.05
570.78	1362.33
571.14	1359.88
571.49	1358.24
571.84	1355.48
572.20	1352.67
572.55	1350.71
572.90	1346.90
573.26	1343.90
573.61	1341.67
573.96	1340.07
574.31	1336.93
574.67	1333.90
575.02	1330.02
575.37	1325.52
575.72	1321.33
576.08	1317.24
576.43	1313.74
576.78	1310.90
577.13	1306.74
577.49	1302.76
577.84	1299.67
578.19	1295.62
578.54	1291.76
578.90	1286.83
579.25	1283.71
579.60	1280.50
579.95	1275.10
580.30	1270.33
580.66	1267.33
581.01	1263.19
581.36	1259.21
581.71	1255.40
582.06	1252.43
582.42	1248.93
582.77	1244.17
583.12	1239.86
583.47	1236.14
583.82	1232.93
584.17	1228.93
584.53	1226.62
584.88	1222.81
585.23	1219.00
585.58	1214.57
585.93	1210.79
586.28	1207.52
586.63	1203.40
586.98	1199.55
587.34	1196.74
587.69	1193.29
588.04	1188.43
588.39	1184.36
588.74	1178.60
589.09	1174.50
589.44	1168.86
589.79	1164.19
590.14	1160.45
590.49	1156.29
590.84	1151.86
591.19	1147.57
591.54	1142.93
591.89	1137.12
592.25	1135.00
592.60	1129.57
592.95	1125.79
593.30	1121.05
593.65	1116.55
594.00	1111.50
594.35	1112.69
594.70	1107.60
595.05	1102.81
595.40	1098.14
595.75	1093.24
596.10	1090.02
596.45	1085.69
596.80	1080.86
597.15	1076.71
597.50	1071.62
597.85	1068.07
598.19	1063.19
598.54	1058.10
598.89	1053.48
599.24	1049.48
599.59	1043.98
599.94	1039.64
600.29	1035.48
600.64	1031.83
600.99	1027.60
601.34	1024.31
601.69	1013.62
602.04	1009.02
602.39	1004.71
602.74	1000.88
603.08	996.69
603.43	992.67
603.78	988.55
604.13	984.10
604.48	978.50
604.83	975.14
605.18	971.12
605.53	966.88
605.87	962.43
606.22	958.29
606.57	953.88
606.92	949.21
607.27	945.52
607.62	940.38
607.96	935.83
608.31	931.36
608.66	926.60
609.01	922.33
609.36	919.14
609.70	914.93
610.05	910.62
610.40	907.24
610.75	902.50
611.10	898.40
611.44	894.17
611.79	890.40
612.14	885.60
612.49	879.86
612.83	875.50
613.18	871.45
613.53	867.24
613.88	862.71
614.22	857.38
614.57	852.48
614.92	848.38
615.27	843.81
615.61	838.60
615.96	833.83
616.31	829.60
616.65	825.45
617.00	821.17
617.35	816.60
617.70	811.48
618.04	806.55
618.39	801.62
618.74	797.64
619.08	793.17
619.43	788.69
619.78	785.10
620.12	781.17
620.47	777.71
620.82	772.55
621.16	768.31
621.51	766.05
621.85	761.83
622.20	757.90
622.55	753.40
622.89	750.17
623.24	746.48
623.59	742.57
623.93	738.26
624.28	734.36
624.62	732.95
624.97	731.31
625.32	728.05
625.66	724.62
626.01	720.50
626.35	717.55
626.70	714.19
627.04	710.83
627.39	706.76
627.73	703.64
628.08	701.29
628.43	697.83
628.77	692.98
629.12	689.83
629.46	686.62
629.81	683.29
630.15	679.52
630.50	675.86
630.84	672.40
631.19	668.62
631.53	665.40
631.88	659.43
632.22	653.62
632.57	650.48
632.91	646.48
633.26	643.12
633.60	638.52
633.95	635.10
634.29	631.02
634.64	628.29
634.98	624.12
635.32	621.40
635.67	618.69
636.01	615.24
636.36	611.55
636.70	608.79
637.05	605.40
637.39	602.24
637.73	599.29
638.08	596.93
638.42	594.05
638.77	590.74
639.11	587.95
639.45	585.33
639.80	582.50
640.14	579.83
640.49	576.81
640.83	574.00
641.17	571.29
641.52	568.52
641.86	565.64
642.20	563.33
642.55	559.50
642.89	556.24
643.23	553.64
643.58	551.17
643.92	546.79
644.26	544.64
644.61	542.29
644.95	539.17
645.29	535.50
645.64	533.19
645.98	530.50
646.32	528.12
646.66	524.90
647.01	521.74
647.35	519.21
647.69	517.14
648.04	515.19
648.38	512.74
648.72	510.19
649.06	507.21
649.41	503.95
649.75	501.10
650.09	498.40
650.43	495.60
650.78	492.74
651.12	490.81
651.46	488.26
651.80	485.00
652.14	482.60
652.49	480.86
652.83	477.98
653.17	475.05
653.51	472.24
653.85	470.10
654.20	467.48
654.54	464.76
654.88	461.62
655.22	459.79
655.56	457.12
655.90	454.83
656.25	452.57
656.59	450.43
656.93	448.50
657.27	446.95
657.61	444.71
657.95	442.19
658.29	439.88
658.64	437.86
658.98	436.02
659.32	433.76
659.66	431.38
660.00	429.52
660.34	427.48
660.68	425.10
661.02	423.19
661.36	421.21
661.70	419.55
662.05	417.98
662.39	415.81
662.73	414.83
663.07	413.93
663.41	412.14
663.75	410.17
664.09	408.45
664.43	405.67
664.77	404.24
665.11	402.67
665.45	401.17
665.79	399.79
666.13	398.00
666.47	396.21
666.81	394.50
667.15	392.29
667.49	391.50
667.83	391.07
668.17	389.31
668.51	387.98
668.85	386.50
669.19	385.95
669.53	383.62
669.87	381.57
670.21	379.36
670.55	377.98
670.89	377.26
671.23	375.90
671.57	374.95
671.91	373.57
672.25	372.31
672.58	371.64
672.92	369.19
673.26	367.95
673.60	367.10
673.94	366.12
674.28	365.00
674.62	363.57
674.96	361.64
675.30	360.50
675.64	359.26
675.97	357.88
676.31	355.67
676.65	354.81
676.99	354.07
677.33	352.40
677.67	351.26
678.01	348.86
678.34	347.69
678.68	346.86
679.02	345.17
679.36	343.74
679.70	341.62
680.04	340.40
680.37	339.02
680.71	337.57
681.05	336.14
681.39	335.19
681.73	333.33
682.06	331.98
682.40	331.00
682.74	330.29
683.08	329.86
683.42	328.50
683.75	327.67
684.09	325.64
684.43	324.52
684.77	323.33
685.10	322.60
685.44	321.36
685.78	319.83
686.12	318.79
686.45	317.86
686.79	316.93
687.13	316.62
687.46	315.55
687.80	315.05
688.14	313.52
688.48	312.62
688.81	312.19
689.15	311.98
689.49	310.71
689.82	309.81
690.16	307.81
690.50	306.86
690.83	305.57
691.17	304.40
691.51	303.74
691.84	302.88
692.18	301.81
692.52	300.79
692.85	300.12
693.19	300.07
693.52	299.19
693.86	298.31
694.20	297.33
694.53	296.74
694.87	295.24
695.21	294.57
695.54	293.55
695.88	292.21
696.21	290.50
696.55	289.76
696.88	288.74
697.22	288.02
697.56	287.64
697.89	286.52
698.23	286.10
698.56	284.90
698.90	284.17
699.23	283.52
699.57	282.83
699.90	281.88
700.24	280.38
700.58	279.81
700.91	279.48
701.25	279.98
701.58	279.81
701.92	279.90
702.25	279.29
702.59	278.33
702.92	278.12
703.26	277.62
703.59	277.02
703.93	277.95
704.26	277.60
704.60	277.02
704.93	276.69
705.26	275.93
705.60	275.95
705.93	274.98
706.27	274.95
706.60	274.98
706.94	275.21
707.27	274.64
707.61	274.29
707.94	273.38
708.27	271.36
708.61	270.19
708.94	269.43
709.28	268.90
709.61	268.50
709.94	267.76
710.28	267.26
710.61	266.74
710.95	264.50
711.28	265.24
711.61	264.57
711.95	264.52
712.28	263.83
712.61	263.21
712.95	263.81
713.28	264.17
713.61	263.10
713.95	261.83
714.28	261.55
714.61	260.71
714.95	260.12
715.28	259.52
715.61	259.02
715.95	258.76
716.28	258.10
716.61	258.02
716.95	257.60
717.28	256.93
717.61	256.36
717.94	255.50
718.28	253.81
718.61	253.29
718.94	252.50
719.27	252.17
719.61	251.83
719.94	250.76
720.27	249.38
720.60	248.67
720.94	248.38
721.27	247.95
721.60	248.17
721.93	247.83
722.27	248.36
722.60	248.29
722.93	247.31
723.26	247.24
723.59	246.50
723.93	246.33
724.26	246.52
724.59	246.24
724.92	246.31
725.25	246.48
725.59	246.10
725.92	245.88
726.25	245.52
726.58	245.43
726.91	245.07
727.24	244.86
727.57	244.76
727.91	244.14
728.24	244.17
728.57	243.29
728.90	243.19
729.23	242.24
729.56	242.83
729.89	242.86
730.22	242.43
730.55	242.26
730.89	242.10
731.22	241.79
731.55	241.43
731.88	241.26
732.21	240.71
732.54	240.24
732.87	240.12
733.20	240.00
733.53	239.43
733.86	239.31
734.19	238.69
734.52	238.86
734.85	240.19
735.18	239.45
735.51	240.21
735.84	240.00
736.17	240.26
736.50	238.79
736.83	240.88
737.16	240.76
737.49	240.50
737.82	240.02
738.15	239.79
738.48	239.52
738.81	239.50
739.14	239.05
739.47	238.95
739.80	238.55
740.13	238.45
740.46	238.17
740.79	237.67
741.12	237.29
741.45	236.83
741.78	235.57
742.11	236.12
742.44	235.29
742.77	235.45
743.10	235.00
743.43	234.88
743.75	232.40
744.08	234.95
744.41	234.57
744.74	234.24
745.07	233.90
745.40	234.12
745.73	234.74
746.06	234.55
746.39	234.55
746.71	234.31
747.04	234.05
747.37	233.48
747.70	233.76
748.03	234.00
748.36	233.81
748.68	233.40
749.01	232.43
749.34	232.19
749.67	231.81
750.00	231.57
750.33	233.07
750.65	233.19
750.98	230.33
751.31	230.10
751.64	230.12
751.97	231.05
752.29	230.74
752.62	229.71
752.95	229.43
753.28	229.17
753.60	228.76
753.93	229.24
754.26	229.38
754.59	228.52
754.91	228.24
755.24	228.24
755.57	228.10
755.90	228.10
756.22	227.86
756.55	227.36
756.88	227.19
757.20	225.52
757.53	224.93
757.86	224.79
758.19	225.00
758.51	224.81
758.84	223.50
759.17	223.40
759.49	223.21
759.82	224.17
760.15	224.29
760.47	224.21
760.80	223.19
761.13	223.43
761.45	223.31
761.78	223.26
762.11	222.93
762.43	222.95
762.76	222.64
763.08	222.67
763.41	223.05
763.74	223.10
764.06	222.90
764.39	222.90
764.71	222.86
765.04	222.69
765.37	222.33
765.69	222.17
766.02	221.90
766.34	221.57
766.67	220.60
767.00	220.67
767.32	221.57
767.65	222.74
767.97	222.60
768.30	222.79
768.62	222.29
768.95	222.14
769.27	221.52
769.60	221.93
769.92	221.50
770.25	220.90
770.57	220.26
770.90	220.26
771.22	219.69
771.55	219.64
771.87	219.74
772.20	219.88
772.52	221.48
772.85	223.86
773.17	223.86
773.50	224.05
773.82	223.60
774.15	222.93
774.47	221.69
774.80	221.29
775.12	221.29
775.45	221.55
775.77	221.74
776.09	222.29
776.42	222.14
776.74	222.76
777.07	222.67
777.39	222.74
777.72	222.64
778.04	222.98
778.36	222.83
778.69	222.57
779.01	222.64
779.33	221.10
779.66	218.50
779.98	218.19
780.31	217.76
780.63	218.76
780.95	218.86
781.28	218.95
781.60	218.90
781.92	218.98
782.25	218.95
782.57	218.76
782.89	218.21
783.22	218.14
783.54	217.81
783.86	217.93
784.19	217.71
784.51	218.17
784.83	217.83
785.16	217.86
785.48	217.88
785.80	217.76
786.12	218.07
786.45	218.10
786.77	218.36
787.09	218.43
787.42	217.33
787.74	217.14
788.06	217.36
788.38	217.12
788.71	216.67
789.03	216.71
789.35	216.90
789.67	216.93
789.99	217.07
790.32	216.71
790.64	217.00
790.96	218.93
791.28	218.24
791.61	218.26
791.93	218.40
792.25	218.38
792.57	219.81
792.89	219.07
793.21	219.26
793.54	219.00
793.86	218.90
794.18	219.24
794.50	219.07
794.82	219.05
795.14	219.71
795.47	220.33
795.79	220.12
796.11	219.71
796.43	219.71
796.75	219.60
797.07	219.74
797.39	219.52
797.71	217.81
798.04	217.98
798.36	218.29
798.68	218.05
799.00	218.21
799.32	217.05
799.64	217.74
799.96	217.69
800.28	218.17
800.60	218.07
800.92	218.17
801.24	217.81
801.56	217.64
801.89	217.21
802.21	217.10
802.53	217.24
802.85	217.69
803.17	218.60
803.49	218.10
803.81	217.86
804.13	217.90
804.45	217.79
804.77	217.81
805.09	217.71
805.41	217.36
805.73	217.07
806.05	216.81
806.37	216.60
806.69	216.19
807.01	216.02
807.33	216.38
807.65	215.55
807.97	216.81
808.28	216.74
808.60	216.81
808.92	216.76
809.24	217.86
809.56	217.36
809.88	216.62
810.20	216.86
810.52	217.12
810.84	216.71
811.16	216.60
811.48	216.57
811.80	216.98
812.12	217.24
812.43	217.43
812.75	217.67
813.07	217.29
813.39	217.83
813.71	217.43
814.03	217.00
814.35	217.26
814.67	216.14
814.98	215.88
815.30	215.62
815.62	215.10
815.94	213.69
816.26	213.86
816.58	213.52
816.89	213.60
817.21	213.29
817.53	213.29
817.85	213.36
818.17	213.36
818.48	212.86
818.80	213.21
819.12	213.00
819.44	212.48
819.76	212.31
820.07	212.21
820.39	212.40
820.71	212.36
821.03	212.29
821.34	212.48
821.66	213.14
821.98	213.60
822.30	213.55
822.61	214.86
822.93	214.81
823.25	215.02
823.57	214.83
823.88	215.43
824.20	215.81
824.52	216.31
824.83	216.21
825.15	215.86
825.47	215.76
825.79	215.83
826.10	215.88
826.42	216.05
826.74	216.29
827.05	216.24
827.37	216.40
827.69	216.48
828.00	216.48
828.32	216.12
828.64	215.55
828.95	216.62
829.27	215.88
829.58	215.83
829.90	215.83
830.22	216.07
830.53	215.40
830.85	215.14
831.17	214.62
831.48	214.74
831.80	214.98
832.11	214.71
832.43	214.50
832.75	214.45
833.06	215.33
833.38	214.62
833.69	214.52
834.01	214.74
834.32	214.60
834.64	214.36
834.96	214.38
835.27	214.36
835.59	213.55
835.90	213.14
836.22	213.26
836.53	213.21
836.85	213.10
837.16	215.33
837.48	215.26
837.79	215.90
838.11	215.95
838.42	216.05
838.74	216.43
839.05	216.26
839.37	216.24
839.68	215.29
840.00	215.50
840.31	215.93
840.63	215.81
840.94	215.57
841.26	215.52
841.57	215.57
841.88	216.19
842.20	215.95
842.51	215.95
842.83	215.79
843.14	217.36
843.46	217.60
843.77	216.55
844.08	216.45
844.40	215.67
844.71	215.31
845.03	214.90
845.34	214.57
845.65	214.67
845.97	214.57
846.28	214.67
846.60	214.60
846.91	214.19
847.22	214.07
847.54	214.48
847.85	214.69
848.16	214.48
848.48	213.86
848.79	215.02
849.10	215.14
849.42	215.26
849.73	213.33
850.04	213.10
850.36	212.07
850.67	212.52
850.98	212.55
851.30	212.86
851.61	212.93
851.92	212.93
852.23	213.48
852.55	213.64
852.86	213.60
853.17	213.74
853.49	214.17
853.80	214.55
854.11	214.76
854.42	214.95
854.74	214.64
855.05	214.95
855.36	213.62
855.67	213.83
855.99	213.86
856.30	216.45
856.61	216.33
856.92	216.52
857.23	216.57
857.55	216.40
857.86	216.26
858.17	216.62
858.48	216.45
858.79	215.90
859.11	216.14
859.42	216.19
859.73	215.76
860.04	215.62
860.35	214.90
860.66	214.21
860.98	214.05
861.29	214.60
861.60	214.21
861.91	214.62
862.22	213.98
862.53	213.60
862.84	211.24
863.16	211.64
863.47	211.19
863.78	210.95
864.09	211.29
864.40	211.60
864.71	211.55
865.02	211.71
865.33	211.62
865.64	211.19
865.95	211.02
866.27	212.64
866.58	212.38
866.89	212.79
867.20	212.81
867.51	212.40
867.82	211.90
868.13	212.48
868.44	212.14
868.75	212.88
869.06	213.12
869.37	213.31
869.68	212.83
869.99	213.17
870.30	213.17
870.61	213.19
870.92	212.60
871.23	212.26
871.54	212.62
871.85	213.05
872.16	213.40
872.47	213.43
872.78	212.21
873.09	212.21
873.40	212.00
873.71	212.50
874.02	212.71
874.33	212.88
874.64	212.52
874.95	213.00
875.26	212.57
875.56	212.40
875.87	212.29
876.18	212.05
876.49	213.81
876.80	213.62
877.11	213.26
877.42	213.76
877.73	214.05
878.04	213.67
878.35	213.57
878.66	213.62
878.96	213.74
879.27	213.60
879.58	213.79
879.89	213.79
880.20	214.24
880.51	214.19
880.82	214.07
881.12	214.19
881.43	213.67
881.74	213.31
882.05	213.29
882.36	213.38
882.67	213.86
882.97	211.95
883.28	211.98
883.59	212.12
883.90	212.19
884.21	212.17
884.51	212.10
884.82	211.81
885.13	211.48
885.44	211.24
885.74	211.38
886.05	211.26
886.36	211.43
886.67	210.64
886.98	211.48
887.28	211.71
887.59	211.67
887.90	211.95
888.20	212.05
888.51	212.36
888.82	211.90
889.13	211.88
889.43	213.76
889.74	213.64
890.05	213.52
890.35	213.17
890.66	213.24
890.97	212.88
891.28	212.76
891.58	213.02
891.89	212.90
892.20	212.62
892.50	212.31
892.81	211.86
893.12	211.67
893.42	210.76
893.73	210.76
894.04	210.79
894.34	210.95
894.65	210.88
894.95	210.88
895.26	211.10
895.57	211.88
895.87	209.95
896.18	210.33
896.48	210.60
896.79	210.60
897.10	210.93
897.40	211.19
897.71	211.62
898.01	211.48
898.32	211.98
898.63	212.02
898.93	212.19
899.24	212.52
899.54	212.67
899.85	212.69
900.15	212.69
900.46	212.67
900.76	212.69
901.07	212.69
901.38	212.52
901.68	212.76
901.99	211.90
902.29	211.86
902.60	211.50
902.90	211.19
903.21	211.24
903.51	210.86
903.82	211.36
904.12	211.26
904.43	211.33
904.73	211.29
905.03	211.40
905.34	213.29
905.64	213.07
905.95	213.12
906.25	213.07
906.56	212.93
906.86	212.90
907.17	212.88
907.47	212.86
907.77	212.50
908.08	212.10
908.38	212.17
908.69	212.45
908.99	212.83
909.30	213.02
909.60	213.07
909.90	213.17
910.21	212.48
910.51	212.29
910.81	212.33
911.12	212.21
911.42	212.21
911.73	210.26
912.03	210.60
912.33	210.98
912.64	211.31
912.94	211.24
913.24	210.95
913.55	210.69
913.85	210.76
914.15	211.50
914.46	211.98
914.76	211.93
915.06	211.71
915.37	211.48
915.67	211.33
915.97	211.43
916.27	211.00
916.58	211.26
916.88	211.26
917.18	211.02
917.49	212.50
917.79	212.52
918.09	212.88
918.39	213.17
918.70	213.00
919.00	212.74
919.30	213.67
919.60	213.60
919.91	213.48
920.21	213.52
920.51	213.19
920.81	212.98
921.12	213.29
921.42	213.36
921.72	213.62
922.02	213.71
922.32	214.02
922.63	214.21
922.93	215.10
923.23	215.07
923.53	214.67
923.83	213.17
924.13	213.17
924.44	213.14
924.74	213.50
925.04	213.93
925.34	213.79
925.64	212.90
925.94	213.12
926.24	214.26
926.55	214.33
926.85	214.31
927.15	214.21
927.45	214.21
927.75	214.10
928.05	214.07
928.35	214.12
928.65	214.26
928.95	214.31
929.26	213.48
929.56	214.00
929.86	214.57
930.16	214.81
930.46	214.50
930.76	214.57
931.06	213.67
931.36	213.26
931.66	213.48
931.96	213.71
932.26	213.67
932.56	212.98
932.86	213.21
933.16	213.36
933.46	213.17
933.76	212.50
934.06	213.12
934.36	213.81
934.66	213.64
934.96	213.48
935.26	213.83
935.56	214.24
935.86	213.76
936.16	213.62
936.46	213.24
936.76	213.52
937.06	213.10
937.36	213.24
937.66	213.31
937.96	213.45
938.26	212.95
938.56	213.05
938.86	212.98
939.16	213.21
939.46	213.40
939.76	213.71
940.06	214.02
940.35	213.48
940.65	212.45
940.95	212.55
941.25	211.98
941.55	211.57
941.85	211.62
942.15	212.10
942.45	212.74
942.75	212.69
943.04	212.57
943.34	213.17
943.64	213.07
943.94	212.57
944.24	212.48
944.54	212.86
944.84	212.60
945.13	212.31
945.43	211.81
945.73	211.69
946.03	211.45
946.33	211.29
946.62	211.31
946.92	211.02
947.22	211.21
947.52	211.26
947.82	211.67
948.11	211.17
948.41	210.64
948.71	209.64
949.01	209.81
949.31	209.86
949.60	209.71
949.90	210.00
950.20	210.19
950.50	210.12
950.79	209.79
951.09	210.36
951.39	210.19
951.69	210.05
951.98	210.48
952.28	210.50
952.58	210.36
952.87	210.21
953.17	210.52
953.47	210.38
953.76	210.38
954.06	210.02
954.36	209.69
954.66	209.57
954.95	210.45
955.25	210.55
955.55	210.83
955.84	210.26
956.14	210.26
956.44	210.31
956.73	210.19
957.03	210.43
957.32	210.17
957.62	210.21
957.92	210.57
958.21	210.21
958.51	212.71
958.81	213.10
959.10	213.36
959.40	213.90
959.69	213.83
959.99	214.21
960.29	214.21
960.58	214.26
960.88	215.21
961.17	214.86
961.47	214.98
961.76	214.74
962.06	215.40
962.36	215.24
962.65	215.38
962.95	215.45
963.24	215.26
963.54	215.26
963.83	215.45
964.13	215.17
964.42	214.64
964.72	213.10
965.01	213.02
965.31	212.90
965.60	212.33
965.90	213.98
966.19	213.38
966.49	213.52
966.78	213.48
967.08	213.29
967.37	213.29
967.67	213.12
967.96	213.45
968.26	213.21
968.55	213.36
968.85	213.14
969.14	213.12
969.43	213.05
969.73	212.74
970.02	212.67
970.32	212.67
970.61	212.62
970.91	211.79
971.20	211.79
971.49	211.45
971.79	211.57
972.08	209.93
972.38	210.29
972.67	210.17
972.96	210.64
973.26	210.33
973.55	210.93
973.85	210.74
974.14	210.52
974.43	210.79
974.73	210.62
975.02	210.52
975.31	210.64
975.61	210.64
975.90	210.76
976.19	210.50
976.49	210.64
976.78	210.81
977.07	210.83
977.37	210.55
977.66	211.02
977.95	211.12
978.24	211.07
978.54	211.52
978.83	211.19
979.12	210.90
979.42	210.62
979.71	210.12
980.00	209.98
980.29	209.95
980.59	209.48
980.88	209.88
981.17	209.83
981.46	209.88
981.76	209.95
982.05	210.64
982.34	210.76
982.63	211.05
982.93	211.10
983.22	211.48
983.51	211.76
983.80	212.07
984.09	212.07
984.39	212.02
984.68	211.50
984.97	211.81
985.26	211.43
985.55	211.79
985.85	211.55
986.14	212.14
986.43	212.38
986.72	212.31
987.01	211.67
987.30	211.69
987.59	211.26
987.89	211.50
988.18	210.93
988.47	210.98
988.76	210.57
989.05	210.62
989.34	210.69
989.63	211.26
989.92	210.83
990.22	210.60
990.51	210.62
990.80	210.55
991.09	210.74
991.38	211.24
991.67	210.90
991.96	210.69
992.25	210.31
992.54	209.95
992.83	210.02
993.12	210.05
993.41	210.40
993.70	211.24
993.99	211.38
994.28	211.43
994.58	211.64
994.87	211.38
995.16	211.05
995.45	210.48
995.74	209.74
996.03	209.88
996.32	210.31
996.61	210.88
996.90	210.98
997.19	210.79
997.48	210.93
997.77	210.67
998.06	210.86
998.34	210.88
998.63	210.90
998.92	211.17
999.21	211.64
999.50	211.43
999.79	211.00
1000.08	210.83
1000.37	210.76
1000.66	210.60
1000.95	211.24
1001.24	211.43
1001.53	211.83
1001.82	211.60
1002.11	211.31
1002.40	211.29
1002.68	211.62
1002.97	213.21
1003.26	213.02
1003.55	212.67
1003.84	213.05
1004.13	213.74
1004.42	213.67
1004.71	213.67
1004.99	213.36
1005.28	213.67
1005.57	213.76
1005.86	213.52
1006.15	213.52
1006.44	213.38
1006.72	213.50
1007.01	213.19
1007.30	213.29
1007.59	213.19
1007.88	213.50
1008.17	213.57
1008.45	213.29
1008.74	212.50
1009.03	211.38
1009.32	211.26
1009.60	211.38
1009.89	211.14
1010.18	210.29
1010.47	210.17
1010.76	210.17
1011.04	210.10
1011.33	210.14
1011.62	210.36
1011.91	210.48
1012.19	210.52
1012.48	210.57
1012.77	210.48
1013.05	211.24
1013.34	211.29
1013.63	210.98
1013.92	211.14
1014.20	210.81
1014.49	210.83
1014.78	210.67
1015.06	209.93
1015.35	210.07
1015.64	210.12
1015.92	210.31
1016.21	210.48
1016.50	210.52
1016.78	210.64
1017.07	210.69
1017.36	210.29
1017.64	209.83
1017.93	210.07
1018.22	210.17
1018.50	210.17
1018.79	210.19
1019.08	209.33
1019.36	209.48
1019.65	209.48
1019.93	209.83
1020.22	210.48
1020.51	211.62
1020.79	211.74
1021.08	214.00
1021.36	207.50
1021.65	210.00
1021.94	209.00
1022.22	213.50
1022.51	208.00
1022.79	220.50
1023.08	216.00
1023.36	235.50
1023.65	207.50
>>>>>End Processed Spectral Data<<<<<
