SpectraSuite Data File
++++++++++++++++++++++++++++++++++++
Date: Tue Apr 02 18:41:36 EDT 2013
User: group
Dark Spectrum Present: No
Reference Spectrum Present: No
Number of Sampled Component Spectra: 1
Spectrometers: USB2E7196
Integration Time (usec): 580000 (USB2E7196)
Spectra Averaged: 2 (USB2E7196)
Boxcar Smoothing: 10 (USB2E7196)
Correct for Electrical Dark: No (USB2E7196)
Strobe/Lamp Enabled: No (USB2E7196)
Correct for Detector Non-linearity: No (USB2E7196)
Correct for Stray Light: No (USB2E7196)
Number of Pixels in Processed Spectrum: 2048
>>>>>Begin Processed Spectral Data<<<<<
339.09	0.00
339.48	194.50
339.86	198.00
340.24	198.50
340.63	197.00
341.01	227.00
341.39	199.50
341.78	205.00
342.16	213.00
342.54	204.00
342.93	197.64
343.31	207.43
343.69	207.93
344.07	208.24
344.46	208.93
344.84	209.57
345.22	208.52
345.60	209.07
345.99	209.48
346.37	209.33
346.75	209.45
347.13	209.76
347.52	209.93
347.90	210.64
348.28	210.79
348.66	211.45
349.05	210.95
349.43	211.26
349.81	211.55
350.19	211.38
350.57	211.57
350.96	212.12
351.34	212.69
351.72	213.12
352.10	213.31
352.48	213.02
352.87	213.14
353.25	213.50
353.63	213.38
354.01	213.00
354.39	213.40
354.77	213.55
355.15	213.93
355.54	213.79
355.92	213.02
356.30	213.10
356.68	214.24
357.06	214.43
357.44	213.81
357.82	213.60
358.20	214.81
358.58	214.81
358.97	214.90
359.35	214.86
359.73	214.76
360.11	214.93
360.49	215.24
360.87	215.29
361.25	215.52
361.63	216.50
362.01	217.07
362.39	216.69
362.77	216.90
363.15	216.76
363.53	216.69
363.91	216.81
364.29	216.93
364.67	214.98
365.05	215.00
365.43	215.38
365.81	215.64
366.19	215.69
366.57	216.43
366.95	216.29
367.33	215.98
367.71	216.45
368.09	216.74
368.47	216.67
368.85	216.60
369.23	216.95
369.61	216.12
369.99	216.67
370.37	217.05
370.75	217.81
371.13	217.38
371.51	217.14
371.89	217.33
372.27	217.40
372.65	217.45
373.03	217.57
373.41	217.62
373.78	217.50
374.16	216.74
374.54	216.00
374.92	216.02
375.30	216.05
375.68	215.60
376.06	215.83
376.44	215.83
376.82	215.95
377.19	215.67
377.57	215.62
377.95	214.50
378.33	214.07
378.71	213.00
379.09	213.43
379.47	213.67
379.84	213.36
380.22	213.02
380.60	212.90
380.98	212.86
381.36	212.48
381.73	212.26
382.11	212.43
382.49	212.76
382.87	212.31
383.25	212.52
383.62	214.55
384.00	213.83
384.38	213.95
384.76	214.33
385.13	215.24
385.51	215.24
385.89	215.26
386.27	215.67
386.64	216.17
387.02	216.05
387.40	215.90
387.78	216.40
388.15	216.90
388.53	216.79
388.91	216.76
389.29	216.86
389.66	217.26
390.04	217.10
390.42	217.26
390.79	217.52
391.17	217.38
391.55	215.21
391.92	215.45
392.30	215.60
392.68	215.00
393.05	214.62
393.43	214.76
393.81	215.12
394.18	214.69
394.56	214.57
394.94	215.05
395.31	214.76
395.69	215.10
396.06	215.05
396.44	215.33
396.82	215.14
397.19	216.38
397.57	216.24
397.95	216.60
398.32	215.88
398.70	216.12
399.07	216.38
399.45	216.36
399.82	216.36
400.20	216.17
400.58	216.10
400.95	215.43
401.33	215.88
401.70	217.33
402.08	217.52
402.45	217.64
402.83	218.21
403.20	218.60
403.58	218.40
403.95	218.88
404.33	219.26
404.71	219.67
405.08	220.64
405.46	220.81
405.83	220.90
406.21	221.45
406.58	221.74
406.96	222.10
407.33	222.93
407.70	223.67
408.08	225.64
408.45	226.76
408.83	227.79
409.20	228.12
409.58	227.43
409.95	228.45
410.33	229.45
410.70	229.67
411.08	231.10
411.45	232.10
411.82	232.93
412.20	234.33
412.57	236.83
412.95	236.55
413.32	238.52
413.69	239.98
414.07	241.62
414.44	243.43
414.82	245.40
415.19	247.64
415.56	249.90
415.94	251.45
416.31	254.31
416.68	257.14
417.06	260.60
417.43	264.36
417.81	268.10
418.18	271.43
418.55	274.95
418.93	278.86
419.30	282.86
419.67	287.38
420.04	292.10
420.42	296.12
420.79	303.40
421.16	309.17
421.54	316.50
421.91	322.95
422.28	329.62
422.66	336.38
423.03	344.38
423.40	351.57
423.77	358.93
424.15	366.12
424.52	373.79
424.89	382.26
425.26	390.36
425.64	397.88
426.01	406.83
426.38	415.95
426.75	425.40
427.13	435.48
427.50	445.21
427.87	454.88
428.24	465.48
428.61	473.79
428.99	485.14
429.36	495.40
429.73	506.86
430.10	518.38
430.47	530.40
430.85	541.40
431.22	554.24
431.59	568.83
431.96	582.05
432.33	596.88
432.70	610.26
433.08	626.83
433.45	642.62
433.82	658.48
434.19	676.24
434.56	693.81
434.93	709.69
435.30	726.38
435.68	744.83
436.05	762.10
436.42	779.19
436.79	795.48
437.16	813.29
437.53	831.74
437.90	849.98
438.27	867.98
438.64	886.95
439.01	904.60
439.38	918.98
439.75	934.19
440.13	951.19
440.50	967.79
440.87	981.17
441.24	995.10
441.61	1009.71
441.98	1019.95
442.35	1031.86
442.72	1045.57
443.09	1058.64
443.46	1066.83
443.83	1072.57
444.20	1078.10
444.57	1083.83
444.94	1087.19
445.31	1091.07
445.68	1097.00
446.05	1098.83
446.42	1096.93
446.79	1095.93
447.16	1093.67
447.53	1092.26
447.90	1086.26
448.27	1080.10
448.64	1070.43
449.01	1063.71
449.37	1052.57
449.74	1041.64
450.11	1030.74
450.48	1015.57
450.85	999.74
451.22	986.69
451.59	974.76
451.96	962.93
452.33	947.19
452.70	932.71
453.07	914.74
453.43	894.48
453.80	877.43
454.17	861.62
454.54	845.71
454.91	829.69
455.28	813.19
455.65	797.57
456.02	785.48
456.38	772.64
456.75	757.10
457.12	743.57
457.49	731.07
457.86	716.38
458.23	705.52
458.59	693.64
458.96	681.24
459.33	669.64
459.70	659.02
460.07	650.52
460.43	640.79
460.80	632.33
461.17	625.17
461.54	616.69
461.91	608.21
462.27	599.43
462.64	592.12
463.01	584.81
463.38	577.76
463.74	567.02
464.11	560.55
464.48	554.36
464.85	547.86
465.21	542.88
465.58	537.31
465.95	530.76
466.32	525.62
466.68	520.45
467.05	515.76
467.42	510.55
467.78	505.14
468.15	499.29
468.52	495.10
468.88	488.98
469.25	484.17
469.62	480.64
469.98	476.43
470.35	472.76
470.72	468.98
471.08	464.24
471.45	461.57
471.82	458.62
472.18	454.83
472.55	452.36
472.92	448.69
473.28	445.43
473.65	442.33
474.02	439.50
474.38	437.19
474.75	434.95
475.11	432.36
475.48	430.67
475.85	429.38
476.21	427.21
476.58	426.21
476.94	425.02
477.31	423.69
477.67	422.55
478.04	421.31
478.41	420.69
478.77	422.12
479.14	420.69
479.50	419.90
479.87	420.02
480.23	419.76
480.60	419.05
480.96	419.07
481.33	420.33
481.69	420.00
482.06	419.98
482.42	420.17
482.79	420.81
483.15	420.90
483.52	422.17
483.88	422.95
484.25	423.19
484.61	424.07
484.98	424.64
485.34	426.50
485.71	428.19
486.07	429.33
486.44	428.88
486.80	430.67
487.17	432.10
487.53	434.17
487.90	436.02
488.26	439.50
488.62	442.24
488.99	444.00
489.35	447.19
489.72	449.81
490.08	452.57
490.44	455.07
490.81	458.81
491.17	461.50
491.54	465.00
491.90	468.90
492.26	472.38
492.63	476.74
492.99	480.26
493.36	484.48
493.72	489.00
494.08	493.50
494.45	498.10
494.81	503.69
495.17	508.21
495.54	513.31
495.90	517.67
496.26	522.74
496.63	528.31
496.99	533.81
497.35	539.86
497.72	545.64
498.08	551.55
498.44	557.12
498.80	563.95
499.17	570.83
499.53	577.29
499.89	584.60
500.26	591.05
500.62	597.52
500.98	604.71
501.34	611.83
501.71	619.48
502.07	626.55
502.43	632.79
502.79	640.31
503.16	647.64
503.52	655.10
503.88	662.55
504.24	670.07
504.60	677.64
504.97	685.26
505.33	692.76
505.69	701.98
506.05	710.05
506.41	717.69
506.78	725.17
507.14	732.83
507.50	740.64
507.86	748.74
508.22	757.21
508.59	765.07
508.95	772.93
509.31	781.90
509.67	789.79
510.03	798.10
510.39	806.21
510.75	814.33
511.12	822.43
511.48	829.88
511.84	837.57
512.20	845.10
512.56	853.05
512.92	862.10
513.28	869.62
513.64	877.57
514.00	885.62
514.37	893.40
514.73	901.10
515.09	908.57
515.45	915.31
515.81	922.48
516.17	929.19
516.53	935.74
516.89	941.74
517.25	949.12
517.61	956.36
517.97	962.38
518.33	968.62
518.69	975.14
519.05	982.55
519.41	989.07
519.77	996.83
520.13	1002.64
520.49	1007.64
520.85	1012.90
521.21	1019.60
521.57	1025.43
521.93	1030.71
522.29	1036.45
522.65	1041.69
523.01	1048.48
523.37	1053.29
523.73	1058.71
524.09	1064.60
524.45	1069.93
524.81	1074.83
525.17	1080.07
525.53	1085.05
525.89	1089.90
526.25	1094.88
526.61	1099.38
526.97	1103.86
527.33	1107.93
527.68	1114.19
528.04	1119.55
528.40	1124.14
528.76	1127.67
529.12	1132.02
529.48	1137.07
529.84	1141.43
530.20	1146.48
530.56	1150.38
530.91	1155.38
531.27	1160.21
531.63	1164.12
531.99	1168.19
532.35	1172.31
532.71	1176.02
533.07	1181.14
533.42	1187.95
533.78	1193.21
534.14	1198.10
534.50	1202.62
534.86	1207.14
535.21	1210.50
535.57	1215.38
535.93	1218.86
536.29	1224.26
536.65	1228.50
537.00	1232.29
537.36	1235.50
537.72	1238.57
538.08	1242.90
538.44	1246.19
538.79	1249.79
539.15	1253.45
539.51	1257.57
539.87	1261.19
540.22	1264.95
540.58	1268.52
540.94	1270.60
541.29	1274.43
541.65	1277.38
542.01	1281.24
542.37	1283.83
542.72	1286.36
543.08	1288.67
543.44	1292.93
543.79	1293.98
544.15	1296.69
544.51	1300.67
544.87	1304.55
545.22	1308.98
545.58	1311.90
545.94	1315.64
546.29	1318.55
546.65	1321.86
547.01	1324.43
547.36	1327.60
547.72	1330.74
548.07	1333.40
548.43	1335.48
548.79	1337.26
549.14	1339.76
549.50	1342.76
549.86	1345.00
550.21	1347.79
550.57	1350.98
550.92	1353.33
551.28	1357.29
551.64	1360.81
551.99	1363.55
552.35	1366.93
552.70	1369.07
553.06	1372.17
553.41	1375.45
553.77	1381.31
554.13	1385.45
554.48	1389.57
554.84	1394.00
555.19	1397.07
555.55	1402.29
555.90	1406.81
556.26	1410.74
556.61	1414.86
556.97	1418.02
557.32	1422.74
557.68	1427.74
558.03	1431.45
558.39	1435.50
558.74	1440.90
559.10	1445.24
559.45	1450.74
559.81	1455.12
560.16	1459.71
560.52	1464.48
560.87	1469.93
561.23	1472.05
561.58	1478.21
561.94	1482.10
562.29	1486.60
562.64	1492.69
563.00	1497.14
563.35	1502.14
563.71	1507.55
564.06	1513.02
564.42	1518.86
564.77	1525.21
565.12	1531.74
565.48	1538.71
565.83	1545.02
566.19	1549.31
566.54	1554.48
566.89	1558.60
567.25	1565.57
567.60	1573.21
567.96	1580.79
568.31	1586.12
568.66	1592.71
569.02	1596.62
569.37	1601.79
569.72	1607.67
570.08	1612.45
570.43	1616.55
570.78	1621.40
571.14	1626.93
571.49	1631.93
571.84	1636.71
572.20	1640.81
572.55	1644.67
572.90	1647.62
573.26	1652.12
573.61	1656.71
573.96	1661.14
574.31	1665.67
574.67	1668.71
575.02	1670.86
575.37	1672.74
575.72	1676.33
576.08	1679.79
576.43	1684.14
576.78	1687.86
577.13	1691.17
577.49	1693.74
577.84	1698.60
578.19	1702.24
578.54	1705.38
578.90	1708.43
579.25	1712.05
579.60	1714.67
579.95	1717.10
580.30	1721.19
580.66	1724.24
581.01	1727.36
581.36	1730.31
581.71	1733.02
582.06	1736.67
582.42	1739.55
582.77	1742.21
583.12	1743.95
583.47	1746.48
583.82	1748.55
584.17	1752.21
584.53	1754.71
584.88	1758.71
585.23	1760.52
585.58	1763.26
585.93	1764.36
586.28	1766.88
586.63	1769.57
586.98	1771.67
587.34	1775.10
587.69	1776.55
588.04	1778.14
588.39	1779.62
588.74	1780.05
589.09	1782.90
589.44	1782.48
589.79	1785.02
590.14	1785.79
590.49	1788.45
590.84	1789.45
591.19	1790.76
591.54	1791.45
591.89	1791.76
592.25	1793.62
592.60	1793.62
592.95	1793.29
593.30	1795.05
593.65	1795.74
594.00	1794.57
594.35	1801.00
594.70	1799.60
595.05	1799.86
595.40	1800.12
595.75	1800.45
596.10	1802.00
596.45	1800.62
596.80	1802.02
597.15	1800.67
597.50	1800.90
597.85	1800.64
598.19	1800.90
598.54	1800.00
598.89	1799.74
599.24	1799.79
599.59	1798.05
599.94	1798.36
600.29	1798.33
600.64	1797.36
600.99	1796.67
601.34	1796.95
601.69	1791.14
602.04	1790.48
602.39	1789.62
602.74	1788.86
603.08	1787.40
603.43	1787.86
603.78	1787.29
604.13	1786.21
604.48	1785.48
604.83	1785.21
605.18	1783.55
605.53	1782.10
605.87	1780.21
606.22	1778.38
606.57	1777.07
606.92	1775.05
607.27	1774.24
607.62	1772.36
607.96	1771.43
608.31	1770.10
608.66	1768.50
609.01	1765.52
609.36	1764.36
609.70	1762.48
610.05	1760.10
610.40	1758.29
610.75	1754.45
611.10	1752.24
611.44	1748.98
611.79	1745.76
612.14	1742.57
612.49	1738.24
612.83	1734.38
613.18	1731.12
613.53	1727.86
613.88	1722.83
614.22	1719.17
614.57	1714.17
614.92	1710.17
615.27	1705.57
615.61	1700.76
615.96	1696.17
616.31	1692.71
616.65	1689.12
617.00	1684.83
617.35	1680.43
617.70	1675.60
618.04	1670.24
618.39	1665.43
618.74	1660.93
619.08	1656.40
619.43	1650.76
619.78	1647.55
620.12	1643.21
620.47	1639.14
620.82	1632.88
621.16	1627.69
621.51	1623.40
621.85	1617.98
622.20	1613.10
622.55	1606.83
622.89	1601.81
623.24	1597.21
623.59	1591.55
623.93	1585.12
624.28	1580.48
624.62	1577.57
624.97	1573.79
625.32	1570.43
625.66	1565.60
626.01	1560.74
626.35	1556.88
626.70	1553.24
627.04	1548.86
627.39	1544.31
627.73	1540.48
628.08	1538.02
628.43	1535.07
628.77	1529.98
629.12	1526.19
629.46	1521.43
629.81	1518.33
630.15	1513.48
630.50	1508.71
630.84	1504.26
631.19	1498.81
631.53	1492.55
631.88	1485.10
632.22	1479.31
632.57	1474.31
632.91	1469.17
633.26	1464.14
633.60	1457.93
633.95	1451.64
634.29	1445.24
634.64	1439.69
634.98	1432.98
635.32	1427.69
635.67	1422.40
636.01	1417.62
636.36	1411.38
636.70	1406.79
637.05	1401.29
637.39	1396.19
637.73	1391.10
638.08	1386.00
638.42	1381.67
638.77	1377.86
639.11	1372.83
639.45	1367.52
639.80	1360.86
640.14	1354.57
640.49	1348.62
640.83	1342.21
641.17	1337.17
641.52	1331.74
641.86	1326.40
642.20	1322.40
642.55	1315.57
642.89	1309.31
643.23	1303.07
643.58	1297.93
643.92	1291.02
644.26	1284.64
644.61	1278.79
644.95	1271.31
645.29	1264.52
645.64	1258.50
645.98	1251.50
646.32	1244.88
646.66	1237.83
647.01	1230.57
647.35	1224.79
647.69	1217.67
648.04	1212.24
648.38	1205.55
648.72	1198.60
649.06	1192.05
649.41	1184.07
649.75	1176.67
650.09	1169.55
650.43	1162.74
650.78	1155.33
651.12	1148.24
651.46	1141.05
651.80	1134.10
652.14	1128.17
652.49	1122.26
652.83	1114.60
653.17	1107.31
653.51	1100.71
653.85	1094.33
654.20	1088.17
654.54	1080.48
654.88	1074.45
655.22	1068.24
655.56	1060.95
655.90	1054.29
656.25	1047.05
656.59	1040.83
656.93	1035.55
657.27	1031.10
657.61	1024.31
657.95	1018.60
658.29	1012.62
658.64	1007.26
658.98	1001.02
659.32	994.33
659.66	987.88
660.00	982.79
660.34	976.81
660.68	970.64
661.02	964.52
661.36	958.38
661.70	953.12
662.05	947.21
662.39	941.12
662.73	936.29
663.07	932.14
663.41	926.60
663.75	920.21
664.09	913.81
664.43	906.48
664.77	900.88
665.11	894.74
665.45	889.21
665.79	883.17
666.13	877.14
666.47	871.19
666.81	865.52
667.15	859.14
667.49	854.50
667.83	850.19
668.17	844.48
668.51	839.31
668.85	833.57
669.19	829.50
669.53	823.24
669.87	817.69
670.21	811.00
670.55	804.90
670.89	800.64
671.23	795.81
671.57	790.38
671.91	784.83
672.25	779.48
672.58	775.26
672.92	769.76
673.26	765.38
673.60	760.98
673.94	756.00
674.28	751.40
674.62	746.24
674.96	740.98
675.30	736.64
675.64	732.21
675.97	727.40
676.31	721.24
676.65	716.93
676.99	713.14
677.33	708.45
677.67	704.52
678.01	699.12
678.34	694.00
678.68	690.07
679.02	686.02
679.36	681.74
679.70	676.36
680.04	671.45
680.37	666.26
680.71	661.69
681.05	657.29
681.39	653.12
681.73	648.19
682.06	643.17
682.40	638.69
682.74	634.43
683.08	630.71
683.42	625.95
683.75	621.79
684.09	616.76
684.43	612.40
684.77	608.14
685.10	603.93
685.44	600.02
685.78	595.57
686.12	591.17
686.45	587.05
686.79	582.33
687.13	579.12
687.46	575.07
687.80	571.43
688.14	567.43
688.48	563.12
688.81	559.38
689.15	556.55
689.49	552.48
689.82	548.14
690.16	543.50
690.50	540.50
690.83	536.50
691.17	532.24
691.51	528.88
691.84	525.21
692.18	521.67
692.52	517.86
692.85	514.33
693.19	511.40
693.52	507.74
693.86	504.50
694.20	500.93
694.53	497.24
694.87	492.93
695.21	489.17
695.54	485.95
695.88	481.95
696.21	477.26
696.55	474.02
696.88	471.26
697.22	468.14
697.56	464.90
697.89	461.40
698.23	458.55
698.56	455.24
698.90	452.29
699.23	448.88
699.57	446.17
699.90	443.07
700.24	439.90
700.58	437.21
700.91	434.79
701.25	433.14
701.58	430.98
701.92	429.07
702.25	426.36
702.59	423.17
702.92	420.86
703.26	418.52
703.59	415.93
703.93	414.71
704.26	412.67
704.60	410.55
704.93	408.14
705.26	405.40
705.60	403.33
705.93	400.43
706.27	398.71
706.60	396.67
706.94	394.88
707.27	392.19
707.61	389.79
707.94	387.36
708.27	383.95
708.61	381.48
708.94	378.98
709.28	376.90
709.61	375.21
709.94	373.07
710.28	371.07
710.61	369.07
710.95	365.69
711.28	364.90
711.61	362.50
711.95	361.21
712.28	359.19
712.61	357.07
712.95	356.29
713.28	355.43
713.61	353.26
713.95	350.88
714.28	349.36
714.61	347.67
714.95	346.19
715.28	344.45
715.61	342.71
715.95	341.60
716.28	339.67
716.61	338.10
716.95	336.31
717.28	334.62
717.61	333.14
717.94	331.21
718.28	328.33
718.61	326.86
718.94	324.88
719.27	323.57
719.61	322.38
719.94	320.50
720.27	317.81
720.60	316.36
720.94	315.19
721.27	313.90
721.60	312.79
721.93	311.12
722.27	310.29
722.60	309.26
722.93	307.57
723.26	306.76
723.59	305.21
723.93	304.33
724.26	303.40
724.59	302.31
724.92	301.67
725.25	301.12
725.59	300.05
725.92	299.33
726.25	298.10
726.58	296.98
726.91	295.90
727.24	295.38
727.57	294.33
727.91	293.14
728.24	292.24
728.57	291.33
728.90	290.79
729.23	289.12
729.56	288.88
729.89	287.98
730.22	287.14
730.55	286.21
730.89	285.50
731.22	284.67
731.55	283.52
731.88	282.69
732.21	281.64
732.54	280.79
732.87	280.00
733.20	279.67
733.53	279.07
733.86	278.38
734.19	277.26
734.52	276.76
734.85	277.24
735.18	276.31
735.51	276.17
735.84	275.69
736.17	275.52
736.50	273.98
736.83	275.50
737.16	274.64
737.49	274.24
737.82	273.43
738.15	272.98
738.48	272.57
738.81	271.74
739.14	270.71
739.47	270.14
739.80	269.48
740.13	269.10
740.46	267.88
740.79	267.21
741.12	266.74
741.45	265.81
741.78	264.40
742.11	264.24
742.44	262.98
742.77	262.69
743.10	261.79
743.43	261.02
743.75	258.31
744.08	260.69
744.41	259.86
744.74	259.12
745.07	258.12
745.40	258.07
745.73	258.38
746.06	257.83
746.39	257.48
746.71	256.83
747.04	255.67
747.37	255.55
747.70	255.12
748.03	254.62
748.36	254.79
748.68	254.07
749.01	253.19
749.34	252.83
749.67	252.10
750.00	252.14
750.33	253.62
750.65	253.50
750.98	250.36
751.31	250.24
751.64	250.17
751.97	251.26
752.29	250.57
752.62	249.26
752.95	248.88
753.28	248.24
753.60	248.00
753.93	248.40
754.26	247.95
754.59	247.14
754.91	246.24
755.24	245.55
755.57	245.21
755.90	244.64
756.22	244.12
756.55	243.50
756.88	242.62
757.20	240.55
757.53	239.64
757.86	239.33
758.19	239.21
758.51	238.71
758.84	236.90
759.17	236.26
759.49	236.12
759.82	236.76
760.15	236.74
760.47	236.26
760.80	235.50
761.13	235.52
761.45	235.33
761.78	235.50
762.11	235.21
762.43	234.98
762.76	234.71
763.08	234.81
763.41	234.86
763.74	234.86
764.06	234.81
764.39	234.74
764.71	234.33
765.04	233.79
765.37	233.69
765.69	233.62
766.02	233.43
766.34	233.17
766.67	232.31
767.00	232.36
767.32	233.07
767.65	233.88
767.97	233.57
768.30	233.31
768.62	232.93
768.95	232.57
769.27	232.05
769.60	232.43
769.92	231.86
770.25	231.24
770.57	230.60
770.90	230.43
771.22	229.90
771.55	229.93
771.87	229.88
772.20	229.31
772.52	230.83
772.85	233.14
773.17	232.88
773.50	232.48
773.82	232.00
774.15	230.83
774.47	229.43
774.80	228.81
775.12	228.71
775.45	228.69
775.77	228.57
776.09	228.90
776.42	228.55
776.74	229.05
777.07	229.02
777.39	228.90
777.72	228.43
778.04	228.38
778.36	228.10
778.69	227.79
779.01	228.00
779.33	226.12
779.66	223.79
779.98	223.45
780.31	223.36
780.63	224.10
780.95	224.36
781.28	224.12
781.60	224.02
781.92	223.93
782.25	223.62
782.57	223.52
782.89	223.12
783.22	222.95
783.54	222.40
783.86	222.33
784.19	222.21
784.51	222.95
784.83	222.83
785.16	222.62
785.48	222.55
785.80	222.40
786.12	222.57
786.45	222.21
786.77	222.40
787.09	222.36
787.42	221.40
787.74	221.60
788.06	221.69
788.38	221.52
788.71	221.19
789.03	221.26
789.35	221.52
789.67	221.36
789.99	221.38
790.32	220.95
790.64	221.05
790.96	222.79
791.28	221.83
791.61	221.67
791.93	221.69
792.25	221.71
792.57	223.05
792.89	222.43
793.21	222.71
793.54	222.43
793.86	222.05
794.18	222.05
794.50	221.40
794.82	221.45
795.14	221.76
795.47	222.12
795.79	222.24
796.11	221.55
796.43	221.31
796.75	221.40
797.07	221.57
797.39	221.45
797.71	219.95
798.04	220.10
798.36	220.24
798.68	220.36
799.00	220.62
799.32	219.40
799.64	220.10
799.96	219.98
800.28	220.21
800.60	220.19
800.92	220.45
801.24	220.31
801.56	220.38
801.89	220.10
802.21	220.05
802.53	219.48
802.85	220.12
803.17	221.00
803.49	220.38
803.81	220.31
804.13	220.12
804.45	219.71
804.77	219.86
805.09	219.98
805.41	219.69
805.73	219.12
806.05	218.81
806.37	218.33
806.69	218.10
807.01	217.95
807.33	218.19
807.65	217.26
807.97	218.31
808.28	217.90
808.60	217.95
808.92	217.83
809.24	219.33
809.56	218.74
809.88	218.02
810.20	218.12
810.52	218.33
810.84	217.76
811.16	217.88
811.48	217.71
811.80	218.31
812.12	218.17
812.43	218.52
812.75	218.62
813.07	218.52
813.39	218.57
813.71	218.21
814.03	217.95
814.35	218.10
814.67	217.31
814.98	217.05
815.30	217.07
815.62	216.64
815.94	215.12
816.26	215.33
816.58	215.00
816.89	215.07
817.21	214.45
817.53	214.81
817.85	214.83
818.17	214.90
818.48	214.12
818.80	214.57
819.12	214.50
819.44	214.10
819.76	213.83
820.07	213.79
820.39	213.83
820.71	213.90
821.03	213.88
821.34	213.79
821.66	214.36
821.98	214.52
822.30	214.76
822.61	215.86
822.93	215.86
823.25	215.95
823.57	216.05
823.88	216.62
824.20	216.69
824.52	216.76
824.83	216.57
825.15	216.38
825.47	216.29
825.79	216.24
826.10	216.19
826.42	216.38
826.74	216.74
827.05	216.74
827.37	216.60
827.69	216.52
828.00	216.50
828.32	216.26
828.64	215.79
828.95	216.69
829.27	216.36
829.58	216.29
829.90	216.60
830.22	216.55
830.53	216.05
830.85	215.64
831.17	215.31
831.48	215.26
831.80	215.40
832.11	215.19
832.43	214.90
832.75	214.83
833.06	215.83
833.38	214.95
833.69	214.93
834.01	215.07
834.32	215.24
834.64	215.05
834.96	215.17
835.27	215.14
835.59	214.29
835.90	213.62
836.22	213.36
836.53	212.86
836.85	212.79
837.16	214.88
837.48	214.93
837.79	215.50
838.11	215.43
838.42	215.31
838.74	215.45
839.05	215.36
839.37	215.36
839.68	214.05
840.00	214.02
840.31	214.26
840.63	213.93
840.94	213.69
841.26	213.48
841.57	213.55
841.88	213.83
842.20	213.76
842.51	213.64
842.83	213.90
843.14	215.86
843.46	215.60
843.77	214.43
844.08	214.57
844.40	214.02
844.71	213.93
845.03	213.76
845.34	213.67
845.65	213.74
845.97	213.71
846.28	213.88
846.60	214.33
846.91	214.10
847.22	214.29
847.54	214.57
847.85	214.81
848.16	214.40
848.48	214.05
848.79	214.71
849.10	215.24
849.42	215.19
849.73	213.10
850.04	213.05
850.36	212.26
850.67	212.52
850.98	212.40
851.30	212.71
851.61	212.81
851.92	212.71
852.23	213.40
852.55	213.55
852.86	213.62
853.17	213.60
853.49	213.83
853.80	214.26
854.11	214.60
854.42	214.76
854.74	214.67
855.05	214.81
855.36	213.74
855.67	213.62
855.99	213.76
856.30	216.57
856.61	216.55
856.92	216.48
857.23	216.52
857.55	216.52
857.86	216.40
858.17	216.55
858.48	216.45
858.79	215.81
859.11	216.12
859.42	215.93
859.73	215.71
860.04	215.76
860.35	215.21
860.66	214.64
860.98	214.48
861.29	214.60
861.60	214.48
861.91	215.12
862.22	214.76
862.53	214.19
862.84	211.52
863.16	212.21
863.47	212.14
863.78	212.00
864.09	212.21
864.40	212.45
864.71	212.48
865.02	212.62
865.33	212.50
865.64	212.02
865.95	212.07
866.27	213.60
866.58	213.26
866.89	213.52
867.20	213.31
867.51	212.98
867.82	212.95
868.13	213.52
868.44	213.19
868.75	213.71
869.06	214.02
869.37	214.12
869.68	213.52
869.99	214.02
870.30	213.98
870.61	214.12
870.92	213.57
871.23	213.29
871.54	213.67
871.85	214.02
872.16	214.57
872.47	214.36
872.78	213.17
873.09	213.31
873.40	213.02
873.71	213.24
874.02	213.48
874.33	213.29
874.64	212.79
874.95	213.14
875.26	212.57
875.56	212.55
875.87	212.38
876.18	212.29
876.49	214.02
876.80	213.98
877.11	213.71
877.42	213.79
877.73	214.17
878.04	213.81
878.35	213.86
878.66	213.50
878.96	213.48
879.27	213.12
879.58	213.29
879.89	213.24
880.20	213.98
880.51	213.81
880.82	213.98
881.12	214.05
881.43	213.50
881.74	213.33
882.05	213.38
882.36	213.86
882.67	213.98
882.97	211.74
883.28	211.50
883.59	211.24
883.90	211.48
884.21	211.52
884.51	211.55
884.82	211.24
885.13	211.55
885.44	211.69
885.74	211.76
886.05	211.64
886.36	211.69
886.67	210.86
886.98	212.05
887.28	212.17
887.59	212.38
887.90	212.57
888.20	212.50
888.51	212.76
888.82	212.31
889.13	212.55
889.43	214.48
889.74	214.52
890.05	214.71
890.35	214.60
890.66	214.36
890.97	214.14
891.28	213.90
891.58	214.00
891.89	213.93
892.20	213.79
892.50	213.64
892.81	213.67
893.12	213.76
893.42	212.76
893.73	212.95
894.04	212.71
894.34	212.86
894.65	212.95
894.95	212.62
895.26	212.86
895.57	213.79
895.87	211.60
896.18	212.02
896.48	212.07
896.79	212.07
897.10	212.33
897.40	212.33
897.71	212.69
898.01	212.52
898.32	212.93
898.63	212.90
898.93	212.90
899.24	212.93
899.54	212.83
899.85	212.67
900.15	212.74
900.46	213.00
900.76	213.14
901.07	213.14
901.38	213.17
901.68	213.31
901.99	212.12
902.29	212.48
902.60	212.17
902.90	212.02
903.21	211.93
903.51	211.90
903.82	212.29
904.12	212.31
904.43	212.33
904.73	212.38
905.03	212.48
905.34	214.43
905.64	214.40
905.95	214.40
906.25	214.50
906.56	214.31
906.86	213.93
907.17	213.55
907.47	213.69
907.77	213.64
908.08	213.19
908.38	213.43
908.69	213.57
908.99	213.95
909.30	214.21
909.60	214.21
909.90	214.40
910.21	213.88
910.51	213.50
910.81	213.50
911.12	213.43
911.42	213.31
911.73	211.12
912.03	211.07
912.33	211.55
912.64	211.67
912.94	211.31
913.24	211.24
913.55	211.40
913.85	211.36
914.15	211.76
914.46	212.00
914.76	211.79
915.06	211.55
915.37	211.14
915.67	211.07
915.97	211.10
916.27	210.57
916.58	210.64
916.88	210.76
917.18	210.50
917.49	211.81
917.79	211.88
918.09	212.29
918.39	212.79
918.70	212.40
919.00	212.14
919.30	213.19
919.60	213.00
919.91	212.69
920.21	212.81
920.51	212.14
920.81	212.19
921.12	212.40
921.42	212.57
921.72	212.64
922.02	212.64
922.32	212.98
922.63	213.14
922.93	214.21
923.23	214.24
923.53	213.95
923.83	212.36
924.13	212.60
924.44	212.48
924.74	212.86
925.04	213.48
925.34	213.57
925.64	212.83
925.94	213.14
926.24	214.45
926.55	214.07
926.85	214.52
927.15	214.45
927.45	214.48
927.75	214.40
928.05	214.52
928.35	214.36
928.65	214.48
928.95	214.52
929.26	213.57
929.56	213.90
929.86	214.17
930.16	214.17
930.46	213.90
930.76	213.88
931.06	212.83
931.36	212.21
931.66	212.31
931.96	212.33
932.26	212.19
932.56	211.29
932.86	211.40
933.16	211.43
933.46	211.29
933.76	211.14
934.06	211.33
934.36	212.10
934.66	212.12
934.96	211.88
935.26	211.88
935.56	212.38
935.86	211.81
936.16	211.69
936.46	211.67
936.76	211.60
937.06	211.55
937.36	211.88
937.66	212.00
937.96	212.10
938.26	211.83
938.56	211.83
938.86	211.86
939.16	212.38
939.46	212.50
939.76	212.67
940.06	212.50
940.35	212.33
940.65	211.24
940.95	211.19
941.25	210.86
941.55	210.57
941.85	210.33
942.15	210.90
942.45	211.55
942.75	211.40
943.04	211.52
943.34	211.76
943.64	211.43
943.94	211.10
944.24	211.12
944.54	211.14
944.84	211.10
945.13	210.83
945.43	210.55
945.73	210.48
946.03	210.26
946.33	209.95
946.62	209.71
946.92	209.69
947.22	209.86
947.52	210.12
947.82	210.64
948.11	210.45
948.41	210.00
948.71	209.33
949.01	209.45
949.31	209.17
949.60	209.05
949.90	209.55
950.20	209.76
950.50	209.64
950.79	209.69
951.09	209.83
951.39	209.90
951.69	209.81
951.98	210.10
952.28	210.10
952.58	210.43
952.87	210.33
953.17	210.76
953.47	210.76
953.76	210.45
954.06	210.05
954.36	209.62
954.66	209.52
954.95	210.10
955.25	210.21
955.55	210.74
955.84	210.38
956.14	210.52
956.44	210.48
956.73	210.29
957.03	210.31
957.32	210.52
957.62	210.52
957.92	210.81
958.21	210.60
958.51	213.02
958.81	213.10
959.10	213.62
959.40	214.02
959.69	213.88
959.99	214.33
960.29	214.26
960.58	214.33
960.88	215.29
961.17	215.26
961.47	215.57
961.76	215.12
962.06	215.86
962.36	215.50
962.65	215.74
962.95	215.71
963.24	215.71
963.54	215.67
963.83	215.60
964.13	215.69
964.42	215.17
964.72	213.38
965.01	213.57
965.31	213.29
965.60	212.71
965.90	214.12
966.19	213.88
966.49	214.17
966.78	214.05
967.08	213.88
967.37	213.60
967.67	213.24
967.96	213.93
968.26	213.62
968.55	213.71
968.85	213.33
969.14	213.36
969.43	213.07
969.73	212.86
970.02	212.76
970.32	212.45
970.61	212.43
970.91	212.21
971.20	211.90
971.49	211.74
971.79	211.88
972.08	210.57
972.38	210.55
972.67	210.33
972.96	210.88
973.26	210.48
973.55	210.93
973.85	210.88
974.14	210.57
974.43	210.57
974.73	210.45
975.02	210.67
975.31	210.88
975.61	211.19
975.90	211.07
976.19	211.05
976.49	211.40
976.78	211.57
977.07	211.19
977.37	211.24
977.66	211.29
977.95	211.24
978.24	211.26
978.54	211.71
978.83	211.50
979.12	211.26
979.42	211.19
979.71	211.00
980.00	210.83
980.29	210.93
980.59	210.67
980.88	211.02
981.17	210.83
981.46	210.81
981.76	210.69
982.05	211.26
982.34	211.31
982.63	210.93
982.93	211.02
983.22	211.88
983.51	212.00
983.80	212.31
984.09	212.45
984.39	212.29
984.68	211.81
984.97	212.05
985.26	211.81
985.55	211.90
985.85	211.57
986.14	212.00
986.43	212.17
986.72	212.07
987.01	211.48
987.30	211.38
987.59	211.31
987.89	211.48
988.18	210.93
988.47	210.86
988.76	210.86
989.05	210.40
989.34	209.83
989.63	210.26
989.92	210.05
990.22	209.74
990.51	209.81
990.80	209.86
991.09	209.98
991.38	210.33
991.67	210.26
991.96	210.05
992.25	209.90
992.54	209.52
992.83	209.57
993.12	209.74
993.41	210.17
993.70	210.88
993.99	211.14
994.28	211.40
994.58	211.62
994.87	211.48
995.16	211.71
995.45	211.69
995.74	210.93
996.03	211.36
996.32	211.57
996.61	211.95
996.90	212.14
997.19	212.14
997.48	211.90
997.77	211.71
998.06	211.98
998.34	211.98
998.63	211.90
998.92	211.88
999.21	212.40
999.50	212.36
999.79	211.62
1000.08	211.38
1000.37	211.50
1000.66	211.14
1000.95	211.67
1001.24	211.88
1001.53	212.00
1001.82	212.05
1002.11	211.40
1002.40	211.57
1002.68	211.83
1002.97	213.26
1003.26	212.86
1003.55	212.69
1003.84	212.81
1004.13	213.31
1004.42	213.29
1004.71	213.38
1004.99	213.29
1005.28	213.48
1005.57	213.45
1005.86	213.24
1006.15	213.17
1006.44	212.83
1006.72	213.14
1007.01	212.79
1007.30	212.81
1007.59	212.67
1007.88	212.83
1008.17	213.02
1008.45	212.52
1008.74	211.74
1009.03	210.57
1009.32	210.60
1009.60	210.62
1009.89	210.60
1010.18	209.76
1010.47	209.62
1010.76	209.48
1011.04	209.57
1011.33	209.57
1011.62	209.67
1011.91	209.81
1012.19	209.90
1012.48	210.12
1012.77	210.02
1013.05	211.10
1013.34	211.05
1013.63	211.02
1013.92	211.00
1014.20	210.83
1014.49	211.12
1014.78	211.40
1015.06	210.81
1015.35	211.00
1015.64	211.45
1015.92	211.55
1016.21	211.83
1016.50	211.86
1016.78	212.26
1017.07	212.38
1017.36	211.95
1017.64	211.69
1017.93	211.88
1018.22	211.79
1018.50	211.62
1018.79	211.74
1019.08	210.67
1019.36	210.79
1019.65	210.55
1019.93	211.12
1020.22	211.33
1020.51	212.38
1020.79	212.05
1021.08	210.50
1021.36	208.50
1021.65	212.00
1021.94	210.50
1022.22	213.00
1022.51	206.50
1022.79	221.00
1023.08	210.00
1023.36	236.00
1023.65	204.50
>>>>>End Processed Spectral Data<<<<<
