SpectraSuite Data File
++++++++++++++++++++++++++++++++++++
Date: Tue Apr 02 18:38:17 EDT 2013
User: group
Dark Spectrum Present: No
Reference Spectrum Present: No
Number of Sampled Component Spectra: 1
Spectrometers: USB2E7196
Integration Time (usec): 580000 (USB2E7196)
Spectra Averaged: 2 (USB2E7196)
Boxcar Smoothing: 10 (USB2E7196)
Correct for Electrical Dark: No (USB2E7196)
Strobe/Lamp Enabled: No (USB2E7196)
Correct for Detector Non-linearity: No (USB2E7196)
Correct for Stray Light: No (USB2E7196)
Number of Pixels in Processed Spectrum: 2048
>>>>>Begin Processed Spectral Data<<<<<
339.09	0.00
339.48	193.50
339.86	194.50
340.24	194.50
340.63	200.50
341.01	235.00
341.39	200.00
341.78	209.00
342.16	211.00
342.54	206.00
342.93	198.98
343.31	208.81
343.69	209.43
344.07	209.93
344.46	210.64
344.84	211.14
345.22	210.02
345.60	210.55
345.99	210.67
346.37	210.60
346.75	210.67
347.13	210.76
347.52	210.69
347.90	211.31
348.28	211.24
348.66	211.60
349.05	211.07
349.43	211.17
349.81	211.38
350.19	211.10
350.57	211.07
350.96	211.43
351.34	211.67
351.72	211.86
352.10	211.98
352.48	212.02
352.87	211.81
353.25	211.81
353.63	211.67
354.01	211.57
354.39	211.69
354.77	211.98
355.15	212.52
355.54	212.26
355.92	211.79
356.30	211.64
356.68	213.05
357.06	213.00
357.44	212.79
357.82	212.67
358.20	213.86
358.58	213.81
358.97	213.93
359.35	214.17
359.73	214.60
360.11	214.83
360.49	214.93
360.87	214.88
361.25	215.07
361.63	215.81
362.01	215.98
362.39	215.88
362.77	216.21
363.15	216.12
363.53	216.17
363.91	216.19
364.29	216.33
364.67	214.29
365.05	214.60
365.43	214.93
365.81	215.31
366.19	215.19
366.57	216.12
366.95	215.93
367.33	215.57
367.71	215.38
368.09	215.52
368.47	215.62
368.85	215.93
369.23	216.29
369.61	215.76
369.99	216.31
370.37	216.64
370.75	216.98
371.13	216.64
371.51	216.52
371.89	216.83
372.27	217.05
372.65	217.31
373.03	217.29
373.41	217.07
373.78	216.88
374.16	215.88
374.54	215.45
374.92	215.45
375.30	215.57
375.68	215.36
376.06	215.71
376.44	215.50
376.82	215.55
377.19	215.31
377.57	215.21
377.95	214.52
378.33	214.36
378.71	213.45
379.09	213.60
379.47	214.05
379.84	213.64
380.22	213.31
380.60	213.02
380.98	212.93
381.36	212.98
381.73	212.83
382.11	213.26
382.49	213.26
382.87	213.02
383.25	213.12
383.62	215.33
384.00	214.74
384.38	214.71
384.76	215.05
385.13	216.14
385.51	216.02
385.89	216.07
386.27	216.29
386.64	216.48
387.02	216.38
387.40	215.95
387.78	216.24
388.15	216.57
388.53	216.45
388.91	216.43
389.29	216.21
389.66	216.55
390.04	216.40
390.42	216.67
390.79	216.81
391.17	216.62
391.55	214.40
391.92	214.48
392.30	214.98
392.68	214.69
393.05	214.21
393.43	214.33
393.81	214.31
394.18	213.64
394.56	213.74
394.94	214.24
395.31	214.26
395.69	215.07
396.06	215.12
396.44	215.43
396.82	215.36
397.19	216.45
397.57	216.05
397.95	216.40
398.32	215.76
398.70	215.88
399.07	216.29
399.45	216.38
399.82	216.40
400.20	216.29
400.58	216.17
400.95	215.40
401.33	215.95
401.70	217.62
402.08	218.07
402.45	218.29
402.83	218.74
403.20	219.14
403.58	218.71
403.95	219.14
404.33	219.48
404.71	219.90
405.08	221.29
405.46	221.60
405.83	221.76
406.21	222.14
406.58	222.69
406.96	223.29
407.33	223.93
407.70	224.83
408.08	226.74
408.45	227.69
408.83	228.88
409.20	229.29
409.58	228.83
409.95	230.00
410.33	230.95
410.70	231.33
411.08	232.71
411.45	233.98
411.82	235.14
412.20	236.98
412.57	239.48
412.95	239.07
413.32	241.48
413.69	243.29
414.07	245.40
414.44	247.45
414.82	249.83
415.19	252.86
415.56	255.14
415.94	256.81
416.31	260.10
416.68	263.26
417.06	267.19
417.43	271.19
417.81	275.50
418.18	279.93
418.55	284.48
418.93	288.83
419.30	293.76
419.67	298.98
420.04	304.05
420.42	309.12
420.79	317.33
421.16	323.81
421.54	331.88
421.91	339.31
422.28	346.71
422.66	354.24
423.03	362.83
423.40	371.38
423.77	380.05
424.15	388.43
424.52	397.31
424.89	406.93
425.26	415.74
425.64	424.64
426.01	434.26
426.38	444.83
426.75	456.21
427.13	467.21
427.50	478.64
427.87	490.19
428.24	501.98
428.61	512.12
428.99	525.38
429.36	537.60
429.73	550.76
430.10	564.05
430.47	577.81
430.85	591.14
431.22	605.83
431.59	623.10
431.96	638.33
432.33	655.12
432.70	671.93
433.08	691.64
433.45	709.38
433.82	727.29
434.19	747.10
434.56	766.52
434.93	784.88
435.30	804.00
435.68	825.55
436.05	846.36
436.42	866.31
436.79	884.83
437.16	905.57
437.53	927.24
437.90	949.05
438.27	970.48
438.64	992.10
439.01	1012.88
439.38	1028.98
439.75	1046.95
440.13	1067.10
440.50	1086.21
440.87	1101.76
441.24	1118.33
441.61	1136.74
441.98	1150.17
442.35	1165.07
442.72	1181.67
443.09	1198.05
443.46	1207.14
443.83	1213.50
444.20	1220.38
444.57	1228.24
444.94	1231.33
445.31	1235.50
445.68	1241.83
446.05	1243.52
446.42	1242.33
446.79	1240.98
447.16	1239.64
447.53	1238.43
447.90	1231.14
448.27	1223.67
448.64	1213.12
449.01	1205.57
449.37	1192.29
449.74	1179.62
450.11	1165.71
450.48	1147.93
450.85	1128.88
451.22	1113.60
451.59	1099.69
451.96	1084.81
452.33	1066.19
452.70	1049.83
453.07	1029.52
453.43	1006.24
453.80	986.69
454.17	967.36
454.54	948.55
454.91	928.98
455.28	910.14
455.65	892.60
456.02	877.64
456.38	862.52
456.75	843.95
457.12	827.98
457.49	812.14
457.86	795.64
458.23	783.52
458.59	769.31
458.96	755.40
459.33	742.50
459.70	730.86
460.07	720.79
460.43	709.81
460.80	699.33
461.17	690.76
461.54	680.57
461.91	671.67
462.27	662.07
462.64	653.74
463.01	644.31
463.38	636.55
463.74	624.93
464.11	617.31
464.48	610.33
464.85	603.24
465.21	598.00
465.58	592.00
465.95	583.60
466.32	577.88
466.68	571.81
467.05	565.79
467.42	559.69
467.78	553.74
468.15	548.17
468.52	544.02
468.88	537.45
469.25	532.52
469.62	527.71
469.98	522.86
470.35	518.79
470.72	515.07
471.08	509.74
471.45	506.24
471.82	502.64
472.18	498.79
472.55	495.69
472.92	491.71
473.28	488.64
473.65	485.69
474.02	482.38
474.38	480.05
474.75	477.79
475.11	475.12
475.48	472.62
475.85	470.36
476.21	467.69
476.58	466.52
476.94	464.98
477.31	463.95
477.67	463.19
478.04	462.05
478.41	460.83
478.77	461.90
479.14	460.24
479.50	459.90
479.87	460.05
480.23	459.52
480.60	459.24
480.96	458.90
481.33	459.90
481.69	460.45
482.06	460.74
482.42	461.14
482.79	461.76
483.15	462.21
483.52	463.38
483.88	464.26
484.25	464.83
484.61	466.19
484.98	466.88
485.34	468.81
485.71	471.14
486.07	473.40
486.44	473.60
486.80	476.31
487.17	478.10
487.53	480.67
487.90	483.43
488.26	487.05
488.62	490.50
488.99	493.14
489.35	496.45
489.72	499.67
490.08	503.05
490.44	506.55
490.81	510.79
491.17	514.69
491.54	519.43
491.90	524.24
492.26	528.74
492.63	533.57
492.99	537.71
493.36	542.31
493.72	547.90
494.08	553.76
494.45	559.98
494.81	566.29
495.17	571.69
495.54	578.50
495.90	584.50
496.26	590.81
496.63	597.64
496.99	604.00
497.35	611.07
497.72	618.74
498.08	625.81
498.44	633.98
498.80	642.12
499.17	649.98
499.53	658.12
499.89	666.88
500.26	675.81
500.62	684.57
500.98	694.00
501.34	702.86
501.71	711.71
502.07	720.83
502.43	730.17
502.79	740.24
503.16	749.36
503.52	759.17
503.88	769.00
504.24	778.90
504.60	789.00
504.97	799.67
505.33	809.60
505.69	821.29
506.05	831.40
506.41	841.71
506.78	852.81
507.14	862.67
507.50	872.93
507.86	883.12
508.22	894.12
508.59	903.60
508.95	914.26
509.31	925.71
509.67	936.29
510.03	947.12
510.39	958.07
510.75	968.86
511.12	978.93
511.48	989.40
511.84	1000.31
512.20	1011.12
512.56	1021.71
512.92	1033.19
513.28	1043.50
513.64	1054.55
514.00	1064.88
514.37	1075.19
514.73	1086.55
515.09	1097.74
515.45	1107.69
515.81	1117.62
516.17	1128.45
516.53	1138.24
516.89	1147.31
517.25	1157.07
517.61	1166.71
517.97	1175.79
518.33	1184.38
518.69	1194.33
519.05	1203.62
519.41	1212.50
519.77	1222.83
520.13	1231.48
520.49	1239.12
520.85	1247.12
521.21	1255.67
521.57	1265.00
521.93	1272.40
522.29	1280.67
522.65	1287.48
523.01	1296.36
523.37	1303.86
523.73	1311.24
524.09	1318.19
524.45	1325.55
524.81	1331.93
525.17	1338.79
525.53	1345.71
525.89	1353.00
526.25	1359.71
526.61	1366.00
526.97	1372.26
527.33	1378.07
527.68	1384.95
528.04	1391.40
528.40	1397.60
528.76	1403.00
529.12	1407.69
529.48	1414.33
529.84	1419.31
530.20	1425.62
530.56	1430.69
530.91	1435.52
531.27	1441.12
531.63	1447.00
531.99	1452.00
532.35	1457.43
532.71	1462.48
533.07	1467.86
533.42	1476.14
533.78	1480.57
534.14	1485.83
534.50	1490.05
534.86	1494.83
535.21	1498.93
535.57	1503.95
535.93	1507.95
536.29	1513.10
536.65	1518.12
537.00	1521.12
537.36	1525.00
537.72	1528.26
538.08	1531.88
538.44	1536.00
538.79	1539.57
539.15	1542.33
539.51	1546.57
539.87	1550.02
540.22	1553.71
540.58	1556.71
540.94	1556.62
541.29	1559.31
541.65	1560.55
542.01	1563.31
542.37	1565.07
542.72	1565.83
543.08	1566.57
543.44	1569.07
543.79	1569.55
544.15	1571.10
544.51	1573.52
544.87	1575.14
545.22	1576.64
545.58	1578.02
545.94	1578.81
546.29	1579.71
546.65	1580.07
547.01	1580.26
547.36	1580.38
547.72	1580.50
548.07	1580.83
548.43	1580.74
548.79	1580.45
549.14	1580.50
549.50	1581.14
549.86	1579.38
550.21	1580.17
550.57	1580.52
550.92	1579.38
551.28	1579.33
551.64	1578.71
551.99	1578.26
552.35	1577.60
552.70	1576.93
553.06	1576.36
553.41	1576.00
553.77	1576.17
554.13	1576.55
554.48	1576.74
554.84	1577.12
555.19	1576.14
555.55	1576.50
555.90	1576.33
556.26	1576.57
556.61	1576.50
556.97	1574.93
557.32	1574.81
557.68	1573.02
558.03	1572.14
558.39	1570.48
558.74	1569.81
559.10	1568.64
559.45	1566.64
559.81	1565.76
560.16	1564.12
560.52	1562.74
560.87	1561.19
561.23	1558.88
561.58	1558.62
561.94	1556.64
562.29	1554.90
562.64	1554.60
563.00	1551.36
563.35	1549.33
563.71	1547.48
564.06	1546.62
564.42	1546.43
564.77	1546.05
565.12	1545.81
565.48	1546.93
565.83	1547.21
566.19	1545.98
566.54	1544.55
566.89	1543.60
567.25	1542.60
567.60	1543.10
567.96	1543.33
568.31	1543.79
568.66	1542.83
569.02	1539.76
569.37	1536.93
569.72	1535.43
570.08	1532.48
570.43	1531.19
570.78	1530.31
571.14	1529.52
571.49	1527.86
571.84	1524.83
572.20	1521.93
572.55	1519.67
572.90	1514.86
573.26	1512.48
573.61	1508.76
573.96	1506.12
574.31	1503.24
574.67	1499.26
575.02	1494.88
575.37	1489.98
575.72	1485.29
576.08	1481.60
576.43	1478.14
576.78	1474.81
577.13	1470.62
577.49	1466.55
577.84	1462.86
578.19	1458.10
578.54	1453.40
578.90	1449.10
579.25	1445.10
579.60	1441.40
579.95	1436.60
580.30	1432.79
580.66	1428.43
581.01	1425.40
581.36	1420.52
581.71	1416.43
582.06	1413.33
582.42	1409.14
582.77	1404.05
583.12	1399.64
583.47	1394.86
583.82	1390.74
584.17	1386.95
584.53	1382.83
584.88	1378.43
585.23	1374.17
585.58	1368.88
585.93	1363.02
586.28	1358.38
586.63	1353.83
586.98	1349.05
587.34	1345.64
587.69	1340.26
588.04	1334.50
588.39	1328.60
588.74	1323.33
589.09	1318.67
589.44	1312.62
589.79	1307.64
590.14	1303.40
590.49	1298.07
590.84	1292.95
591.19	1288.05
591.54	1282.29
591.89	1276.17
592.25	1272.83
592.60	1267.36
592.95	1263.71
593.30	1259.60
593.65	1253.76
594.00	1247.55
594.35	1248.38
594.70	1242.00
595.05	1236.74
595.40	1231.93
595.75	1226.62
596.10	1222.31
596.45	1216.48
596.80	1211.31
597.15	1206.17
597.50	1200.17
597.85	1195.88
598.19	1190.74
598.54	1184.98
598.89	1180.33
599.24	1175.83
599.59	1169.48
599.94	1163.86
600.29	1158.81
600.64	1153.62
600.99	1149.43
601.34	1144.98
601.69	1133.79
602.04	1127.88
602.39	1122.57
602.74	1117.31
603.08	1112.69
603.43	1108.05
603.78	1103.24
604.13	1098.55
604.48	1092.83
604.83	1088.05
605.18	1083.02
605.53	1077.90
605.87	1072.90
606.22	1067.57
606.57	1062.67
606.92	1056.98
607.27	1052.93
607.62	1046.83
607.96	1041.45
608.31	1036.33
608.66	1031.62
609.01	1026.05
609.36	1021.64
609.70	1017.02
610.05	1011.81
610.40	1006.38
610.75	1000.40
611.10	995.12
611.44	990.12
611.79	985.17
612.14	980.31
612.49	973.93
612.83	968.90
613.18	962.95
613.53	957.33
613.88	951.50
614.22	946.45
614.57	939.95
614.92	934.05
615.27	928.74
615.61	922.81
615.96	916.57
616.31	911.88
616.65	907.64
617.00	902.17
617.35	897.14
617.70	892.05
618.04	886.45
618.39	881.64
618.74	876.40
619.08	871.26
619.43	866.19
619.78	861.95
620.12	857.24
620.47	853.02
620.82	848.26
621.16	843.48
621.51	839.62
621.85	834.76
622.20	831.21
622.55	826.55
622.89	821.79
623.24	818.29
623.59	813.71
623.93	808.81
624.28	805.05
624.62	802.95
624.97	800.29
625.32	796.64
625.66	792.24
626.01	787.64
626.35	783.60
626.70	779.93
627.04	775.36
627.39	770.43
627.73	767.38
628.08	763.52
628.43	759.40
628.77	754.17
629.12	750.64
629.46	746.17
629.81	741.98
630.15	737.81
630.50	733.48
630.84	729.02
631.19	725.02
631.53	720.74
631.88	714.21
632.22	708.36
632.57	704.86
632.91	700.98
633.26	697.31
633.60	693.21
633.95	688.86
634.29	684.90
634.64	681.62
634.98	677.14
635.32	673.81
635.67	670.95
636.01	668.02
636.36	664.26
636.70	661.36
637.05	657.88
637.39	654.57
637.73	651.10
638.08	648.57
638.42	644.14
638.77	640.74
639.11	637.21
639.45	633.52
639.80	629.60
640.14	625.76
640.49	621.55
640.83	617.90
641.17	614.88
641.52	611.31
641.86	607.93
642.20	604.88
642.55	601.00
642.89	597.12
643.23	593.45
643.58	590.50
643.92	585.98
644.26	582.55
644.61	579.38
644.95	575.81
645.29	571.67
645.64	569.14
645.98	565.17
646.32	562.60
646.66	559.55
647.01	556.00
647.35	552.93
647.69	550.50
648.04	547.62
648.38	544.10
648.72	541.24
649.06	537.90
649.41	534.33
649.75	531.12
650.09	528.07
650.43	524.90
650.78	521.10
651.12	518.26
651.46	514.83
651.80	511.55
652.14	508.71
652.49	506.05
652.83	502.95
653.17	500.10
653.51	496.79
653.85	494.07
654.20	491.26
654.54	488.24
654.88	485.05
655.22	483.33
655.56	480.50
655.90	478.24
656.25	475.71
656.59	473.05
656.93	470.60
657.27	468.38
657.61	465.69
657.95	463.69
658.29	461.10
658.64	459.38
658.98	457.02
659.32	454.62
659.66	451.95
660.00	449.83
660.34	447.60
660.68	445.12
661.02	443.02
661.36	440.64
661.70	438.57
662.05	436.76
662.39	434.10
662.73	432.71
663.07	431.14
663.41	429.38
663.75	426.88
664.09	425.10
664.43	422.48
664.77	420.31
665.11	417.83
665.45	416.38
665.79	414.95
666.13	412.98
666.47	411.24
666.81	409.81
667.15	407.29
667.49	406.07
667.83	405.14
668.17	402.90
668.51	401.17
668.85	399.76
669.19	398.81
669.53	396.31
669.87	393.79
670.21	391.38
670.55	389.60
670.89	389.02
671.23	387.17
671.57	385.76
671.91	384.38
672.25	383.21
672.58	381.88
672.92	379.40
673.26	377.79
673.60	375.86
673.94	374.31
674.28	373.21
674.62	372.05
674.96	369.79
675.30	368.74
675.64	367.69
675.97	366.12
676.31	364.02
676.65	362.62
676.99	362.14
677.33	360.31
677.67	358.55
678.01	356.43
678.34	354.98
678.68	353.79
679.02	352.26
679.36	350.48
679.70	348.74
680.04	347.69
680.37	346.52
680.71	345.07
681.05	343.83
681.39	342.90
681.73	341.02
682.06	340.05
682.40	338.60
682.74	337.36
683.08	336.81
683.42	335.02
683.75	334.19
684.09	331.98
684.43	331.14
684.77	330.24
685.10	329.02
685.44	328.29
685.78	327.19
686.12	325.90
686.45	324.79
686.79	323.45
687.13	322.67
687.46	321.69
687.80	321.00
688.14	319.67
688.48	318.62
688.81	317.76
689.15	317.00
689.49	316.00
689.82	314.57
690.16	312.48
690.50	311.88
690.83	310.71
691.17	309.86
691.51	308.71
691.84	307.76
692.18	306.71
692.52	305.52
692.85	304.64
693.19	304.69
693.52	303.90
693.86	302.79
694.20	301.86
694.53	300.69
694.87	299.67
695.21	298.71
695.54	297.79
695.88	296.21
696.21	294.71
696.55	293.74
696.88	293.19
697.22	292.36
697.56	292.02
697.89	291.07
698.23	290.81
698.56	289.93
698.90	289.14
699.23	288.26
699.57	287.60
699.90	286.74
700.24	285.24
700.58	284.64
700.91	284.33
701.25	284.67
701.58	284.74
701.92	284.60
702.25	283.93
702.59	282.57
702.92	281.95
703.26	281.71
703.59	281.00
703.93	281.79
704.26	281.40
704.60	280.48
704.93	279.81
705.26	278.69
705.60	278.43
705.93	277.48
706.27	277.48
706.60	277.12
706.94	277.36
707.27	276.57
707.61	276.05
707.94	275.45
708.27	273.31
708.61	271.52
708.94	270.62
709.28	269.98
709.61	269.48
709.94	269.29
710.28	268.48
710.61	268.19
710.95	266.14
711.28	267.10
711.61	266.36
711.95	266.17
712.28	265.48
712.61	264.67
712.95	265.24
713.28	265.71
713.61	264.52
713.95	262.95
714.28	262.81
714.61	262.19
714.95	261.45
715.28	260.71
715.61	260.52
715.95	260.10
716.28	259.45
716.61	259.45
716.95	258.79
717.28	258.10
717.61	257.69
717.94	257.19
718.28	255.19
718.61	254.60
718.94	253.83
719.27	253.62
719.61	253.43
719.94	252.17
720.27	250.24
720.60	249.95
720.94	249.71
721.27	248.98
721.60	248.71
721.93	248.17
722.27	248.62
722.60	248.48
722.93	248.05
723.26	247.76
723.59	246.95
723.93	246.86
724.26	246.86
724.59	246.14
724.92	245.86
725.25	246.17
725.59	245.79
725.92	245.62
726.25	245.10
726.58	244.79
726.91	244.67
727.24	244.88
727.57	244.48
727.91	243.83
728.24	244.02
728.57	243.48
728.90	243.76
729.23	242.95
729.56	243.52
729.89	243.21
730.22	242.86
730.55	242.71
730.89	242.43
731.22	242.02
731.55	241.62
731.88	241.50
732.21	240.88
732.54	240.67
732.87	240.50
733.20	240.29
733.53	240.12
733.86	240.10
734.19	239.48
734.52	239.64
734.85	240.93
735.18	240.29
735.51	240.90
735.84	240.74
736.17	241.07
736.50	239.81
736.83	242.14
737.16	242.19
737.49	241.90
737.82	241.62
738.15	241.81
738.48	241.79
738.81	241.29
739.14	240.67
739.47	240.33
739.80	240.19
740.13	240.36
740.46	239.60
740.79	238.79
741.12	238.71
741.45	238.12
741.78	236.81
742.11	237.33
742.44	236.52
742.77	236.50
743.10	235.69
743.43	235.43
743.75	232.83
744.08	235.31
744.41	235.10
744.74	234.71
745.07	233.88
745.40	234.19
745.73	235.00
746.06	234.95
746.39	234.98
746.71	234.52
747.04	234.00
747.37	234.02
747.70	234.36
748.03	234.29
748.36	234.31
748.68	234.12
749.01	233.14
749.34	232.95
749.67	232.69
750.00	232.98
750.33	234.45
750.65	234.52
750.98	231.67
751.31	231.81
751.64	231.71
751.97	232.81
752.29	232.36
752.62	231.31
752.95	231.12
753.28	230.79
753.60	230.67
753.93	230.95
754.26	230.90
754.59	230.24
754.91	229.83
755.24	229.76
755.57	229.45
755.90	229.48
756.22	229.17
756.55	228.64
756.88	228.33
757.20	226.90
757.53	226.00
757.86	225.64
758.19	225.55
758.51	225.52
758.84	224.40
759.17	224.10
759.49	224.07
759.82	224.93
760.15	225.07
760.47	224.95
760.80	224.26
761.13	224.40
761.45	224.29
761.78	224.17
762.11	224.17
762.43	223.98
762.76	223.71
763.08	223.95
763.41	223.86
763.74	223.62
764.06	223.36
764.39	223.36
764.71	223.36
765.04	223.10
765.37	222.76
765.69	222.60
766.02	222.67
766.34	222.24
766.67	221.48
767.00	222.05
767.32	222.88
767.65	224.36
767.97	224.19
768.30	224.00
768.62	224.07
768.95	223.69
769.27	223.31
769.60	223.55
769.92	223.17
770.25	223.02
770.57	222.76
770.90	222.76
771.22	222.71
771.55	222.95
771.87	222.98
772.20	223.02
772.52	224.71
772.85	226.95
773.17	227.24
773.50	227.10
773.82	226.33
774.15	225.38
774.47	223.83
774.80	223.50
775.12	223.57
775.45	223.52
775.77	223.43
776.09	223.90
776.42	223.88
776.74	224.33
777.07	223.90
777.39	223.90
777.72	223.71
778.04	223.86
778.36	223.36
778.69	223.38
779.01	223.43
779.33	221.62
779.66	219.43
779.98	219.19
780.31	219.21
780.63	219.90
780.95	220.45
781.28	220.62
781.60	220.55
781.92	220.38
782.25	220.12
782.57	220.19
782.89	219.86
783.22	219.60
783.54	218.98
783.86	219.21
784.19	218.88
784.51	219.43
784.83	218.93
785.16	218.86
785.48	218.74
785.80	218.81
786.12	218.86
786.45	218.38
786.77	218.31
787.09	218.10
787.42	217.43
787.74	217.02
788.06	216.90
788.38	216.83
788.71	216.79
789.03	216.67
789.35	216.90
789.67	216.67
789.99	216.67
790.32	216.60
790.64	216.90
790.96	218.48
791.28	217.55
791.61	217.55
791.93	217.93
792.25	217.81
792.57	218.93
792.89	218.60
793.21	218.93
793.54	218.81
793.86	218.40
794.18	218.36
794.50	217.95
794.82	218.17
795.14	218.26
795.47	218.71
795.79	218.90
796.11	218.26
796.43	218.24
796.75	218.10
797.07	218.00
797.39	217.95
797.71	216.74
798.04	216.88
798.36	217.07
798.68	216.74
799.00	216.76
799.32	215.86
799.64	216.31
799.96	216.17
800.28	216.64
800.60	216.74
800.92	216.93
801.24	216.95
801.56	216.81
801.89	216.64
802.21	216.83
802.53	216.38
802.85	217.05
803.17	218.00
803.49	217.88
803.81	217.98
804.13	217.74
804.45	217.52
804.77	217.95
805.09	218.07
805.41	217.90
805.73	217.69
806.05	217.26
806.37	217.14
806.69	217.07
807.01	216.86
807.33	216.76
807.65	216.14
807.97	217.05
808.28	216.86
808.60	216.88
808.92	216.36
809.24	217.81
809.56	217.31
809.88	216.81
810.20	216.98
810.52	217.31
810.84	217.07
811.16	216.90
811.48	216.55
811.80	217.14
812.12	217.24
812.43	217.19
812.75	217.33
813.07	216.93
813.39	216.98
813.71	216.64
814.03	216.74
814.35	216.74
814.67	215.90
814.98	215.67
815.30	215.67
815.62	215.38
815.94	213.86
816.26	213.90
816.58	213.31
816.89	213.14
817.21	212.62
817.53	212.69
817.85	212.64
818.17	212.55
818.48	211.60
818.80	212.07
819.12	211.98
819.44	211.31
819.76	211.07
820.07	211.19
820.39	211.19
820.71	211.29
821.03	211.52
821.34	211.43
821.66	211.95
821.98	212.00
822.30	212.14
822.61	213.48
822.93	213.36
823.25	213.40
823.57	213.38
823.88	213.79
824.20	213.93
824.52	214.38
824.83	214.38
825.15	214.43
825.47	214.24
825.79	214.21
826.10	214.40
826.42	214.52
826.74	214.55
827.05	214.45
827.37	214.36
827.69	213.93
828.00	214.05
828.32	213.83
828.64	213.90
828.95	214.98
829.27	214.52
829.58	214.55
829.90	214.90
830.22	215.00
830.53	214.60
830.85	214.24
831.17	213.52
831.48	213.64
831.80	213.90
832.11	213.64
832.43	213.67
832.75	213.69
833.06	215.12
833.38	214.55
833.69	214.38
834.01	214.55
834.32	214.71
834.64	214.50
834.96	214.69
835.27	214.40
835.59	213.55
835.90	212.88
836.22	213.05
836.53	212.86
836.85	212.67
837.16	214.74
837.48	214.76
837.79	215.81
838.11	215.83
838.42	215.64
838.74	215.93
839.05	215.74
839.37	215.60
839.68	214.02
840.00	214.07
840.31	214.60
840.63	214.40
840.94	214.17
841.26	214.07
841.57	213.81
841.88	214.07
842.20	213.81
842.51	213.64
842.83	213.55
843.14	215.07
843.46	215.36
843.77	214.07
844.08	213.90
844.40	213.17
844.71	212.93
845.03	212.79
845.34	212.64
845.65	212.60
845.97	212.60
846.28	212.79
846.60	213.05
846.91	212.76
847.22	212.64
847.54	213.12
847.85	213.05
848.16	212.76
848.48	212.36
848.79	213.31
849.10	213.71
849.42	213.64
849.73	211.83
850.04	211.36
850.36	211.00
850.67	211.50
850.98	211.76
851.30	212.07
851.61	212.10
851.92	212.14
852.23	213.02
852.55	212.95
852.86	213.17
853.17	213.26
853.49	213.93
853.80	214.62
854.11	214.88
854.42	215.45
854.74	215.29
855.05	215.43
855.36	214.21
855.67	214.26
855.99	214.40
856.30	216.79
856.61	216.93
856.92	216.67
857.23	216.57
857.55	216.12
857.86	216.00
858.17	216.14
858.48	215.88
858.79	215.19
859.11	215.76
859.42	215.52
859.73	215.24
860.04	214.93
860.35	214.17
860.66	213.31
860.98	213.12
861.29	213.55
861.60	213.24
861.91	213.86
862.22	213.45
862.53	213.14
862.84	210.62
863.16	211.29
863.47	211.02
863.78	211.12
864.09	211.38
864.40	211.31
864.71	211.33
865.02	211.60
865.33	211.40
865.64	210.86
865.95	210.90
866.27	212.33
866.58	211.90
866.89	212.24
867.20	212.07
867.51	211.79
867.82	211.55
868.13	212.31
868.44	211.90
868.75	212.33
869.06	212.45
869.37	212.76
869.68	211.88
869.99	212.38
870.30	212.17
870.61	212.43
870.92	212.26
871.23	212.10
871.54	212.29
871.85	212.98
872.16	213.29
872.47	213.19
872.78	212.00
873.09	212.50
873.40	212.29
873.71	213.02
874.02	213.14
874.33	212.90
874.64	212.45
874.95	212.86
875.26	212.62
875.56	212.52
875.87	212.55
876.18	212.86
876.49	214.86
876.80	214.93
877.11	214.64
877.42	214.83
877.73	214.88
878.04	214.50
878.35	214.36
878.66	214.14
878.96	214.26
879.27	214.14
879.58	214.02
879.89	213.76
880.20	213.88
880.51	214.05
880.82	214.29
881.12	214.40
881.43	213.74
881.74	213.50
882.05	213.45
882.36	213.76
882.67	213.74
882.97	211.36
883.28	211.10
883.59	210.83
883.90	211.00
884.21	211.21
884.51	211.07
884.82	210.60
885.13	210.86
885.44	210.86
885.74	210.88
886.05	210.60
886.36	210.93
886.67	210.48
886.98	211.33
887.28	211.45
887.59	211.48
887.90	211.74
888.20	211.60
888.51	211.98
888.82	211.43
889.13	211.64
889.43	213.55
889.74	213.62
890.05	213.64
890.35	213.50
890.66	213.26
890.97	213.26
891.28	213.40
891.58	213.48
891.89	213.43
892.20	213.33
892.50	213.21
892.81	212.76
893.12	212.69
893.42	211.69
893.73	211.93
894.04	211.74
894.34	211.90
894.65	211.98
894.95	211.74
895.26	212.12
895.57	213.05
895.87	211.07
896.18	211.45
896.48	211.52
896.79	211.52
897.10	211.83
897.40	211.88
897.71	211.93
898.01	211.57
898.32	211.76
898.63	211.50
898.93	211.57
899.24	211.95
899.54	211.88
899.85	211.76
900.15	211.71
900.46	211.76
900.76	211.86
901.07	211.83
901.38	211.64
901.68	211.48
901.99	210.40
902.29	210.67
902.60	210.45
902.90	210.50
903.21	210.31
903.51	209.90
903.82	210.40
904.12	210.38
904.43	210.48
904.73	210.38
905.03	210.83
905.34	212.88
905.64	212.60
905.95	212.67
906.25	212.83
906.56	212.48
906.86	212.71
907.17	212.45
907.47	212.98
907.77	213.02
908.08	212.81
908.38	212.93
908.69	213.02
908.99	213.24
909.30	213.24
909.60	213.50
909.90	213.71
910.21	213.10
910.51	212.98
910.81	213.31
911.12	213.50
911.42	213.40
911.73	211.02
912.03	211.26
912.33	211.62
912.64	211.50
912.94	211.57
913.24	211.43
913.55	211.31
913.85	210.50
914.15	210.90
914.46	211.14
914.76	211.05
915.06	210.86
915.37	210.69
915.67	210.45
915.97	210.31
916.27	210.07
916.58	210.24
916.88	210.21
917.18	209.74
917.49	211.12
917.79	210.95
918.09	211.57
918.39	212.21
918.70	212.10
919.00	212.02
919.30	213.02
919.60	212.79
919.91	212.71
920.21	213.07
920.51	212.60
920.81	212.45
921.12	212.71
921.42	212.69
921.72	212.86
922.02	213.17
922.32	213.33
922.63	213.36
922.93	214.45
923.23	214.60
923.53	214.67
923.83	213.33
924.13	213.62
924.44	213.71
924.74	213.98
925.04	214.60
925.34	214.62
925.64	213.60
925.94	213.52
926.24	214.64
926.55	214.57
926.85	214.86
927.15	214.81
927.45	214.76
927.75	214.81
928.05	214.71
928.35	214.57
928.65	214.93
928.95	215.17
929.26	214.29
929.56	214.74
929.86	214.93
930.16	214.64
930.46	214.62
930.76	214.50
931.06	213.43
931.36	212.83
931.66	213.24
931.96	213.60
932.26	213.98
932.56	213.17
932.86	213.33
933.16	213.36
933.46	213.36
933.76	213.10
934.06	213.64
934.36	214.29
934.66	214.29
934.96	214.10
935.26	214.05
935.56	214.26
935.86	213.64
936.16	213.38
936.46	213.26
936.76	212.76
937.06	212.52
937.36	212.71
937.66	212.76
937.96	212.43
938.26	212.02
938.56	211.67
938.86	211.93
939.16	212.33
939.46	212.55
939.76	212.67
940.06	212.67
940.35	212.07
940.65	211.24
940.95	211.33
941.25	210.74
941.55	210.57
941.85	210.55
942.15	211.10
942.45	211.60
942.75	211.60
943.04	212.07
943.34	212.45
943.64	212.14
943.94	211.90
944.24	212.19
944.54	212.38
944.84	212.38
945.13	211.93
945.43	211.74
945.73	211.64
946.03	211.40
946.33	211.17
946.62	211.17
946.92	210.98
947.22	211.17
947.52	211.38
947.82	211.88
948.11	211.50
948.41	211.14
948.71	210.76
949.01	210.71
949.31	210.40
949.60	210.21
949.90	210.76
950.20	210.62
950.50	210.40
950.79	210.12
951.09	210.38
951.39	210.52
951.69	210.14
951.98	210.55
952.28	210.81
952.58	210.90
952.87	210.76
953.17	211.14
953.47	210.95
953.76	211.26
954.06	210.74
954.36	210.36
954.66	210.10
954.95	210.86
955.25	211.17
955.55	211.33
955.84	210.86
956.14	211.02
956.44	211.12
956.73	210.83
957.03	210.95
957.32	210.90
957.62	210.69
957.92	211.07
958.21	210.67
958.51	212.71
958.81	212.93
959.10	212.98
959.40	213.17
959.69	213.26
959.99	213.43
960.29	213.45
960.58	213.71
960.88	214.60
961.17	214.12
961.47	214.26
961.76	214.12
962.06	214.55
962.36	214.29
962.65	214.43
962.95	214.60
963.24	214.48
963.54	214.57
963.83	214.93
964.13	214.74
964.42	214.36
964.72	213.00
965.01	212.95
965.31	212.90
965.60	212.50
965.90	213.60
966.19	212.95
966.49	213.31
966.78	213.10
967.08	212.86
967.37	212.74
967.67	212.26
967.96	212.67
968.26	212.69
968.55	212.74
968.85	212.60
969.14	212.69
969.43	212.67
969.73	212.50
970.02	212.31
970.32	212.24
970.61	212.24
970.91	211.55
971.20	211.10
971.49	211.10
971.79	211.40
972.08	210.07
972.38	210.17
972.67	209.83
972.96	210.36
973.26	209.93
973.55	210.60
973.85	210.62
974.14	210.21
974.43	210.40
974.73	210.12
975.02	210.02
975.31	209.86
975.61	209.83
975.90	209.43
976.19	209.40
976.49	209.52
976.78	209.60
977.07	209.50
977.37	209.69
977.66	209.83
977.95	209.55
978.24	209.83
978.54	210.24
978.83	210.10
979.12	209.69
979.42	209.67
979.71	209.19
980.00	209.05
980.29	209.21
980.59	208.71
980.88	209.31
981.17	209.48
981.46	209.57
981.76	209.64
982.05	210.48
982.34	210.24
982.63	210.29
982.93	210.29
983.22	210.95
983.51	211.21
983.80	211.38
984.09	211.74
984.39	211.38
984.68	211.21
984.97	211.48
985.26	211.57
985.55	211.86
985.85	211.67
986.14	212.12
986.43	212.50
986.72	212.38
987.01	211.69
987.30	211.60
987.59	211.45
987.89	211.62
988.18	210.98
988.47	210.98
988.76	210.90
989.05	210.95
989.34	210.38
989.63	210.93
989.92	210.76
990.22	210.40
990.51	210.45
990.80	210.31
991.09	210.48
991.38	210.40
991.67	210.12
991.96	209.74
992.25	209.86
992.54	209.36
992.83	209.62
993.12	209.69
993.41	210.17
993.70	210.98
993.99	211.29
994.28	211.43
994.58	211.95
994.87	211.74
995.16	211.50
995.45	211.55
995.74	210.90
996.03	211.21
996.32	211.55
996.61	212.14
996.90	212.19
997.19	211.93
997.48	212.19
997.77	212.05
998.06	212.50
998.34	212.29
998.63	212.36
998.92	212.40
999.21	212.55
999.50	212.50
999.79	211.76
1000.08	211.83
1000.37	212.05
1000.66	211.55
1000.95	212.07
1001.24	212.38
1001.53	212.48
1001.82	212.29
1002.11	211.67
1002.40	211.95
1002.68	212.55
1002.97	214.00
1003.26	213.98
1003.55	213.71
1003.84	213.79
1004.13	214.26
1004.42	214.02
1004.71	214.05
1004.99	213.86
1005.28	214.50
1005.57	214.19
1005.86	214.21
1006.15	213.93
1006.44	213.62
1006.72	213.86
1007.01	213.43
1007.30	213.36
1007.59	213.33
1007.88	213.52
1008.17	213.86
1008.45	213.38
1008.74	212.05
1009.03	211.05
1009.32	211.00
1009.60	210.93
1009.89	210.93
1010.18	210.24
1010.47	210.33
1010.76	210.29
1011.04	210.33
1011.33	210.26
1011.62	210.29
1011.91	210.36
1012.19	210.12
1012.48	210.26
1012.77	210.31
1013.05	211.29
1013.34	211.38
1013.63	211.24
1013.92	211.21
1014.20	211.12
1014.49	211.17
1014.78	211.74
1015.06	210.95
1015.35	210.83
1015.64	211.12
1015.92	211.40
1016.21	211.43
1016.50	211.55
1016.78	211.67
1017.07	211.62
1017.36	211.21
1017.64	211.00
1017.93	211.19
1018.22	211.26
1018.50	211.33
1018.79	211.48
1019.08	210.88
1019.36	210.88
1019.65	210.88
1019.93	211.29
1020.22	211.52
1020.51	212.52
1020.79	212.07
1021.08	208.00
1021.36	210.50
1021.65	215.00
1021.94	217.00
1022.22	211.50
1022.51	210.00
1022.79	217.50
1023.08	214.50
1023.36	235.00
1023.65	205.00
>>>>>End Processed Spectral Data<<<<<
