SpectraSuite Data File
++++++++++++++++++++++++++++++++++++
Date: Tue Apr 02 18:51:11 EDT 2013
User: group
Dark Spectrum Present: No
Reference Spectrum Present: No
Number of Sampled Component Spectra: 1
Spectrometers: USB2E7196
Integration Time (usec): 580000 (USB2E7196)
Spectra Averaged: 2 (USB2E7196)
Boxcar Smoothing: 10 (USB2E7196)
Correct for Electrical Dark: No (USB2E7196)
Strobe/Lamp Enabled: No (USB2E7196)
Correct for Detector Non-linearity: No (USB2E7196)
Correct for Stray Light: No (USB2E7196)
Number of Pixels in Processed Spectrum: 2048
>>>>>Begin Processed Spectral Data<<<<<
339.09	0.00
339.48	194.50
339.86	195.00
340.24	202.50
340.63	200.50
341.01	232.00
341.39	202.50
341.78	209.00
342.16	212.50
342.54	201.50
342.93	199.81
343.31	209.74
343.69	210.14
344.07	210.95
344.46	211.48
344.84	212.10
345.22	210.98
345.60	211.45
345.99	211.74
346.37	211.71
346.75	212.07
347.13	212.12
347.52	212.14
347.90	212.81
348.28	212.79
348.66	213.12
349.05	212.55
349.43	212.57
349.81	212.88
350.19	212.83
350.57	212.93
350.96	212.95
351.34	213.17
351.72	213.40
352.10	213.43
352.48	213.21
352.87	212.88
353.25	213.02
353.63	212.90
354.01	212.67
354.39	212.74
354.77	212.93
355.15	213.43
355.54	213.45
355.92	212.69
356.30	212.50
356.68	213.60
357.06	213.64
357.44	213.19
357.82	212.88
358.20	213.79
358.58	213.76
358.97	213.57
359.35	213.81
359.73	214.10
360.11	213.64
360.49	213.76
360.87	213.93
361.25	214.07
361.63	214.76
362.01	214.69
362.39	214.29
362.77	214.26
363.15	213.93
363.53	213.62
363.91	213.81
364.29	213.83
364.67	212.05
365.05	212.02
365.43	212.31
365.81	212.26
366.19	212.19
366.57	212.88
366.95	212.86
367.33	212.57
367.71	212.43
368.09	213.17
368.47	213.07
368.85	212.83
369.23	213.07
369.61	212.24
369.99	212.90
370.37	213.26
370.75	214.40
371.13	213.83
371.51	213.88
371.89	213.88
372.27	214.00
372.65	214.26
373.03	214.40
373.41	214.29
373.78	214.38
374.16	213.45
374.54	212.98
374.92	212.98
375.30	212.93
375.68	212.69
376.06	212.69
376.44	212.71
376.82	212.88
377.19	212.86
377.57	212.90
377.95	212.26
378.33	212.19
378.71	210.83
379.09	211.31
379.47	211.38
379.84	211.36
380.22	211.07
380.60	210.69
380.98	210.52
381.36	210.62
381.73	210.40
382.11	210.98
382.49	210.88
382.87	210.67
383.25	210.83
383.62	213.33
384.00	212.88
384.38	213.00
384.76	213.60
385.13	214.43
385.51	214.40
385.89	214.17
386.27	214.38
386.64	214.81
387.02	214.52
387.40	214.36
387.78	214.26
388.15	214.55
388.53	214.50
388.91	214.67
389.29	214.45
389.66	214.88
390.04	214.43
390.42	214.74
390.79	214.93
391.17	214.76
391.55	212.50
391.92	212.45
392.30	212.45
392.68	212.10
393.05	211.93
393.43	212.00
393.81	212.33
394.18	212.00
394.56	212.10
394.94	212.57
395.31	212.71
395.69	213.55
396.06	213.79
396.44	214.24
396.82	214.05
397.19	215.12
397.57	214.88
397.95	215.24
398.32	214.86
398.70	215.14
399.07	215.62
399.45	215.43
399.82	215.74
400.20	215.55
400.58	215.36
400.95	214.21
401.33	214.71
401.70	216.40
402.08	216.60
402.45	216.38
402.83	217.00
403.20	217.19
403.58	216.93
403.95	217.45
404.33	217.79
404.71	218.19
405.08	219.38
405.46	219.79
405.83	220.24
406.21	220.57
406.58	220.81
406.96	221.05
407.33	222.00
407.70	222.57
408.08	224.62
408.45	225.48
408.83	226.79
409.20	227.21
409.58	226.52
409.95	227.45
410.33	228.55
410.70	228.76
411.08	230.00
411.45	231.07
411.82	231.93
412.20	233.48
412.57	235.95
412.95	235.40
413.32	237.07
413.69	238.55
414.07	240.43
414.44	242.36
414.82	244.31
415.19	246.50
415.56	248.62
415.94	250.12
416.31	253.26
416.68	255.81
417.06	259.14
417.43	262.48
417.81	266.12
418.18	269.62
418.55	273.38
418.93	277.17
419.30	281.24
419.67	285.62
420.04	289.98
420.42	293.83
420.79	300.93
421.16	306.50
421.54	313.36
421.91	319.40
422.28	325.38
422.66	332.05
423.03	339.69
423.40	346.62
423.77	353.67
424.15	360.43
424.52	368.55
424.89	376.76
425.26	384.60
425.64	391.86
426.01	400.24
426.38	408.83
426.75	418.26
427.13	427.43
427.50	436.81
427.87	446.29
428.24	456.26
428.61	464.62
428.99	475.74
429.36	486.14
429.73	497.45
430.10	508.62
430.47	520.17
430.85	530.71
431.22	543.71
431.59	558.95
431.96	572.43
432.33	585.86
432.70	599.62
433.08	615.48
433.45	630.98
433.82	646.00
434.19	662.83
434.56	679.62
434.93	696.00
435.30	711.71
435.68	729.45
436.05	746.43
436.42	763.17
436.79	779.17
437.16	796.71
437.53	814.40
437.90	832.07
438.27	850.21
438.64	867.81
439.01	884.38
439.38	897.33
439.75	911.55
440.13	928.74
440.50	943.69
440.87	956.81
441.24	970.12
441.61	984.52
441.98	995.38
442.35	1006.62
442.72	1018.71
443.09	1031.64
443.46	1039.79
443.83	1044.95
444.20	1050.36
444.57	1055.69
444.94	1058.19
445.31	1061.74
445.68	1067.57
446.05	1068.31
446.42	1067.69
446.79	1066.36
447.16	1065.17
447.53	1063.52
447.90	1056.67
448.27	1050.88
448.64	1041.67
449.01	1035.36
449.37	1025.14
449.74	1014.31
450.11	1003.69
450.48	988.93
450.85	973.98
451.22	960.83
451.59	949.50
451.96	937.45
452.33	922.57
452.70	908.83
453.07	891.88
453.43	872.98
453.80	856.79
454.17	841.43
454.54	826.02
454.91	809.76
455.28	794.38
455.65	779.74
456.02	768.52
456.38	756.40
456.75	741.00
457.12	726.86
457.49	714.14
457.86	700.19
458.23	690.83
458.59	678.69
458.96	666.79
459.33	655.74
459.70	645.45
460.07	637.14
460.43	627.45
460.80	618.88
461.17	611.50
461.54	603.50
461.91	595.10
462.27	587.12
462.64	579.79
463.01	572.26
463.38	566.29
463.74	555.29
464.11	548.48
464.48	542.88
464.85	537.31
465.21	533.12
465.58	528.24
465.95	521.00
466.32	516.52
466.68	511.52
467.05	507.17
467.42	502.26
467.78	496.90
468.15	492.02
468.52	488.45
468.88	482.79
469.25	477.64
469.62	474.38
469.98	470.45
470.35	466.95
470.72	463.33
471.08	458.50
471.45	455.93
471.82	453.24
472.18	449.69
472.55	446.76
472.92	442.95
473.28	439.57
473.65	437.38
474.02	434.55
474.38	432.71
474.75	430.57
475.11	428.00
475.48	426.43
475.85	424.60
476.21	422.90
476.58	421.48
476.94	420.90
477.31	419.50
477.67	418.55
478.04	417.64
478.41	417.12
478.77	418.71
479.14	417.21
479.50	416.81
479.87	416.76
480.23	416.57
480.60	416.38
480.96	416.83
481.33	417.40
481.69	417.55
482.06	417.38
482.42	417.81
482.79	418.76
483.15	418.98
483.52	420.07
483.88	419.88
484.25	420.48
484.61	420.90
484.98	421.45
485.34	422.95
485.71	424.48
486.07	425.43
486.44	424.83
486.80	426.81
487.17	428.38
487.53	430.57
487.90	432.48
488.26	435.81
488.62	438.21
488.99	440.10
489.35	442.93
489.72	445.50
490.08	448.07
490.44	451.00
490.81	454.43
491.17	457.60
491.54	461.45
491.90	465.52
492.26	469.24
492.63	473.36
492.99	476.55
493.36	480.64
493.72	485.52
494.08	489.93
494.45	494.88
494.81	499.88
495.17	504.48
495.54	510.02
495.90	513.86
496.26	518.67
496.63	524.43
496.99	529.76
497.35	535.57
497.72	541.55
498.08	547.17
498.44	552.69
498.80	558.83
499.17	565.05
499.53	570.98
499.89	578.33
500.26	584.69
500.62	591.69
500.98	598.69
501.34	605.33
501.71	612.79
502.07	619.93
502.43	626.74
502.79	633.31
503.16	639.98
503.52	647.31
503.88	654.57
504.24	661.48
504.60	669.33
504.97	677.48
505.33	684.95
505.69	693.79
506.05	701.71
506.41	709.36
506.78	716.88
507.14	724.40
507.50	732.19
507.86	741.02
508.22	748.90
508.59	755.83
508.95	764.45
509.31	773.10
509.67	781.29
510.03	789.26
510.39	797.90
510.75	806.36
511.12	814.05
511.48	821.69
511.84	829.86
512.20	836.98
512.56	844.45
512.92	851.86
513.28	858.93
513.64	866.26
514.00	873.71
514.37	881.48
514.73	888.88
515.09	895.79
515.45	902.60
515.81	909.64
516.17	916.90
516.53	922.19
516.89	927.50
517.25	933.81
517.61	940.57
517.97	946.69
518.33	952.79
518.69	959.90
519.05	966.76
519.41	973.10
519.77	980.14
520.13	986.02
520.49	992.10
520.85	997.29
521.21	1004.02
521.57	1009.83
521.93	1015.14
522.29	1021.21
522.65	1025.98
523.01	1031.50
523.37	1036.31
523.73	1041.88
524.09	1047.74
524.45	1053.14
524.81	1057.86
525.17	1062.02
525.53	1066.74
525.89	1071.55
526.25	1076.52
526.61	1080.05
526.97	1083.86
527.33	1087.90
527.68	1093.90
528.04	1097.60
528.40	1101.90
528.76	1105.67
529.12	1110.17
529.48	1115.14
529.84	1118.88
530.20	1124.21
530.56	1127.60
530.91	1132.19
531.27	1136.55
531.63	1141.50
531.99	1145.29
532.35	1148.98
532.71	1153.67
533.07	1158.43
533.42	1165.50
533.78	1169.07
534.14	1173.74
534.50	1178.05
534.86	1182.36
535.21	1184.31
535.57	1189.29
535.93	1193.10
536.29	1198.29
536.65	1202.38
537.00	1205.29
537.36	1208.79
537.72	1211.14
538.08	1215.40
538.44	1218.50
538.79	1222.02
539.15	1224.36
539.51	1227.52
539.87	1231.12
540.22	1234.24
540.58	1236.95
540.94	1237.12
541.29	1240.19
541.65	1241.83
542.01	1244.88
542.37	1246.93
542.72	1249.55
543.08	1251.05
543.44	1254.26
543.79	1254.40
544.15	1256.74
544.51	1259.48
544.87	1262.50
545.22	1265.69
545.58	1267.76
545.94	1270.24
546.29	1272.62
546.65	1274.79
547.01	1277.10
547.36	1279.57
547.72	1281.74
548.07	1285.19
548.43	1286.57
548.79	1288.62
549.14	1291.31
549.50	1293.52
549.86	1295.48
550.21	1298.12
550.57	1301.64
550.92	1303.05
551.28	1306.17
551.64	1308.19
551.99	1310.67
552.35	1312.36
552.70	1315.10
553.06	1318.40
553.41	1321.60
553.77	1325.74
554.13	1329.83
554.48	1333.74
554.84	1338.38
555.19	1342.12
555.55	1346.14
555.90	1350.48
556.26	1354.10
556.61	1358.24
556.97	1361.60
557.32	1366.74
557.68	1370.50
558.03	1374.40
558.39	1378.79
558.74	1383.26
559.10	1386.62
559.45	1390.86
559.81	1396.02
560.16	1399.48
560.52	1403.81
560.87	1408.69
561.23	1412.05
561.58	1417.17
561.94	1420.93
562.29	1423.69
562.64	1427.71
563.00	1430.52
563.35	1435.62
563.71	1439.93
564.06	1445.45
564.42	1450.98
564.77	1456.12
565.12	1462.17
565.48	1469.00
565.83	1475.02
566.19	1480.71
566.54	1486.93
566.89	1492.67
567.25	1499.02
567.60	1507.12
567.96	1514.76
568.31	1521.19
568.66	1527.83
569.02	1532.21
569.37	1537.76
569.72	1544.19
570.08	1550.45
570.43	1556.29
570.78	1562.02
571.14	1568.76
571.49	1574.05
571.84	1579.83
572.20	1584.00
572.55	1588.95
572.90	1591.95
573.26	1596.67
573.61	1600.48
573.96	1606.24
574.31	1610.60
574.67	1614.48
575.02	1617.10
575.37	1618.83
575.72	1621.69
576.08	1624.52
576.43	1628.81
576.78	1633.26
577.13	1636.90
577.49	1640.19
577.84	1644.29
578.19	1647.40
578.54	1651.45
578.90	1656.05
579.25	1659.81
579.60	1663.26
579.95	1666.50
580.30	1671.29
580.66	1674.93
581.01	1679.88
581.36	1682.76
581.71	1686.88
582.06	1691.98
582.42	1695.83
582.77	1700.00
583.12	1703.74
583.47	1708.05
583.82	1712.02
584.17	1715.71
584.53	1719.26
584.88	1723.10
585.23	1726.55
585.58	1729.36
585.93	1731.50
586.28	1734.17
586.63	1736.90
586.98	1741.31
587.34	1745.48
587.69	1747.81
588.04	1751.29
588.39	1753.43
588.74	1754.83
589.09	1757.24
589.44	1757.93
589.79	1760.45
590.14	1762.26
590.49	1764.43
590.84	1766.43
591.19	1768.62
591.54	1770.67
591.89	1772.52
592.25	1776.86
592.60	1778.38
592.95	1781.02
593.30	1783.71
593.65	1785.07
594.00	1785.57
594.35	1791.98
594.70	1792.88
595.05	1794.14
595.40	1794.83
595.75	1796.95
596.10	1799.74
596.45	1801.36
596.80	1803.24
597.15	1804.55
597.50	1806.55
597.85	1808.79
598.19	1809.81
598.54	1810.57
598.89	1811.95
599.24	1814.14
599.59	1812.98
599.94	1813.86
600.29	1815.07
600.64	1815.45
600.99	1816.10
601.34	1817.57
601.69	1812.62
602.04	1812.86
602.39	1812.60
602.74	1813.45
603.08	1812.83
603.43	1813.57
603.78	1813.52
604.13	1812.60
604.48	1812.17
604.83	1812.38
605.18	1812.67
605.53	1812.52
605.87	1812.43
606.22	1811.40
606.57	1809.40
606.92	1807.83
607.27	1807.05
607.62	1806.71
607.96	1806.07
608.31	1806.45
608.66	1805.50
609.01	1804.36
609.36	1803.71
609.70	1802.86
610.05	1801.05
610.40	1800.24
610.75	1797.64
611.10	1796.31
611.44	1794.24
611.79	1792.76
612.14	1789.81
612.49	1786.33
612.83	1783.98
613.18	1781.64
613.53	1780.02
613.88	1777.60
614.22	1775.19
614.57	1772.19
614.92	1767.26
615.27	1764.38
615.61	1759.83
615.96	1757.76
616.31	1755.29
616.65	1752.31
617.00	1749.83
617.35	1746.69
617.70	1743.79
618.04	1740.40
618.39	1736.90
618.74	1734.38
619.08	1730.88
619.43	1727.86
619.78	1723.57
620.12	1720.17
620.47	1716.50
620.82	1711.52
621.16	1707.67
621.51	1705.38
621.85	1701.31
622.20	1698.64
622.55	1693.55
622.89	1690.98
623.24	1687.60
623.59	1683.45
623.93	1679.60
624.28	1675.45
624.62	1673.33
624.97	1670.36
625.32	1666.19
625.66	1662.50
626.01	1658.76
626.35	1655.74
626.70	1651.69
627.04	1649.86
627.39	1645.95
627.73	1642.50
628.08	1639.19
628.43	1635.74
628.77	1632.00
629.12	1628.55
629.46	1625.40
629.81	1622.55
630.15	1617.21
630.50	1611.88
630.84	1606.93
631.19	1602.36
631.53	1598.55
631.88	1591.45
632.22	1584.81
632.57	1581.60
632.91	1575.60
633.26	1570.81
633.60	1564.95
633.95	1559.43
634.29	1552.86
634.64	1548.69
634.98	1543.29
635.32	1540.29
635.67	1536.48
636.01	1531.02
636.36	1526.93
636.70	1522.40
637.05	1517.31
637.39	1513.79
637.73	1509.90
638.08	1506.74
638.42	1501.86
638.77	1497.31
639.11	1493.95
639.45	1489.07
639.80	1483.48
640.14	1479.40
640.49	1474.31
640.83	1469.76
641.17	1465.64
641.52	1462.10
641.86	1456.90
642.20	1452.57
642.55	1445.81
642.89	1440.24
643.23	1435.50
643.58	1430.40
643.92	1424.26
644.26	1419.57
644.61	1414.81
644.95	1409.00
645.29	1402.33
645.64	1397.83
645.98	1392.19
646.32	1386.38
646.66	1381.29
647.01	1375.64
647.35	1370.74
647.69	1364.69
648.04	1359.57
648.38	1353.81
648.72	1347.31
649.06	1340.64
649.41	1334.52
649.75	1329.00
650.09	1323.19
650.43	1316.55
650.78	1310.64
651.12	1304.86
651.46	1298.62
651.80	1291.88
652.14	1285.88
652.49	1280.88
652.83	1273.98
653.17	1267.36
653.51	1261.81
653.85	1256.57
654.20	1251.21
654.54	1244.12
654.88	1238.57
655.22	1232.86
655.56	1226.98
655.90	1221.55
656.25	1215.50
656.59	1208.71
656.93	1202.62
657.27	1197.07
657.61	1190.98
657.95	1184.81
658.29	1178.24
658.64	1172.29
658.98	1165.07
659.32	1158.26
659.66	1151.67
660.00	1145.48
660.34	1139.69
660.68	1133.12
661.02	1125.86
661.36	1120.00
661.70	1114.74
662.05	1109.02
662.39	1102.52
662.73	1097.31
663.07	1091.55
663.41	1086.10
663.75	1080.81
664.09	1075.67
664.43	1069.07
664.77	1063.17
665.11	1056.98
665.45	1051.76
665.79	1046.71
666.13	1042.21
666.47	1037.57
666.81	1031.86
667.15	1026.64
667.49	1021.45
667.83	1016.67
668.17	1012.31
668.51	1006.48
668.85	1001.29
669.19	996.90
669.53	991.12
669.87	985.38
670.21	979.48
670.55	973.29
670.89	968.98
671.23	963.26
671.57	958.21
671.91	953.36
672.25	948.62
672.58	943.95
672.92	937.14
673.26	931.83
673.60	926.38
673.94	921.48
674.28	916.21
674.62	911.93
674.96	906.52
675.30	901.50
675.64	897.00
675.97	891.64
676.31	885.50
676.65	880.60
676.99	876.67
677.33	871.43
677.67	867.38
678.01	861.60
678.34	856.69
678.68	852.55
679.02	847.21
679.36	842.19
679.70	836.86
680.04	832.55
680.37	827.00
680.71	821.81
681.05	817.64
681.39	812.88
681.73	807.24
682.06	802.21
682.40	797.14
682.74	791.83
683.08	787.57
683.42	782.76
683.75	777.81
684.09	771.64
684.43	767.36
684.77	762.26
685.10	757.24
685.44	751.76
685.78	746.10
686.12	740.98
686.45	735.71
686.79	731.00
687.13	726.74
687.46	722.43
687.80	718.86
688.14	713.69
688.48	709.14
688.81	704.52
689.15	700.76
689.49	695.67
689.82	690.69
690.16	685.29
690.50	681.31
690.83	676.71
691.17	671.62
691.51	666.83
691.84	662.62
692.18	658.38
692.52	654.43
692.85	650.43
693.19	646.86
693.52	642.26
693.86	637.45
694.20	633.31
694.53	629.02
694.87	623.74
695.21	618.81
695.54	614.05
695.88	609.14
696.21	603.71
696.55	599.95
696.88	596.36
697.22	592.55
697.56	588.38
697.89	584.40
698.23	580.98
698.56	577.19
698.90	573.45
699.23	569.52
699.57	565.76
699.90	561.79
700.24	557.55
700.58	553.93
700.91	551.19
701.25	549.17
701.58	546.40
701.92	543.93
702.25	541.12
702.59	537.71
702.92	534.81
703.26	532.00
703.59	528.76
703.93	527.07
704.26	524.02
704.60	520.36
704.93	516.90
705.26	513.62
705.60	510.60
705.93	506.74
706.27	503.86
706.60	500.98
706.94	498.64
707.27	496.14
707.61	493.79
707.94	490.10
708.27	485.40
708.61	481.60
708.94	477.95
709.28	475.00
709.61	472.10
709.94	469.24
710.28	466.26
710.61	463.40
710.95	458.52
711.28	457.36
711.61	454.67
711.95	452.81
712.28	450.12
712.61	447.50
712.95	446.31
713.28	444.79
713.61	441.86
713.95	438.57
714.28	435.86
714.61	432.86
714.95	430.69
715.28	427.86
715.61	425.31
715.95	422.55
716.28	419.74
716.61	418.10
716.95	415.36
717.28	413.02
717.61	410.48
717.94	408.50
718.28	404.45
718.61	402.31
718.94	399.83
719.27	397.33
719.61	394.83
719.94	391.98
720.27	388.31
720.60	386.14
720.94	384.00
721.27	381.69
721.60	379.95
721.93	377.81
722.27	376.67
722.60	375.17
722.93	373.10
723.26	371.62
723.59	369.21
723.93	367.88
724.26	366.17
724.59	364.55
724.92	362.90
725.25	361.86
725.59	360.43
725.92	358.55
726.25	356.95
726.58	355.79
726.91	354.14
727.24	352.90
727.57	351.48
727.91	349.48
728.24	348.43
728.57	347.05
728.90	345.76
729.23	343.50
729.56	342.74
729.89	341.52
730.22	339.79
730.55	338.00
730.89	336.52
731.22	334.69
731.55	333.14
731.88	331.98
732.21	330.19
732.54	328.76
732.87	327.71
733.20	326.52
733.53	325.10
733.86	324.05
734.19	322.60
734.52	321.52
734.85	322.10
735.18	320.52
735.51	319.86
735.84	318.67
736.17	318.10
736.50	316.05
736.83	317.07
737.16	316.12
737.49	315.50
737.82	314.02
738.15	313.62
738.48	312.45
738.81	311.24
739.14	309.83
739.47	308.40
739.80	307.07
740.13	306.52
740.46	304.98
740.79	303.40
741.12	302.48
741.45	301.21
741.78	299.00
742.11	298.79
742.44	297.50
742.77	296.57
743.10	295.45
743.43	294.19
743.75	291.00
744.08	292.64
744.41	291.38
744.74	290.60
745.07	289.00
745.40	288.43
745.73	287.93
746.06	287.12
746.39	286.45
746.71	285.50
747.04	284.26
747.37	283.48
747.70	283.00
748.03	282.24
748.36	281.69
748.68	280.81
749.01	279.48
749.34	278.21
749.67	277.67
750.00	277.21
750.33	278.21
750.65	278.00
750.98	274.50
751.31	273.62
751.64	272.74
751.97	273.40
752.29	272.71
752.62	271.36
752.95	270.83
753.28	270.19
753.60	269.36
753.93	269.19
754.26	268.69
754.59	267.52
754.91	266.52
755.24	265.86
755.57	265.31
755.90	264.38
756.22	263.74
756.55	262.60
756.88	261.26
757.20	259.31
757.53	257.95
757.86	257.64
758.19	257.55
758.51	257.19
758.84	255.40
759.17	254.40
759.49	253.88
759.82	253.93
760.15	253.36
760.47	252.52
760.80	251.60
761.13	251.50
761.45	251.00
761.78	250.81
762.11	250.26
762.43	249.50
762.76	248.79
763.08	248.60
763.41	248.36
763.74	248.29
764.06	247.86
764.39	247.79
764.71	247.14
765.04	246.45
765.37	245.55
765.69	244.93
766.02	244.60
766.34	244.24
766.67	243.05
767.00	243.21
767.32	244.26
767.65	244.90
767.97	244.45
768.30	244.55
768.62	244.07
768.95	243.55
769.27	243.14
769.60	243.43
769.92	242.62
770.25	241.90
770.57	241.00
770.90	240.45
771.22	239.76
771.55	239.69
771.87	239.48
772.20	239.57
772.52	241.33
772.85	243.69
773.17	243.43
773.50	243.21
773.82	242.64
774.15	241.14
774.47	239.57
774.80	238.81
775.12	238.38
775.45	238.12
775.77	238.07
776.09	238.24
776.42	237.93
776.74	238.69
777.07	238.36
777.39	238.10
777.72	237.86
778.04	238.17
778.36	237.62
778.69	237.29
779.01	236.88
779.33	234.74
779.66	232.24
779.98	231.90
780.31	231.76
780.63	232.10
780.95	232.48
781.28	232.43
781.60	232.24
781.92	231.93
782.25	231.45
782.57	231.17
782.89	230.48
783.22	230.14
783.54	229.12
783.86	229.38
784.19	229.31
784.51	229.55
784.83	228.81
785.16	228.55
785.48	228.24
785.80	228.10
786.12	228.17
786.45	227.88
786.77	227.81
787.09	227.76
787.42	226.93
787.74	226.52
788.06	226.10
788.38	225.76
788.71	225.38
789.03	225.57
789.35	225.76
789.67	225.40
789.99	225.40
790.32	225.31
790.64	225.40
790.96	226.69
791.28	225.98
791.61	225.90
791.93	225.98
792.25	225.90
792.57	227.26
792.89	226.71
793.21	226.69
793.54	226.43
793.86	226.05
794.18	226.10
794.50	225.93
794.82	225.98
795.14	226.40
795.47	226.62
795.79	226.50
796.11	225.83
796.43	225.74
796.75	225.55
797.07	225.62
797.39	225.21
797.71	224.02
798.04	224.17
798.36	224.17
798.68	223.81
799.00	224.00
799.32	222.86
799.64	223.26
799.96	223.21
800.28	223.24
800.60	222.83
800.92	222.88
801.24	222.60
801.56	222.50
801.89	222.10
802.21	222.26
802.53	221.90
802.85	222.00
803.17	222.93
803.49	222.45
803.81	221.74
804.13	221.50
804.45	221.12
804.77	221.05
805.09	220.95
805.41	221.02
805.73	220.55
806.05	219.98
806.37	219.83
806.69	219.29
807.01	219.07
807.33	219.17
807.65	218.36
807.97	219.33
808.28	219.33
808.60	219.21
808.92	218.90
809.24	220.05
809.56	219.83
809.88	219.00
810.20	218.98
810.52	219.69
810.84	219.31
811.16	219.10
811.48	218.83
811.80	219.43
812.12	219.10
812.43	219.21
812.75	219.40
813.07	219.05
813.39	219.50
813.71	219.26
814.03	219.14
814.35	219.14
814.67	218.24
814.98	218.05
815.30	218.10
815.62	217.55
815.94	216.21
816.26	216.33
816.58	216.05
816.89	216.26
817.21	215.93
817.53	216.19
817.85	216.26
818.17	216.29
818.48	215.64
818.80	216.21
819.12	215.93
819.44	215.26
819.76	215.17
820.07	214.95
820.39	214.93
820.71	215.17
821.03	215.17
821.34	215.10
821.66	215.55
821.98	215.67
822.30	215.60
822.61	216.83
822.93	216.50
823.25	216.26
823.57	216.26
823.88	216.38
824.20	216.26
824.52	216.48
824.83	216.31
825.15	215.83
825.47	215.67
825.79	215.88
826.10	216.07
826.42	215.83
826.74	216.07
827.05	215.88
827.37	215.67
827.69	215.62
828.00	215.62
828.32	215.26
828.64	214.90
828.95	216.00
829.27	215.40
829.58	215.64
829.90	216.14
830.22	216.10
830.53	215.64
830.85	215.64
831.17	215.17
831.48	215.43
831.80	215.64
832.11	215.21
832.43	215.07
832.75	214.95
833.06	216.48
833.38	215.95
833.69	216.05
834.01	216.36
834.32	216.50
834.64	216.38
834.96	216.36
835.27	216.29
835.59	215.79
835.90	215.31
836.22	214.93
836.53	214.40
836.85	214.19
837.16	216.33
837.48	216.24
837.79	216.81
838.11	216.74
838.42	216.74
838.74	216.95
839.05	216.74
839.37	216.90
839.68	215.50
840.00	215.43
840.31	215.62
840.63	215.45
840.94	214.98
841.26	214.76
841.57	214.76
841.88	215.29
842.20	214.69
842.51	214.62
842.83	214.81
843.14	216.86
843.46	216.88
843.77	215.79
844.08	215.55
844.40	214.86
844.71	214.57
845.03	214.55
845.34	214.40
845.65	214.36
845.97	214.38
846.28	214.33
846.60	214.36
846.91	213.98
847.22	213.71
847.54	214.24
847.85	214.48
848.16	214.12
848.48	213.76
848.79	214.86
849.10	214.79
849.42	214.81
849.73	212.81
850.04	212.71
850.36	211.76
850.67	212.26
850.98	212.45
851.30	212.76
851.61	212.50
851.92	212.71
852.23	213.40
852.55	213.36
852.86	213.38
853.17	213.45
853.49	213.95
853.80	214.36
854.11	214.43
854.42	214.55
854.74	214.52
855.05	214.24
855.36	212.93
855.67	213.19
855.99	213.50
856.30	215.98
856.61	216.00
856.92	216.33
857.23	216.33
857.55	216.19
857.86	216.00
858.17	216.60
858.48	216.10
858.79	215.69
859.11	215.86
859.42	215.93
859.73	215.64
860.04	215.55
860.35	215.02
860.66	214.57
860.98	214.43
861.29	214.71
861.60	214.67
861.91	215.33
862.22	215.05
862.53	214.26
862.84	211.81
863.16	212.40
863.47	211.88
863.78	211.50
864.09	211.62
864.40	211.64
864.71	211.62
865.02	212.05
865.33	211.76
865.64	211.62
865.95	211.48
866.27	212.86
866.58	212.64
866.89	212.90
867.20	212.86
867.51	212.74
867.82	212.62
868.13	213.57
868.44	212.98
868.75	213.48
869.06	213.93
869.37	214.26
869.68	213.50
869.99	214.05
870.30	214.36
870.61	214.55
870.92	214.33
871.23	214.02
871.54	214.52
871.85	214.90
872.16	215.31
872.47	215.12
872.78	214.07
873.09	214.33
873.40	214.38
873.71	214.71
874.02	214.71
874.33	214.52
874.64	213.81
874.95	214.33
875.26	213.62
875.56	213.67
875.87	213.36
876.18	213.31
876.49	215.12
876.80	214.86
877.11	214.43
877.42	214.52
877.73	214.52
878.04	213.95
878.35	213.90
878.66	213.67
878.96	213.86
879.27	213.57
879.58	213.50
879.89	213.24
880.20	213.67
880.51	213.55
880.82	213.67
881.12	213.69
881.43	213.12
881.74	213.24
882.05	212.95
882.36	213.24
882.67	213.48
882.97	211.17
883.28	211.07
883.59	211.17
883.90	211.26
884.21	211.67
884.51	211.62
884.82	211.57
885.13	211.31
885.44	211.21
885.74	211.48
886.05	211.33
886.36	211.24
886.67	210.52
886.98	211.43
887.28	211.71
887.59	211.62
887.90	211.79
888.20	211.64
888.51	212.00
888.82	211.74
889.13	211.71
889.43	213.50
889.74	213.67
890.05	213.71
890.35	213.52
890.66	213.10
890.97	212.67
891.28	212.33
891.58	212.36
891.89	212.24
892.20	211.86
892.50	211.64
892.81	211.64
893.12	211.69
893.42	210.57
893.73	210.48
894.04	210.36
894.34	210.48
894.65	210.40
894.95	210.33
895.26	210.52
895.57	211.45
895.87	209.57
896.18	209.79
896.48	210.00
896.79	210.17
897.10	210.43
897.40	210.71
897.71	211.12
898.01	211.07
898.32	211.48
898.63	211.52
898.93	211.71
899.24	211.74
899.54	211.45
899.85	211.67
900.15	211.76
900.46	211.98
900.76	212.17
901.07	212.21
901.38	211.98
901.68	212.02
901.99	210.76
902.29	210.88
902.60	210.55
902.90	210.05
903.21	210.02
903.51	209.93
903.82	210.50
904.12	210.43
904.43	210.62
904.73	210.38
905.03	210.81
905.34	212.71
905.64	212.76
905.95	212.88
906.25	212.98
906.56	212.81
906.86	212.81
907.17	212.86
907.47	212.93
907.77	212.90
908.08	212.52
908.38	212.98
908.69	213.40
908.99	213.62
909.30	213.98
909.60	213.98
909.90	214.14
910.21	213.55
910.51	213.36
910.81	213.24
911.12	213.45
911.42	213.19
911.73	211.07
912.03	211.26
912.33	211.69
912.64	211.64
912.94	211.45
913.24	211.36
913.55	211.14
913.85	211.00
914.15	211.29
914.46	211.67
914.76	211.57
915.06	211.12
915.37	211.07
915.67	210.98
915.97	210.83
916.27	210.24
916.58	210.43
916.88	210.29
917.18	210.36
917.49	211.83
917.79	211.95
918.09	212.38
918.39	212.76
918.70	212.81
919.00	212.93
919.30	213.86
919.60	213.83
919.91	213.64
920.21	214.07
920.51	213.71
920.81	213.52
921.12	213.81
921.42	214.02
921.72	214.07
922.02	214.33
922.32	214.67
922.63	214.90
922.93	215.74
923.23	216.00
923.53	215.62
923.83	214.02
924.13	214.00
924.44	214.00
924.74	214.31
925.04	214.62
925.34	214.43
925.64	213.57
925.94	213.38
926.24	214.69
926.55	214.29
926.85	214.57
927.15	214.71
927.45	214.50
927.75	214.40
928.05	214.48
928.35	214.21
928.65	214.62
928.95	214.81
929.26	214.14
929.56	214.24
929.86	214.67
930.16	214.69
930.46	214.57
930.76	214.69
931.06	213.81
931.36	213.33
931.66	213.74
931.96	214.05
932.26	214.10
932.56	213.00
932.86	213.10
933.16	212.90
933.46	212.60
933.76	212.40
934.06	212.83
934.36	213.48
934.66	213.36
934.96	212.98
935.26	212.88
935.56	212.83
935.86	212.62
936.16	212.31
936.46	212.02
936.76	211.95
937.06	211.50
937.36	211.81
937.66	211.74
937.96	211.33
938.26	210.90
938.56	210.98
938.86	211.07
939.16	211.36
939.46	211.86
939.76	211.93
940.06	212.07
940.35	211.52
940.65	210.38
940.95	210.62
941.25	210.05
941.55	209.86
941.85	209.74
942.15	210.05
942.45	210.48
942.75	210.55
943.04	210.69
943.34	211.38
943.64	211.10
943.94	210.76
944.24	211.19
944.54	211.43
944.84	211.40
945.13	211.02
945.43	210.71
945.73	210.60
946.03	210.52
946.33	210.14
946.62	210.10
946.92	210.26
947.22	210.38
947.52	210.52
947.82	210.90
948.11	210.74
948.41	210.24
948.71	209.98
949.01	210.02
949.31	209.74
949.60	209.29
949.90	209.33
950.20	209.40
950.50	209.19
950.79	208.98
951.09	209.33
951.39	209.33
951.69	209.21
951.98	209.60
952.28	209.79
952.58	209.83
952.87	209.86
953.17	210.21
953.47	209.95
953.76	210.14
954.06	209.81
954.36	209.86
954.66	209.74
954.95	210.24
955.25	210.31
955.55	210.36
955.84	210.26
956.14	210.64
956.44	210.69
956.73	210.43
957.03	210.71
957.32	210.67
957.62	210.67
957.92	211.14
958.21	210.79
958.51	213.19
958.81	213.62
959.10	214.10
959.40	214.45
959.69	214.69
959.99	214.86
960.29	214.81
960.58	214.60
960.88	215.40
961.17	215.00
961.47	215.12
961.76	215.43
962.06	215.64
962.36	215.50
962.65	215.60
962.95	215.76
963.24	215.38
963.54	215.19
963.83	215.14
964.13	215.00
964.42	214.38
964.72	212.40
965.01	212.40
965.31	212.05
965.60	211.57
965.90	212.62
966.19	212.31
966.49	212.64
966.78	212.69
967.08	212.86
967.37	213.10
967.67	212.76
967.96	212.88
968.26	213.00
968.55	213.05
968.85	213.12
969.14	212.93
969.43	212.95
969.73	212.71
970.02	212.81
970.32	212.48
970.61	212.64
970.91	212.07
971.20	211.60
971.49	211.48
971.79	211.69
972.08	210.21
972.38	210.29
972.67	209.79
972.96	210.05
973.26	209.33
973.55	209.74
973.85	209.74
974.14	209.52
974.43	209.50
974.73	209.33
975.02	209.19
975.31	209.38
975.61	209.40
975.90	209.55
976.19	209.31
976.49	209.74
976.78	209.93
977.07	209.98
977.37	210.36
977.66	210.69
977.95	210.26
978.24	210.45
978.54	210.81
978.83	210.90
979.12	210.67
979.42	210.71
979.71	210.21
980.00	210.24
980.29	210.26
980.59	209.81
980.88	210.40
981.17	210.40
981.46	210.36
981.76	210.26
982.05	210.90
982.34	211.31
982.63	211.19
982.93	211.17
983.22	211.83
983.51	211.62
983.80	211.86
984.09	212.24
984.39	212.17
984.68	211.76
984.97	211.83
985.26	211.76
985.55	212.05
985.85	211.71
986.14	212.05
986.43	212.29
986.72	212.36
987.01	211.50
987.30	211.52
987.59	211.29
987.89	211.45
988.18	210.74
988.47	210.71
988.76	210.57
989.05	210.52
989.34	210.05
989.63	210.57
989.92	210.12
990.22	209.76
990.51	209.55
990.80	209.69
991.09	210.02
991.38	210.36
991.67	209.95
991.96	209.71
992.25	209.60
992.54	209.29
992.83	209.24
993.12	209.31
993.41	209.55
993.70	210.26
993.99	210.40
994.28	210.76
994.58	210.93
994.87	210.64
995.16	210.40
995.45	210.45
995.74	209.69
996.03	209.93
996.32	210.43
996.61	211.45
996.90	211.38
997.19	211.21
997.48	211.40
997.77	211.33
998.06	211.83
998.34	211.69
998.63	211.88
998.92	211.98
999.21	212.40
999.50	212.26
999.79	211.88
1000.08	211.93
1000.37	211.83
1000.66	211.36
1000.95	212.12
1001.24	212.43
1001.53	212.36
1001.82	212.60
1002.11	212.10
1002.40	212.12
1002.68	212.24
1002.97	213.71
1003.26	213.38
1003.55	212.71
1003.84	212.74
1004.13	213.40
1004.42	213.48
1004.71	213.24
1004.99	213.12
1005.28	213.29
1005.57	213.19
1005.86	212.71
1006.15	212.55
1006.44	212.19
1006.72	212.52
1007.01	211.98
1007.30	211.74
1007.59	211.67
1007.88	211.52
1008.17	211.60
1008.45	211.12
1008.74	210.24
1009.03	209.24
1009.32	209.24
1009.60	209.43
1009.89	209.36
1010.18	208.40
1010.47	208.38
1010.76	208.17
1011.04	208.05
1011.33	208.14
1011.62	208.48
1011.91	208.76
1012.19	208.90
1012.48	208.88
1012.77	208.95
1013.05	210.00
1013.34	210.12
1013.63	209.95
1013.92	210.10
1014.20	210.10
1014.49	210.24
1014.78	210.40
1015.06	209.93
1015.35	209.93
1015.64	210.19
1015.92	210.40
1016.21	210.50
1016.50	210.38
1016.78	210.93
1017.07	211.07
1017.36	210.57
1017.64	210.12
1017.93	210.40
1018.22	210.21
1018.50	210.31
1018.79	210.19
1019.08	209.05
1019.36	209.38
1019.65	209.43
1019.93	210.07
1020.22	210.31
1020.51	211.33
1020.79	211.05
1021.08	207.50
1021.36	206.50
1021.65	210.00
1021.94	205.50
1022.22	216.00
1022.51	208.50
1022.79	222.00
1023.08	211.00
1023.36	234.00
1023.65	204.50
>>>>>End Processed Spectral Data<<<<<
