SpectraSuite Data File
++++++++++++++++++++++++++++++++++++
Date: Tue Apr 02 18:44:20 EDT 2013
User: group
Dark Spectrum Present: No
Reference Spectrum Present: No
Number of Sampled Component Spectra: 1
Spectrometers: USB2E7196
Integration Time (usec): 580000 (USB2E7196)
Spectra Averaged: 2 (USB2E7196)
Boxcar Smoothing: 10 (USB2E7196)
Correct for Electrical Dark: No (USB2E7196)
Strobe/Lamp Enabled: No (USB2E7196)
Correct for Detector Non-linearity: No (USB2E7196)
Correct for Stray Light: No (USB2E7196)
Number of Pixels in Processed Spectrum: 2048
>>>>>Begin Processed Spectral Data<<<<<
339.09	0.00
339.48	189.00
339.86	192.00
340.24	190.00
340.63	194.00
341.01	228.50
341.39	197.00
341.78	204.00
342.16	213.00
342.54	206.00
342.93	195.98
343.31	205.79
343.69	206.50
344.07	207.31
344.46	208.52
344.84	209.10
345.22	208.17
345.60	208.71
345.99	209.00
346.37	208.71
346.75	208.76
347.13	209.07
347.52	209.31
347.90	209.93
348.28	210.10
348.66	210.67
349.05	210.05
349.43	210.31
349.81	210.33
350.19	210.38
350.57	210.50
350.96	210.93
351.34	211.29
351.72	211.45
352.10	211.38
352.48	211.07
352.87	211.14
353.25	210.79
353.63	210.83
354.01	210.83
354.39	211.14
354.77	211.17
355.15	211.67
355.54	211.52
355.92	211.07
356.30	211.14
356.68	212.21
357.06	212.50
357.44	212.31
357.82	212.52
358.20	213.55
358.58	213.74
358.97	213.74
359.35	214.02
359.73	214.45
360.11	214.45
360.49	214.64
360.87	214.88
361.25	215.60
361.63	216.40
362.01	216.48
362.39	216.50
362.77	216.88
363.15	216.69
363.53	216.90
363.91	217.17
364.29	217.10
364.67	215.57
365.05	215.71
365.43	215.88
365.81	216.07
366.19	216.10
366.57	216.83
366.95	216.95
367.33	216.57
367.71	216.71
368.09	217.33
368.47	217.48
368.85	217.50
369.23	218.17
369.61	217.24
369.99	218.26
370.37	218.67
370.75	219.69
371.13	219.31
371.51	218.98
371.89	219.07
372.27	219.43
372.65	219.43
373.03	219.29
373.41	219.43
373.78	219.36
374.16	218.36
374.54	217.55
374.92	217.17
375.30	217.21
375.68	216.81
376.06	216.74
376.44	216.50
376.82	216.67
377.19	216.02
377.57	216.29
377.95	215.43
378.33	214.98
378.71	213.79
379.09	214.17
379.47	214.33
379.84	214.19
380.22	213.88
380.60	213.76
380.98	213.86
381.36	213.55
381.73	213.12
382.11	213.48
382.49	213.69
382.87	213.55
383.25	213.55
383.62	215.79
384.00	215.38
384.38	215.36
384.76	215.74
385.13	216.40
385.51	216.31
385.89	215.93
386.27	216.07
386.64	216.14
387.02	215.79
387.40	215.71
387.78	215.81
388.15	215.95
388.53	215.71
388.91	215.57
389.29	215.64
389.66	215.90
390.04	215.69
390.42	215.69
390.79	215.93
391.17	216.12
391.55	213.95
391.92	214.36
392.30	214.67
392.68	214.29
393.05	214.24
393.43	214.29
393.81	214.52
394.18	214.17
394.56	214.43
394.94	214.90
395.31	214.74
395.69	215.38
396.06	215.64
396.44	215.83
396.82	215.64
397.19	216.74
397.57	216.74
397.95	216.90
398.32	216.76
398.70	217.00
399.07	217.05
399.45	216.86
399.82	216.57
400.20	216.17
400.58	215.93
400.95	215.19
401.33	215.57
401.70	216.83
402.08	217.14
402.45	217.17
402.83	217.86
403.20	217.93
403.58	217.57
403.95	218.00
404.33	218.57
404.71	218.98
405.08	220.19
405.46	220.52
405.83	220.98
406.21	221.19
406.58	221.48
406.96	221.93
407.33	222.69
407.70	223.31
408.08	225.76
408.45	226.69
408.83	227.90
409.20	228.31
409.58	228.12
409.95	229.26
410.33	230.21
410.70	230.29
411.08	231.48
411.45	232.38
411.82	233.14
412.20	234.62
412.57	237.19
412.95	236.81
413.32	238.62
413.69	239.88
414.07	241.71
414.44	243.50
414.82	245.38
415.19	247.64
415.56	249.93
415.94	250.93
416.31	253.69
416.68	256.36
417.06	259.62
417.43	263.07
417.81	266.40
418.18	270.00
418.55	273.83
418.93	278.07
419.30	282.36
419.67	286.93
420.04	291.38
420.42	295.38
420.79	302.07
421.16	307.60
421.54	314.76
421.91	320.76
422.28	326.95
422.66	333.36
423.03	341.43
423.40	348.10
423.77	355.33
424.15	362.26
424.52	369.86
424.89	378.48
425.26	386.02
425.64	393.45
426.01	401.45
426.38	410.31
426.75	419.33
427.13	428.43
427.50	438.02
427.87	447.76
428.24	457.64
428.61	466.43
428.99	477.71
429.36	487.88
429.73	499.10
430.10	510.76
430.47	522.90
430.85	533.60
431.22	546.40
431.59	560.88
431.96	573.88
432.33	587.81
432.70	601.38
433.08	617.36
433.45	633.05
433.82	648.76
434.19	665.52
434.56	682.48
434.93	698.17
435.30	713.50
435.68	730.86
436.05	747.45
436.42	764.07
436.79	779.67
437.16	796.55
437.53	814.00
437.90	832.00
438.27	849.90
438.64	868.14
439.01	885.17
439.38	899.00
439.75	913.71
440.13	930.52
440.50	946.05
440.87	958.88
441.24	972.14
441.61	986.64
441.98	997.60
442.35	1009.45
442.72	1022.52
443.09	1036.40
443.46	1044.81
443.83	1050.86
444.20	1055.81
444.57	1061.50
444.94	1065.00
445.31	1068.45
445.68	1073.45
446.05	1074.50
446.42	1072.69
446.79	1071.24
447.16	1069.45
447.53	1068.48
447.90	1062.52
448.27	1056.12
448.64	1047.60
449.01	1040.93
449.37	1030.02
449.74	1019.33
450.11	1008.45
450.48	993.86
450.85	977.93
451.22	964.24
451.59	951.88
451.96	940.45
452.33	925.45
452.70	910.67
453.07	893.86
453.43	874.88
453.80	858.14
454.17	842.29
454.54	826.86
454.91	810.79
455.28	794.67
455.65	778.83
456.02	767.38
456.38	754.81
456.75	739.45
457.12	725.74
457.49	712.90
457.86	698.98
458.23	689.14
458.59	677.48
458.96	665.76
459.33	655.43
459.70	644.90
460.07	636.69
460.43	627.83
460.80	619.57
461.17	611.69
461.54	603.33
461.91	595.86
462.27	587.69
462.64	580.69
463.01	572.93
463.38	567.48
463.74	556.76
464.11	549.90
464.48	544.12
464.85	537.81
465.21	533.31
465.58	528.02
465.95	520.86
466.32	515.81
466.68	511.05
467.05	506.24
467.42	501.12
467.78	495.60
468.15	490.64
468.52	486.86
468.88	481.55
469.25	477.31
469.62	473.88
469.98	470.05
470.35	466.55
470.72	463.48
471.08	458.21
471.45	455.62
471.82	453.24
472.18	449.79
472.55	447.40
472.92	443.71
473.28	440.40
473.65	438.07
474.02	435.45
474.38	432.76
474.75	430.69
475.11	428.36
475.48	426.29
475.85	424.40
476.21	422.33
476.58	421.02
476.94	419.88
477.31	418.36
477.67	417.21
478.04	416.31
478.41	415.38
478.77	416.90
479.14	415.43
479.50	414.45
479.87	414.33
480.23	414.21
480.60	413.71
480.96	413.76
481.33	414.55
481.69	414.88
482.06	415.21
482.42	415.33
482.79	415.88
483.15	416.48
483.52	417.81
483.88	418.60
484.25	418.98
484.61	419.60
484.98	420.07
485.34	421.81
485.71	423.00
486.07	424.12
486.44	423.95
486.80	426.26
487.17	427.93
487.53	430.50
487.90	432.71
488.26	435.81
488.62	438.60
488.99	440.36
489.35	442.93
489.72	445.64
490.08	448.05
490.44	450.31
490.81	453.33
491.17	455.79
491.54	459.07
491.90	462.93
492.26	466.40
492.63	470.48
492.99	474.10
493.36	478.26
493.72	482.95
494.08	487.10
494.45	491.43
494.81	496.38
495.17	500.55
495.54	505.31
495.90	509.71
496.26	514.33
496.63	520.10
496.99	524.90
497.35	530.71
497.72	537.12
498.08	543.43
498.44	549.98
498.80	556.93
499.17	563.21
499.53	569.12
499.89	575.93
500.26	582.17
500.62	588.62
500.98	595.26
501.34	601.88
501.71	609.57
502.07	616.43
502.43	623.33
502.79	630.26
503.16	637.55
503.52	645.12
503.88	652.19
504.24	659.21
504.60	667.12
504.97	675.45
505.33	683.12
505.69	691.67
506.05	698.71
506.41	706.00
506.78	713.17
507.14	720.38
507.50	728.24
507.86	736.36
508.22	744.05
508.59	751.40
508.95	759.29
509.31	767.43
509.67	775.31
510.03	782.64
510.39	790.45
510.75	797.90
511.12	805.67
511.48	813.98
511.84	821.21
512.20	829.29
512.56	836.19
512.92	844.05
513.28	851.60
513.64	859.10
514.00	866.14
514.37	874.14
514.73	882.40
515.09	890.29
515.45	897.29
515.81	904.62
516.17	912.00
516.53	918.26
516.89	924.38
517.25	930.76
517.61	938.26
517.97	944.21
518.33	950.83
518.69	957.21
519.05	963.40
519.41	969.71
519.77	976.40
520.13	982.10
520.49	987.55
520.85	993.36
521.21	999.98
521.57	1006.00
521.93	1011.55
522.29	1017.21
522.65	1021.62
523.01	1027.29
523.37	1031.90
523.73	1036.83
524.09	1042.19
524.45	1046.43
524.81	1051.26
525.17	1056.05
525.53	1061.40
525.89	1065.95
526.25	1070.10
526.61	1074.02
526.97	1078.74
527.33	1082.31
527.68	1088.60
528.04	1092.62
528.40	1095.76
528.76	1099.29
529.12	1104.07
529.48	1108.50
529.84	1111.48
530.20	1116.55
530.56	1121.14
530.91	1126.31
531.27	1130.38
531.63	1134.93
531.99	1138.81
532.35	1142.43
532.71	1145.71
533.07	1150.38
533.42	1156.07
533.78	1160.29
534.14	1164.95
534.50	1168.76
534.86	1173.45
535.21	1175.69
535.57	1180.69
535.93	1184.90
536.29	1190.38
536.65	1193.48
537.00	1196.19
537.36	1200.26
537.72	1203.14
538.08	1206.36
538.44	1208.45
538.79	1211.88
539.15	1215.10
539.51	1219.48
539.87	1223.48
540.22	1227.02
540.58	1230.19
540.94	1231.14
541.29	1234.62
541.65	1236.64
542.01	1240.26
542.37	1242.38
542.72	1244.76
543.08	1246.45
543.44	1249.31
543.79	1250.05
544.15	1253.38
544.51	1256.95
544.87	1260.14
545.22	1262.76
545.58	1264.71
545.94	1268.00
546.29	1270.98
546.65	1273.40
547.01	1275.38
547.36	1278.50
547.72	1280.81
548.07	1283.36
548.43	1286.00
548.79	1287.57
549.14	1290.60
549.50	1293.10
549.86	1295.24
550.21	1298.33
550.57	1301.07
550.92	1303.64
551.28	1307.14
551.64	1309.62
551.99	1312.38
552.35	1315.33
552.70	1317.95
553.06	1321.40
553.41	1324.76
553.77	1328.62
554.13	1332.76
554.48	1336.69
554.84	1340.55
555.19	1344.52
555.55	1349.33
555.90	1354.00
556.26	1358.07
556.61	1362.26
556.97	1364.86
557.32	1368.62
557.68	1372.76
558.03	1376.88
558.39	1381.00
558.74	1384.76
559.10	1388.81
559.45	1392.79
559.81	1396.79
560.16	1400.86
560.52	1405.31
560.87	1409.50
561.23	1413.69
561.58	1418.83
561.94	1423.50
562.29	1427.45
562.64	1432.24
563.00	1435.64
563.35	1439.79
563.71	1444.90
564.06	1450.07
564.42	1456.67
564.77	1463.26
565.12	1468.95
565.48	1476.29
565.83	1482.24
566.19	1487.17
566.54	1491.98
566.89	1497.14
567.25	1503.93
567.60	1511.67
567.96	1518.83
568.31	1525.00
568.66	1530.50
569.02	1535.17
569.37	1540.00
569.72	1545.33
570.08	1551.26
570.43	1557.05
570.78	1563.48
571.14	1568.64
571.49	1573.55
571.84	1578.17
572.20	1581.81
572.55	1586.86
572.90	1589.93
573.26	1594.12
573.61	1599.33
573.96	1605.10
574.31	1609.67
574.67	1612.86
575.02	1615.62
575.37	1617.43
575.72	1621.45
576.08	1625.14
576.43	1628.93
576.78	1632.79
577.13	1636.74
577.49	1639.71
577.84	1644.14
578.19	1647.19
578.54	1651.29
578.90	1654.98
579.25	1658.90
579.60	1662.29
579.95	1665.14
580.30	1669.07
580.66	1672.90
581.01	1676.57
581.36	1679.26
581.71	1682.29
582.06	1686.10
582.42	1690.76
582.77	1694.95
583.12	1697.76
583.47	1701.38
583.82	1704.29
584.17	1708.21
584.53	1711.79
584.88	1715.31
585.23	1717.29
585.58	1719.55
585.93	1722.52
586.28	1724.55
586.63	1727.57
586.98	1731.48
587.34	1735.14
587.69	1737.00
588.04	1739.76
588.39	1741.95
588.74	1743.19
589.09	1745.98
589.44	1747.45
589.79	1749.52
590.14	1750.95
590.49	1752.76
590.84	1753.93
591.19	1755.86
591.54	1756.33
591.89	1757.26
592.25	1760.26
592.60	1761.71
592.95	1763.50
593.30	1765.31
593.65	1767.48
594.00	1767.17
594.35	1773.83
594.70	1772.57
595.05	1773.40
595.40	1773.62
595.75	1774.43
596.10	1777.02
596.45	1778.50
596.80	1779.52
597.15	1779.50
597.50	1780.45
597.85	1781.57
598.19	1782.48
598.54	1782.67
598.89	1783.43
599.24	1785.07
599.59	1783.88
599.94	1783.38
600.29	1783.60
600.64	1782.26
600.99	1781.64
601.34	1782.43
601.69	1776.00
602.04	1776.43
602.39	1776.33
602.74	1776.36
603.08	1776.21
603.43	1775.57
603.78	1774.50
604.13	1774.38
604.48	1773.24
604.83	1772.50
605.18	1772.83
605.53	1772.79
605.87	1772.57
606.22	1772.10
606.57	1769.76
606.92	1768.29
607.27	1768.31
607.62	1768.14
607.96	1768.74
608.31	1768.48
608.66	1767.74
609.01	1766.26
609.36	1765.31
609.70	1763.29
610.05	1760.43
610.40	1759.02
610.75	1756.67
611.10	1755.12
611.44	1752.38
611.79	1750.74
612.14	1749.05
612.49	1744.95
612.83	1741.40
613.18	1738.43
613.53	1734.81
613.88	1732.26
614.22	1729.10
614.57	1725.10
614.92	1720.57
615.27	1715.83
615.61	1711.62
615.96	1707.79
616.31	1704.55
616.65	1702.79
617.00	1700.31
617.35	1698.24
617.70	1694.95
618.04	1691.90
618.39	1687.52
618.74	1684.19
619.08	1679.64
619.43	1675.45
619.78	1672.24
620.12	1669.43
620.47	1665.21
620.82	1661.40
621.16	1656.90
621.51	1654.21
621.85	1650.36
622.20	1646.90
622.55	1643.50
622.89	1639.90
623.24	1636.64
623.59	1633.36
623.93	1628.40
624.28	1624.43
624.62	1622.00
624.97	1618.60
625.32	1615.19
625.66	1611.71
626.01	1607.45
626.35	1604.55
626.70	1601.00
627.04	1597.48
627.39	1592.55
627.73	1589.76
628.08	1586.83
628.43	1583.40
628.77	1578.74
629.12	1574.81
629.46	1570.93
629.81	1566.43
630.15	1561.38
630.50	1555.67
630.84	1550.86
631.19	1545.76
631.53	1540.52
631.88	1533.52
632.22	1526.98
632.57	1522.12
632.91	1517.21
633.26	1512.93
633.60	1507.76
633.95	1501.90
634.29	1495.95
634.64	1492.29
634.98	1486.83
635.32	1482.52
635.67	1478.52
636.01	1474.55
636.36	1470.00
636.70	1465.71
637.05	1461.71
637.39	1458.12
637.73	1453.74
638.08	1450.31
638.42	1446.60
638.77	1442.76
639.11	1438.05
639.45	1434.05
639.80	1428.86
640.14	1424.55
640.49	1419.40
640.83	1413.64
641.17	1409.52
641.52	1404.83
641.86	1399.48
642.20	1395.38
642.55	1389.02
642.89	1383.40
643.23	1377.19
643.58	1372.74
643.92	1366.19
644.26	1360.21
644.61	1355.14
644.95	1350.43
645.29	1343.00
645.64	1337.12
645.98	1331.02
646.32	1326.29
646.66	1320.02
647.01	1313.40
647.35	1307.95
647.69	1302.17
648.04	1297.45
648.38	1291.33
648.72	1285.98
649.06	1280.43
649.41	1273.76
649.75	1268.00
650.09	1260.98
650.43	1254.64
650.78	1247.76
651.12	1241.71
651.46	1235.52
651.80	1228.93
652.14	1222.31
652.49	1216.86
652.83	1209.93
653.17	1202.90
653.51	1196.45
653.85	1190.74
654.20	1184.48
654.54	1177.48
654.88	1170.83
655.22	1164.19
655.56	1157.86
655.90	1151.07
656.25	1144.10
656.59	1137.62
656.93	1131.31
657.27	1126.29
657.61	1120.14
657.95	1114.07
658.29	1108.50
658.64	1102.50
658.98	1095.50
659.32	1089.21
659.66	1083.02
660.00	1077.24
660.34	1071.83
660.68	1065.19
661.02	1058.71
661.36	1052.26
661.70	1045.88
662.05	1040.62
662.39	1034.81
662.73	1029.43
663.07	1024.17
663.41	1017.86
663.75	1011.45
664.09	1005.52
664.43	999.07
664.77	993.10
665.11	985.95
665.45	979.55
665.79	973.29
666.13	967.43
666.47	961.26
666.81	954.88
667.15	948.69
667.49	943.02
667.83	937.86
668.17	932.00
668.51	926.81
668.85	921.40
669.19	915.81
669.53	909.19
669.87	902.69
670.21	896.57
670.55	890.57
670.89	885.90
671.23	880.50
671.57	875.02
671.91	869.98
672.25	865.05
672.58	860.33
672.92	854.71
673.26	850.00
673.60	844.36
673.94	839.43
674.28	834.10
674.62	828.86
674.96	822.95
675.30	818.19
675.64	813.00
675.97	808.05
676.31	802.45
676.65	797.36
676.99	793.76
677.33	788.40
677.67	784.07
678.01	778.19
678.34	773.64
678.68	768.83
679.02	763.24
679.36	758.62
679.70	753.33
680.04	749.10
680.37	743.17
680.71	738.74
681.05	734.21
681.39	729.48
681.73	724.31
682.06	719.88
682.40	715.26
682.74	710.60
683.08	706.14
683.42	700.98
683.75	696.86
684.09	691.17
684.43	686.90
684.77	681.98
685.10	677.60
685.44	672.50
685.78	667.40
686.12	662.93
686.45	658.14
686.79	653.55
687.13	649.52
687.46	645.31
687.80	641.50
688.14	636.93
688.48	633.00
688.81	628.95
689.15	625.07
689.49	620.48
689.82	616.33
690.16	610.93
690.50	607.17
690.83	602.55
691.17	597.88
691.51	593.71
691.84	589.86
692.18	585.40
692.52	581.50
692.85	578.40
693.19	575.40
693.52	571.07
693.86	566.71
694.20	562.05
694.53	558.88
694.87	554.43
695.21	549.93
695.54	545.71
695.88	542.00
696.21	537.40
696.55	533.55
696.88	529.83
697.22	526.57
697.56	523.38
697.89	519.93
698.23	516.90
698.56	512.86
698.90	509.05
699.23	505.38
699.57	502.17
699.90	497.79
700.24	493.71
700.58	490.81
700.91	488.02
701.25	486.76
701.58	484.05
701.92	481.24
702.25	478.19
702.59	475.07
702.92	471.90
703.26	469.10
703.59	466.31
703.93	465.02
704.26	462.05
704.60	458.74
704.93	455.83
705.26	452.62
705.60	450.19
705.93	447.21
706.27	445.07
706.60	442.38
706.94	440.62
707.27	437.62
707.61	435.02
707.94	432.24
708.27	427.57
708.61	424.12
708.94	421.52
709.28	419.40
709.61	416.86
709.94	414.40
710.28	411.93
710.61	409.36
710.95	405.02
711.28	404.48
711.61	402.14
711.95	400.29
712.28	397.88
712.61	395.64
712.95	394.31
713.28	393.26
713.61	390.62
713.95	387.90
714.28	385.71
714.61	383.26
714.95	381.10
715.28	378.86
715.61	376.79
715.95	374.57
716.28	372.38
716.61	370.74
716.95	368.57
717.28	366.55
717.61	364.26
717.94	362.48
718.28	359.02
718.61	357.29
718.94	354.76
719.27	353.24
719.61	351.26
719.94	348.93
720.27	345.81
720.60	343.69
720.94	341.71
721.27	340.45
721.60	339.45
721.93	337.71
722.27	337.12
722.60	335.76
722.93	334.05
723.26	332.57
723.59	330.50
723.93	328.98
724.26	327.79
724.59	326.43
724.92	325.71
725.25	325.00
725.59	323.40
725.92	322.52
726.25	321.19
726.58	320.10
726.91	318.57
727.24	317.69
727.57	316.93
727.91	315.71
728.24	314.52
728.57	313.12
728.90	312.36
729.23	310.29
729.56	310.31
729.89	309.55
730.22	308.36
730.55	307.60
730.89	306.45
731.22	305.33
731.55	304.48
731.88	303.12
732.21	301.57
732.54	300.60
732.87	299.69
733.20	298.48
733.53	297.52
733.86	296.69
734.19	295.60
734.52	294.90
734.85	295.43
735.18	294.38
735.51	293.74
735.84	292.93
736.17	292.86
736.50	290.69
736.83	292.07
737.16	291.55
737.49	290.67
737.82	289.86
738.15	289.14
738.48	288.10
738.81	286.83
739.14	286.00
739.47	284.95
739.80	283.79
740.13	283.21
740.46	282.10
740.79	281.26
741.12	280.21
741.45	278.98
741.78	276.90
742.11	276.60
742.44	275.24
742.77	274.74
743.10	273.43
743.43	272.71
743.75	269.88
744.08	271.40
744.41	270.69
744.74	269.81
745.07	268.69
745.40	268.24
745.73	268.79
746.06	268.05
746.39	267.48
746.71	266.90
747.04	266.14
747.37	265.31
747.70	265.02
748.03	264.40
748.36	263.98
748.68	263.76
749.01	262.57
749.34	262.36
749.67	261.81
750.00	261.57
750.33	262.57
750.65	261.95
750.98	258.90
751.31	258.38
751.64	257.86
751.97	258.62
752.29	258.07
752.62	256.57
752.95	255.95
753.28	255.36
753.60	254.71
753.93	254.69
754.26	254.52
754.59	253.76
754.91	253.24
755.24	253.00
755.57	252.29
755.90	251.81
756.22	251.00
756.55	250.00
756.88	249.36
757.20	247.40
757.53	246.38
757.86	246.00
758.19	245.57
758.51	245.36
758.84	243.88
759.17	243.45
759.49	242.95
759.82	243.43
760.15	243.43
760.47	243.05
760.80	242.07
761.13	242.10
761.45	241.62
761.78	241.26
762.11	240.86
762.43	240.38
762.76	240.31
763.08	240.52
763.41	240.10
763.74	239.81
764.06	239.60
764.39	239.38
764.71	239.17
765.04	238.60
765.37	238.00
765.69	237.67
766.02	237.26
766.34	237.17
766.67	236.00
767.00	236.07
767.32	236.83
767.65	237.90
767.97	237.40
768.30	237.31
768.62	237.00
768.95	236.64
769.27	236.21
769.60	236.12
769.92	235.52
770.25	235.17
770.57	234.43
770.90	234.17
771.22	233.95
771.55	233.86
771.87	233.95
772.20	234.00
772.52	235.45
772.85	237.93
773.17	237.62
773.50	237.62
773.82	236.86
774.15	235.98
774.47	234.21
774.80	233.69
775.12	233.45
775.45	233.38
775.77	233.17
776.09	233.24
776.42	232.81
776.74	233.10
777.07	232.86
777.39	232.86
777.72	232.62
778.04	232.69
778.36	232.14
778.69	231.79
779.01	231.76
779.33	229.86
779.66	227.14
779.98	226.74
780.31	226.55
780.63	227.26
780.95	227.26
781.28	227.52
781.60	227.33
781.92	227.14
782.25	226.93
782.57	226.55
782.89	226.31
783.22	225.95
783.54	225.26
783.86	225.17
784.19	224.76
784.51	225.02
784.83	224.62
785.16	224.55
785.48	224.60
785.80	224.12
786.12	224.12
786.45	223.86
786.77	224.02
787.09	223.86
787.42	223.12
787.74	222.98
788.06	222.69
788.38	222.55
788.71	222.02
789.03	222.00
789.35	222.50
789.67	221.95
789.99	222.21
790.32	221.90
790.64	222.24
790.96	223.90
791.28	223.29
791.61	223.02
791.93	223.05
792.25	222.93
792.57	224.31
792.89	223.93
793.21	223.98
793.54	223.55
793.86	223.24
794.18	223.29
794.50	222.64
794.82	222.60
795.14	222.67
795.47	223.26
795.79	223.21
796.11	222.38
796.43	222.43
796.75	222.26
797.07	222.24
797.39	221.88
797.71	220.38
798.04	220.24
798.36	220.33
798.68	220.26
799.00	220.12
799.32	218.98
799.64	219.43
799.96	219.48
800.28	220.00
800.60	219.74
800.92	219.71
801.24	219.93
801.56	219.90
801.89	219.79
802.21	219.69
802.53	219.45
802.85	219.90
803.17	220.71
803.49	220.07
803.81	220.02
804.13	220.07
804.45	219.93
804.77	220.07
805.09	219.98
805.41	219.69
805.73	219.33
806.05	218.88
806.37	218.43
806.69	218.24
807.01	217.86
807.33	218.07
807.65	217.24
807.97	218.00
808.28	217.98
808.60	217.90
808.92	217.57
809.24	218.88
809.56	218.36
809.88	217.48
810.20	217.83
810.52	218.24
810.84	217.86
811.16	217.60
811.48	217.52
811.80	218.31
812.12	218.17
812.43	218.64
812.75	219.00
813.07	218.93
813.39	219.07
813.71	218.86
814.03	218.74
814.35	218.90
814.67	218.05
814.98	217.88
815.30	217.90
815.62	217.62
815.94	216.10
816.26	216.33
816.58	216.17
816.89	216.24
817.21	215.81
817.53	215.79
817.85	215.69
818.17	215.62
818.48	214.95
818.80	215.19
819.12	214.79
819.44	214.12
819.76	213.93
820.07	213.69
820.39	213.88
820.71	213.88
821.03	213.90
821.34	213.79
821.66	214.10
821.98	214.19
822.30	214.19
822.61	215.52
822.93	215.29
823.25	215.21
823.57	214.79
823.88	215.10
824.20	215.24
824.52	215.71
824.83	215.57
825.15	215.29
825.47	215.38
825.79	215.71
826.10	215.76
826.42	215.79
826.74	216.26
827.05	216.02
827.37	216.07
827.69	215.93
828.00	216.00
828.32	215.90
828.64	215.76
828.95	216.88
829.27	216.17
829.58	216.36
829.90	216.83
830.22	217.26
830.53	216.79
830.85	216.52
831.17	216.02
831.48	216.12
831.80	216.19
832.11	216.00
832.43	215.74
832.75	215.76
833.06	216.95
833.38	216.21
833.69	215.90
834.01	215.98
834.32	215.93
834.64	215.69
834.96	215.62
835.27	215.60
835.59	214.90
835.90	214.60
836.22	214.50
836.53	213.83
836.85	213.71
837.16	215.64
837.48	215.67
837.79	216.55
838.11	216.60
838.42	216.71
838.74	216.95
839.05	216.71
839.37	216.71
839.68	215.36
840.00	215.31
840.31	215.79
840.63	215.62
840.94	215.43
841.26	215.17
841.57	215.10
841.88	215.07
842.20	214.74
842.51	214.31
842.83	214.26
843.14	216.36
843.46	216.19
843.77	215.02
844.08	214.88
844.40	214.14
844.71	214.05
845.03	213.76
845.34	213.74
845.65	213.60
845.97	213.76
846.28	214.00
846.60	213.95
846.91	213.67
847.22	213.62
847.54	214.07
847.85	214.12
848.16	213.81
848.48	213.55
848.79	214.24
849.10	214.45
849.42	214.60
849.73	212.90
850.04	212.86
850.36	212.21
850.67	212.79
850.98	212.81
851.30	212.95
851.61	212.79
851.92	212.45
852.23	213.05
852.55	213.07
852.86	213.29
853.17	213.55
853.49	213.95
853.80	214.45
854.11	214.69
854.42	215.21
854.74	215.19
855.05	215.33
855.36	214.36
855.67	214.52
855.99	214.48
856.30	216.86
856.61	216.50
856.92	216.55
857.23	216.31
857.55	216.00
857.86	215.79
858.17	215.90
858.48	215.79
858.79	215.57
859.11	215.67
859.42	215.19
859.73	215.14
860.04	214.98
860.35	214.31
860.66	213.69
860.98	213.67
861.29	213.98
861.60	213.83
861.91	214.26
862.22	213.98
862.53	213.64
862.84	211.02
863.16	211.81
863.47	211.64
863.78	211.40
864.09	211.83
864.40	211.93
864.71	212.10
865.02	212.21
865.33	211.76
865.64	211.29
865.95	211.31
866.27	212.38
866.58	212.07
866.89	212.31
867.20	212.33
867.51	211.79
867.82	211.45
868.13	212.07
868.44	211.60
868.75	212.00
869.06	212.12
869.37	212.36
869.68	211.79
869.99	211.95
870.30	212.14
870.61	212.17
870.92	211.95
871.23	211.90
871.54	212.21
871.85	212.79
872.16	213.12
872.47	213.02
872.78	211.76
873.09	212.00
873.40	211.79
873.71	211.76
874.02	211.98
874.33	212.05
874.64	211.57
874.95	211.98
875.26	211.57
875.56	211.60
875.87	211.40
876.18	211.29
876.49	213.43
876.80	213.14
877.11	212.71
877.42	212.81
877.73	212.81
878.04	212.55
878.35	212.52
878.66	212.74
878.96	212.79
879.27	212.79
879.58	212.88
879.89	212.69
880.20	213.64
880.51	213.81
880.82	213.67
881.12	213.81
881.43	213.45
881.74	213.31
882.05	213.14
882.36	213.21
882.67	213.55
882.97	211.33
883.28	211.45
883.59	211.36
883.90	211.60
884.21	211.76
884.51	211.69
884.82	211.38
885.13	211.07
885.44	211.29
885.74	211.52
886.05	211.26
886.36	211.43
886.67	210.64
886.98	211.38
887.28	211.69
887.59	211.57
887.90	211.62
888.20	211.60
888.51	211.90
888.82	211.71
889.13	211.88
889.43	213.36
889.74	213.38
890.05	213.43
890.35	213.02
890.66	212.95
890.97	212.69
891.28	212.52
891.58	212.62
891.89	212.36
892.20	211.90
892.50	212.00
892.81	212.10
893.12	212.12
893.42	211.33
893.73	211.38
894.04	211.45
894.34	211.71
894.65	211.67
894.95	211.71
895.26	211.86
895.57	212.83
895.87	210.95
896.18	211.14
896.48	211.52
896.79	211.71
897.10	211.90
897.40	212.14
897.71	212.38
898.01	212.19
898.32	212.55
898.63	212.57
898.93	212.52
899.24	212.45
899.54	212.21
899.85	212.00
900.15	211.76
900.46	211.90
900.76	212.10
901.07	212.24
901.38	212.26
901.68	212.33
901.99	210.98
902.29	211.33
902.60	211.17
902.90	210.69
903.21	210.64
903.51	210.48
903.82	210.98
904.12	211.26
904.43	211.36
904.73	211.24
905.03	211.38
905.34	213.55
905.64	213.43
905.95	213.38
906.25	213.57
906.56	213.62
906.86	213.43
907.17	213.24
907.47	213.10
907.77	212.95
908.08	212.67
908.38	212.81
908.69	212.83
908.99	213.29
909.30	213.79
909.60	213.76
909.90	213.88
910.21	213.43
910.51	212.93
910.81	213.02
911.12	213.14
911.42	213.40
911.73	211.10
912.03	211.21
912.33	211.69
912.64	211.48
912.94	211.26
913.24	210.81
913.55	210.60
913.85	210.38
914.15	210.74
914.46	211.05
914.76	210.90
915.06	210.90
915.37	210.21
915.67	209.95
915.97	209.88
916.27	209.14
916.58	208.95
916.88	208.81
917.18	208.79
917.49	210.31
917.79	210.14
918.09	210.48
918.39	211.02
918.70	210.88
919.00	210.93
919.30	212.12
919.60	212.45
919.91	212.21
920.21	212.31
920.51	211.50
920.81	211.45
921.12	211.71
921.42	211.69
921.72	212.07
922.02	212.05
922.32	212.31
922.63	212.98
922.93	214.14
923.23	214.36
923.53	214.02
923.83	212.31
924.13	212.33
924.44	212.29
924.74	212.74
925.04	213.14
925.34	212.88
925.64	211.95
925.94	211.71
926.24	212.93
926.55	212.93
926.85	213.29
927.15	213.10
927.45	213.24
927.75	213.17
928.05	213.36
928.35	213.21
928.65	213.60
928.95	213.33
929.26	212.36
929.56	212.79
929.86	213.10
930.16	212.88
930.46	212.71
930.76	212.83
931.06	211.57
931.36	211.21
931.66	212.07
931.96	212.19
932.26	212.24
932.56	211.57
932.86	211.76
933.16	212.07
933.46	211.95
933.76	211.60
934.06	212.12
934.36	212.50
934.66	212.52
934.96	212.31
935.26	212.62
935.56	213.17
935.86	212.50
936.16	212.38
936.46	212.86
936.76	212.86
937.06	212.43
937.36	212.64
937.66	212.60
937.96	211.93
938.26	211.69
938.56	211.83
938.86	211.83
939.16	212.24
939.46	212.24
939.76	212.40
940.06	212.57
940.35	212.05
940.65	211.10
940.95	211.29
941.25	210.67
941.55	210.21
941.85	210.00
942.15	210.45
942.45	210.81
942.75	210.29
943.04	210.40
943.34	211.05
943.64	210.88
943.94	210.55
944.24	210.98
944.54	210.90
944.84	210.79
945.13	210.62
945.43	210.38
945.73	210.26
946.03	210.17
946.33	209.81
946.62	209.64
946.92	209.71
947.22	209.88
947.52	210.05
947.82	210.48
948.11	210.17
948.41	209.76
948.71	209.57
949.01	209.83
949.31	209.64
949.60	209.40
949.90	209.98
950.20	209.95
950.50	209.95
950.79	210.02
951.09	210.31
951.39	210.14
951.69	209.83
951.98	210.40
952.28	210.62
952.58	210.81
952.87	210.81
953.17	211.10
953.47	210.71
953.76	210.71
954.06	210.60
954.36	210.40
954.66	210.62
954.95	211.02
955.25	211.17
955.55	211.31
955.84	210.86
956.14	210.86
956.44	211.12
956.73	210.62
957.03	210.74
957.32	210.74
957.62	210.76
957.92	211.14
958.21	210.71
958.51	213.10
958.81	213.31
959.10	213.81
959.40	214.45
959.69	214.45
959.99	214.95
960.29	214.88
960.58	214.90
960.88	215.48
961.17	215.02
961.47	215.26
961.76	215.05
962.06	215.74
962.36	215.48
962.65	215.57
962.95	215.76
963.24	215.50
963.54	215.60
963.83	215.83
964.13	215.79
964.42	215.33
964.72	213.40
965.01	213.48
965.31	213.19
965.60	212.69
965.90	214.31
966.19	213.71
966.49	213.71
966.78	213.62
967.08	213.38
967.37	213.62
967.67	213.07
967.96	213.83
968.26	213.52
968.55	213.69
968.85	213.60
969.14	213.45
969.43	213.29
969.73	213.10
970.02	212.74
970.32	212.83
970.61	212.81
970.91	212.40
971.20	212.12
971.49	212.00
971.79	212.10
972.08	210.57
972.38	210.79
972.67	210.74
972.96	211.21
973.26	210.90
973.55	211.64
973.85	211.83
974.14	211.48
974.43	211.45
974.73	211.26
975.02	210.88
975.31	210.81
975.61	210.98
975.90	210.76
976.19	210.71
976.49	210.60
976.78	210.79
977.07	210.76
977.37	210.90
977.66	211.00
977.95	210.45
978.24	210.64
978.54	210.95
978.83	210.86
979.12	210.26
979.42	210.24
979.71	209.62
980.00	209.48
980.29	209.43
980.59	209.29
980.88	209.88
981.17	210.14
981.46	210.36
981.76	210.36
982.05	211.21
982.34	211.31
982.63	211.26
982.93	211.21
983.22	211.62
983.51	211.60
983.80	211.83
984.09	212.12
984.39	211.79
984.68	211.52
984.97	211.76
985.26	211.86
985.55	211.95
985.85	211.48
986.14	211.86
986.43	212.07
986.72	211.88
987.01	211.07
987.30	211.00
987.59	210.88
987.89	211.29
988.18	210.43
988.47	210.33
988.76	210.40
989.05	210.31
989.34	210.19
989.63	210.67
989.92	210.31
990.22	210.26
990.51	210.45
990.80	210.43
991.09	210.45
991.38	210.74
991.67	210.52
991.96	210.52
992.25	210.57
992.54	210.21
992.83	210.24
993.12	210.43
993.41	210.67
993.70	211.40
993.99	211.62
994.28	212.14
994.58	212.60
994.87	212.33
995.16	212.07
995.45	211.86
995.74	211.26
996.03	211.71
996.32	212.17
996.61	212.40
996.90	212.33
997.19	211.98
997.48	212.12
997.77	212.00
998.06	212.02
998.34	211.74
998.63	211.79
998.92	211.83
999.21	212.07
999.50	212.00
999.79	211.52
1000.08	211.02
1000.37	210.79
1000.66	210.33
1000.95	210.76
1001.24	211.21
1001.53	211.50
1001.82	211.33
1002.11	211.02
1002.40	210.90
1002.68	211.50
1002.97	213.02
1003.26	213.12
1003.55	212.81
1003.84	213.24
1004.13	213.88
1004.42	213.83
1004.71	213.83
1004.99	213.69
1005.28	214.29
1005.57	214.07
1005.86	213.67
1006.15	213.69
1006.44	213.38
1006.72	213.71
1007.01	213.33
1007.30	213.12
1007.59	213.12
1007.88	213.21
1008.17	213.17
1008.45	212.62
1008.74	211.76
1009.03	210.88
1009.32	210.93
1009.60	211.10
1009.89	210.69
1010.18	209.83
1010.47	209.76
1010.76	209.74
1011.04	209.86
1011.33	209.64
1011.62	209.88
1011.91	210.10
1012.19	210.19
1012.48	210.26
1012.77	210.19
1013.05	211.24
1013.34	211.21
1013.63	210.71
1013.92	210.67
1014.20	210.64
1014.49	210.98
1014.78	211.14
1015.06	210.50
1015.35	210.24
1015.64	210.36
1015.92	210.67
1016.21	210.86
1016.50	210.98
1016.78	211.40
1017.07	211.62
1017.36	211.07
1017.64	210.76
1017.93	211.10
1018.22	211.00
1018.50	211.05
1018.79	210.93
1019.08	209.79
1019.36	209.79
1019.65	209.76
1019.93	210.36
1020.22	210.76
1020.51	211.79
1020.79	211.67
1021.08	208.50
1021.36	207.50
1021.65	209.50
1021.94	207.00
1022.22	207.00
1022.51	207.50
1022.79	219.00
1023.08	217.00
1023.36	235.00
1023.65	208.50
>>>>>End Processed Spectral Data<<<<<
