SpectraSuite Data File
++++++++++++++++++++++++++++++++++++
Date: Tue Apr 02 18:43:12 EDT 2013
User: group
Dark Spectrum Present: No
Reference Spectrum Present: No
Number of Sampled Component Spectra: 1
Spectrometers: USB2E7196
Integration Time (usec): 580000 (USB2E7196)
Spectra Averaged: 2 (USB2E7196)
Boxcar Smoothing: 10 (USB2E7196)
Correct for Electrical Dark: No (USB2E7196)
Strobe/Lamp Enabled: No (USB2E7196)
Correct for Detector Non-linearity: No (USB2E7196)
Correct for Stray Light: No (USB2E7196)
Number of Pixels in Processed Spectrum: 2048
>>>>>Begin Processed Spectral Data<<<<<
339.09	0.00
339.48	194.50
339.86	194.00
340.24	199.50
340.63	195.00
341.01	232.50
341.39	199.00
341.78	203.50
342.16	214.50
342.54	207.00
342.93	198.29
343.31	208.10
343.69	208.57
344.07	209.10
344.46	209.57
344.84	210.21
345.22	209.14
345.60	209.60
345.99	209.93
346.37	209.86
346.75	209.76
347.13	209.83
347.52	209.79
347.90	210.71
348.28	210.43
348.66	210.83
349.05	210.36
349.43	210.55
349.81	210.74
350.19	210.93
350.57	211.02
350.96	211.38
351.34	211.71
351.72	211.71
352.10	211.74
352.48	211.71
352.87	211.67
353.25	211.60
353.63	211.55
354.01	211.60
354.39	211.60
354.77	211.90
355.15	212.40
355.54	212.21
355.92	211.21
356.30	211.38
356.68	212.86
357.06	212.93
357.44	212.55
357.82	212.69
358.20	213.43
358.58	213.43
358.97	213.31
359.35	213.57
359.73	214.19
360.11	214.31
360.49	214.40
360.87	214.57
361.25	215.00
361.63	215.74
362.01	215.81
362.39	215.64
362.77	215.74
363.15	215.31
363.53	215.36
363.91	215.40
364.29	215.48
364.67	213.50
365.05	213.57
365.43	213.93
365.81	214.19
366.19	214.26
366.57	215.33
366.95	215.36
367.33	214.93
367.71	214.93
368.09	215.31
368.47	215.45
368.85	215.26
369.23	215.29
369.61	214.45
369.99	215.21
370.37	215.60
370.75	216.48
371.13	216.36
371.51	216.33
371.89	216.67
372.27	216.83
372.65	216.90
373.03	216.86
373.41	216.71
373.78	216.40
374.16	215.36
374.54	214.33
374.92	214.26
375.30	214.33
375.68	213.93
376.06	214.05
376.44	213.86
376.82	214.07
377.19	213.98
377.57	214.21
377.95	213.38
378.33	213.24
378.71	211.95
379.09	212.31
379.47	212.40
379.84	212.05
380.22	211.86
380.60	211.62
380.98	211.38
381.36	211.36
381.73	211.07
382.11	211.81
382.49	211.88
382.87	211.48
383.25	211.52
383.62	214.00
384.00	213.62
384.38	213.90
384.76	214.48
385.13	215.48
385.51	215.26
385.89	215.17
386.27	215.05
386.64	215.50
387.02	215.36
387.40	215.29
387.78	215.52
388.15	215.45
388.53	215.52
388.91	215.67
389.29	215.31
389.66	215.71
390.04	215.19
390.42	215.71
390.79	215.93
391.17	215.88
391.55	213.57
391.92	213.67
392.30	213.67
392.68	213.10
393.05	212.83
393.43	213.26
393.81	213.29
394.18	212.95
394.56	212.98
394.94	213.38
395.31	213.33
395.69	213.71
396.06	214.31
396.44	214.48
396.82	214.21
397.19	215.52
397.57	215.43
397.95	216.00
398.32	215.26
398.70	215.69
399.07	216.19
399.45	216.05
399.82	216.07
400.20	215.93
400.58	215.95
400.95	215.07
401.33	215.43
401.70	216.98
402.08	217.29
402.45	217.48
402.83	218.17
403.20	218.43
403.58	218.40
403.95	218.55
404.33	218.93
404.71	219.33
405.08	220.43
405.46	220.74
405.83	220.88
406.21	221.38
406.58	221.83
406.96	222.00
407.33	222.74
407.70	223.55
408.08	225.79
408.45	226.74
408.83	227.93
409.20	228.24
409.58	227.76
409.95	228.74
410.33	229.64
410.70	229.64
411.08	230.69
411.45	231.76
411.82	232.69
412.20	234.17
412.57	236.62
412.95	236.21
413.32	237.95
413.69	239.19
414.07	240.76
414.44	242.55
414.82	244.50
415.19	246.81
415.56	248.90
415.94	250.02
416.31	253.10
416.68	255.62
417.06	258.81
417.43	262.19
417.81	265.74
418.18	269.67
418.55	273.55
418.93	277.86
419.30	282.07
419.67	286.52
420.04	291.19
420.42	295.14
420.79	302.36
421.16	307.98
421.54	315.05
421.91	321.38
422.28	327.29
422.66	333.83
423.03	341.95
423.40	349.05
423.77	356.43
424.15	363.07
424.52	371.24
424.89	379.95
425.26	387.69
425.64	395.57
426.01	403.38
426.38	412.69
426.75	422.00
427.13	431.31
427.50	441.05
427.87	451.36
428.24	461.45
428.61	469.74
428.99	481.00
429.36	491.36
429.73	502.79
430.10	514.81
430.47	526.81
430.85	537.12
431.22	549.45
431.59	563.93
431.96	577.17
432.33	590.93
432.70	604.71
433.08	621.19
433.45	636.29
433.82	651.43
434.19	668.02
434.56	684.81
434.93	700.48
435.30	716.36
435.68	733.55
436.05	751.00
436.42	768.21
436.79	783.69
437.16	801.26
437.53	819.07
437.90	836.38
438.27	854.29
438.64	872.12
439.01	889.21
439.38	903.12
439.75	918.10
440.13	934.57
440.50	949.57
440.87	962.52
441.24	975.76
441.61	990.83
441.98	1001.74
442.35	1013.64
442.72	1027.17
443.09	1040.50
443.46	1048.12
443.83	1053.33
444.20	1058.10
444.57	1064.52
444.94	1067.26
445.31	1070.52
445.68	1076.74
446.05	1078.29
446.42	1077.88
446.79	1077.00
447.16	1075.02
447.53	1074.14
447.90	1068.19
448.27	1062.55
448.64	1053.26
449.01	1047.60
449.37	1036.60
449.74	1025.67
450.11	1014.55
450.48	999.40
450.85	983.71
451.22	971.55
451.59	959.69
451.96	948.24
452.33	932.48
452.70	919.10
453.07	902.14
453.43	882.48
453.80	865.74
454.17	849.76
454.54	834.21
454.91	818.36
455.28	802.07
455.65	787.07
456.02	775.29
456.38	762.95
456.75	747.12
457.12	733.83
457.49	721.00
457.86	706.64
458.23	696.88
458.59	685.48
458.96	673.12
459.33	662.21
459.70	651.40
460.07	643.05
460.43	632.79
460.80	624.64
461.17	617.14
461.54	608.55
461.91	600.14
462.27	591.98
462.64	584.90
463.01	577.14
463.38	570.79
463.74	560.05
464.11	553.12
464.48	546.90
464.85	540.40
465.21	535.79
465.58	531.26
465.95	524.14
466.32	518.79
466.68	513.45
467.05	508.67
467.42	504.00
467.78	498.29
468.15	493.29
468.52	489.60
468.88	483.74
469.25	479.10
469.62	475.69
469.98	471.60
470.35	468.02
470.72	464.40
471.08	459.60
471.45	457.05
471.82	454.36
472.18	451.26
472.55	448.79
472.92	445.36
473.28	441.81
473.65	439.07
474.02	435.90
474.38	434.10
474.75	431.81
475.11	429.57
475.48	428.21
475.85	426.14
476.21	423.79
476.58	422.71
476.94	421.60
477.31	420.29
477.67	418.71
478.04	417.40
478.41	416.69
478.77	418.36
479.14	416.71
479.50	416.05
479.87	415.62
480.23	415.12
480.60	414.64
480.96	414.36
481.33	415.36
481.69	415.83
482.06	415.55
482.42	416.52
482.79	416.60
483.15	416.69
483.52	417.83
483.88	417.62
484.25	417.93
484.61	418.76
484.98	419.57
485.34	421.69
485.71	423.05
486.07	424.26
486.44	424.05
486.80	425.76
487.17	427.17
487.53	429.36
487.90	431.36
488.26	434.29
488.62	437.38
488.99	438.98
489.35	441.33
489.72	444.05
490.08	446.14
490.44	448.62
490.81	452.31
491.17	455.38
491.54	459.29
491.90	463.26
492.26	466.69
492.63	470.45
492.99	473.43
493.36	477.67
493.72	482.52
494.08	486.40
494.45	491.43
494.81	496.43
495.17	501.21
495.54	506.86
495.90	511.07
496.26	515.55
496.63	521.38
496.99	526.93
497.35	532.45
497.72	538.48
498.08	544.45
498.44	550.50
498.80	556.95
499.17	563.29
499.53	569.43
499.89	576.40
500.26	582.90
500.62	589.60
500.98	596.40
501.34	603.17
501.71	611.19
502.07	618.05
502.43	625.24
502.79	632.26
503.16	639.26
503.52	647.00
503.88	654.00
504.24	661.26
504.60	669.55
504.97	677.60
505.33	685.10
505.69	693.98
506.05	701.67
506.41	709.19
506.78	716.81
507.14	724.43
507.50	732.00
507.86	740.05
508.22	748.40
508.59	755.81
508.95	763.57
509.31	771.57
509.67	779.71
510.03	787.71
510.39	795.45
510.75	803.17
511.12	810.57
511.48	818.60
511.84	825.71
512.20	832.71
512.56	839.48
512.92	847.64
513.28	855.02
513.64	862.07
514.00	869.74
514.37	877.62
514.73	885.24
515.09	892.90
515.45	899.57
515.81	906.50
516.17	913.62
516.53	920.10
516.89	925.43
517.25	931.79
517.61	938.17
517.97	944.71
518.33	950.86
518.69	957.26
519.05	964.95
519.41	971.45
519.77	978.36
520.13	985.43
520.49	990.76
520.85	995.81
521.21	1002.48
521.57	1008.26
521.93	1013.00
522.29	1018.52
522.65	1023.81
523.01	1029.86
523.37	1034.95
523.73	1040.57
524.09	1045.64
524.45	1051.05
524.81	1056.26
525.17	1061.17
525.53	1065.67
525.89	1070.76
526.25	1076.40
526.61	1079.31
526.97	1083.98
527.33	1088.14
527.68	1093.83
528.04	1098.90
528.40	1102.86
528.76	1106.98
529.12	1111.26
529.48	1116.55
529.84	1120.43
530.20	1124.64
530.56	1128.83
530.91	1132.93
531.27	1136.62
531.63	1140.86
531.99	1144.79
532.35	1148.52
532.71	1152.50
533.07	1157.57
533.42	1163.88
533.78	1167.52
534.14	1172.62
534.50	1175.71
534.86	1180.21
535.21	1182.60
535.57	1186.60
535.93	1190.33
536.29	1195.10
536.65	1198.81
537.00	1201.40
537.36	1204.98
537.72	1208.74
538.08	1212.40
538.44	1216.10
538.79	1220.36
539.15	1224.55
539.51	1228.40
539.87	1232.19
540.22	1235.86
540.58	1238.38
540.94	1239.50
541.29	1242.48
541.65	1245.21
542.01	1249.83
542.37	1252.10
542.72	1254.33
543.08	1256.00
543.44	1260.14
543.79	1260.90
544.15	1264.38
544.51	1267.83
544.87	1271.36
545.22	1273.74
545.58	1276.36
545.94	1278.36
546.29	1280.33
546.65	1282.07
547.01	1283.52
547.36	1285.26
547.72	1288.00
548.07	1290.98
548.43	1293.17
548.79	1295.55
549.14	1297.67
549.50	1299.76
549.86	1302.24
550.21	1305.14
550.57	1308.17
550.92	1310.19
551.28	1314.02
551.64	1316.60
551.99	1319.50
552.35	1322.00
552.70	1324.81
553.06	1327.40
553.41	1330.48
553.77	1335.62
554.13	1339.33
554.48	1345.10
554.84	1350.00
555.19	1353.38
555.55	1358.36
555.90	1362.40
556.26	1366.31
556.61	1369.07
556.97	1372.43
557.32	1376.05
557.68	1380.21
558.03	1384.64
558.39	1388.93
558.74	1392.83
559.10	1396.55
559.45	1400.52
559.81	1405.07
560.16	1409.29
560.52	1413.76
560.87	1419.26
561.23	1421.83
561.58	1427.24
561.94	1430.31
562.29	1434.33
562.64	1438.64
563.00	1442.64
563.35	1447.31
563.71	1452.19
564.06	1458.57
564.42	1463.83
564.77	1470.62
565.12	1476.05
565.48	1483.05
565.83	1489.31
566.19	1494.90
566.54	1500.69
566.89	1506.17
567.25	1512.43
567.60	1519.64
567.96	1527.90
568.31	1534.55
568.66	1541.29
569.02	1545.57
569.37	1550.95
569.72	1556.36
570.08	1562.12
570.43	1567.02
570.78	1572.21
571.14	1578.14
571.49	1583.29
571.84	1588.76
572.20	1593.05
572.55	1598.17
572.90	1601.83
573.26	1605.33
573.61	1609.90
573.96	1614.55
574.31	1619.74
574.67	1622.69
575.02	1626.33
575.37	1628.19
575.72	1631.64
576.08	1635.05
576.43	1639.40
576.78	1643.43
577.13	1647.88
577.49	1651.81
577.84	1656.26
578.19	1660.83
578.54	1664.90
578.90	1668.76
579.25	1672.79
579.60	1675.38
579.95	1677.55
580.30	1680.26
580.66	1684.19
581.01	1688.17
581.36	1690.33
581.71	1692.69
582.06	1697.43
582.42	1700.24
582.77	1703.21
583.12	1705.57
583.47	1709.76
583.82	1712.55
584.17	1715.60
584.53	1718.83
584.88	1721.74
585.23	1725.00
585.58	1726.98
585.93	1728.93
586.28	1732.14
586.63	1734.38
586.98	1738.00
587.34	1742.95
587.69	1746.02
588.04	1748.60
588.39	1750.93
588.74	1752.81
589.09	1755.29
589.44	1755.71
589.79	1758.07
590.14	1759.57
590.49	1761.79
590.84	1762.05
591.19	1763.98
591.54	1765.69
591.89	1765.50
592.25	1768.86
592.60	1768.36
592.95	1769.79
593.30	1770.57
593.65	1770.93
594.00	1771.60
594.35	1777.67
594.70	1777.05
595.05	1777.79
595.40	1777.81
595.75	1778.05
596.10	1779.26
596.45	1780.60
596.80	1782.21
597.15	1782.00
597.50	1782.76
597.85	1783.50
598.19	1783.95
598.54	1783.31
598.89	1783.69
599.24	1785.36
599.59	1783.48
599.94	1784.24
600.29	1784.07
600.64	1784.26
600.99	1784.48
601.34	1785.48
601.69	1779.83
602.04	1779.26
602.39	1778.24
602.74	1779.21
603.08	1778.45
603.43	1779.62
603.78	1778.60
604.13	1778.10
604.48	1777.62
604.83	1777.26
605.18	1777.45
605.53	1776.83
605.87	1776.24
606.22	1774.86
606.57	1773.24
606.92	1772.00
607.27	1771.86
607.62	1771.43
607.96	1770.79
608.31	1770.14
608.66	1768.69
609.01	1766.12
609.36	1765.31
609.70	1764.29
610.05	1760.81
610.40	1759.10
610.75	1756.60
611.10	1755.48
611.44	1753.24
611.79	1750.86
612.14	1748.57
612.49	1744.52
612.83	1742.36
613.18	1739.48
613.53	1736.79
613.88	1733.76
614.22	1730.93
614.57	1725.69
614.92	1721.14
615.27	1717.90
615.61	1712.69
615.96	1708.60
616.31	1706.69
616.65	1703.93
617.00	1700.60
617.35	1697.98
617.70	1694.76
618.04	1690.36
618.39	1685.67
618.74	1681.00
619.08	1677.26
619.43	1674.00
619.78	1670.67
620.12	1666.62
620.47	1663.52
620.82	1659.36
621.16	1654.88
621.51	1651.69
621.85	1648.05
622.20	1644.33
622.55	1639.02
622.89	1636.07
623.24	1632.45
623.59	1627.93
623.93	1623.52
624.28	1619.83
624.62	1618.21
624.97	1615.38
625.32	1611.45
625.66	1607.33
626.01	1603.07
626.35	1599.12
626.70	1594.29
627.04	1591.14
627.39	1586.29
627.73	1582.76
628.08	1579.67
628.43	1575.88
628.77	1570.95
629.12	1567.60
629.46	1564.21
629.81	1560.69
630.15	1556.29
630.50	1550.69
630.84	1545.74
631.19	1540.31
631.53	1533.98
631.88	1525.55
632.22	1518.67
632.57	1514.26
632.91	1509.31
633.26	1505.43
633.60	1500.50
633.95	1495.00
634.29	1488.43
634.64	1484.17
634.98	1478.24
635.32	1473.79
635.67	1470.76
636.01	1466.33
636.36	1461.24
636.70	1456.33
637.05	1451.74
637.39	1446.71
637.73	1442.38
638.08	1438.33
638.42	1433.93
638.77	1430.02
639.11	1426.00
639.45	1421.07
639.80	1415.48
640.14	1409.50
640.49	1404.10
640.83	1398.62
641.17	1394.19
641.52	1388.93
641.86	1383.40
642.20	1379.10
642.55	1372.60
642.89	1365.81
643.23	1360.05
643.58	1355.29
643.92	1348.71
644.26	1341.48
644.61	1335.90
644.95	1330.67
645.29	1323.83
645.64	1318.02
645.98	1312.69
646.32	1306.81
646.66	1300.45
647.01	1294.33
647.35	1289.74
647.69	1283.50
648.04	1278.19
648.38	1271.95
648.72	1266.33
649.06	1260.05
649.41	1252.90
649.75	1246.05
650.09	1239.48
650.43	1232.50
650.78	1225.00
651.12	1218.93
651.46	1213.38
651.80	1207.05
652.14	1200.62
652.49	1195.26
652.83	1188.71
653.17	1180.88
653.51	1174.12
653.85	1168.17
654.20	1161.83
654.54	1154.55
654.88	1147.38
655.22	1141.17
655.56	1134.93
655.90	1127.79
656.25	1121.38
656.59	1115.98
656.93	1109.83
657.27	1104.26
657.61	1097.86
657.95	1092.48
658.29	1085.81
658.64	1079.88
658.98	1072.93
659.32	1065.55
659.66	1058.33
660.00	1052.48
660.34	1046.21
660.68	1039.98
661.02	1033.43
661.36	1026.81
661.70	1021.52
662.05	1015.45
662.39	1009.07
662.73	1003.00
663.07	998.36
663.41	992.71
663.75	985.69
664.09	980.12
664.43	973.31
664.77	967.43
665.11	960.29
665.45	955.07
665.79	949.14
666.13	943.00
666.47	937.36
666.81	931.00
667.15	924.55
667.49	919.31
667.83	914.81
668.17	909.40
668.51	904.36
668.85	897.86
669.19	893.76
669.53	887.74
669.87	881.60
670.21	874.90
670.55	868.19
670.89	863.10
671.23	856.81
671.57	851.05
671.91	845.86
672.25	841.38
672.58	836.45
672.92	830.86
673.26	825.76
673.60	820.50
673.94	815.83
674.28	810.76
674.62	806.19
674.96	800.00
675.30	794.90
675.64	789.60
675.97	784.98
676.31	779.52
676.65	774.21
676.99	770.29
677.33	764.95
677.67	761.29
678.01	756.10
678.34	751.48
678.68	746.83
679.02	741.48
679.36	736.17
679.70	730.55
680.04	725.00
680.37	719.93
680.71	715.36
681.05	710.76
681.39	705.93
681.73	700.50
682.06	695.67
682.40	691.21
682.74	686.98
683.08	682.81
683.42	677.21
683.75	672.60
684.09	667.29
684.43	662.98
684.77	657.60
685.10	653.02
685.44	648.90
685.78	644.31
686.12	639.88
686.45	635.07
686.79	630.36
687.13	627.05
687.46	622.88
687.80	618.71
688.14	614.21
688.48	610.19
688.81	606.50
689.15	603.26
689.49	598.62
689.82	594.12
690.16	588.60
690.50	585.02
690.83	580.88
691.17	576.33
691.51	572.76
691.84	569.12
692.18	565.00
692.52	561.12
692.85	557.76
693.19	554.67
693.52	550.98
693.86	547.31
694.20	543.07
694.53	539.69
694.87	535.81
695.21	531.83
695.54	527.93
695.88	523.33
696.21	518.36
696.55	514.81
696.88	511.19
697.22	508.29
697.56	504.93
697.89	501.62
698.23	498.40
698.56	494.55
698.90	491.29
699.23	487.67
699.57	484.24
699.90	480.38
700.24	477.07
700.58	474.00
700.91	471.14
701.25	469.93
701.58	467.57
701.92	464.93
702.25	462.50
702.59	459.14
702.92	456.76
703.26	454.29
703.59	451.26
703.93	450.12
704.26	447.57
704.60	444.76
704.93	441.69
705.26	438.74
705.60	436.21
705.93	432.76
706.27	430.83
706.60	428.26
706.94	426.60
707.27	423.52
707.61	420.71
707.94	417.79
708.27	413.43
708.61	410.14
708.94	407.60
709.28	405.02
709.61	402.71
709.94	400.40
710.28	398.12
710.61	396.33
710.95	392.26
711.28	391.17
711.61	388.81
711.95	387.29
712.28	385.26
712.61	383.05
712.95	382.26
713.28	380.90
713.61	378.55
713.95	375.64
714.28	373.71
714.61	371.88
714.95	369.81
715.28	367.60
715.61	365.43
715.95	363.40
716.28	361.52
716.61	360.14
716.95	357.88
717.28	356.10
717.61	354.21
717.94	352.26
718.28	348.93
718.61	347.31
718.94	345.07
719.27	343.10
719.61	341.64
719.94	339.52
720.27	336.86
720.60	335.14
720.94	333.71
721.27	332.24
721.60	331.10
721.93	330.10
722.27	329.45
722.60	328.26
722.93	326.57
723.26	325.17
723.59	323.26
723.93	322.43
724.26	321.43
724.59	319.76
724.92	319.02
725.25	318.67
725.59	317.21
725.92	316.36
726.25	315.62
726.58	314.43
726.91	313.10
727.24	312.40
727.57	311.31
727.91	309.90
728.24	308.76
728.57	307.00
728.90	305.90
729.23	303.98
729.56	304.12
729.89	303.24
730.22	302.00
730.55	301.12
730.89	300.00
731.22	298.62
731.55	297.48
731.88	296.45
732.21	294.90
732.54	293.67
732.87	292.50
733.20	291.69
733.53	290.67
733.86	289.81
734.19	288.38
734.52	287.98
734.85	288.55
735.18	287.64
735.51	287.74
735.84	287.14
736.17	287.12
736.50	284.90
736.83	286.50
737.16	285.90
737.49	285.31
737.82	284.29
738.15	283.86
738.48	283.05
738.81	282.10
739.14	281.33
739.47	280.76
739.80	280.02
740.13	279.14
740.46	278.17
740.79	276.98
741.12	276.29
741.45	275.26
741.78	273.31
742.11	273.33
742.44	272.29
742.77	271.50
743.10	270.43
743.43	269.95
743.75	267.07
744.08	268.90
744.41	267.88
744.74	267.12
745.07	266.02
745.40	265.83
745.73	266.10
746.06	265.50
746.39	265.19
746.71	264.40
747.04	263.50
747.37	263.12
747.70	263.05
748.03	262.48
748.36	262.02
748.68	261.62
749.01	260.12
749.34	259.38
749.67	258.93
750.00	258.52
750.33	259.43
750.65	259.12
750.98	256.05
751.31	255.62
751.64	255.14
751.97	255.93
752.29	255.33
752.62	253.76
752.95	253.26
753.28	252.31
753.60	251.95
753.93	252.07
754.26	251.26
754.59	250.38
754.91	250.00
755.24	249.50
755.57	249.00
755.90	248.62
756.22	247.93
756.55	247.14
756.88	246.48
757.20	244.86
757.53	243.76
757.86	243.21
758.19	243.07
758.51	242.79
758.84	241.00
759.17	240.48
759.49	240.31
759.82	240.64
760.15	240.71
760.47	240.24
760.80	239.40
761.13	239.60
761.45	239.05
761.78	238.55
762.11	238.29
762.43	237.69
762.76	237.60
763.08	237.79
763.41	237.74
763.74	237.38
764.06	236.60
764.39	236.57
764.71	236.33
765.04	235.71
765.37	235.10
765.69	235.05
766.02	234.74
766.34	234.21
766.67	233.43
767.00	233.29
767.32	234.05
767.65	234.86
767.97	234.48
768.30	234.55
768.62	234.43
768.95	233.88
769.27	233.71
769.60	233.74
769.92	233.14
770.25	232.31
770.57	231.93
770.90	232.10
771.22	231.36
771.55	231.10
771.87	231.00
772.20	230.90
772.52	232.26
772.85	234.60
773.17	234.60
773.50	234.07
773.82	233.79
774.15	232.76
774.47	231.40
774.80	231.05
775.12	230.76
775.45	230.48
775.77	230.38
776.09	230.57
776.42	230.07
776.74	230.60
777.07	230.57
777.39	230.50
777.72	230.12
778.04	230.48
778.36	230.14
778.69	230.07
779.01	230.02
779.33	228.33
779.66	226.00
779.98	225.62
780.31	225.86
780.63	226.55
780.95	226.74
781.28	226.64
781.60	226.33
781.92	225.95
782.25	225.83
782.57	225.90
782.89	225.33
783.22	225.10
783.54	224.21
783.86	224.21
784.19	224.07
784.51	224.55
784.83	224.19
785.16	224.38
785.48	224.14
785.80	224.17
786.12	224.31
786.45	223.83
786.77	223.95
787.09	223.71
787.42	222.74
787.74	222.48
788.06	222.19
788.38	222.00
788.71	221.83
789.03	221.71
789.35	221.64
789.67	221.33
789.99	221.67
790.32	221.50
790.64	221.93
790.96	223.48
791.28	222.50
791.61	222.26
791.93	222.21
792.25	221.93
792.57	223.17
792.89	222.52
793.21	222.93
793.54	222.74
793.86	222.48
794.18	222.52
794.50	222.17
794.82	222.50
795.14	222.69
795.47	223.29
795.79	223.36
796.11	223.02
796.43	222.90
796.75	222.79
797.07	222.79
797.39	222.38
797.71	220.79
798.04	221.17
798.36	221.36
798.68	221.02
799.00	221.31
799.32	220.31
799.64	220.67
799.96	220.50
800.28	220.57
800.60	220.45
800.92	220.50
801.24	220.38
801.56	220.43
801.89	220.31
802.21	220.26
802.53	219.86
802.85	220.12
803.17	221.26
803.49	220.79
803.81	220.48
804.13	220.33
804.45	220.17
804.77	220.05
805.09	219.74
805.41	219.52
805.73	219.21
806.05	218.62
806.37	218.57
806.69	218.29
807.01	218.31
807.33	218.24
807.65	217.74
807.97	218.83
808.28	218.45
808.60	218.52
808.92	218.17
809.24	219.64
809.56	219.43
809.88	218.60
810.20	218.83
810.52	219.43
810.84	219.10
811.16	218.90
811.48	218.88
811.80	219.79
812.12	220.00
812.43	220.40
812.75	220.60
813.07	220.21
813.39	220.36
813.71	219.95
814.03	219.90
814.35	219.71
814.67	218.71
814.98	218.45
815.30	218.19
815.62	217.86
815.94	216.33
816.26	216.31
816.58	215.86
816.89	215.69
817.21	215.24
817.53	215.29
817.85	215.05
818.17	215.05
818.48	214.33
818.80	214.71
819.12	214.38
819.44	214.17
819.76	214.00
820.07	213.93
820.39	213.95
820.71	214.10
821.03	214.21
821.34	214.12
821.66	214.55
821.98	214.90
822.30	214.64
822.61	215.93
822.93	215.69
823.25	215.55
823.57	215.29
823.88	215.48
824.20	215.60
824.52	216.10
824.83	215.88
825.15	215.50
825.47	215.50
825.79	215.57
826.10	215.43
826.42	215.36
826.74	215.71
827.05	215.64
827.37	215.79
827.69	215.57
828.00	215.69
828.32	215.62
828.64	215.17
828.95	216.21
829.27	215.60
829.58	215.81
829.90	216.29
830.22	216.45
830.53	216.07
830.85	215.67
831.17	215.31
831.48	215.21
831.80	215.38
832.11	214.81
832.43	214.67
832.75	214.43
833.06	215.71
833.38	214.88
833.69	214.90
834.01	214.98
834.32	214.86
834.64	214.55
834.96	214.48
835.27	214.57
835.59	214.17
835.90	213.52
836.22	213.12
836.53	212.83
836.85	212.64
837.16	214.74
837.48	214.86
837.79	215.33
838.11	215.38
838.42	215.21
838.74	215.62
839.05	215.40
839.37	215.45
839.68	214.19
840.00	214.10
840.31	214.17
840.63	213.76
840.94	213.86
841.26	213.57
841.57	213.33
841.88	213.45
842.20	213.02
842.51	212.95
842.83	213.00
843.14	214.52
843.46	214.64
843.77	213.50
844.08	213.38
844.40	212.71
844.71	212.48
845.03	212.52
845.34	212.21
845.65	212.17
845.97	212.45
846.28	212.62
846.60	212.86
846.91	212.57
847.22	212.57
847.54	212.95
847.85	213.19
848.16	213.19
848.48	212.83
848.79	213.64
849.10	213.86
849.42	214.26
849.73	212.52
850.04	212.43
850.36	211.62
850.67	212.17
850.98	212.40
851.30	212.69
851.61	212.71
851.92	212.86
852.23	213.52
852.55	213.31
852.86	213.29
853.17	213.62
853.49	214.24
853.80	214.64
854.11	214.95
854.42	215.38
854.74	215.19
855.05	215.19
855.36	214.14
855.67	214.43
855.99	214.19
856.30	216.86
856.61	216.79
856.92	216.83
857.23	216.50
857.55	216.26
857.86	216.05
858.17	216.07
858.48	215.67
858.79	215.21
859.11	215.60
859.42	215.57
859.73	215.24
860.04	215.14
860.35	214.48
860.66	213.71
860.98	213.48
861.29	213.76
861.60	213.86
861.91	214.40
862.22	213.98
862.53	213.60
862.84	211.19
863.16	211.79
863.47	211.43
863.78	211.31
864.09	211.48
864.40	211.67
864.71	211.81
865.02	212.07
865.33	211.69
865.64	211.40
865.95	211.43
866.27	212.57
866.58	212.17
866.89	212.60
867.20	212.50
867.51	212.33
867.82	212.19
868.13	212.69
868.44	212.19
868.75	212.67
869.06	212.81
869.37	212.69
869.68	212.00
869.99	212.40
870.30	212.74
870.61	212.88
870.92	212.88
871.23	212.69
871.54	213.21
871.85	214.05
872.16	214.26
872.47	213.86
872.78	212.74
873.09	213.21
873.40	212.88
873.71	212.95
874.02	212.98
874.33	212.95
874.64	212.45
874.95	212.93
875.26	212.38
875.56	212.50
875.87	212.60
876.18	212.50
876.49	214.29
876.80	214.02
877.11	213.76
877.42	213.64
877.73	213.79
878.04	213.24
878.35	213.10
878.66	213.10
878.96	213.38
879.27	213.12
879.58	213.02
879.89	212.93
880.20	213.60
880.51	213.62
880.82	213.71
881.12	213.95
881.43	213.38
881.74	213.02
882.05	212.79
882.36	212.76
882.67	213.17
882.97	211.26
883.28	211.17
883.59	211.00
883.90	211.38
884.21	211.69
884.51	211.57
884.82	211.33
885.13	211.14
885.44	210.95
885.74	211.17
886.05	210.90
886.36	210.95
886.67	210.21
886.98	211.17
887.28	211.36
887.59	211.24
887.90	211.43
888.20	211.55
888.51	212.40
888.82	211.98
889.13	212.21
889.43	213.62
889.74	213.38
890.05	213.31
890.35	212.76
890.66	212.36
890.97	212.24
891.28	211.93
891.58	212.10
891.89	212.17
892.20	212.17
892.50	212.17
892.81	212.17
893.12	212.17
893.42	211.24
893.73	211.14
894.04	211.21
894.34	211.36
894.65	211.40
894.95	210.90
895.26	211.40
895.57	212.12
895.87	210.24
896.18	210.55
896.48	210.90
896.79	211.24
897.10	211.40
897.40	211.52
897.71	211.83
898.01	211.57
898.32	211.79
898.63	211.74
898.93	211.83
899.24	211.76
899.54	211.79
899.85	211.57
900.15	211.48
900.46	211.31
900.76	211.55
901.07	211.71
901.38	211.69
901.68	211.79
901.99	210.52
902.29	211.24
902.60	211.38
902.90	211.12
903.21	210.98
903.51	211.02
903.82	211.38
904.12	211.38
904.43	211.55
904.73	211.45
905.03	211.55
905.34	213.43
905.64	213.45
905.95	213.48
906.25	213.48
906.56	213.36
906.86	213.50
907.17	213.60
907.47	213.67
907.77	213.33
908.08	212.90
908.38	213.17
908.69	213.21
908.99	213.45
909.30	213.60
909.60	213.60
909.90	213.71
910.21	213.36
910.51	213.00
910.81	213.12
911.12	213.31
911.42	213.33
911.73	211.17
912.03	211.33
912.33	211.69
912.64	211.76
912.94	211.83
913.24	211.43
913.55	210.90
913.85	210.74
914.15	211.33
914.46	211.64
914.76	211.24
915.06	210.98
915.37	210.50
915.67	210.26
915.97	210.38
916.27	209.71
916.58	209.81
916.88	209.79
917.18	209.69
917.49	211.00
917.79	210.74
918.09	211.14
918.39	211.69
918.70	211.55
919.00	211.74
919.30	212.57
919.60	212.64
919.91	212.62
920.21	212.60
920.51	211.95
920.81	211.90
921.12	212.36
921.42	212.12
921.72	212.45
922.02	212.69
922.32	212.83
922.63	212.98
922.93	213.71
923.23	213.83
923.53	213.69
923.83	212.31
924.13	212.79
924.44	212.67
924.74	212.98
925.04	213.50
925.34	213.52
925.64	212.76
925.94	212.69
926.24	213.76
926.55	213.64
926.85	214.07
927.15	213.95
927.45	214.12
927.75	214.17
928.05	214.05
928.35	214.02
928.65	214.33
928.95	214.52
929.26	213.79
929.56	214.29
929.86	214.57
930.16	214.60
930.46	214.48
930.76	214.43
931.06	213.52
931.36	212.95
931.66	213.33
931.96	213.45
932.26	213.67
932.56	212.93
932.86	213.10
933.16	213.10
933.46	213.02
933.76	212.60
934.06	213.26
934.36	214.02
934.66	213.95
934.96	213.79
935.26	214.12
935.56	214.64
935.86	214.05
936.16	213.60
936.46	213.64
936.76	213.31
937.06	213.17
937.36	213.33
937.66	213.55
937.96	213.33
938.26	212.86
938.56	212.71
938.86	212.81
939.16	213.33
939.46	213.71
939.76	213.83
940.06	213.83
940.35	213.17
940.65	211.93
940.95	212.07
941.25	211.62
941.55	210.98
941.85	210.71
942.15	211.17
942.45	211.81
942.75	211.50
943.04	211.74
943.34	212.00
943.64	211.74
943.94	211.36
944.24	211.21
944.54	211.50
944.84	211.40
945.13	211.05
945.43	210.62
945.73	210.17
946.03	210.12
946.33	209.93
946.62	209.76
946.92	210.05
947.22	210.40
947.52	210.31
947.82	210.69
948.11	210.40
948.41	209.95
948.71	209.40
949.01	209.50
949.31	209.26
949.60	209.40
949.90	209.57
950.20	209.45
950.50	209.52
950.79	209.38
951.09	209.71
951.39	209.76
951.69	209.64
951.98	210.07
952.28	210.07
952.58	210.10
952.87	210.31
953.17	210.50
953.47	210.14
953.76	210.07
954.06	209.86
954.36	209.55
954.66	209.67
954.95	210.21
955.25	210.33
955.55	210.48
955.84	210.00
956.14	210.26
956.44	210.48
956.73	210.07
957.03	210.17
957.32	210.31
957.62	210.45
957.92	210.71
958.21	210.52
958.51	213.00
958.81	213.33
959.10	213.48
959.40	213.76
959.69	213.83
959.99	214.36
960.29	214.43
960.58	214.55
960.88	215.21
961.17	214.98
961.47	215.24
961.76	215.19
962.06	215.55
962.36	215.12
962.65	215.36
962.95	215.55
963.24	215.50
963.54	215.62
963.83	215.81
964.13	215.88
964.42	215.36
964.72	213.64
965.01	213.95
965.31	213.86
965.60	213.57
965.90	214.76
966.19	214.36
966.49	214.64
966.78	214.62
967.08	214.43
967.37	214.57
967.67	214.07
967.96	214.21
968.26	214.10
968.55	214.40
968.85	214.26
969.14	214.17
969.43	214.00
969.73	213.64
970.02	213.10
970.32	212.83
970.61	212.81
970.91	211.93
971.20	211.36
971.49	211.31
971.79	211.36
972.08	209.86
972.38	210.10
972.67	209.79
972.96	210.07
973.26	209.81
973.55	210.36
973.85	210.33
974.14	210.21
974.43	210.33
974.73	210.07
975.02	209.90
975.31	209.98
975.61	210.10
975.90	209.93
976.19	209.95
976.49	210.17
976.78	210.45
977.07	210.52
977.37	210.57
977.66	210.55
977.95	210.24
978.24	210.55
978.54	210.90
978.83	210.69
979.12	210.64
979.42	210.40
979.71	209.83
980.00	209.98
980.29	210.29
980.59	209.98
980.88	210.55
981.17	210.38
981.46	210.43
981.76	210.26
982.05	210.83
982.34	211.19
982.63	211.12
982.93	210.95
983.22	211.67
983.51	211.71
983.80	212.21
984.09	212.36
984.39	212.10
984.68	211.76
984.97	211.98
985.26	211.67
985.55	212.07
985.85	211.50
986.14	211.88
986.43	212.02
986.72	211.98
987.01	211.36
987.30	211.40
987.59	211.07
987.89	211.29
988.18	210.69
988.47	210.40
988.76	210.31
989.05	210.29
989.34	209.71
989.63	210.43
989.92	209.83
990.22	209.74
990.51	209.52
990.80	209.43
991.09	209.71
991.38	210.05
991.67	209.69
991.96	209.71
992.25	209.48
992.54	208.81
992.83	208.90
993.12	208.86
993.41	208.98
993.70	209.95
993.99	210.19
994.28	210.40
994.58	210.64
994.87	210.45
995.16	210.43
995.45	210.64
995.74	209.86
996.03	210.21
996.32	210.31
996.61	211.00
996.90	210.90
997.19	210.48
997.48	210.52
997.77	210.52
998.06	210.60
998.34	210.52
998.63	210.74
998.92	210.90
999.21	211.07
999.50	211.12
999.79	210.50
1000.08	210.50
1000.37	210.55
1000.66	210.31
1000.95	210.71
1001.24	210.67
1001.53	210.79
1001.82	210.62
1002.11	210.31
1002.40	210.64
1002.68	210.90
1002.97	212.36
1003.26	212.29
1003.55	211.90
1003.84	212.00
1004.13	212.76
1004.42	212.69
1004.71	212.71
1004.99	212.45
1005.28	213.29
1005.57	213.21
1005.86	213.00
1006.15	212.83
1006.44	212.74
1006.72	213.10
1007.01	212.86
1007.30	212.95
1007.59	212.74
1007.88	212.86
1008.17	212.90
1008.45	212.57
1008.74	211.83
1009.03	210.83
1009.32	211.00
1009.60	210.98
1009.89	210.64
1010.18	209.88
1010.47	209.76
1010.76	209.67
1011.04	209.69
1011.33	209.55
1011.62	209.81
1011.91	209.90
1012.19	210.17
1012.48	210.07
1012.77	209.83
1013.05	210.67
1013.34	210.79
1013.63	210.48
1013.92	210.52
1014.20	210.43
1014.49	210.52
1014.78	210.88
1015.06	210.02
1015.35	209.95
1015.64	210.24
1015.92	210.57
1016.21	210.67
1016.50	210.74
1016.78	210.86
1017.07	211.12
1017.36	210.62
1017.64	210.31
1017.93	210.52
1018.22	210.24
1018.50	210.14
1018.79	210.02
1019.08	209.14
1019.36	209.36
1019.65	209.38
1019.93	210.14
1020.22	210.45
1020.51	211.64
1020.79	211.26
1021.08	209.00
1021.36	205.50
1021.65	207.50
1021.94	210.00
1022.22	214.50
1022.51	207.50
1022.79	223.50
1023.08	213.00
1023.36	237.00
1023.65	205.00
>>>>>End Processed Spectral Data<<<<<
