SpectraSuite Data File
++++++++++++++++++++++++++++++++++++
Date: Tue Apr 02 18:42:10 EDT 2013
User: group
Dark Spectrum Present: No
Reference Spectrum Present: No
Number of Sampled Component Spectra: 1
Spectrometers: USB2E7196
Integration Time (usec): 580000 (USB2E7196)
Spectra Averaged: 2 (USB2E7196)
Boxcar Smoothing: 10 (USB2E7196)
Correct for Electrical Dark: No (USB2E7196)
Strobe/Lamp Enabled: No (USB2E7196)
Correct for Detector Non-linearity: No (USB2E7196)
Correct for Stray Light: No (USB2E7196)
Number of Pixels in Processed Spectrum: 2048
>>>>>Begin Processed Spectral Data<<<<<
339.09	0.00
339.48	196.00
339.86	197.00
340.24	197.00
340.63	198.50
341.01	233.00
341.39	200.50
341.78	206.50
342.16	208.00
342.54	206.00
342.93	198.31
343.31	208.12
343.69	208.64
344.07	208.98
344.46	209.71
344.84	210.19
345.22	208.95
345.60	209.57
345.99	209.88
346.37	209.98
346.75	210.19
347.13	210.17
347.52	210.38
347.90	210.90
348.28	210.95
348.66	211.69
349.05	211.12
349.43	211.31
349.81	211.43
350.19	211.50
350.57	211.62
350.96	212.05
351.34	212.36
351.72	212.43
352.10	212.67
352.48	212.45
352.87	212.19
353.25	212.19
353.63	211.90
354.01	211.88
354.39	211.88
354.77	211.74
355.15	212.14
355.54	211.95
355.92	211.36
356.30	211.50
356.68	212.40
357.06	212.38
357.44	212.19
357.82	212.19
358.20	213.00
358.58	213.07
358.97	212.81
359.35	213.26
359.73	213.62
360.11	213.76
360.49	214.02
360.87	214.33
361.25	214.90
361.63	215.74
362.01	215.83
362.39	215.98
362.77	216.45
363.15	216.40
363.53	216.50
363.91	216.76
364.29	216.79
364.67	214.95
365.05	215.26
365.43	215.43
365.81	215.64
366.19	216.05
366.57	216.79
366.95	216.71
367.33	216.10
367.71	215.98
368.09	216.33
368.47	216.29
368.85	216.21
369.23	216.55
369.61	215.81
369.99	216.48
370.37	216.67
370.75	217.52
371.13	217.05
371.51	216.79
371.89	217.10
372.27	217.12
372.65	217.33
373.03	217.12
373.41	217.07
373.78	216.95
374.16	215.81
374.54	215.19
374.92	215.43
375.30	215.64
375.68	215.40
376.06	215.38
376.44	215.43
376.82	215.48
377.19	215.12
377.57	214.76
377.95	214.05
378.33	213.95
378.71	212.55
379.09	213.05
379.47	213.21
379.84	212.81
380.22	212.60
380.60	212.17
380.98	212.07
381.36	211.88
381.73	211.67
382.11	212.12
382.49	211.95
382.87	211.38
383.25	211.21
383.62	213.50
384.00	213.07
384.38	212.90
384.76	213.52
385.13	214.48
385.51	215.05
385.89	214.64
386.27	214.57
386.64	214.95
387.02	214.71
387.40	214.55
387.78	214.71
388.15	214.86
388.53	215.00
388.91	214.95
389.29	214.98
389.66	214.98
390.04	214.76
390.42	215.05
390.79	215.24
391.17	215.19
391.55	213.07
391.92	213.07
392.30	213.48
392.68	213.10
393.05	212.67
393.43	212.43
393.81	212.93
394.18	212.55
394.56	212.40
394.94	212.83
395.31	212.74
395.69	213.48
396.06	213.81
396.44	213.98
396.82	213.98
397.19	215.17
397.57	215.33
397.95	215.79
398.32	215.48
398.70	215.67
399.07	216.07
399.45	216.02
399.82	216.02
400.20	215.62
400.58	215.45
400.95	214.67
401.33	215.24
401.70	216.31
402.08	216.76
402.45	217.07
402.83	217.69
403.20	218.02
403.58	217.71
403.95	218.21
404.33	218.64
404.71	219.31
405.08	220.60
405.46	220.90
405.83	221.14
406.21	221.24
406.58	221.76
406.96	222.14
407.33	222.64
407.70	223.45
408.08	225.76
408.45	226.83
408.83	228.31
409.20	228.64
409.58	228.45
409.95	229.55
410.33	230.50
410.70	230.50
411.08	231.88
411.45	233.07
411.82	233.88
412.20	235.24
412.57	237.33
412.95	236.71
413.32	238.64
413.69	239.81
414.07	241.76
414.44	243.45
414.82	245.57
415.19	248.00
415.56	250.07
415.94	251.14
416.31	253.98
416.68	256.36
417.06	259.55
417.43	262.98
417.81	266.40
418.18	270.05
418.55	274.14
418.93	278.17
419.30	282.14
419.67	286.50
420.04	291.10
420.42	295.45
420.79	302.69
421.16	308.21
421.54	315.24
421.91	321.36
422.28	327.98
422.66	334.60
423.03	342.71
423.40	349.88
423.77	356.90
424.15	363.93
424.52	372.02
424.89	380.81
425.26	388.69
425.64	396.48
426.01	404.86
426.38	414.02
426.75	423.62
427.13	433.31
427.50	443.02
427.87	453.17
428.24	462.98
428.61	471.21
428.99	482.38
429.36	493.10
429.73	504.76
430.10	516.00
430.47	527.79
430.85	538.05
431.22	550.36
431.59	565.74
431.96	578.88
432.33	592.93
432.70	606.74
433.08	622.76
433.45	638.45
433.82	654.07
434.19	671.21
434.56	688.31
434.93	704.05
435.30	720.43
435.68	738.52
436.05	756.07
436.42	773.29
436.79	789.57
437.16	806.81
437.53	825.02
437.90	843.21
438.27	861.17
438.64	880.05
439.01	897.86
439.38	911.57
439.75	926.86
440.13	943.45
440.50	959.19
440.87	973.17
441.24	985.83
441.61	1000.62
441.98	1011.74
442.35	1024.00
442.72	1036.81
443.09	1050.29
443.46	1057.60
443.83	1062.79
444.20	1067.79
444.57	1074.31
444.94	1077.71
445.31	1080.83
445.68	1087.52
446.05	1088.95
446.42	1088.05
446.79	1086.95
447.16	1085.81
447.53	1084.71
447.90	1078.98
448.27	1072.83
448.64	1063.79
449.01	1058.21
449.37	1046.90
449.74	1035.52
450.11	1023.88
450.48	1009.00
450.85	992.88
451.22	980.26
451.59	968.67
451.96	957.07
452.33	941.05
452.70	927.05
453.07	910.19
453.43	889.50
453.80	873.17
454.17	856.81
454.54	840.52
454.91	823.31
455.28	806.67
455.65	791.31
456.02	779.79
456.38	766.40
456.75	750.55
457.12	736.95
457.49	723.86
457.86	708.93
458.23	699.50
458.59	688.07
458.96	675.88
459.33	664.81
459.70	654.17
460.07	645.71
460.43	635.45
460.80	626.52
461.17	618.83
461.54	609.88
461.91	601.33
462.27	593.60
462.64	586.79
463.01	579.40
463.38	572.93
463.74	561.90
464.11	555.43
464.48	549.60
464.85	543.10
465.21	538.79
465.58	534.07
465.95	526.86
466.32	521.50
466.68	516.19
467.05	510.90
467.42	506.12
467.78	500.29
468.15	494.98
468.52	491.19
468.88	485.79
469.25	481.29
469.62	478.43
469.98	474.57
470.35	470.93
470.72	467.26
471.08	462.40
471.45	459.57
471.82	456.36
472.18	452.76
472.55	450.62
472.92	446.62
473.28	443.69
473.65	441.21
474.02	438.26
474.38	436.36
474.75	434.38
475.11	431.50
475.48	430.05
475.85	428.86
476.21	426.55
476.58	425.21
476.94	424.12
477.31	422.48
477.67	421.05
478.04	419.74
478.41	418.93
478.77	420.31
479.14	418.95
479.50	418.38
479.87	418.19
480.23	417.45
480.60	417.31
480.96	416.83
481.33	417.55
481.69	417.40
482.06	417.36
482.42	417.81
482.79	418.26
483.15	418.36
483.52	419.31
483.88	419.98
484.25	420.57
484.61	421.36
484.98	421.93
485.34	424.07
485.71	425.74
486.07	427.05
486.44	426.86
486.80	428.52
487.17	430.14
487.53	432.45
487.90	434.76
488.26	437.93
488.62	440.76
488.99	442.24
489.35	445.38
489.72	448.24
490.08	450.93
490.44	453.81
490.81	457.17
491.17	459.88
491.54	463.52
491.90	467.29
492.26	471.12
492.63	475.45
492.99	478.29
493.36	482.36
493.72	486.71
494.08	490.81
494.45	495.98
494.81	501.26
495.17	505.90
495.54	511.45
495.90	515.69
496.26	520.55
496.63	526.31
496.99	531.38
497.35	536.98
497.72	543.52
498.08	549.67
498.44	555.88
498.80	562.90
499.17	569.10
499.53	575.21
499.89	582.26
500.26	588.52
500.62	595.21
500.98	602.60
501.34	609.71
501.71	617.48
502.07	623.74
502.43	630.36
502.79	637.79
503.16	644.57
503.52	651.95
503.88	659.33
504.24	666.48
504.60	674.40
504.97	682.45
505.33	689.05
505.69	697.86
506.05	705.19
506.41	712.38
506.78	719.90
507.14	727.74
507.50	735.02
507.86	743.52
508.22	751.52
508.59	758.79
508.95	766.79
509.31	775.71
509.67	783.81
510.03	791.14
510.39	798.57
510.75	806.64
511.12	814.74
511.48	822.62
511.84	830.98
512.20	838.74
512.56	846.60
512.92	854.95
513.28	862.24
513.64	869.88
514.00	877.90
514.37	885.88
514.73	894.05
515.09	901.67
515.45	908.55
515.81	915.76
516.17	922.98
516.53	929.38
516.89	934.64
517.25	942.12
517.61	949.79
517.97	956.57
518.33	962.64
518.69	969.43
519.05	976.02
519.41	982.83
519.77	990.50
520.13	995.38
520.49	1000.95
520.85	1006.86
521.21	1013.93
521.57	1019.07
521.93	1024.00
522.29	1029.38
522.65	1034.12
523.01	1039.67
523.37	1044.86
523.73	1049.98
524.09	1055.07
524.45	1060.31
524.81	1064.93
525.17	1070.33
525.53	1075.00
525.89	1080.02
526.25	1084.33
526.61	1088.88
526.97	1092.57
527.33	1096.29
527.68	1103.02
528.04	1107.95
528.40	1112.21
528.76	1116.00
529.12	1120.98
529.48	1126.90
529.84	1130.74
530.20	1135.74
530.56	1139.98
530.91	1144.95
531.27	1149.24
531.63	1154.29
531.99	1157.98
532.35	1162.12
532.71	1165.79
533.07	1170.19
533.42	1176.93
533.78	1181.55
534.14	1186.26
534.50	1190.12
534.86	1194.36
535.21	1197.31
535.57	1202.07
535.93	1206.10
536.29	1210.36
536.65	1213.83
537.00	1216.74
537.36	1220.98
537.72	1224.40
538.08	1228.29
538.44	1231.02
538.79	1235.57
539.15	1238.17
539.51	1242.19
539.87	1245.57
540.22	1249.57
540.58	1252.76
540.94	1254.02
541.29	1256.79
541.65	1258.45
542.01	1262.00
542.37	1264.93
542.72	1266.55
543.08	1268.55
543.44	1272.12
543.79	1273.88
544.15	1276.90
544.51	1280.33
544.87	1282.95
545.22	1286.12
545.58	1288.40
545.94	1291.45
546.29	1294.14
546.65	1297.52
547.01	1300.17
547.36	1302.64
547.72	1305.10
548.07	1308.19
548.43	1310.88
548.79	1313.21
549.14	1316.90
549.50	1320.10
549.86	1322.69
550.21	1326.86
550.57	1330.14
550.92	1331.98
551.28	1335.76
551.64	1338.43
551.99	1340.86
552.35	1344.05
552.70	1347.26
553.06	1350.55
553.41	1353.90
553.77	1358.26
554.13	1361.69
554.48	1365.98
554.84	1371.31
555.19	1375.17
555.55	1380.10
555.90	1383.90
556.26	1388.69
556.61	1393.12
556.97	1396.07
557.32	1399.60
557.68	1402.67
558.03	1406.81
558.39	1411.12
558.74	1414.52
559.10	1418.76
559.45	1423.12
559.81	1426.81
560.16	1430.52
560.52	1435.79
560.87	1441.14
561.23	1444.33
561.58	1450.71
561.94	1453.81
562.29	1457.81
562.64	1462.17
563.00	1465.90
563.35	1471.14
563.71	1476.60
564.06	1481.19
564.42	1487.31
564.77	1493.40
565.12	1500.24
565.48	1507.74
565.83	1514.00
566.19	1520.33
566.54	1526.45
566.89	1532.48
567.25	1539.86
567.60	1547.55
567.96	1554.67
568.31	1560.83
568.66	1566.79
569.02	1570.67
569.37	1576.88
569.72	1582.52
570.08	1587.31
570.43	1591.95
570.78	1596.71
571.14	1601.81
571.49	1607.07
571.84	1612.43
572.20	1616.74
572.55	1621.81
572.90	1624.81
573.26	1628.88
573.61	1632.90
573.96	1637.36
574.31	1641.76
574.67	1644.88
575.02	1648.33
575.37	1649.21
575.72	1652.12
576.08	1655.48
576.43	1658.79
576.78	1662.95
577.13	1666.02
577.49	1669.69
577.84	1674.19
578.19	1678.45
578.54	1681.98
578.90	1686.02
579.25	1689.12
579.60	1691.83
579.95	1694.02
580.30	1697.40
580.66	1701.57
581.01	1704.90
581.36	1708.00
581.71	1710.93
582.06	1715.19
582.42	1718.12
582.77	1722.19
583.12	1725.21
583.47	1728.24
583.82	1731.52
584.17	1733.31
584.53	1736.79
584.88	1739.79
585.23	1742.21
585.58	1743.48
585.93	1744.88
586.28	1746.74
586.63	1749.40
586.98	1752.40
587.34	1755.29
587.69	1756.07
588.04	1757.19
588.39	1758.83
588.74	1759.21
589.09	1761.10
589.44	1760.05
589.79	1761.55
590.14	1762.62
590.49	1763.36
590.84	1764.40
591.19	1765.81
591.54	1766.98
591.89	1767.36
592.25	1770.26
592.60	1770.79
592.95	1772.05
593.30	1773.33
593.65	1773.57
594.00	1772.24
594.35	1778.31
594.70	1777.69
595.05	1778.40
595.40	1777.93
595.75	1779.24
596.10	1780.93
596.45	1782.00
596.80	1783.69
597.15	1782.98
597.50	1784.07
597.85	1785.29
598.19	1785.36
598.54	1784.93
598.89	1785.69
599.24	1786.29
599.59	1784.79
599.94	1784.60
600.29	1784.45
600.64	1783.95
600.99	1784.52
601.34	1785.88
601.69	1779.83
602.04	1779.36
602.39	1778.98
602.74	1779.48
603.08	1778.29
603.43	1778.45
603.78	1776.69
604.13	1775.71
604.48	1775.19
604.83	1774.52
605.18	1773.83
605.53	1772.31
605.87	1770.86
606.22	1769.14
606.57	1767.29
606.92	1765.69
607.27	1764.60
607.62	1763.57
607.96	1762.31
608.31	1761.05
608.66	1759.14
609.01	1758.29
609.36	1757.40
609.70	1755.05
610.05	1752.29
610.40	1749.60
610.75	1746.79
611.10	1744.48
611.44	1741.86
611.79	1739.45
612.14	1735.74
612.49	1731.52
612.83	1729.29
613.18	1726.38
613.53	1723.31
613.88	1719.17
614.22	1715.38
614.57	1711.50
614.92	1707.29
615.27	1703.21
615.61	1697.55
615.96	1692.90
616.31	1688.57
616.65	1685.19
617.00	1681.12
617.35	1677.62
617.70	1674.29
618.04	1669.12
618.39	1664.05
618.74	1659.81
619.08	1655.21
619.43	1651.10
619.78	1647.74
620.12	1644.00
620.47	1640.24
620.82	1635.76
621.16	1631.40
621.51	1628.07
621.85	1622.88
622.20	1617.43
622.55	1612.26
622.89	1608.90
623.24	1606.19
623.59	1601.60
623.93	1595.93
624.28	1592.33
624.62	1589.67
624.97	1586.21
625.32	1582.74
625.66	1579.10
626.01	1574.62
626.35	1570.90
626.70	1566.95
627.04	1562.52
627.39	1557.64
627.73	1554.69
628.08	1551.17
628.43	1547.10
628.77	1542.14
629.12	1538.62
629.46	1535.10
629.81	1531.95
630.15	1527.31
630.50	1521.81
630.84	1516.00
631.19	1511.62
631.53	1506.71
631.88	1499.24
632.22	1492.38
632.57	1487.17
632.91	1481.29
633.26	1477.12
633.60	1471.36
633.95	1465.14
634.29	1459.52
634.64	1454.45
634.98	1447.29
635.32	1441.90
635.67	1438.05
636.01	1432.98
636.36	1427.62
636.70	1423.83
637.05	1417.69
637.39	1412.95
637.73	1408.55
638.08	1405.31
638.42	1400.31
638.77	1395.83
639.11	1390.76
639.45	1385.76
639.80	1379.88
640.14	1375.29
640.49	1368.90
640.83	1362.67
641.17	1357.29
641.52	1351.12
641.86	1345.19
642.20	1340.62
642.55	1333.74
642.89	1326.52
643.23	1320.10
643.58	1314.62
643.92	1307.29
644.26	1301.86
644.61	1295.62
644.95	1287.93
645.29	1279.62
645.64	1273.62
645.98	1266.67
646.32	1260.83
646.66	1254.88
647.01	1248.64
647.35	1243.00
647.69	1237.31
648.04	1231.71
648.38	1226.21
648.72	1220.36
649.06	1213.83
649.41	1207.05
649.75	1200.45
650.09	1194.86
650.43	1188.38
650.78	1181.50
651.12	1175.26
651.46	1168.50
651.80	1161.60
652.14	1155.93
652.49	1150.88
652.83	1144.86
653.17	1138.14
653.51	1131.33
653.85	1124.81
654.20	1118.36
654.54	1110.60
654.88	1103.14
655.22	1097.33
655.56	1090.57
655.90	1084.12
656.25	1077.90
656.59	1071.38
656.93	1065.88
657.27	1060.00
657.61	1054.17
657.95	1048.12
658.29	1041.55
658.64	1035.67
658.98	1029.02
659.32	1021.90
659.66	1014.83
660.00	1007.83
660.34	1001.40
660.68	994.98
661.02	988.17
661.36	981.93
661.70	975.88
662.05	970.93
662.39	964.81
662.73	959.64
663.07	955.00
663.41	948.50
663.75	942.24
664.09	936.17
664.43	929.10
664.77	922.98
665.11	916.71
665.45	911.62
665.79	905.83
666.13	900.21
666.47	894.88
666.81	889.17
667.15	883.05
667.49	877.64
667.83	872.98
668.17	867.86
668.51	862.93
668.85	858.12
669.19	852.88
669.53	846.50
669.87	840.29
670.21	833.64
670.55	828.02
670.89	823.43
671.23	818.38
671.57	813.38
671.91	807.76
672.25	802.55
672.58	797.50
672.92	791.79
673.26	786.71
673.60	781.45
673.94	776.71
674.28	772.21
674.62	767.88
674.96	762.26
675.30	757.76
675.64	752.90
675.97	748.00
676.31	742.57
676.65	738.38
676.99	734.57
677.33	729.55
677.67	725.43
678.01	720.43
678.34	715.62
678.68	711.60
679.02	707.24
679.36	702.95
679.70	697.90
680.04	693.55
680.37	688.57
680.71	684.43
681.05	680.12
681.39	675.40
681.73	670.62
682.06	666.55
682.40	661.67
682.74	656.95
683.08	652.95
683.42	648.33
683.75	644.07
684.09	638.52
684.43	634.40
684.77	630.17
685.10	625.50
685.44	621.55
685.78	617.02
686.12	612.55
686.45	607.69
686.79	602.88
687.13	598.62
687.46	594.62
687.80	590.74
688.14	586.21
688.48	582.02
688.81	577.79
689.15	573.88
689.49	570.00
689.82	566.12
690.16	561.26
690.50	556.93
690.83	552.38
691.17	548.43
691.51	544.67
691.84	540.81
692.18	537.10
692.52	533.02
692.85	529.45
693.19	526.79
693.52	523.38
693.86	519.86
694.20	516.55
694.53	513.45
694.87	509.55
695.21	505.95
695.54	502.36
695.88	498.38
696.21	494.36
696.55	490.95
696.88	487.33
697.22	484.07
697.56	481.69
697.89	478.45
698.23	475.50
698.56	472.05
698.90	468.71
699.23	465.45
699.57	462.45
699.90	458.64
700.24	454.55
700.58	451.31
700.91	448.76
701.25	447.19
701.58	444.98
701.92	442.50
702.25	439.95
702.59	436.90
702.92	434.26
703.26	431.45
703.59	428.69
703.93	427.98
704.26	425.31
704.60	422.29
704.93	419.57
705.26	416.57
705.60	414.52
705.93	411.81
706.27	409.29
706.60	407.45
706.94	406.29
707.27	403.71
707.61	401.76
707.94	399.00
708.27	395.05
708.61	391.98
708.94	389.57
709.28	387.52
709.61	385.57
709.94	383.62
710.28	381.74
710.61	379.60
710.95	375.26
711.28	374.83
711.61	372.76
711.95	371.45
712.28	369.71
712.61	367.48
712.95	366.43
713.28	365.48
713.61	362.81
713.95	360.19
714.28	358.74
714.61	357.14
714.95	355.52
715.28	353.52
715.61	351.83
715.95	350.05
716.28	347.86
716.61	346.26
716.95	344.33
717.28	342.71
717.61	341.26
717.94	340.14
718.28	337.12
718.61	335.36
718.94	333.21
719.27	331.62
719.61	329.88
719.94	328.05
720.27	325.93
720.60	324.40
720.94	322.52
721.27	321.02
721.60	319.76
721.93	318.21
722.27	317.64
722.60	316.40
722.93	315.02
723.26	314.12
723.59	312.64
723.93	311.50
724.26	310.19
724.59	308.79
724.92	307.81
725.25	306.88
725.59	305.74
725.92	305.05
726.25	304.07
726.58	303.21
726.91	301.95
727.24	301.12
727.57	300.19
727.91	299.21
728.24	298.40
728.57	297.05
728.90	296.67
729.23	294.88
729.56	294.79
729.89	293.95
730.22	292.71
730.55	291.74
730.89	291.07
731.22	290.00
731.55	289.02
731.88	287.88
732.21	286.93
732.54	286.05
732.87	284.98
733.20	283.76
733.53	283.05
733.86	282.52
734.19	281.21
734.52	280.64
734.85	281.31
735.18	280.45
735.51	280.55
735.84	279.64
736.17	279.45
736.50	277.74
736.83	279.17
737.16	278.52
737.49	277.88
737.82	277.05
738.15	276.81
738.48	276.12
738.81	275.55
739.14	274.52
739.47	273.71
739.80	272.86
740.13	272.62
740.46	271.45
740.79	270.62
741.12	269.81
741.45	268.93
741.78	266.81
742.11	266.71
742.44	265.48
742.77	264.83
743.10	264.21
743.43	263.48
743.75	260.55
744.08	262.74
744.41	262.07
744.74	261.10
745.07	260.00
745.40	259.52
745.73	259.57
746.06	259.38
746.39	259.29
746.71	258.60
747.04	257.76
747.37	257.33
747.70	256.93
748.03	256.93
748.36	256.83
748.68	256.67
749.01	255.55
749.34	254.88
749.67	254.69
750.00	254.29
750.33	255.33
750.65	255.36
750.98	252.24
751.31	251.93
751.64	251.86
751.97	252.64
752.29	252.19
752.62	250.95
752.95	250.48
753.28	249.71
753.60	249.45
753.93	249.50
754.26	249.12
754.59	248.07
754.91	247.33
755.24	246.55
755.57	245.93
755.90	245.52
756.22	245.14
756.55	244.57
756.88	243.83
757.20	241.95
757.53	241.00
757.86	240.79
758.19	240.57
758.51	240.40
758.84	239.00
759.17	238.69
759.49	238.45
759.82	238.71
760.15	238.55
760.47	238.45
760.80	237.79
761.13	237.95
761.45	237.60
761.78	237.24
762.11	237.17
762.43	236.81
762.76	236.43
763.08	236.38
763.41	235.95
763.74	235.79
764.06	235.57
764.39	235.29
764.71	234.74
765.04	234.29
765.37	233.67
765.69	233.36
766.02	233.00
766.34	232.55
766.67	231.76
767.00	232.07
767.32	232.74
767.65	233.79
767.97	233.24
768.30	233.38
768.62	233.29
768.95	232.90
769.27	232.76
769.60	233.00
769.92	232.24
770.25	231.88
770.57	231.24
770.90	231.05
771.22	230.76
771.55	230.83
771.87	230.64
772.20	230.36
772.52	231.76
772.85	233.93
773.17	233.90
773.50	233.55
773.82	232.79
774.15	231.67
774.47	230.21
774.80	229.98
775.12	229.71
775.45	229.50
775.77	229.33
776.09	229.31
776.42	229.17
776.74	229.67
777.07	229.43
777.39	229.43
777.72	229.19
778.04	229.29
778.36	228.79
778.69	228.76
779.01	229.00
779.33	227.07
779.66	224.74
779.98	224.45
780.31	224.50
780.63	225.36
780.95	225.43
781.28	225.45
781.60	225.36
781.92	225.24
782.25	224.93
782.57	224.88
782.89	224.43
783.22	224.07
783.54	223.40
783.86	223.52
784.19	223.43
784.51	223.86
784.83	223.50
785.16	223.33
785.48	223.26
785.80	223.07
786.12	223.29
786.45	223.00
786.77	223.10
787.09	222.86
787.42	221.76
787.74	221.81
788.06	221.55
788.38	221.10
788.71	220.90
789.03	221.02
789.35	220.98
789.67	220.81
789.99	220.64
790.32	220.50
790.64	220.48
790.96	222.19
791.28	221.40
791.61	221.17
791.93	221.50
792.25	221.14
792.57	222.45
792.89	221.93
793.21	222.17
793.54	221.98
793.86	221.95
794.18	222.24
794.50	221.69
794.82	221.88
795.14	222.26
795.47	222.55
795.79	222.52
796.11	222.12
796.43	222.14
796.75	222.31
797.07	222.48
797.39	222.43
797.71	220.71
798.04	220.81
798.36	221.02
798.68	220.81
799.00	221.05
799.32	219.76
799.64	220.38
799.96	220.38
800.28	220.60
800.60	220.19
800.92	220.33
801.24	220.26
801.56	220.21
801.89	220.02
802.21	219.86
802.53	219.64
802.85	220.24
803.17	220.83
803.49	220.33
803.81	220.17
804.13	219.83
804.45	219.76
804.77	219.90
805.09	219.83
805.41	219.55
805.73	219.21
806.05	218.81
806.37	218.45
806.69	218.29
807.01	218.00
807.33	218.38
807.65	217.57
807.97	218.36
808.28	217.88
808.60	217.79
808.92	217.81
809.24	219.00
809.56	218.52
809.88	218.02
810.20	218.26
810.52	218.67
810.84	218.57
811.16	218.33
811.48	217.88
811.80	218.55
812.12	218.57
812.43	218.95
812.75	219.33
813.07	219.02
813.39	219.00
813.71	218.76
814.03	218.10
814.35	218.40
814.67	217.67
814.98	217.71
815.30	217.67
815.62	217.14
815.94	215.57
816.26	215.62
816.58	215.10
816.89	215.07
817.21	214.60
817.53	214.52
817.85	214.67
818.17	214.93
818.48	213.90
818.80	214.26
819.12	213.81
819.44	213.40
819.76	213.33
820.07	213.31
820.39	213.02
820.71	213.50
821.03	213.38
821.34	213.36
821.66	213.71
821.98	213.81
822.30	213.90
822.61	215.36
822.93	215.12
823.25	215.26
823.57	215.07
823.88	215.36
824.20	215.45
824.52	215.67
824.83	215.52
825.15	215.69
825.47	215.50
825.79	215.55
826.10	215.12
826.42	215.17
826.74	215.31
827.05	215.74
827.37	215.86
827.69	215.55
828.00	215.62
828.32	215.48
828.64	215.14
828.95	216.26
829.27	215.50
829.58	215.50
829.90	216.02
830.22	216.36
830.53	216.00
830.85	215.62
831.17	215.12
831.48	215.33
831.80	215.43
832.11	215.33
832.43	215.48
832.75	215.74
833.06	217.02
833.38	216.38
833.69	216.17
834.01	216.36
834.32	216.38
834.64	216.26
834.96	216.21
835.27	216.40
835.59	215.71
835.90	215.21
836.22	215.26
836.53	214.64
836.85	214.17
837.16	215.90
837.48	216.00
837.79	216.76
838.11	216.71
838.42	216.55
838.74	216.79
839.05	216.29
839.37	216.07
839.68	214.67
840.00	214.83
840.31	215.14
840.63	214.55
840.94	214.26
841.26	214.02
841.57	213.98
841.88	214.21
842.20	213.60
842.51	213.45
842.83	213.57
843.14	215.36
843.46	215.62
843.77	214.83
844.08	214.74
844.40	214.07
844.71	213.81
845.03	213.55
845.34	213.26
845.65	213.24
845.97	213.48
846.28	213.48
846.60	213.67
846.91	213.24
847.22	213.38
847.54	214.10
847.85	213.98
848.16	213.74
848.48	213.14
848.79	214.26
849.10	214.64
849.42	214.64
849.73	212.93
850.04	212.62
850.36	211.88
850.67	212.48
850.98	212.45
851.30	212.83
851.61	212.81
851.92	212.90
852.23	213.62
852.55	213.60
852.86	213.90
853.17	213.90
853.49	214.24
853.80	214.79
854.11	214.88
854.42	215.38
854.74	215.26
855.05	215.64
855.36	214.24
855.67	214.31
855.99	214.29
856.30	216.71
856.61	216.74
856.92	216.74
857.23	216.43
857.55	216.31
857.86	216.14
858.17	216.64
858.48	216.38
858.79	216.19
859.11	216.26
859.42	216.17
859.73	215.64
860.04	215.60
860.35	214.74
860.66	214.02
860.98	213.71
861.29	213.79
861.60	213.50
861.91	214.38
862.22	213.90
862.53	213.29
862.84	210.74
863.16	211.29
863.47	210.86
863.78	210.81
864.09	210.98
864.40	210.93
864.71	210.93
865.02	211.24
865.33	210.95
865.64	210.76
865.95	210.74
866.27	212.43
866.58	212.12
866.89	212.48
867.20	212.48
867.51	212.24
867.82	212.17
868.13	212.86
868.44	212.19
868.75	212.50
869.06	213.00
869.37	213.26
869.68	212.48
869.99	212.81
870.30	212.88
870.61	213.12
870.92	212.79
871.23	212.48
871.54	212.69
871.85	213.05
872.16	213.36
872.47	213.17
872.78	211.76
873.09	212.12
873.40	211.88
873.71	212.17
874.02	212.43
874.33	212.52
874.64	212.12
874.95	212.69
875.26	212.50
875.56	212.36
875.87	212.21
876.18	212.21
876.49	214.10
876.80	214.14
877.11	213.69
877.42	214.00
877.73	214.05
878.04	213.64
878.35	213.55
878.66	213.40
878.96	213.33
879.27	213.31
879.58	213.17
879.89	213.10
880.20	213.57
880.51	213.38
880.82	213.64
881.12	213.67
881.43	213.24
881.74	212.98
882.05	212.88
882.36	213.14
882.67	213.24
882.97	211.29
883.28	211.02
883.59	211.24
883.90	211.33
884.21	211.74
884.51	211.48
884.82	211.31
885.13	211.33
885.44	211.24
885.74	211.05
886.05	211.07
886.36	211.24
886.67	210.57
886.98	211.64
887.28	211.69
887.59	211.60
887.90	211.64
888.20	211.57
888.51	212.10
888.82	211.57
889.13	212.00
889.43	213.60
889.74	213.40
890.05	213.24
890.35	212.95
890.66	212.55
890.97	212.52
891.28	212.24
891.58	212.33
891.89	212.64
892.20	212.76
892.50	212.71
892.81	212.40
893.12	212.33
893.42	211.26
893.73	211.10
894.04	211.19
894.34	211.26
894.65	211.38
894.95	210.98
895.26	211.29
895.57	211.93
895.87	210.17
896.18	210.69
896.48	210.67
896.79	210.83
897.10	211.31
897.40	211.40
897.71	211.88
898.01	211.76
898.32	212.05
898.63	212.00
898.93	212.02
899.24	212.24
899.54	212.31
899.85	212.38
900.15	212.24
900.46	211.95
900.76	212.14
901.07	212.12
901.38	212.02
901.68	212.36
901.99	211.40
902.29	211.40
902.60	211.48
902.90	211.17
903.21	211.00
903.51	210.67
903.82	211.21
904.12	211.26
904.43	211.45
904.73	211.14
905.03	211.29
905.34	213.31
905.64	213.19
905.95	213.07
906.25	212.95
906.56	213.14
906.86	213.38
907.17	213.33
907.47	213.52
907.77	213.57
908.08	212.81
908.38	213.07
908.69	213.55
908.99	213.57
909.30	213.90
909.60	214.05
909.90	214.12
910.21	213.38
910.51	213.05
910.81	212.88
911.12	212.90
911.42	212.76
911.73	210.38
912.03	210.57
912.33	210.98
912.64	211.12
912.94	211.02
913.24	210.74
913.55	210.36
913.85	210.02
914.15	210.50
914.46	211.07
914.76	210.83
915.06	210.48
915.37	210.14
915.67	210.29
915.97	210.19
916.27	209.71
916.58	209.86
916.88	209.55
917.18	209.40
917.49	210.74
917.79	210.74
918.09	211.29
918.39	211.81
918.70	211.86
919.00	212.10
919.30	212.79
919.60	212.52
919.91	212.64
920.21	212.76
920.51	212.45
920.81	212.19
921.12	212.45
921.42	212.31
921.72	212.60
922.02	212.52
922.32	212.71
922.63	212.86
922.93	213.95
923.23	214.21
923.53	214.19
923.83	212.76
924.13	212.95
924.44	212.81
924.74	213.33
925.04	213.62
925.34	213.40
925.64	212.62
925.94	212.86
926.24	213.90
926.55	213.86
926.85	213.83
927.15	214.02
927.45	213.98
927.75	214.07
928.05	214.02
928.35	213.88
928.65	214.38
928.95	214.71
929.26	214.10
929.56	214.48
929.86	214.79
930.16	214.79
930.46	214.79
930.76	214.71
931.06	213.38
931.36	212.98
931.66	213.43
931.96	213.50
932.26	213.43
932.56	212.55
932.86	212.71
933.16	212.57
933.46	212.40
933.76	212.38
934.06	213.00
934.36	213.67
934.66	213.74
934.96	213.31
935.26	213.38
935.56	213.55
935.86	213.12
936.16	212.76
936.46	212.71
936.76	212.69
937.06	212.69
937.36	212.98
937.66	213.14
937.96	212.76
938.26	212.62
938.56	212.64
938.86	212.74
939.16	213.19
939.46	213.62
939.76	213.74
940.06	213.60
940.35	212.83
940.65	211.64
940.95	211.83
941.25	211.45
941.55	211.21
941.85	211.10
942.15	211.36
942.45	212.07
942.75	211.95
943.04	211.74
943.34	212.05
943.64	211.95
943.94	211.43
944.24	211.57
944.54	211.60
944.84	211.69
945.13	211.67
945.43	211.33
945.73	211.17
946.03	210.98
946.33	210.76
946.62	210.74
946.92	211.07
947.22	211.21
947.52	211.31
947.82	211.40
948.11	211.12
948.41	210.76
948.71	209.90
949.01	210.07
949.31	210.10
949.60	210.07
949.90	210.48
950.20	210.67
950.50	210.69
950.79	210.69
951.09	211.05
951.39	210.83
951.69	210.52
951.98	210.88
952.28	211.17
952.58	211.26
952.87	211.50
953.17	211.71
953.47	211.29
953.76	211.48
954.06	211.21
954.36	210.83
954.66	210.83
954.95	211.52
955.25	211.60
955.55	211.88
955.84	211.40
956.14	211.33
956.44	211.21
956.73	210.79
957.03	210.86
957.32	210.50
957.62	210.43
957.92	211.12
958.21	210.88
958.51	212.93
958.81	213.12
959.10	213.07
959.40	213.43
959.69	213.62
959.99	214.05
960.29	214.24
960.58	214.50
960.88	215.40
961.17	215.10
961.47	215.40
961.76	215.17
962.06	215.83
962.36	215.62
962.65	215.74
962.95	215.90
963.24	215.81
963.54	216.19
963.83	216.50
964.13	216.26
964.42	215.69
964.72	214.05
965.01	214.02
965.31	213.86
965.60	213.31
965.90	214.57
966.19	213.60
966.49	213.62
966.78	213.33
967.08	213.24
967.37	213.38
967.67	212.95
967.96	213.31
968.26	212.86
968.55	213.10
968.85	213.05
969.14	212.93
969.43	212.83
969.73	212.45
970.02	212.45
970.32	212.10
970.61	212.17
970.91	211.67
971.20	211.62
971.49	211.62
971.79	211.95
972.08	210.62
972.38	211.05
972.67	210.98
972.96	211.38
973.26	210.69
973.55	211.26
973.85	211.26
974.14	211.07
974.43	211.33
974.73	210.95
975.02	210.81
975.31	210.67
975.61	210.67
975.90	210.52
976.19	210.26
976.49	210.52
976.78	210.90
977.07	210.64
977.37	210.60
977.66	210.67
977.95	210.21
978.24	210.31
978.54	210.57
978.83	210.40
979.12	210.17
979.42	210.17
979.71	209.57
980.00	209.24
980.29	209.31
980.59	208.86
980.88	209.48
981.17	209.55
981.46	209.81
981.76	209.88
982.05	210.52
982.34	210.45
982.63	210.29
982.93	210.17
983.22	210.95
983.51	211.17
983.80	211.52
984.09	211.93
984.39	211.43
984.68	211.33
984.97	211.40
985.26	211.29
985.55	211.52
985.85	211.26
986.14	211.76
986.43	212.17
986.72	212.12
987.01	211.60
987.30	211.55
987.59	211.48
987.89	211.62
988.18	210.93
988.47	210.81
988.76	210.81
989.05	210.57
989.34	210.26
989.63	210.64
989.92	210.17
990.22	209.95
990.51	210.26
990.80	210.12
991.09	210.31
991.38	210.60
991.67	210.40
991.96	210.21
992.25	210.52
992.54	209.74
992.83	209.79
993.12	209.81
993.41	210.14
993.70	210.98
993.99	211.38
994.28	211.74
994.58	212.05
994.87	211.90
995.16	211.98
995.45	211.67
995.74	210.98
996.03	211.43
996.32	211.38
996.61	211.83
996.90	211.76
997.19	211.74
997.48	211.76
997.77	211.69
998.06	212.05
998.34	211.57
998.63	211.93
998.92	212.07
999.21	212.38
999.50	212.26
999.79	211.36
1000.08	210.98
1000.37	210.95
1000.66	210.76
1000.95	211.33
1001.24	211.45
1001.53	211.57
1001.82	211.52
1002.11	211.31
1002.40	211.67
1002.68	212.00
1002.97	213.40
1003.26	213.05
1003.55	212.79
1003.84	212.83
1004.13	213.36
1004.42	213.40
1004.71	213.17
1004.99	212.86
1005.28	213.12
1005.57	213.29
1005.86	213.19
1006.15	213.10
1006.44	212.93
1006.72	212.95
1007.01	212.79
1007.30	212.74
1007.59	212.76
1007.88	212.76
1008.17	212.79
1008.45	212.38
1008.74	211.52
1009.03	210.55
1009.32	210.60
1009.60	210.50
1009.89	210.38
1010.18	209.26
1010.47	209.10
1010.76	209.07
1011.04	209.31
1011.33	209.60
1011.62	209.50
1011.91	209.74
1012.19	209.81
1012.48	209.86
1012.77	210.00
1013.05	210.81
1013.34	210.98
1013.63	210.79
1013.92	211.00
1014.20	210.74
1014.49	210.76
1014.78	211.07
1015.06	210.52
1015.35	210.52
1015.64	210.86
1015.92	211.17
1016.21	211.64
1016.50	211.62
1016.78	211.86
1017.07	211.79
1017.36	211.17
1017.64	210.90
1017.93	211.05
1018.22	210.93
1018.50	210.93
1018.79	210.71
1019.08	209.57
1019.36	209.57
1019.65	209.40
1019.93	209.83
1020.22	210.31
1020.51	211.52
1020.79	211.33
1021.08	208.00
1021.36	209.00
1021.65	207.00
1021.94	208.00
1022.22	212.50
1022.51	205.00
1022.79	220.00
1023.08	216.00
1023.36	237.00
1023.65	208.00
>>>>>End Processed Spectral Data<<<<<
