SpectraSuite Data File
++++++++++++++++++++++++++++++++++++
Date: Tue Apr 02 18:43:13 EDT 2013
User: group
Dark Spectrum Present: No
Reference Spectrum Present: No
Number of Sampled Component Spectra: 1
Spectrometers: USB2E7196
Integration Time (usec): 580000 (USB2E7196)
Spectra Averaged: 2 (USB2E7196)
Boxcar Smoothing: 10 (USB2E7196)
Correct for Electrical Dark: No (USB2E7196)
Strobe/Lamp Enabled: No (USB2E7196)
Correct for Detector Non-linearity: No (USB2E7196)
Correct for Stray Light: No (USB2E7196)
Number of Pixels in Processed Spectrum: 2048
>>>>>Begin Processed Spectral Data<<<<<
339.09	0.00
339.48	197.00
339.86	196.50
340.24	197.50
340.63	198.50
341.01	237.50
341.39	202.00
341.78	207.00
342.16	207.00
342.54	206.50
342.93	198.36
343.31	208.31
343.69	208.79
344.07	209.40
344.46	210.05
344.84	210.69
345.22	209.21
345.60	209.64
345.99	209.60
346.37	209.81
346.75	209.86
347.13	209.86
347.52	209.90
347.90	210.45
348.28	210.48
348.66	211.12
349.05	210.26
349.43	210.48
349.81	210.74
350.19	210.62
350.57	210.60
350.96	210.52
351.34	210.64
351.72	210.55
352.10	210.40
352.48	210.38
352.87	210.31
353.25	210.31
353.63	210.07
354.01	210.26
354.39	210.21
354.77	210.05
355.15	210.60
355.54	210.48
355.92	209.76
356.30	209.67
356.68	210.95
357.06	211.19
357.44	210.76
357.82	210.57
358.20	211.57
358.58	211.67
358.97	212.07
359.35	212.36
359.73	212.81
360.11	212.98
360.49	213.00
360.87	212.79
361.25	213.05
361.63	213.90
362.01	214.14
362.39	213.93
362.77	214.38
363.15	214.10
363.53	214.14
363.91	214.40
364.29	214.57
364.67	212.62
365.05	212.67
365.43	213.05
365.81	213.69
366.19	213.71
366.57	214.40
366.95	214.24
367.33	213.81
367.71	213.74
368.09	213.83
368.47	213.76
368.85	213.90
369.23	214.26
369.61	213.52
369.99	213.95
370.37	214.24
370.75	215.14
371.13	214.88
371.51	214.76
371.89	215.00
372.27	215.05
372.65	215.21
373.03	215.26
373.41	215.05
373.78	214.76
374.16	213.79
374.54	213.31
374.92	212.86
375.30	212.86
375.68	212.71
376.06	212.95
376.44	213.10
376.82	213.10
377.19	213.07
377.57	213.10
377.95	212.43
378.33	212.31
378.71	210.98
379.09	211.29
379.47	211.62
379.84	211.45
380.22	211.33
380.60	210.93
380.98	210.88
381.36	210.74
381.73	210.71
382.11	211.24
382.49	211.43
382.87	211.40
383.25	211.57
383.62	213.90
384.00	213.60
384.38	213.62
384.76	214.10
385.13	214.95
385.51	215.05
385.89	214.95
386.27	215.12
386.64	215.64
387.02	215.40
387.40	215.17
387.78	215.50
388.15	215.48
388.53	215.60
388.91	215.83
389.29	215.62
389.66	215.83
390.04	215.64
390.42	215.86
390.79	216.00
391.17	215.95
391.55	213.62
391.92	213.79
392.30	213.95
392.68	213.60
393.05	213.24
393.43	213.40
393.81	213.55
394.18	213.31
394.56	213.29
394.94	213.86
395.31	213.60
395.69	213.90
396.06	214.17
396.44	214.43
396.82	213.98
397.19	215.36
397.57	214.95
397.95	215.33
398.32	214.81
398.70	214.95
399.07	215.43
399.45	215.40
399.82	215.26
400.20	214.98
400.58	214.76
400.95	213.93
401.33	214.26
401.70	215.64
402.08	215.81
402.45	215.88
402.83	216.33
403.20	216.69
403.58	216.57
403.95	217.17
404.33	217.45
404.71	217.98
405.08	219.12
405.46	219.57
405.83	219.74
406.21	220.14
406.58	220.83
406.96	221.07
407.33	221.79
407.70	222.52
408.08	224.69
408.45	226.00
408.83	227.43
409.20	227.67
409.58	227.45
409.95	228.57
410.33	229.50
410.70	229.83
411.08	231.12
411.45	232.26
411.82	232.76
412.20	234.33
412.57	236.86
412.95	236.64
413.32	238.26
413.69	239.67
414.07	241.24
414.44	243.07
414.82	245.07
415.19	247.55
415.56	249.93
415.94	251.10
416.31	253.81
416.68	256.50
417.06	259.88
417.43	263.21
417.81	266.71
418.18	270.43
418.55	274.31
418.93	278.19
419.30	282.19
419.67	286.88
420.04	291.17
420.42	295.12
420.79	302.24
421.16	307.88
421.54	314.98
421.91	321.52
422.28	327.33
422.66	333.52
423.03	341.02
423.40	347.71
423.77	354.88
424.15	362.24
424.52	370.17
424.89	378.90
425.26	386.48
425.64	394.07
426.01	402.14
426.38	410.90
426.75	420.55
427.13	430.10
427.50	439.71
427.87	449.40
428.24	459.33
428.61	467.36
428.99	478.43
429.36	488.98
429.73	500.19
430.10	511.98
430.47	523.98
430.85	534.50
431.22	547.10
431.59	562.26
431.96	574.83
432.33	588.50
432.70	601.45
433.08	617.71
433.45	633.02
433.82	648.14
434.19	664.93
434.56	681.62
434.93	697.45
435.30	713.17
435.68	731.07
436.05	748.40
436.42	765.76
436.79	781.69
437.16	798.60
437.53	816.43
437.90	834.31
438.27	852.55
438.64	871.31
439.01	888.31
439.38	901.98
439.75	916.93
440.13	933.36
440.50	949.38
440.87	962.10
441.24	975.76
441.61	991.10
441.98	1002.21
442.35	1014.60
442.72	1028.17
443.09	1041.57
443.46	1048.79
443.83	1054.21
444.20	1059.19
444.57	1065.26
444.94	1068.74
445.31	1072.00
445.68	1077.43
446.05	1079.10
446.42	1077.31
446.79	1076.83
447.16	1074.93
447.53	1073.79
447.90	1068.12
448.27	1061.57
448.64	1052.95
449.01	1046.95
449.37	1036.21
449.74	1025.14
450.11	1013.31
450.48	998.07
450.85	982.31
451.22	970.24
451.59	958.64
451.96	946.81
452.33	931.64
452.70	917.76
453.07	900.93
453.43	881.93
453.80	864.29
454.17	848.79
454.54	832.55
454.91	816.24
455.28	799.69
455.65	784.57
456.02	773.57
456.38	760.90
456.75	745.05
457.12	731.14
457.49	718.40
457.86	704.17
458.23	693.88
458.59	682.31
458.96	670.29
459.33	658.60
459.70	647.90
460.07	639.50
460.43	629.48
460.80	620.93
461.17	613.05
461.54	605.31
461.91	597.02
462.27	588.98
462.64	581.74
463.01	574.50
463.38	567.95
463.74	557.00
464.11	550.52
464.48	544.55
464.85	538.43
465.21	534.21
465.58	529.05
465.95	522.26
466.32	517.62
466.68	512.33
467.05	507.76
467.42	502.88
467.78	497.24
468.15	492.07
468.52	488.24
468.88	482.55
469.25	477.90
469.62	474.86
469.98	471.07
470.35	467.81
470.72	464.33
471.08	459.64
471.45	457.26
471.82	454.67
472.18	451.31
472.55	448.60
472.92	444.71
473.28	441.88
473.65	439.14
474.02	436.02
474.38	434.05
474.75	432.12
475.11	429.69
475.48	428.38
475.85	426.98
476.21	425.00
476.58	423.71
476.94	422.81
477.31	421.33
477.67	420.02
478.04	418.64
478.41	417.95
478.77	419.14
479.14	417.45
479.50	416.67
479.87	416.05
480.23	415.62
480.60	415.14
480.96	415.38
481.33	416.24
481.69	416.29
482.06	416.21
482.42	416.52
482.79	417.05
483.15	417.07
483.52	418.05
483.88	418.31
484.25	418.98
484.61	419.69
484.98	420.38
485.34	422.05
485.71	423.88
486.07	425.02
486.44	424.88
486.80	426.83
487.17	427.90
487.53	430.67
487.90	433.26
488.26	436.21
488.62	438.76
488.99	440.88
489.35	443.48
489.72	446.00
490.08	448.98
490.44	451.79
490.81	455.19
491.17	458.10
491.54	461.86
491.90	465.81
492.26	469.05
492.63	472.57
492.99	476.00
493.36	479.93
493.72	484.40
494.08	488.69
494.45	493.33
494.81	498.76
495.17	503.07
495.54	507.79
495.90	512.24
496.26	516.93
496.63	522.29
496.99	527.83
497.35	533.62
497.72	539.19
498.08	545.45
498.44	551.38
498.80	557.88
499.17	564.07
499.53	570.05
499.89	577.12
500.26	583.81
500.62	590.69
500.98	598.12
501.34	605.26
501.71	612.90
502.07	619.79
502.43	626.57
502.79	633.48
503.16	640.24
503.52	647.69
503.88	655.00
504.24	662.50
504.60	670.43
504.97	678.55
505.33	685.95
505.69	693.95
506.05	701.60
506.41	709.36
506.78	717.19
507.14	724.74
507.50	732.26
507.86	740.21
508.22	748.02
508.59	754.95
508.95	762.98
509.31	771.05
509.67	779.33
510.03	787.26
510.39	794.81
510.75	802.67
511.12	810.40
511.48	817.90
511.84	825.05
512.20	832.33
512.56	839.60
512.92	847.67
513.28	855.26
513.64	862.67
514.00	870.02
514.37	877.67
514.73	885.29
515.09	892.60
515.45	899.93
515.81	906.86
516.17	913.07
516.53	919.31
516.89	925.21
517.25	931.38
517.61	938.12
517.97	944.57
518.33	951.26
518.69	957.79
519.05	964.86
519.41	971.26
519.77	978.81
520.13	984.93
520.49	990.55
520.85	996.48
521.21	1002.98
521.57	1008.62
521.93	1013.62
522.29	1019.19
522.65	1024.48
523.01	1029.95
523.37	1035.21
523.73	1041.38
524.09	1046.40
524.45	1051.62
524.81	1056.67
525.17	1061.64
525.53	1066.90
525.89	1071.62
526.25	1076.48
526.61	1080.43
526.97	1085.31
527.33	1088.38
527.68	1094.74
528.04	1099.38
528.40	1102.95
528.76	1107.02
529.12	1111.48
529.48	1115.90
529.84	1120.93
530.20	1125.57
530.56	1129.71
530.91	1133.81
531.27	1137.98
531.63	1142.79
531.99	1146.52
532.35	1150.02
532.71	1153.52
533.07	1157.90
533.42	1164.48
533.78	1168.48
534.14	1173.57
534.50	1176.98
534.86	1182.33
535.21	1184.17
535.57	1189.05
535.93	1192.45
536.29	1197.05
536.65	1200.69
537.00	1204.43
537.36	1207.60
537.72	1210.57
538.08	1214.29
538.44	1217.64
538.79	1221.31
539.15	1223.93
539.51	1228.02
539.87	1232.69
540.22	1236.40
540.58	1239.79
540.94	1240.45
541.29	1243.69
541.65	1245.31
542.01	1248.67
542.37	1250.48
542.72	1253.02
543.08	1254.10
543.44	1257.90
543.79	1258.48
544.15	1261.45
544.51	1264.67
544.87	1266.74
545.22	1270.50
545.58	1273.07
545.94	1275.81
546.29	1278.67
546.65	1281.17
547.01	1283.14
547.36	1285.43
547.72	1287.55
548.07	1291.00
548.43	1293.69
548.79	1294.98
549.14	1298.12
549.50	1301.24
549.86	1303.33
550.21	1306.45
550.57	1309.74
550.92	1311.93
551.28	1315.52
551.64	1318.05
551.99	1320.79
552.35	1323.64
552.70	1326.24
553.06	1329.71
553.41	1332.57
553.77	1337.00
554.13	1341.36
554.48	1345.38
554.84	1349.45
555.19	1353.93
555.55	1357.95
555.90	1361.71
556.26	1365.83
556.61	1369.31
556.97	1372.02
557.32	1376.26
557.68	1380.29
558.03	1383.86
558.39	1387.14
558.74	1391.98
559.10	1396.21
559.45	1400.40
559.81	1404.74
560.16	1408.48
560.52	1412.69
560.87	1418.40
561.23	1421.52
561.58	1426.24
561.94	1430.79
562.29	1434.60
562.64	1439.19
563.00	1442.33
563.35	1447.07
563.71	1453.00
564.06	1458.45
564.42	1464.38
564.77	1470.57
565.12	1476.55
565.48	1484.83
565.83	1492.19
566.19	1497.50
566.54	1503.19
566.89	1508.64
567.25	1516.10
567.60	1523.45
567.96	1531.43
568.31	1538.02
568.66	1544.48
569.02	1549.29
569.37	1554.93
569.72	1560.38
570.08	1564.98
570.43	1570.45
570.78	1576.45
571.14	1582.31
571.49	1587.69
571.84	1593.76
572.20	1597.36
572.55	1602.31
572.90	1604.52
573.26	1608.45
573.61	1613.26
573.96	1617.71
574.31	1622.05
574.67	1624.90
575.02	1627.93
575.37	1629.60
575.72	1632.60
576.08	1636.31
576.43	1640.17
576.78	1643.29
577.13	1647.07
577.49	1651.17
577.84	1655.69
578.19	1658.93
578.54	1662.50
578.90	1666.48
579.25	1669.36
579.60	1673.24
579.95	1676.14
580.30	1680.36
580.66	1684.19
581.01	1687.40
581.36	1690.76
581.71	1694.00
582.06	1698.98
582.42	1703.48
582.77	1705.88
583.12	1708.29
583.47	1711.19
583.82	1714.60
584.17	1718.33
584.53	1722.60
584.88	1726.50
585.23	1729.76
585.58	1732.24
585.93	1733.93
586.28	1736.67
586.63	1739.26
586.98	1742.76
587.34	1746.67
587.69	1748.21
588.04	1751.36
588.39	1753.98
588.74	1754.69
589.09	1756.62
589.44	1756.10
589.79	1756.86
590.14	1759.60
590.49	1760.88
590.84	1761.86
591.19	1763.19
591.54	1764.10
591.89	1764.31
592.25	1766.64
592.60	1766.57
592.95	1768.81
593.30	1771.05
593.65	1770.64
594.00	1770.86
594.35	1777.19
594.70	1776.55
595.05	1777.76
595.40	1777.24
595.75	1777.12
596.10	1779.52
596.45	1780.62
596.80	1783.02
597.15	1783.33
597.50	1783.83
597.85	1785.88
598.19	1786.71
598.54	1787.52
598.89	1788.00
599.24	1789.05
599.59	1788.79
599.94	1789.55
600.29	1789.81
600.64	1789.07
600.99	1789.60
601.34	1790.60
601.69	1784.67
602.04	1784.14
602.39	1783.62
602.74	1784.05
603.08	1784.33
603.43	1784.83
603.78	1784.21
604.13	1783.17
604.48	1782.40
604.83	1781.67
605.18	1780.43
605.53	1780.48
605.87	1779.14
606.22	1777.36
606.57	1776.05
606.92	1773.40
607.27	1772.45
607.62	1770.57
607.96	1769.93
608.31	1769.69
608.66	1769.17
609.01	1766.81
609.36	1766.36
609.70	1765.10
610.05	1761.83
610.40	1760.26
610.75	1757.45
611.10	1756.10
611.44	1753.33
611.79	1750.90
612.14	1748.95
612.49	1745.40
612.83	1741.74
613.18	1739.31
613.53	1737.14
613.88	1733.76
614.22	1730.55
614.57	1726.40
614.92	1722.43
615.27	1718.81
615.61	1714.98
615.96	1710.05
616.31	1706.98
616.65	1703.21
617.00	1700.07
617.35	1697.64
617.70	1693.57
618.04	1688.95
618.39	1684.62
618.74	1681.48
619.08	1677.81
619.43	1673.36
619.78	1670.45
620.12	1667.40
620.47	1662.50
620.82	1658.57
621.16	1654.26
621.51	1651.67
621.85	1647.88
622.20	1643.90
622.55	1639.38
622.89	1635.40
623.24	1632.02
623.59	1628.36
623.93	1624.19
624.28	1619.67
624.62	1616.93
624.97	1613.79
625.32	1610.05
625.66	1606.31
626.01	1601.98
626.35	1598.71
626.70	1594.45
627.04	1591.00
627.39	1586.36
627.73	1584.14
628.08	1580.71
628.43	1576.67
628.77	1571.64
629.12	1567.71
629.46	1565.05
629.81	1561.50
630.15	1556.86
630.50	1552.36
630.84	1547.02
631.19	1541.79
631.53	1537.07
631.88	1529.21
632.22	1522.86
632.57	1518.17
632.91	1512.26
633.26	1507.93
633.60	1502.02
633.95	1497.79
634.29	1492.19
634.64	1487.33
634.98	1480.83
635.32	1476.21
635.67	1472.02
636.01	1467.93
636.36	1462.83
636.70	1458.31
637.05	1452.55
637.39	1448.00
637.73	1443.02
638.08	1439.31
638.42	1435.19
638.77	1430.43
639.11	1427.10
639.45	1421.69
639.80	1416.33
640.14	1411.52
640.49	1405.71
640.83	1400.26
641.17	1394.71
641.52	1389.36
641.86	1384.43
642.20	1380.69
642.55	1373.62
642.89	1368.02
643.23	1362.14
643.58	1357.86
643.92	1350.10
644.26	1344.76
644.61	1339.17
644.95	1332.50
645.29	1326.05
645.64	1319.95
645.98	1314.40
646.32	1308.17
646.66	1302.45
647.01	1295.86
647.35	1290.10
647.69	1283.67
648.04	1278.57
648.38	1272.40
648.72	1265.95
649.06	1258.90
649.41	1252.05
649.75	1246.45
650.09	1239.74
650.43	1232.76
650.78	1225.17
651.12	1219.10
651.46	1212.24
651.80	1204.90
652.14	1199.83
652.49	1194.31
652.83	1187.33
653.17	1179.88
653.51	1173.07
653.85	1167.43
654.20	1161.45
654.54	1154.50
654.88	1147.95
655.22	1141.81
655.56	1135.43
655.90	1129.05
656.25	1122.71
656.59	1116.17
656.93	1109.83
657.27	1104.29
657.61	1098.48
657.95	1092.62
658.29	1087.02
658.64	1082.10
658.98	1075.98
659.32	1067.95
659.66	1060.86
660.00	1055.19
660.34	1049.00
660.68	1042.62
661.02	1035.00
661.36	1028.81
661.70	1023.29
662.05	1017.24
662.39	1010.90
662.73	1005.29
663.07	1000.07
663.41	994.05
663.75	987.33
664.09	981.21
664.43	974.48
664.77	967.74
665.11	960.83
665.45	954.57
665.79	947.83
666.13	941.57
666.47	936.50
666.81	930.36
667.15	923.57
667.49	918.21
667.83	913.69
668.17	908.98
668.51	903.40
668.85	897.45
669.19	892.86
669.53	886.40
669.87	879.95
670.21	873.64
670.55	867.83
670.89	863.40
671.23	858.12
671.57	852.76
671.91	847.40
672.25	842.24
672.58	837.05
672.92	831.10
673.26	826.26
673.60	820.31
673.94	815.45
674.28	810.93
674.62	805.55
674.96	799.55
675.30	794.14
675.64	788.88
675.97	783.79
676.31	778.14
676.65	773.07
676.99	769.55
677.33	764.19
677.67	759.50
678.01	753.79
678.34	748.81
678.68	743.90
679.02	739.05
679.36	734.43
679.70	729.05
680.04	724.14
680.37	719.02
680.71	714.33
681.05	709.50
681.39	704.71
681.73	700.33
682.06	695.36
682.40	690.83
682.74	687.02
683.08	683.45
683.42	678.76
683.75	674.88
684.09	668.93
684.43	664.36
684.77	660.02
685.10	655.76
685.44	650.93
685.78	646.45
686.12	641.93
686.45	637.29
686.79	632.79
687.13	629.02
687.46	624.43
687.80	621.26
688.14	616.69
688.48	612.74
688.81	608.26
689.15	604.93
689.49	600.98
689.82	596.45
690.16	590.83
690.50	586.81
690.83	582.10
691.17	577.76
691.51	573.95
691.84	569.81
692.18	565.67
692.52	561.83
692.85	558.07
693.19	555.36
693.52	552.02
693.86	548.19
694.20	544.40
694.53	541.14
694.87	536.48
695.21	532.48
695.54	528.26
695.88	524.76
696.21	520.26
696.55	516.38
696.88	512.57
697.22	509.55
697.56	506.12
697.89	502.67
698.23	499.88
698.56	496.10
698.90	492.74
699.23	488.98
699.57	486.24
699.90	482.93
700.24	478.62
700.58	474.95
700.91	471.90
701.25	470.40
701.58	467.98
701.92	465.52
702.25	462.67
702.59	459.83
702.92	456.64
703.26	453.93
703.59	451.02
703.93	449.52
704.26	446.90
704.60	443.98
704.93	441.02
705.26	437.81
705.60	435.95
705.93	432.83
706.27	430.76
706.60	428.26
706.94	426.48
707.27	423.69
707.61	421.19
707.94	418.95
708.27	414.86
708.61	411.48
708.94	408.90
709.28	406.76
709.61	404.24
709.94	402.05
710.28	399.98
710.61	397.69
710.95	394.07
711.28	393.36
711.61	391.19
711.95	389.60
712.28	387.45
712.61	384.62
712.95	383.57
713.28	382.33
713.61	380.05
713.95	377.19
714.28	375.31
714.61	373.29
714.95	371.05
715.28	368.88
715.61	366.81
715.95	364.79
716.28	362.86
716.61	361.60
716.95	359.48
717.28	357.29
717.61	355.50
717.94	353.31
718.28	349.74
718.61	347.76
718.94	345.83
719.27	344.00
719.61	342.52
719.94	340.10
720.27	337.40
720.60	335.24
720.94	333.33
721.27	331.93
721.60	330.76
721.93	329.26
722.27	328.48
722.60	327.19
722.93	325.50
723.26	323.93
723.59	321.69
723.93	320.67
724.26	319.62
724.59	318.12
724.92	317.12
725.25	316.31
725.59	314.90
725.92	313.95
726.25	313.19
726.58	312.12
726.91	311.14
727.24	310.24
727.57	309.17
727.91	307.79
728.24	306.93
728.57	305.40
728.90	304.52
729.23	302.64
729.56	302.48
729.89	301.69
730.22	300.76
730.55	299.95
730.89	299.12
731.22	297.86
731.55	296.83
731.88	295.95
732.21	294.83
732.54	293.95
732.87	292.88
733.20	291.74
733.53	290.81
733.86	289.98
734.19	288.76
734.52	288.50
734.85	289.17
735.18	287.98
735.51	287.67
735.84	287.00
736.17	286.90
736.50	285.05
736.83	286.38
737.16	285.62
737.49	284.88
737.82	283.95
738.15	283.52
738.48	282.71
738.81	281.64
739.14	280.36
739.47	279.50
739.80	278.76
740.13	278.31
740.46	277.19
740.79	276.19
741.12	275.60
741.45	274.62
741.78	272.93
742.11	273.17
742.44	272.07
742.77	271.52
743.10	270.38
743.43	269.52
743.75	266.88
744.08	268.81
744.41	267.83
744.74	266.95
745.07	265.81
745.40	265.62
745.73	266.24
746.06	265.88
746.39	265.76
746.71	265.00
747.04	263.95
747.37	263.64
747.70	263.40
748.03	262.90
748.36	262.50
748.68	261.95
749.01	260.40
749.34	259.98
749.67	259.48
750.00	259.38
750.33	260.74
750.65	260.52
750.98	257.45
751.31	257.07
751.64	256.55
751.97	257.50
752.29	256.69
752.62	255.10
752.95	254.43
753.28	253.60
753.60	252.88
753.93	253.12
754.26	252.76
754.59	251.81
754.91	250.95
755.24	250.36
755.57	249.83
755.90	249.31
756.22	248.60
756.55	247.71
756.88	246.83
757.20	245.05
757.53	243.90
757.86	243.60
758.19	243.45
758.51	243.00
758.84	241.38
759.17	241.10
759.49	240.90
759.82	241.67
760.15	241.38
760.47	241.07
760.80	239.95
761.13	239.79
761.45	239.38
761.78	239.38
762.11	239.05
762.43	238.57
762.76	238.48
763.08	238.50
763.41	238.29
763.74	237.98
764.06	237.76
764.39	237.57
764.71	236.98
765.04	236.57
765.37	236.10
765.69	235.98
766.02	235.71
766.34	235.17
766.67	234.21
767.00	234.33
767.32	234.98
767.65	236.07
767.97	235.69
768.30	235.62
768.62	235.05
768.95	234.57
769.27	234.29
769.60	234.29
769.92	233.60
770.25	233.14
770.57	232.67
770.90	232.07
771.22	231.57
771.55	231.52
771.87	231.29
772.20	231.31
772.52	232.81
772.85	234.86
773.17	234.86
773.50	234.17
773.82	233.64
774.15	232.76
774.47	231.02
774.80	230.50
775.12	230.40
775.45	230.50
775.77	230.21
776.09	230.10
776.42	229.95
776.74	230.52
777.07	230.38
777.39	230.36
777.72	230.24
778.04	230.55
778.36	230.31
778.69	230.12
779.01	230.10
779.33	228.00
779.66	225.64
779.98	225.29
780.31	225.55
780.63	226.29
780.95	226.31
781.28	226.64
781.60	226.60
781.92	226.45
782.25	226.17
782.57	226.10
782.89	226.02
783.22	225.36
783.54	224.90
783.86	224.64
784.19	224.31
784.51	224.90
784.83	224.48
785.16	224.36
785.48	224.40
785.80	224.10
786.12	224.36
786.45	224.02
786.77	224.26
787.09	223.93
787.42	223.19
787.74	223.14
788.06	222.98
788.38	222.57
788.71	222.05
789.03	222.02
789.35	222.26
789.67	221.74
789.99	222.10
790.32	221.69
790.64	222.17
790.96	223.67
791.28	222.76
791.61	222.62
791.93	222.62
792.25	222.57
792.57	224.07
792.89	223.71
793.21	224.00
793.54	223.60
793.86	223.50
794.18	223.36
794.50	222.74
794.82	222.36
795.14	222.86
795.47	223.52
795.79	223.55
796.11	223.21
796.43	223.14
796.75	223.05
797.07	223.21
797.39	222.90
797.71	221.36
798.04	221.62
798.36	221.79
798.68	221.86
799.00	222.02
799.32	220.88
799.64	221.19
799.96	220.90
800.28	221.24
800.60	221.19
800.92	221.36
801.24	221.50
801.56	221.64
801.89	221.33
802.21	221.21
802.53	220.81
802.85	221.10
803.17	222.14
803.49	221.48
803.81	221.12
804.13	220.90
804.45	220.88
804.77	220.90
805.09	220.52
805.41	220.17
805.73	219.33
806.05	218.60
806.37	218.29
806.69	218.26
807.01	218.02
807.33	217.88
807.65	216.88
807.97	217.86
808.28	217.60
808.60	217.48
808.92	217.07
809.24	218.50
809.56	218.31
809.88	217.57
810.20	217.93
810.52	218.31
810.84	218.19
811.16	217.67
811.48	217.45
811.80	218.36
812.12	218.24
812.43	218.79
812.75	219.07
813.07	218.86
813.39	218.79
813.71	218.50
814.03	218.33
814.35	218.67
814.67	217.67
814.98	217.67
815.30	217.52
815.62	217.10
815.94	215.55
816.26	215.43
816.58	214.83
816.89	215.05
817.21	214.69
817.53	214.64
817.85	215.12
818.17	215.19
818.48	214.17
818.80	214.71
819.12	214.36
819.44	214.14
819.76	213.95
820.07	214.10
820.39	214.00
820.71	214.19
821.03	214.31
821.34	214.00
821.66	214.19
821.98	214.43
822.30	214.67
822.61	216.02
822.93	215.67
823.25	215.86
823.57	215.45
823.88	215.90
824.20	215.83
824.52	215.79
824.83	215.69
825.15	215.69
825.47	215.52
825.79	215.71
826.10	215.62
826.42	215.57
826.74	215.67
827.05	215.64
827.37	215.86
827.69	215.71
828.00	215.98
828.32	216.14
828.64	215.86
828.95	216.81
829.27	216.21
829.58	216.31
829.90	216.55
830.22	216.76
830.53	216.24
830.85	215.98
831.17	215.83
831.48	215.64
831.80	215.79
832.11	215.48
832.43	215.43
832.75	215.19
833.06	216.55
833.38	216.36
833.69	216.43
834.01	216.38
834.32	216.29
834.64	216.02
834.96	216.21
835.27	216.26
835.59	215.60
835.90	215.00
836.22	214.83
836.53	214.71
836.85	214.40
837.16	216.24
837.48	216.64
837.79	217.17
838.11	217.26
838.42	217.14
838.74	217.26
839.05	217.02
839.37	217.12
839.68	215.76
840.00	215.36
840.31	215.45
840.63	215.21
840.94	215.10
841.26	215.17
841.57	214.76
841.88	215.05
842.20	214.90
842.51	214.55
842.83	214.69
843.14	216.24
843.46	216.33
843.77	215.26
844.08	215.00
844.40	214.40
844.71	214.12
845.03	213.83
845.34	213.79
845.65	213.60
845.97	213.67
846.28	213.74
846.60	213.86
846.91	213.69
847.22	213.71
847.54	213.95
847.85	213.93
848.16	213.79
848.48	213.31
848.79	214.02
849.10	214.50
849.42	214.60
849.73	212.83
850.04	212.67
850.36	212.17
850.67	212.45
850.98	212.52
851.30	212.95
851.61	213.07
851.92	213.12
852.23	213.69
852.55	213.57
852.86	213.79
853.17	214.05
853.49	214.33
853.80	214.62
854.11	214.81
854.42	215.12
854.74	214.98
855.05	215.07
855.36	213.83
855.67	214.02
855.99	214.02
856.30	216.31
856.61	216.10
856.92	215.98
857.23	215.95
857.55	215.83
857.86	215.57
858.17	215.83
858.48	215.69
858.79	215.36
859.11	215.74
859.42	215.50
859.73	215.21
860.04	215.17
860.35	214.60
860.66	213.90
860.98	213.79
861.29	213.86
861.60	213.71
861.91	214.38
862.22	214.21
862.53	214.02
862.84	211.60
863.16	212.45
863.47	212.21
863.78	212.00
864.09	212.07
864.40	212.17
864.71	212.19
865.02	212.24
865.33	212.17
865.64	211.90
865.95	211.88
866.27	213.19
866.58	213.10
866.89	213.31
867.20	213.57
867.51	213.21
867.82	213.40
868.13	214.00
868.44	213.48
868.75	213.64
869.06	213.69
869.37	214.12
869.68	213.24
869.99	213.40
870.30	213.67
870.61	213.88
870.92	213.55
871.23	213.36
871.54	213.67
871.85	213.98
872.16	214.12
872.47	214.14
872.78	212.93
873.09	212.90
873.40	212.71
873.71	212.83
874.02	212.93
874.33	212.55
874.64	211.93
874.95	212.52
875.26	212.14
875.56	211.98
875.87	212.02
876.18	212.02
876.49	213.98
876.80	213.60
877.11	213.12
877.42	213.29
877.73	213.40
878.04	213.00
878.35	213.02
878.66	212.95
878.96	212.90
879.27	212.74
879.58	212.76
879.89	212.71
880.20	213.17
880.51	213.17
880.82	213.40
881.12	213.74
881.43	213.02
881.74	212.88
882.05	213.14
882.36	213.12
882.67	213.48
882.97	211.33
883.28	211.43
883.59	211.52
883.90	211.76
884.21	212.00
884.51	212.02
884.82	211.62
885.13	211.62
885.44	211.67
885.74	211.98
886.05	211.93
886.36	211.98
886.67	211.31
886.98	212.43
887.28	212.33
887.59	212.19
887.90	212.38
888.20	212.17
888.51	212.48
888.82	212.10
889.13	212.19
889.43	213.83
889.74	213.45
890.05	213.40
890.35	213.26
890.66	212.98
890.97	212.71
891.28	212.95
891.58	213.00
891.89	212.88
892.20	212.48
892.50	212.24
892.81	212.43
893.12	212.36
893.42	211.26
893.73	211.43
894.04	211.50
894.34	211.55
894.65	211.64
894.95	211.07
895.26	211.14
895.57	212.05
895.87	210.21
896.18	210.88
896.48	211.07
896.79	211.02
897.10	211.21
897.40	211.52
897.71	211.60
898.01	211.52
898.32	211.81
898.63	211.60
898.93	211.74
899.24	211.60
899.54	211.60
899.85	211.60
900.15	211.55
900.46	211.43
900.76	211.81
901.07	211.93
901.38	212.05
901.68	212.31
901.99	211.12
902.29	211.45
902.60	211.02
902.90	210.69
903.21	210.52
903.51	210.48
903.82	210.76
904.12	210.60
904.43	210.79
904.73	210.57
905.03	211.05
905.34	212.98
905.64	212.90
905.95	212.90
906.25	213.00
906.56	212.98
906.86	212.95
907.17	212.76
907.47	212.69
907.77	212.71
908.08	212.24
908.38	212.48
908.69	212.40
908.99	212.83
909.30	213.24
909.60	213.38
909.90	213.50
910.21	213.02
910.51	212.81
910.81	212.69
911.12	212.95
911.42	212.98
911.73	210.88
912.03	211.00
912.33	211.40
912.64	211.33
912.94	211.29
913.24	211.12
913.55	211.07
913.85	211.00
914.15	211.40
914.46	211.74
914.76	211.55
915.06	211.43
915.37	211.19
915.67	210.95
915.97	210.90
916.27	210.40
916.58	210.38
916.88	210.43
917.18	210.38
917.49	211.93
917.79	211.86
918.09	212.29
918.39	212.83
918.70	212.90
919.00	212.83
919.30	213.62
919.60	213.62
919.91	213.36
920.21	213.52
920.51	212.98
920.81	213.12
921.12	213.60
921.42	213.55
921.72	213.79
922.02	213.98
922.32	214.48
922.63	214.52
922.93	215.69
923.23	215.81
923.53	215.57
923.83	213.95
924.13	214.07
924.44	213.88
924.74	214.24
925.04	214.45
925.34	214.52
925.64	213.79
925.94	213.90
926.24	215.02
926.55	215.00
926.85	215.24
927.15	215.05
927.45	214.86
927.75	215.00
928.05	214.93
928.35	214.69
928.65	214.90
928.95	215.12
929.26	214.14
929.56	214.40
929.86	214.88
930.16	214.98
930.46	214.88
930.76	215.02
931.06	213.79
931.36	213.48
931.66	213.71
931.96	213.81
932.26	213.86
932.56	213.05
932.86	213.07
933.16	212.98
933.46	212.76
933.76	212.40
934.06	212.98
934.36	213.57
934.66	213.52
934.96	212.86
935.26	213.02
935.56	213.45
935.86	213.02
936.16	212.48
936.46	212.02
936.76	211.90
937.06	211.55
937.36	211.83
937.66	211.64
937.96	211.55
938.26	211.24
938.56	211.21
938.86	211.33
939.16	211.76
939.46	211.90
939.76	212.12
940.06	212.48
940.35	211.79
940.65	210.67
940.95	210.81
941.25	210.48
941.55	210.00
941.85	209.67
942.15	210.05
942.45	210.74
942.75	210.74
943.04	210.76
943.34	211.24
943.64	210.93
943.94	210.64
944.24	210.81
944.54	210.98
944.84	210.86
945.13	210.48
945.43	210.02
945.73	209.90
946.03	209.60
946.33	209.14
946.62	209.00
946.92	209.12
947.22	209.29
947.52	209.69
947.82	210.17
948.11	210.10
948.41	209.71
948.71	209.07
949.01	209.17
949.31	208.98
949.60	208.79
949.90	209.31
950.20	209.52
950.50	209.48
950.79	209.21
951.09	209.64
951.39	209.64
951.69	209.64
951.98	210.10
952.28	210.38
952.58	210.50
952.87	210.88
953.17	211.19
953.47	210.83
953.76	210.86
954.06	210.57
954.36	210.29
954.66	210.26
954.95	210.83
955.25	211.24
955.55	211.43
955.84	211.00
956.14	211.26
956.44	211.29
956.73	210.76
957.03	211.00
957.32	210.79
957.62	210.79
957.92	211.17
958.21	211.14
958.51	213.57
958.81	213.88
959.10	213.83
959.40	214.26
959.69	214.50
959.99	214.79
960.29	214.64
960.58	214.67
960.88	215.45
961.17	215.10
961.47	215.29
961.76	214.93
962.06	215.52
962.36	215.14
962.65	215.07
962.95	215.17
963.24	215.07
963.54	215.21
963.83	215.36
964.13	215.14
964.42	214.33
964.72	212.52
965.01	212.45
965.31	212.33
965.60	211.95
965.90	213.24
966.19	212.57
966.49	212.83
966.78	212.71
967.08	212.50
967.37	212.60
967.67	211.95
967.96	212.52
968.26	212.38
968.55	212.64
968.85	212.67
969.14	212.71
969.43	212.71
969.73	212.60
970.02	212.52
970.32	212.36
970.61	212.26
970.91	211.62
971.20	211.36
971.49	211.02
971.79	211.00
972.08	209.57
972.38	209.79
972.67	209.62
972.96	210.10
973.26	209.76
973.55	210.31
973.85	210.29
974.14	209.95
974.43	210.02
974.73	209.76
975.02	209.90
975.31	209.93
975.61	209.98
975.90	209.79
976.19	209.64
976.49	209.98
976.78	210.26
977.07	210.17
977.37	210.17
977.66	210.55
977.95	210.48
978.24	210.81
978.54	211.45
978.83	211.19
979.12	211.00
979.42	210.90
979.71	210.45
980.00	210.50
980.29	210.83
980.59	210.43
980.88	210.74
981.17	210.69
981.46	210.86
981.76	210.57
982.05	211.07
982.34	211.12
982.63	211.02
982.93	211.10
983.22	211.93
983.51	212.24
983.80	212.60
984.09	212.83
984.39	212.57
984.68	212.12
984.97	212.21
985.26	212.00
985.55	212.29
985.85	211.98
986.14	212.33
986.43	212.33
986.72	212.31
987.01	211.76
987.30	211.57
987.59	211.29
987.89	211.55
988.18	210.95
988.47	210.93
988.76	210.69
989.05	210.55
989.34	210.07
989.63	210.40
989.92	210.07
990.22	209.74
990.51	209.81
990.80	209.83
991.09	210.17
991.38	210.50
991.67	210.48
991.96	210.26
992.25	210.12
992.54	209.95
992.83	209.93
993.12	210.00
993.41	210.31
993.70	211.24
993.99	211.62
994.28	212.10
994.58	212.24
994.87	212.07
995.16	212.05
995.45	211.60
995.74	210.95
996.03	211.26
996.32	211.67
996.61	212.10
996.90	212.02
997.19	211.88
997.48	211.86
997.77	211.48
998.06	211.81
998.34	211.76
998.63	211.52
998.92	211.76
999.21	212.24
999.50	212.31
999.79	211.48
1000.08	211.45
1000.37	211.38
1000.66	211.33
1000.95	211.83
1001.24	212.05
1001.53	212.62
1001.82	212.62
1002.11	212.12
1002.40	212.17
1002.68	212.55
1002.97	214.17
1003.26	213.90
1003.55	213.55
1003.84	213.90
1004.13	214.60
1004.42	214.40
1004.71	214.57
1004.99	214.36
1005.28	214.90
1005.57	214.62
1005.86	214.52
1006.15	214.17
1006.44	213.88
1006.72	214.00
1007.01	213.81
1007.30	213.98
1007.59	213.71
1007.88	213.95
1008.17	214.10
1008.45	213.57
1008.74	212.64
1009.03	211.38
1009.32	211.69
1009.60	211.71
1009.89	211.38
1010.18	210.60
1010.47	210.57
1010.76	210.60
1011.04	210.74
1011.33	210.57
1011.62	210.71
1011.91	210.93
1012.19	211.10
1012.48	211.21
1012.77	211.12
1013.05	211.95
1013.34	211.74
1013.63	211.50
1013.92	211.31
1014.20	211.17
1014.49	211.60
1014.78	211.76
1015.06	211.29
1015.35	211.00
1015.64	211.31
1015.92	211.55
1016.21	211.79
1016.50	211.79
1016.78	212.00
1017.07	212.05
1017.36	211.33
1017.64	211.12
1017.93	211.14
1018.22	211.07
1018.50	210.81
1018.79	210.64
1019.08	209.86
1019.36	209.88
1019.65	210.00
1019.93	210.55
1020.22	210.67
1020.51	211.62
1020.79	211.29
1021.08	210.00
1021.36	205.50
1021.65	207.50
1021.94	213.50
1022.22	209.00
1022.51	210.00
1022.79	219.50
1023.08	209.50
1023.36	236.50
1023.65	204.00
>>>>>End Processed Spectral Data<<<<<
