SpectraSuite Data File
++++++++++++++++++++++++++++++++++++
Date: Tue Apr 02 18:43:09 EDT 2013
User: group
Dark Spectrum Present: No
Reference Spectrum Present: No
Number of Sampled Component Spectra: 1
Spectrometers: USB2E7196
Integration Time (usec): 580000 (USB2E7196)
Spectra Averaged: 2 (USB2E7196)
Boxcar Smoothing: 10 (USB2E7196)
Correct for Electrical Dark: No (USB2E7196)
Strobe/Lamp Enabled: No (USB2E7196)
Correct for Detector Non-linearity: No (USB2E7196)
Correct for Stray Light: No (USB2E7196)
Number of Pixels in Processed Spectrum: 2048
>>>>>Begin Processed Spectral Data<<<<<
339.09	0.00
339.48	193.50
339.86	192.50
340.24	195.50
340.63	196.00
341.01	232.50
341.39	201.00
341.78	208.50
342.16	215.00
342.54	203.00
342.93	198.12
343.31	207.81
343.69	208.52
344.07	209.26
344.46	210.12
344.84	210.86
345.22	209.48
345.60	209.86
345.99	209.76
346.37	209.62
346.75	209.83
347.13	209.93
347.52	209.93
347.90	210.69
348.28	210.69
348.66	210.93
349.05	210.21
349.43	210.29
349.81	210.36
350.19	210.38
350.57	210.40
350.96	210.57
351.34	210.93
351.72	210.93
352.10	210.93
352.48	210.71
352.87	210.48
353.25	210.64
353.63	210.71
354.01	210.90
354.39	210.93
354.77	211.02
355.15	211.55
355.54	211.31
355.92	210.45
356.30	210.45
356.68	211.88
357.06	212.07
357.44	211.74
357.82	211.62
358.20	212.48
358.58	212.33
358.97	212.60
359.35	212.88
359.73	213.21
360.11	213.26
360.49	213.40
360.87	213.60
361.25	213.67
361.63	214.29
362.01	214.29
362.39	213.98
362.77	214.02
363.15	213.88
363.53	214.14
363.91	214.45
364.29	214.43
364.67	212.17
365.05	212.21
365.43	212.50
365.81	212.81
366.19	212.95
366.57	213.74
366.95	213.48
367.33	213.05
367.71	212.95
368.09	213.17
368.47	213.00
368.85	212.76
369.23	213.50
369.61	212.88
369.99	213.64
370.37	213.81
370.75	214.90
371.13	214.43
371.51	214.12
371.89	214.48
372.27	214.52
372.65	214.98
373.03	215.00
373.41	215.00
373.78	215.00
374.16	213.93
374.54	213.31
374.92	213.40
375.30	213.60
375.68	213.31
376.06	213.60
376.44	213.60
376.82	213.88
377.19	213.55
377.57	213.50
377.95	212.76
378.33	212.93
378.71	211.81
379.09	212.12
379.47	212.48
379.84	212.21
380.22	212.19
380.60	212.07
380.98	211.88
381.36	211.71
381.73	211.36
382.11	211.83
382.49	211.95
382.87	211.60
383.25	211.50
383.62	214.10
384.00	213.69
384.38	213.74
384.76	214.10
385.13	215.10
385.51	215.14
385.89	214.95
386.27	214.90
386.64	215.00
387.02	214.79
387.40	214.60
387.78	214.60
388.15	214.60
388.53	214.38
388.91	214.60
389.29	214.64
389.66	215.05
390.04	214.69
390.42	215.12
390.79	215.31
391.17	215.31
391.55	212.83
391.92	212.64
392.30	213.00
392.68	212.57
393.05	212.10
393.43	212.26
393.81	212.33
394.18	212.07
394.56	212.17
394.94	212.67
395.31	212.52
395.69	213.19
396.06	213.43
396.44	213.81
396.82	213.55
397.19	214.50
397.57	214.05
397.95	214.36
398.32	213.90
398.70	214.12
399.07	214.67
399.45	214.71
399.82	214.81
400.20	214.45
400.58	214.71
400.95	214.10
401.33	214.36
401.70	215.83
402.08	216.19
402.45	216.31
402.83	216.86
403.20	216.81
403.58	216.79
403.95	217.31
404.33	217.64
404.71	217.88
405.08	219.33
405.46	219.88
405.83	220.43
406.21	220.76
406.58	221.19
406.96	221.40
407.33	222.10
407.70	222.83
408.08	225.07
408.45	225.86
408.83	226.76
409.20	227.21
409.58	227.00
409.95	228.02
410.33	229.21
410.70	229.67
411.08	231.26
411.45	232.05
411.82	232.88
412.20	234.43
412.57	237.14
412.95	236.55
413.32	238.26
413.69	239.55
414.07	241.14
414.44	243.05
414.82	245.24
415.19	247.50
415.56	249.76
415.94	250.95
416.31	253.86
416.68	256.81
417.06	259.86
417.43	263.36
417.81	266.81
418.18	270.33
418.55	273.83
418.93	277.71
419.30	282.24
419.67	286.45
420.04	290.62
420.42	294.86
420.79	302.33
421.16	308.29
421.54	315.29
421.91	321.76
422.28	327.76
422.66	334.40
423.03	342.00
423.40	349.05
423.77	356.29
424.15	363.31
424.52	371.00
424.89	379.43
425.26	387.24
425.64	394.93
426.01	403.21
426.38	412.21
426.75	421.64
427.13	430.55
427.50	441.00
427.87	451.36
428.24	461.31
428.61	469.31
428.99	480.57
429.36	491.02
429.73	502.52
430.10	514.33
430.47	525.90
430.85	536.67
431.22	549.14
431.59	564.05
431.96	576.67
432.33	590.60
432.70	604.62
433.08	621.10
433.45	636.12
433.82	651.69
434.19	668.79
434.56	685.45
434.93	701.50
435.30	717.40
435.68	734.98
436.05	752.19
436.42	768.79
436.79	784.43
437.16	801.29
437.53	818.95
437.90	836.93
438.27	854.64
438.64	873.62
439.01	890.26
439.38	903.86
439.75	918.29
440.13	935.52
440.50	951.64
440.87	963.52
441.24	976.95
441.61	991.26
441.98	1001.81
442.35	1014.10
442.72	1027.17
443.09	1040.07
443.46	1047.57
443.83	1053.02
444.20	1058.45
444.57	1064.43
444.94	1067.86
445.31	1071.12
445.68	1076.40
446.05	1078.10
446.42	1076.45
446.79	1076.19
447.16	1074.17
447.53	1074.17
447.90	1067.21
448.27	1060.38
448.64	1051.71
449.01	1045.98
449.37	1034.50
449.74	1024.10
450.11	1012.57
450.48	997.81
450.85	981.64
451.22	968.86
451.59	956.83
451.96	945.40
452.33	929.33
452.70	915.00
453.07	898.05
453.43	878.17
453.80	861.36
454.17	845.10
454.54	829.55
454.91	813.76
455.28	797.26
455.65	782.62
456.02	771.29
456.38	758.98
456.75	742.86
457.12	730.07
457.49	716.95
457.86	702.95
458.23	693.05
458.59	681.64
458.96	669.81
459.33	658.83
459.70	647.79
460.07	639.93
460.43	630.52
460.80	621.81
461.17	614.69
461.54	606.36
461.91	598.69
462.27	590.36
462.64	583.00
463.01	575.67
463.38	569.19
463.74	558.17
464.11	551.14
464.48	545.79
464.85	539.33
465.21	534.79
465.58	529.64
465.95	522.69
466.32	517.81
466.68	512.19
467.05	507.50
467.42	502.40
467.78	496.95
468.15	491.88
468.52	488.31
468.88	483.10
469.25	478.33
469.62	474.69
469.98	470.38
470.35	466.83
470.72	463.14
471.08	458.50
471.45	455.83
471.82	453.43
472.18	449.69
472.55	447.10
472.92	443.64
473.28	440.64
473.65	437.76
474.02	434.57
474.38	432.76
474.75	430.69
475.11	428.67
475.48	426.76
475.85	425.40
476.21	423.50
476.58	422.07
476.94	420.86
477.31	419.57
477.67	418.74
478.04	417.55
478.41	416.48
478.77	417.79
479.14	416.62
479.50	415.95
479.87	416.14
480.23	415.86
480.60	415.00
480.96	414.81
481.33	415.81
481.69	416.12
482.06	416.36
482.42	416.62
482.79	416.95
483.15	417.55
483.52	418.40
483.88	418.62
484.25	418.62
484.61	419.55
484.98	420.00
485.34	421.33
485.71	423.14
486.07	424.86
486.44	424.83
486.80	426.38
487.17	427.55
487.53	429.29
487.90	431.64
488.26	434.86
488.62	438.07
488.99	439.52
489.35	442.05
489.72	444.95
490.08	447.45
490.44	450.21
490.81	453.62
491.17	456.38
491.54	460.12
491.90	464.57
492.26	468.24
492.63	472.45
492.99	475.79
493.36	479.60
493.72	483.69
494.08	487.76
494.45	492.29
494.81	497.95
495.17	502.40
495.54	507.40
495.90	511.90
496.26	516.40
496.63	522.02
496.99	527.43
497.35	532.71
497.72	538.86
498.08	544.74
498.44	550.74
498.80	557.05
499.17	563.26
499.53	569.14
499.89	576.12
500.26	582.71
500.62	589.67
500.98	596.71
501.34	603.38
501.71	611.05
502.07	618.36
502.43	624.83
502.79	632.07
503.16	639.17
503.52	646.74
503.88	653.48
504.24	661.26
504.60	669.62
504.97	677.95
505.33	685.43
505.69	693.93
506.05	701.19
506.41	708.45
506.78	715.67
507.14	723.31
507.50	731.02
507.86	738.69
508.22	746.33
508.59	753.62
508.95	761.43
509.31	769.40
509.67	777.79
510.03	785.26
510.39	793.12
510.75	800.60
511.12	807.88
511.48	816.33
511.84	823.36
512.20	830.64
512.56	838.07
512.92	845.79
513.28	853.33
513.64	861.26
514.00	868.67
514.37	876.74
514.73	884.60
515.09	892.29
515.45	899.43
515.81	906.52
516.17	914.02
516.53	921.26
516.89	926.83
517.25	932.79
517.61	940.45
517.97	946.86
518.33	953.38
518.69	960.07
519.05	966.50
519.41	973.55
519.77	980.43
520.13	985.86
520.49	991.31
520.85	996.64
521.21	1002.88
521.57	1009.29
521.93	1013.83
522.29	1019.02
522.65	1023.86
523.01	1029.71
523.37	1034.81
523.73	1039.76
524.09	1044.67
524.45	1049.60
524.81	1054.24
525.17	1059.02
525.53	1063.86
525.89	1068.67
526.25	1073.79
526.61	1077.69
526.97	1081.31
527.33	1085.81
527.68	1091.81
528.04	1096.62
528.40	1101.40
528.76	1106.07
529.12	1110.14
529.48	1115.62
529.84	1119.64
530.20	1123.64
530.56	1127.50
530.91	1132.02
531.27	1136.38
531.63	1141.29
531.99	1145.33
532.35	1149.48
532.71	1153.48
533.07	1157.86
533.42	1164.40
533.78	1168.74
534.14	1173.60
534.50	1177.38
534.86	1181.07
535.21	1183.71
535.57	1187.93
535.93	1191.17
536.29	1195.05
536.65	1199.45
537.00	1202.48
537.36	1206.64
537.72	1209.98
538.08	1213.98
538.44	1216.76
538.79	1220.38
539.15	1222.45
539.51	1226.93
539.87	1230.57
540.22	1234.29
540.58	1237.69
540.94	1239.40
541.29	1241.79
541.65	1244.36
542.01	1248.45
542.37	1250.60
542.72	1253.02
543.08	1254.67
543.44	1258.14
543.79	1259.71
544.15	1262.14
544.51	1265.93
544.87	1269.10
545.22	1272.57
545.58	1275.43
545.94	1278.83
546.29	1281.19
546.65	1284.38
547.01	1286.50
547.36	1289.52
547.72	1291.48
548.07	1294.00
548.43	1295.83
548.79	1298.62
549.14	1300.88
549.50	1304.00
549.86	1306.36
550.21	1309.21
550.57	1313.21
550.92	1314.95
551.28	1318.29
551.64	1320.74
551.99	1323.29
552.35	1325.60
552.70	1328.55
553.06	1331.98
553.41	1335.69
553.77	1340.88
554.13	1344.48
554.48	1349.14
554.84	1353.40
555.19	1357.55
555.55	1362.86
555.90	1366.69
556.26	1370.43
556.61	1373.98
556.97	1376.60
557.32	1381.64
557.68	1385.93
558.03	1389.36
558.39	1393.57
558.74	1397.90
559.10	1402.24
559.45	1406.24
559.81	1411.05
560.16	1414.43
560.52	1417.62
560.87	1421.95
561.23	1424.93
561.58	1431.50
561.94	1435.10
562.29	1438.64
562.64	1443.05
563.00	1446.38
563.35	1450.98
563.71	1456.21
564.06	1461.38
564.42	1467.10
564.77	1472.81
565.12	1479.69
565.48	1487.48
565.83	1493.52
566.19	1499.19
566.54	1505.14
566.89	1510.12
567.25	1516.14
567.60	1524.19
567.96	1532.55
568.31	1539.55
568.66	1546.14
569.02	1549.26
569.37	1554.40
569.72	1560.24
570.08	1564.98
570.43	1570.55
570.78	1575.79
571.14	1581.67
571.49	1587.74
571.84	1593.31
572.20	1597.71
572.55	1601.43
572.90	1604.62
573.26	1608.88
573.61	1612.69
573.96	1617.90
574.31	1623.67
574.67	1627.24
575.02	1630.00
575.37	1632.52
575.72	1634.93
576.08	1638.12
576.43	1642.10
576.78	1646.00
577.13	1649.10
577.49	1653.93
577.84	1657.86
578.19	1662.07
578.54	1665.69
578.90	1669.98
579.25	1672.93
579.60	1675.26
579.95	1678.40
580.30	1681.74
580.66	1686.45
581.01	1690.17
581.36	1692.33
581.71	1695.00
582.06	1699.45
582.42	1702.69
582.77	1704.29
583.12	1707.62
583.47	1710.45
583.82	1714.69
584.17	1718.12
584.53	1722.21
584.88	1725.36
585.23	1728.67
585.58	1730.81
585.93	1732.64
586.28	1734.95
586.63	1738.17
586.98	1742.19
587.34	1745.64
587.69	1747.17
588.04	1748.93
588.39	1751.50
588.74	1752.98
589.09	1754.60
589.44	1755.02
589.79	1756.98
590.14	1759.57
590.49	1760.55
590.84	1761.74
591.19	1763.29
591.54	1764.10
591.89	1765.24
592.25	1767.52
592.60	1766.88
592.95	1768.52
593.30	1770.71
593.65	1770.79
594.00	1770.50
594.35	1776.71
594.70	1776.05
595.05	1777.48
595.40	1777.71
595.75	1778.14
596.10	1779.67
596.45	1780.38
596.80	1781.74
597.15	1781.64
597.50	1781.71
597.85	1783.19
598.19	1784.02
598.54	1782.93
598.89	1783.52
599.24	1784.50
599.59	1783.60
599.94	1784.95
600.29	1785.52
600.64	1784.86
600.99	1784.71
601.34	1785.40
601.69	1779.29
602.04	1779.81
602.39	1779.33
602.74	1779.55
603.08	1778.81
603.43	1779.55
603.78	1779.79
604.13	1779.02
604.48	1778.19
604.83	1778.45
605.18	1778.05
605.53	1776.76
605.87	1776.33
606.22	1774.67
606.57	1772.67
606.92	1771.55
607.27	1770.88
607.62	1770.07
607.96	1769.40
608.31	1769.64
608.66	1768.05
609.01	1766.81
609.36	1765.86
609.70	1764.10
610.05	1761.55
610.40	1759.45
610.75	1756.48
611.10	1754.43
611.44	1751.62
611.79	1750.76
612.14	1748.00
612.49	1744.00
612.83	1742.17
613.18	1739.48
613.53	1737.33
613.88	1733.76
614.22	1729.21
614.57	1724.50
614.92	1720.57
615.27	1717.24
615.61	1712.12
615.96	1708.40
616.31	1704.36
616.65	1701.36
617.00	1698.48
617.35	1695.95
617.70	1693.71
618.04	1689.86
618.39	1685.45
618.74	1682.40
619.08	1677.86
619.43	1673.88
619.78	1670.71
620.12	1666.90
620.47	1663.36
620.82	1659.71
621.16	1655.57
621.51	1652.90
621.85	1649.43
622.20	1644.95
622.55	1640.14
622.89	1636.83
623.24	1633.69
623.59	1630.33
623.93	1624.52
624.28	1619.90
624.62	1617.26
624.97	1613.36
625.32	1609.45
625.66	1605.81
626.01	1601.07
626.35	1597.10
626.70	1592.95
627.04	1589.55
627.39	1584.93
627.73	1581.45
628.08	1577.17
628.43	1573.93
628.77	1569.38
629.12	1565.76
629.46	1562.38
629.81	1557.90
630.15	1553.43
630.50	1547.98
630.84	1542.17
631.19	1537.67
631.53	1532.81
631.88	1525.43
632.22	1519.05
632.57	1514.52
632.91	1508.69
633.26	1504.38
633.60	1499.07
633.95	1493.48
634.29	1487.67
634.64	1483.05
634.98	1477.21
635.32	1473.50
635.67	1469.00
636.01	1465.14
636.36	1459.83
636.70	1455.24
637.05	1450.81
637.39	1446.43
637.73	1442.45
638.08	1439.17
638.42	1434.43
638.77	1429.86
639.11	1425.05
639.45	1419.57
639.80	1413.55
640.14	1408.40
640.49	1402.64
640.83	1397.52
641.17	1393.83
641.52	1388.50
641.86	1383.02
642.20	1378.71
642.55	1371.98
642.89	1365.64
643.23	1358.40
643.58	1353.69
643.92	1346.79
644.26	1340.55
644.61	1334.45
644.95	1328.40
645.29	1321.71
645.64	1316.64
645.98	1310.50
646.32	1305.10
646.66	1299.17
647.01	1293.05
647.35	1287.90
647.69	1281.74
648.04	1276.55
648.38	1270.10
648.72	1264.14
649.06	1257.95
649.41	1250.64
649.75	1244.05
650.09	1237.64
650.43	1232.05
650.78	1225.33
651.12	1218.86
651.46	1212.19
651.80	1204.90
652.14	1198.60
652.49	1192.62
652.83	1185.64
653.17	1179.24
653.51	1172.60
653.85	1166.93
654.20	1160.57
654.54	1152.88
654.88	1145.95
655.22	1139.02
655.56	1131.62
655.90	1125.31
656.25	1118.88
656.59	1113.00
656.93	1106.60
657.27	1101.07
657.61	1093.90
657.95	1087.19
658.29	1081.26
658.64	1075.57
658.98	1069.60
659.32	1063.17
659.66	1056.43
660.00	1050.21
660.34	1043.48
660.68	1037.48
661.02	1030.64
661.36	1024.33
661.70	1019.00
662.05	1013.24
662.39	1007.33
662.73	1001.74
663.07	996.29
663.41	990.71
663.75	984.33
664.09	978.90
664.43	972.50
664.77	966.98
665.11	960.31
665.45	954.24
665.79	948.24
666.13	942.79
666.47	936.24
666.81	930.60
667.15	924.36
667.49	919.43
667.83	913.90
668.17	908.52
668.51	903.05
668.85	897.45
669.19	892.81
669.53	886.45
669.87	880.52
670.21	874.07
670.55	867.67
670.89	862.45
671.23	856.55
671.57	851.21
671.91	846.26
672.25	841.36
672.58	836.55
672.92	830.52
673.26	825.21
673.60	820.10
673.94	814.83
674.28	809.60
674.62	804.10
674.96	798.26
675.30	793.24
675.64	788.05
675.97	782.83
676.31	777.21
676.65	772.33
676.99	768.67
677.33	763.74
677.67	758.88
678.01	753.45
678.34	748.69
678.68	743.86
679.02	737.79
679.36	732.93
679.70	727.33
680.04	723.00
680.37	717.50
680.71	713.07
681.05	708.52
681.39	704.12
681.73	699.40
682.06	694.76
682.40	689.45
682.74	685.00
683.08	680.79
683.42	675.95
683.75	671.90
684.09	666.50
684.43	661.69
684.77	657.33
685.10	652.69
685.44	647.88
685.78	643.33
686.12	639.86
686.45	634.74
686.79	630.07
687.13	625.88
687.46	622.00
687.80	618.00
688.14	613.12
688.48	609.00
688.81	604.88
689.15	601.62
689.49	598.10
689.82	594.02
690.16	589.24
690.50	584.98
690.83	580.52
691.17	575.67
691.51	571.62
691.84	567.21
692.18	563.50
692.52	560.17
692.85	556.45
693.19	553.00
693.52	549.60
693.86	545.79
694.20	541.74
694.53	537.83
694.87	533.57
695.21	529.81
695.54	525.88
695.88	521.67
696.21	516.67
696.55	512.71
696.88	509.10
697.22	506.12
697.56	503.38
697.89	499.71
698.23	497.10
698.56	493.45
698.90	490.40
699.23	486.50
699.57	483.17
699.90	479.64
700.24	475.79
700.58	472.50
700.91	469.76
701.25	468.69
701.58	466.52
701.92	463.95
702.25	460.95
702.59	457.67
702.92	455.14
703.26	452.76
703.59	450.05
703.93	449.05
704.26	446.14
704.60	443.02
704.93	439.83
705.26	436.67
705.60	434.57
705.93	431.29
706.27	429.45
706.60	426.88
706.94	425.05
707.27	422.40
707.61	420.00
707.94	417.21
708.27	412.43
708.61	408.95
708.94	406.12
709.28	404.12
709.61	401.86
709.94	399.21
710.28	396.95
710.61	394.71
710.95	390.45
711.28	389.86
711.61	387.50
711.95	386.00
712.28	383.71
712.61	381.48
712.95	381.05
713.28	379.67
713.61	377.14
713.95	374.60
714.28	372.76
714.61	370.64
714.95	368.93
715.28	367.19
715.61	365.29
715.95	363.64
716.28	361.33
716.61	360.12
716.95	358.38
717.28	356.26
717.61	354.48
717.94	352.79
718.28	349.31
718.61	347.71
718.94	345.48
719.27	343.90
719.61	342.31
719.94	339.86
720.27	337.17
720.60	335.43
720.94	333.76
721.27	332.29
721.60	331.00
721.93	329.40
722.27	328.50
722.60	327.21
722.93	325.64
723.26	324.64
723.59	322.52
723.93	321.69
724.26	320.57
724.59	319.24
724.92	318.17
725.25	317.31
725.59	316.02
725.92	315.33
726.25	314.52
726.58	313.36
726.91	312.17
727.24	311.50
727.57	310.45
727.91	308.67
728.24	307.64
728.57	306.26
728.90	305.10
729.23	303.40
729.56	303.31
729.89	301.95
730.22	300.69
730.55	300.02
730.89	298.69
731.22	297.71
731.55	296.55
731.88	295.74
732.21	294.64
732.54	293.40
732.87	292.38
733.20	291.19
733.53	290.10
733.86	289.38
734.19	287.83
734.52	287.45
734.85	288.38
735.18	287.21
735.51	287.26
735.84	286.93
736.17	286.86
736.50	284.88
736.83	286.45
737.16	285.74
737.49	284.76
737.82	283.76
738.15	283.05
738.48	282.38
738.81	281.10
739.14	279.98
739.47	279.02
739.80	278.21
740.13	277.55
740.46	276.81
740.79	275.57
741.12	275.05
741.45	273.93
741.78	271.81
742.11	271.71
742.44	270.31
742.77	269.76
743.10	268.64
743.43	267.98
743.75	265.17
744.08	266.81
744.41	266.02
744.74	265.48
745.07	264.50
745.40	264.19
745.73	264.62
746.06	264.07
746.39	263.95
746.71	263.05
747.04	262.57
747.37	261.79
747.70	261.67
748.03	261.38
748.36	261.21
748.68	260.62
749.01	259.57
749.34	259.17
749.67	258.50
750.00	258.05
750.33	259.17
750.65	259.05
750.98	256.40
751.31	256.12
751.64	255.67
751.97	256.60
752.29	255.81
752.62	254.50
752.95	253.86
753.28	252.93
753.60	252.52
753.93	252.40
754.26	252.14
754.59	251.12
754.91	250.38
755.24	249.60
755.57	249.36
755.90	248.76
756.22	248.33
756.55	247.45
756.88	246.81
757.20	245.12
757.53	244.21
757.86	243.52
758.19	243.17
758.51	242.90
758.84	241.17
759.17	240.69
759.49	240.38
759.82	241.14
760.15	241.17
760.47	240.71
760.80	239.67
761.13	239.64
761.45	239.29
761.78	238.67
762.11	238.52
762.43	238.02
762.76	237.69
763.08	237.38
763.41	237.29
763.74	237.02
764.06	236.62
764.39	236.36
764.71	236.07
765.04	235.48
765.37	234.76
765.69	234.55
766.02	234.21
766.34	233.69
766.67	232.67
767.00	232.71
767.32	233.74
767.65	234.67
767.97	234.31
768.30	234.14
768.62	234.07
768.95	233.29
769.27	233.00
769.60	233.05
769.92	232.55
770.25	231.86
770.57	231.52
770.90	231.31
771.22	230.95
771.55	230.69
771.87	230.57
772.20	230.50
772.52	232.33
772.85	234.93
773.17	234.93
773.50	234.45
773.82	233.90
774.15	232.55
774.47	231.24
774.80	230.86
775.12	230.74
775.45	230.60
775.77	230.64
776.09	230.62
776.42	230.74
776.74	231.26
777.07	231.43
777.39	231.19
777.72	230.83
778.04	231.05
778.36	231.00
778.69	231.10
779.01	230.95
779.33	228.81
779.66	226.10
779.98	225.81
780.31	225.86
780.63	226.69
780.95	227.07
781.28	226.93
781.60	226.62
781.92	226.21
782.25	226.17
782.57	226.29
782.89	225.86
783.22	225.31
783.54	224.90
783.86	224.71
784.19	224.52
784.51	224.79
784.83	224.29
785.16	224.07
785.48	223.90
785.80	223.81
786.12	223.88
786.45	223.62
786.77	223.67
787.09	223.38
787.42	222.33
787.74	222.12
788.06	222.14
788.38	221.88
788.71	221.83
789.03	221.71
789.35	221.76
789.67	221.76
789.99	221.55
790.32	221.07
790.64	221.19
790.96	222.64
791.28	222.10
791.61	221.98
791.93	222.05
792.25	221.67
792.57	223.31
792.89	222.81
793.21	223.00
793.54	222.79
793.86	222.74
794.18	222.95
794.50	222.31
794.82	222.21
795.14	222.71
795.47	223.02
795.79	223.12
796.11	222.50
796.43	222.24
796.75	222.45
797.07	222.57
797.39	222.45
797.71	220.88
798.04	220.88
798.36	220.76
798.68	220.55
799.00	220.95
799.32	219.38
799.64	219.76
799.96	219.55
800.28	219.83
800.60	219.55
800.92	219.45
801.24	219.43
801.56	219.38
801.89	218.93
802.21	219.12
802.53	218.64
802.85	219.05
803.17	220.10
803.49	219.71
803.81	219.45
804.13	219.48
804.45	219.31
804.77	219.60
805.09	219.67
805.41	219.45
805.73	219.07
806.05	218.98
806.37	218.79
806.69	218.69
807.01	218.48
807.33	218.74
807.65	218.29
807.97	219.33
808.28	219.17
808.60	219.21
808.92	219.02
809.24	220.40
809.56	220.10
809.88	219.19
810.20	219.19
810.52	219.64
810.84	219.14
811.16	219.02
811.48	218.62
811.80	219.38
812.12	219.26
812.43	219.29
812.75	219.19
813.07	218.93
813.39	218.90
813.71	218.62
814.03	218.36
814.35	218.26
814.67	217.43
814.98	217.21
815.30	217.19
815.62	216.64
815.94	215.12
816.26	215.24
816.58	215.05
816.89	215.17
817.21	214.62
817.53	214.83
817.85	214.86
818.17	214.86
818.48	214.12
818.80	214.57
819.12	214.31
819.44	213.76
819.76	213.48
820.07	213.62
820.39	213.55
820.71	213.52
821.03	213.40
821.34	213.17
821.66	213.50
821.98	213.60
822.30	213.57
822.61	214.90
822.93	214.79
823.25	214.71
823.57	214.45
823.88	214.81
824.20	214.55
824.52	214.93
824.83	215.00
825.15	214.55
825.47	214.57
825.79	214.86
826.10	215.05
826.42	215.07
826.74	215.10
827.05	215.21
827.37	215.36
827.69	215.38
828.00	215.57
828.32	215.57
828.64	215.52
828.95	216.62
829.27	215.90
829.58	215.71
829.90	215.95
830.22	216.14
830.53	215.60
830.85	215.57
831.17	215.07
831.48	214.86
831.80	215.24
832.11	214.95
832.43	214.71
832.75	214.69
833.06	216.19
833.38	215.81
833.69	215.81
834.01	215.88
834.32	215.81
834.64	215.52
834.96	215.50
835.27	215.31
835.59	214.45
835.90	213.88
836.22	214.00
836.53	213.60
836.85	213.36
837.16	215.52
837.48	215.83
837.79	216.55
838.11	216.81
838.42	216.45
838.74	216.81
839.05	216.62
839.37	216.55
839.68	215.10
840.00	214.71
840.31	214.71
840.63	214.48
840.94	214.38
841.26	214.26
841.57	213.93
841.88	214.19
842.20	213.93
842.51	213.95
842.83	214.00
843.14	215.83
843.46	215.95
843.77	214.69
844.08	214.33
844.40	213.81
844.71	213.38
845.03	213.50
845.34	213.14
845.65	213.17
845.97	213.19
846.28	213.07
846.60	213.50
846.91	213.24
847.22	213.43
847.54	213.67
847.85	213.81
848.16	213.95
848.48	213.45
848.79	214.43
849.10	214.67
849.42	214.79
849.73	212.98
850.04	212.81
850.36	212.02
850.67	212.48
850.98	212.50
851.30	212.79
851.61	212.64
851.92	212.86
852.23	213.62
852.55	213.79
852.86	214.07
853.17	214.24
853.49	214.93
853.80	215.36
854.11	215.86
854.42	216.17
854.74	215.95
855.05	216.19
855.36	214.86
855.67	214.90
855.99	214.90
856.30	217.40
856.61	217.26
856.92	217.55
857.23	217.50
857.55	217.24
857.86	217.33
858.17	217.62
858.48	217.45
858.79	216.69
859.11	216.90
859.42	216.83
859.73	216.48
860.04	216.19
860.35	215.40
860.66	214.64
860.98	214.45
861.29	214.62
861.60	214.48
861.91	215.19
862.22	214.93
862.53	214.55
862.84	212.10
863.16	212.76
863.47	212.07
863.78	211.74
864.09	211.98
864.40	212.02
864.71	212.24
865.02	212.24
865.33	212.14
865.64	211.79
865.95	211.81
866.27	213.36
866.58	213.02
866.89	213.29
867.20	213.26
867.51	212.95
867.82	213.05
868.13	213.57
868.44	213.19
868.75	213.64
869.06	213.62
869.37	213.71
869.68	212.95
869.99	213.55
870.30	213.69
870.61	213.83
870.92	213.33
871.23	212.88
871.54	213.21
871.85	213.74
872.16	214.17
872.47	213.95
872.78	212.64
873.09	212.71
873.40	212.57
873.71	212.81
874.02	213.00
874.33	212.93
874.64	212.48
874.95	212.98
875.26	212.33
875.56	212.52
875.87	212.40
876.18	212.50
876.49	214.36
876.80	214.38
877.11	214.00
877.42	214.21
877.73	214.36
878.04	214.10
878.35	214.10
878.66	214.19
878.96	214.17
879.27	214.14
879.58	214.21
879.89	214.10
880.20	214.71
880.51	214.48
880.82	214.33
881.12	214.38
881.43	213.83
881.74	213.79
882.05	213.67
882.36	213.93
882.67	214.07
882.97	211.88
883.28	211.81
883.59	211.69
883.90	211.79
884.21	212.14
884.51	211.88
884.82	211.69
885.13	211.31
885.44	211.12
885.74	211.14
886.05	210.98
886.36	211.14
886.67	210.17
886.98	211.57
887.28	211.74
887.59	211.81
887.90	212.00
888.20	211.95
888.51	212.50
888.82	212.24
889.13	212.48
889.43	214.33
889.74	214.05
890.05	213.93
890.35	213.95
890.66	213.60
890.97	213.69
891.28	213.31
891.58	213.62
891.89	213.81
892.20	213.40
892.50	213.36
892.81	213.10
893.12	213.38
893.42	212.21
893.73	212.48
894.04	212.38
894.34	212.33
894.65	212.38
894.95	212.00
895.26	212.19
895.57	212.88
895.87	211.17
896.18	211.64
896.48	212.07
896.79	211.98
897.10	212.21
897.40	212.07
897.71	212.55
898.01	212.12
898.32	212.19
898.63	212.36
898.93	212.57
899.24	212.81
899.54	212.48
899.85	212.26
900.15	211.88
900.46	211.86
900.76	212.05
901.07	212.07
901.38	211.98
901.68	212.07
901.99	211.00
902.29	211.26
902.60	211.07
902.90	210.88
903.21	210.81
903.51	210.83
903.82	211.29
904.12	211.00
904.43	211.29
904.73	211.45
905.03	211.64
905.34	213.60
905.64	213.40
905.95	213.55
906.25	213.69
906.56	213.50
906.86	213.64
907.17	213.43
907.47	213.45
907.77	213.36
908.08	212.93
908.38	213.26
908.69	213.29
908.99	213.52
909.30	213.55
909.60	213.52
909.90	213.48
910.21	212.79
910.51	212.76
910.81	212.45
911.12	212.43
911.42	212.36
911.73	210.17
912.03	210.40
912.33	210.90
912.64	210.95
912.94	211.21
913.24	211.02
913.55	211.12
913.85	211.00
914.15	211.31
914.46	211.69
914.76	211.60
915.06	211.43
915.37	211.17
915.67	211.00
915.97	211.21
916.27	210.83
916.58	211.05
916.88	210.98
917.18	211.00
917.49	212.38
917.79	212.33
918.09	212.88
918.39	213.31
918.70	212.95
919.00	212.98
919.30	213.71
919.60	213.50
919.91	213.19
920.21	213.26
920.51	213.02
920.81	212.71
921.12	212.76
921.42	212.50
921.72	212.50
922.02	212.76
922.32	212.98
922.63	213.17
922.93	214.17
923.23	214.31
923.53	214.07
923.83	212.67
924.13	212.79
924.44	212.71
924.74	212.90
925.04	213.43
925.34	213.33
925.64	212.38
925.94	212.55
926.24	213.76
926.55	213.64
926.85	214.00
927.15	214.17
927.45	214.31
927.75	214.43
928.05	214.55
928.35	214.36
928.65	214.71
928.95	214.88
929.26	214.29
929.56	214.64
929.86	214.98
930.16	214.81
930.46	214.62
930.76	214.45
931.06	213.57
931.36	213.12
931.66	213.57
931.96	214.07
932.26	213.98
932.56	212.74
932.86	213.12
933.16	212.79
933.46	212.67
933.76	212.43
934.06	213.00
934.36	213.95
934.66	214.02
934.96	213.64
935.26	213.55
935.56	213.67
935.86	213.10
936.16	212.76
936.46	212.62
936.76	212.69
937.06	212.50
937.36	212.60
937.66	212.57
937.96	212.29
938.26	211.64
938.56	211.55
938.86	211.98
939.16	212.14
939.46	212.45
939.76	212.40
940.06	212.36
940.35	211.74
940.65	210.36
940.95	210.52
941.25	210.02
941.55	209.74
941.85	209.76
942.15	210.36
942.45	211.10
942.75	211.00
943.04	210.95
943.34	211.00
943.64	210.95
943.94	210.74
944.24	210.81
944.54	211.00
944.84	211.02
945.13	210.71
945.43	210.36
945.73	210.17
946.03	210.07
946.33	209.71
946.62	209.71
946.92	209.67
947.22	209.69
947.52	209.95
947.82	210.40
948.11	209.95
948.41	209.26
948.71	208.74
949.01	209.17
949.31	208.93
949.60	208.90
949.90	209.40
950.20	209.40
950.50	209.52
950.79	209.40
951.09	209.69
951.39	209.57
951.69	209.52
951.98	209.86
952.28	210.05
952.58	210.07
952.87	209.86
953.17	210.31
953.47	210.07
953.76	209.88
954.06	209.43
954.36	209.19
954.66	209.24
954.95	209.69
955.25	209.95
955.55	210.26
955.84	210.12
956.14	209.88
956.44	210.14
956.73	209.71
957.03	209.98
957.32	209.95
957.62	210.02
957.92	210.60
958.21	210.40
958.51	212.88
958.81	213.26
959.10	213.76
959.40	214.33
959.69	214.40
959.99	214.64
960.29	214.74
960.58	214.95
960.88	215.69
961.17	215.48
961.47	215.19
961.76	215.00
962.06	215.48
962.36	215.29
962.65	215.36
962.95	215.17
963.24	214.95
963.54	214.93
963.83	214.90
964.13	214.57
964.42	214.29
964.72	212.55
965.01	212.62
965.31	212.40
965.60	211.69
965.90	213.00
966.19	212.76
966.49	213.07
966.78	212.95
967.08	212.88
967.37	212.79
967.67	212.69
967.96	213.19
968.26	212.98
968.55	213.43
968.85	213.02
969.14	213.31
969.43	213.31
969.73	213.26
970.02	213.36
970.32	213.40
970.61	213.31
970.91	212.38
971.20	212.02
971.49	211.76
971.79	211.83
972.08	210.19
972.38	210.31
972.67	210.00
972.96	210.26
973.26	209.90
973.55	210.62
973.85	210.45
974.14	210.10
974.43	210.36
974.73	209.76
975.02	209.88
975.31	209.88
975.61	209.69
975.90	209.48
976.19	209.12
976.49	209.24
976.78	209.45
977.07	209.64
977.37	209.98
977.66	210.19
977.95	210.26
978.24	210.50
978.54	211.05
978.83	210.76
979.12	210.69
979.42	210.60
979.71	210.14
980.00	210.24
980.29	210.50
980.59	209.86
980.88	210.48
981.17	210.55
981.46	210.38
981.76	210.50
982.05	211.19
982.34	211.45
982.63	211.21
982.93	211.14
983.22	211.76
983.51	211.67
983.80	211.95
984.09	212.12
984.39	212.00
984.68	211.62
984.97	212.00
985.26	211.81
985.55	211.98
985.85	211.48
986.14	211.71
986.43	211.86
986.72	211.76
987.01	211.26
987.30	211.29
987.59	211.12
987.89	211.14
988.18	210.40
988.47	210.33
988.76	210.45
989.05	210.24
989.34	209.98
989.63	210.50
989.92	210.12
990.22	209.67
990.51	209.81
990.80	209.71
991.09	209.74
991.38	209.83
991.67	209.62
991.96	209.62
992.25	209.67
992.54	209.21
992.83	209.45
993.12	209.36
993.41	209.52
993.70	210.64
993.99	210.86
994.28	211.33
994.58	211.64
994.87	211.19
995.16	211.24
995.45	211.00
995.74	210.10
996.03	210.45
996.32	210.86
996.61	211.33
996.90	211.24
997.19	211.21
997.48	211.24
997.77	211.07
998.06	210.95
998.34	210.83
998.63	210.86
998.92	210.93
999.21	211.24
999.50	211.10
999.79	210.24
1000.08	210.31
1000.37	210.24
1000.66	210.07
1000.95	210.71
1001.24	210.95
1001.53	211.17
1001.82	211.29
1002.11	210.79
1002.40	211.00
1002.68	211.24
1002.97	212.62
1003.26	212.33
1003.55	212.12
1003.84	212.43
1004.13	213.26
1004.42	213.14
1004.71	213.19
1004.99	213.14
1005.28	213.52
1005.57	213.55
1005.86	213.50
1006.15	213.33
1006.44	213.12
1006.72	213.40
1007.01	212.90
1007.30	212.74
1007.59	212.43
1007.88	212.40
1008.17	212.62
1008.45	212.24
1008.74	211.52
1009.03	210.69
1009.32	210.86
1009.60	210.83
1009.89	210.69
1010.18	209.98
1010.47	209.81
1010.76	209.88
1011.04	209.83
1011.33	210.07
1011.62	210.12
1011.91	210.26
1012.19	210.40
1012.48	210.26
1012.77	210.02
1013.05	211.26
1013.34	211.43
1013.63	211.36
1013.92	211.55
1014.20	211.45
1014.49	211.69
1014.78	211.81
1015.06	211.12
1015.35	211.00
1015.64	211.57
1015.92	211.86
1016.21	211.88
1016.50	211.95
1016.78	212.12
1017.07	212.14
1017.36	211.48
1017.64	211.29
1017.93	211.52
1018.22	211.24
1018.50	211.40
1018.79	211.48
1019.08	210.38
1019.36	210.52
1019.65	210.57
1019.93	210.95
1020.22	211.38
1020.51	212.48
1020.79	212.33
1021.08	206.00
1021.36	209.00
1021.65	212.00
1021.94	210.50
1022.22	215.50
1022.51	209.50
1022.79	217.00
1023.08	216.00
1023.36	240.00
1023.65	207.00
>>>>>End Processed Spectral Data<<<<<
