SpectraSuite Data File
++++++++++++++++++++++++++++++++++++
Date: Tue Apr 02 18:38:28 EDT 2013
User: group
Dark Spectrum Present: No
Reference Spectrum Present: No
Number of Sampled Component Spectra: 1
Spectrometers: USB2E7196
Integration Time (usec): 580000 (USB2E7196)
Spectra Averaged: 2 (USB2E7196)
Boxcar Smoothing: 10 (USB2E7196)
Correct for Electrical Dark: No (USB2E7196)
Strobe/Lamp Enabled: No (USB2E7196)
Correct for Detector Non-linearity: No (USB2E7196)
Correct for Stray Light: No (USB2E7196)
Number of Pixels in Processed Spectrum: 2048
>>>>>Begin Processed Spectral Data<<<<<
339.09	0.00
339.48	198.00
339.86	196.50
340.24	197.00
340.63	199.50
341.01	231.00
341.39	201.50
341.78	207.00
342.16	209.50
342.54	208.00
342.93	198.02
343.31	207.88
343.69	208.12
344.07	208.57
344.46	209.36
344.84	209.93
345.22	208.81
345.60	209.19
345.99	209.38
346.37	209.50
346.75	209.33
347.13	209.43
347.52	209.60
347.90	210.45
348.28	210.55
348.66	211.14
349.05	210.64
349.43	211.05
349.81	211.33
350.19	211.38
350.57	211.62
350.96	211.81
351.34	212.05
351.72	212.36
352.10	212.55
352.48	212.38
352.87	212.14
353.25	212.29
353.63	212.38
354.01	212.24
354.39	212.31
354.77	212.43
355.15	212.93
355.54	212.83
355.92	212.14
356.30	212.26
356.68	213.64
357.06	213.76
357.44	213.33
357.82	213.29
358.20	214.38
358.58	214.31
358.97	214.64
359.35	215.00
359.73	215.38
360.11	215.29
360.49	215.29
360.87	215.31
361.25	215.50
361.63	216.07
362.01	216.45
362.39	216.38
362.77	216.76
363.15	216.74
363.53	216.81
363.91	216.98
364.29	216.93
364.67	215.02
365.05	215.29
365.43	215.50
365.81	215.52
366.19	215.52
366.57	216.12
366.95	215.88
367.33	215.67
367.71	215.83
368.09	216.29
368.47	216.38
368.85	216.57
369.23	217.02
369.61	216.21
369.99	216.88
370.37	217.14
370.75	218.02
371.13	217.48
371.51	217.02
371.89	217.19
372.27	217.57
372.65	217.81
373.03	217.86
373.41	217.86
373.78	217.90
374.16	216.93
374.54	216.50
374.92	216.29
375.30	216.10
375.68	215.36
376.06	215.50
376.44	215.33
376.82	215.48
377.19	215.43
377.57	215.43
377.95	214.52
378.33	214.29
378.71	213.26
379.09	213.74
379.47	214.02
379.84	213.69
380.22	213.33
380.60	213.07
380.98	212.83
381.36	212.93
381.73	212.76
382.11	213.21
382.49	213.21
382.87	213.00
383.25	213.12
383.62	215.55
384.00	215.10
384.38	215.33
384.76	215.67
385.13	216.31
385.51	216.69
385.89	216.50
386.27	216.71
386.64	217.02
387.02	217.00
387.40	216.93
387.78	217.38
388.15	217.45
388.53	217.17
388.91	217.24
389.29	217.07
389.66	217.24
390.04	216.95
390.42	217.38
390.79	217.62
391.17	217.55
391.55	215.38
391.92	215.38
392.30	215.52
392.68	215.02
393.05	214.69
393.43	214.38
393.81	214.40
394.18	214.12
394.56	214.05
394.94	214.21
395.31	213.98
395.69	214.36
396.06	214.62
396.44	214.95
396.82	214.71
397.19	215.62
397.57	215.62
397.95	215.95
398.32	215.43
398.70	215.40
399.07	215.88
399.45	215.74
399.82	215.79
400.20	215.45
400.58	215.50
400.95	214.83
401.33	215.74
401.70	217.62
402.08	217.76
402.45	217.81
402.83	218.24
403.20	218.69
403.58	218.38
403.95	218.79
404.33	219.31
404.71	219.67
405.08	220.93
405.46	221.14
405.83	221.33
406.21	221.79
406.58	222.64
406.96	222.88
407.33	223.55
407.70	224.50
408.08	226.86
408.45	227.95
408.83	229.19
409.20	229.48
409.58	228.95
409.95	230.10
410.33	231.29
410.70	231.83
411.08	233.17
411.45	234.57
411.82	235.52
412.20	237.10
412.57	239.95
412.95	239.67
413.32	241.98
413.69	243.60
414.07	245.50
414.44	247.38
414.82	249.76
415.19	252.74
415.56	255.24
415.94	256.81
416.31	260.31
416.68	263.71
417.06	267.55
417.43	271.62
417.81	275.50
418.18	279.52
418.55	283.74
418.93	288.52
419.30	293.40
419.67	298.69
420.04	304.12
420.42	309.07
420.79	317.57
421.16	323.83
421.54	331.79
421.91	338.71
422.28	345.93
422.66	353.43
423.03	362.50
423.40	370.21
423.77	379.14
424.15	387.24
424.52	395.86
424.89	405.93
425.26	415.10
425.64	424.52
426.01	434.74
426.38	445.33
426.75	456.36
427.13	467.48
427.50	479.36
427.87	490.98
428.24	503.00
428.61	512.98
428.99	526.24
429.36	538.64
429.73	552.31
430.10	566.10
430.47	580.12
430.85	593.02
431.22	608.50
431.59	625.43
431.96	640.90
432.33	657.93
432.70	674.12
433.08	693.38
433.45	711.48
433.82	729.38
434.19	749.48
434.56	769.00
434.93	787.52
435.30	806.17
435.68	827.31
436.05	847.52
436.42	868.26
436.79	887.31
437.16	908.40
437.53	929.38
437.90	950.74
438.27	972.14
438.64	993.10
439.01	1013.76
439.38	1030.81
439.75	1048.40
440.13	1068.86
440.50	1087.14
440.87	1102.14
441.24	1118.43
441.61	1136.38
441.98	1149.48
442.35	1163.83
442.72	1180.69
443.09	1196.48
443.46	1205.43
443.83	1212.19
444.20	1217.64
444.57	1225.24
444.94	1228.83
445.31	1233.74
445.68	1241.10
446.05	1242.79
446.42	1242.02
446.79	1240.50
447.16	1237.55
447.53	1236.74
447.90	1228.38
448.27	1221.83
448.64	1212.38
449.01	1204.76
449.37	1191.10
449.74	1178.69
450.11	1164.86
450.48	1146.62
450.85	1127.86
451.22	1113.26
451.59	1099.00
451.96	1084.79
452.33	1065.90
452.70	1049.07
453.07	1028.71
453.43	1004.90
453.80	985.29
454.17	966.57
454.54	948.24
454.91	929.52
455.28	910.12
455.65	892.38
456.02	877.52
456.38	861.79
456.75	843.50
457.12	827.83
457.49	812.26
457.86	796.55
458.23	784.38
458.59	770.29
458.96	755.90
459.33	743.33
459.70	731.02
460.07	720.81
460.43	709.21
460.80	698.67
461.17	689.81
461.54	680.10
461.91	670.05
462.27	659.90
462.64	651.74
463.01	642.86
463.38	635.50
463.74	623.12
464.11	615.26
464.48	608.17
464.85	600.36
465.21	594.74
465.58	588.52
465.95	580.57
466.32	575.02
466.68	568.36
467.05	562.05
467.42	556.26
467.78	549.90
468.15	544.02
468.52	539.60
468.88	532.95
469.25	527.29
469.62	523.43
469.98	518.57
470.35	514.55
470.72	510.26
471.08	504.90
471.45	501.79
471.82	498.43
472.18	494.07
472.55	491.60
472.92	487.38
473.28	484.12
473.65	481.02
474.02	478.10
474.38	475.95
474.75	473.88
475.11	470.90
475.48	469.50
475.85	467.62
476.21	465.67
476.58	464.64
476.94	463.74
477.31	461.83
477.67	460.79
478.04	459.24
478.41	458.00
478.77	459.07
479.14	457.69
479.50	456.93
479.87	457.10
480.23	456.40
480.60	456.31
480.96	455.71
481.33	456.33
481.69	456.10
482.06	456.76
482.42	456.95
482.79	458.19
483.15	458.45
483.52	459.93
483.88	460.38
484.25	460.88
484.61	461.76
484.98	463.12
485.34	465.36
485.71	467.05
486.07	469.07
486.44	469.07
486.80	471.31
487.17	473.36
487.53	475.95
487.90	478.76
488.26	482.38
488.62	485.90
488.99	488.14
489.35	491.43
489.72	494.55
490.08	497.86
490.44	500.71
490.81	504.86
491.17	508.00
491.54	512.76
491.90	517.19
492.26	521.67
492.63	527.12
492.99	531.12
493.36	536.69
493.72	542.48
494.08	548.26
494.45	554.86
494.81	561.24
495.17	567.07
495.54	574.17
495.90	579.83
496.26	586.24
496.63	593.48
496.99	600.40
497.35	607.71
497.72	615.14
498.08	622.74
498.44	630.52
498.80	638.90
499.17	646.24
499.53	654.29
499.89	663.31
500.26	672.00
500.62	680.98
500.98	690.10
501.34	698.79
501.71	708.71
502.07	717.31
502.43	726.57
502.79	736.02
503.16	745.24
503.52	755.26
503.88	765.07
504.24	774.98
504.60	785.29
504.97	795.21
505.33	805.86
505.69	817.17
506.05	827.24
506.41	837.71
506.78	848.17
507.14	858.64
507.50	869.07
507.86	879.33
508.22	890.52
508.59	900.14
508.95	911.00
509.31	922.52
509.67	933.88
510.03	944.83
510.39	955.71
510.75	966.38
511.12	977.52
511.48	988.48
511.84	999.81
512.20	1011.07
512.56	1022.24
512.92	1033.60
513.28	1045.19
513.64	1056.21
514.00	1067.14
514.37	1078.98
514.73	1090.17
515.09	1101.31
515.45	1111.21
515.81	1121.76
516.17	1132.17
516.53	1142.05
516.89	1151.14
517.25	1161.00
517.61	1171.14
517.97	1181.05
518.33	1190.67
518.69	1199.50
519.05	1208.43
519.41	1218.74
519.77	1229.43
520.13	1238.67
520.49	1246.90
520.85	1255.19
521.21	1265.95
521.57	1275.83
521.93	1284.00
522.29	1292.95
522.65	1300.45
523.01	1311.12
523.37	1318.98
523.73	1328.31
524.09	1337.64
524.45	1345.45
524.81	1353.93
525.17	1362.50
525.53	1370.69
525.89	1378.57
526.25	1387.62
526.61	1395.98
526.97	1402.93
527.33	1409.45
527.68	1419.14
528.04	1427.00
528.40	1434.38
528.76	1440.95
529.12	1447.64
529.48	1455.81
529.84	1462.64
530.20	1470.21
530.56	1476.93
530.91	1484.69
531.27	1491.64
531.63	1497.76
531.99	1504.50
532.35	1509.74
532.71	1515.55
533.07	1522.57
533.42	1532.02
533.78	1538.76
534.14	1545.57
534.50	1551.67
534.86	1558.60
535.21	1562.12
535.57	1569.07
535.93	1575.33
536.29	1581.67
536.65	1587.21
537.00	1591.88
537.36	1597.14
537.72	1601.83
538.08	1606.10
538.44	1609.95
538.79	1615.48
539.15	1620.45
539.51	1624.98
539.87	1630.90
540.22	1635.76
540.58	1640.19
540.94	1641.93
541.29	1645.26
541.65	1647.95
542.01	1651.74
542.37	1654.69
542.72	1657.98
543.08	1660.12
543.44	1662.74
543.79	1663.76
544.15	1667.31
544.51	1671.62
544.87	1673.90
545.22	1678.36
545.58	1680.52
545.94	1682.76
546.29	1684.26
546.65	1686.40
547.01	1688.55
547.36	1690.17
547.72	1692.05
548.07	1693.69
548.43	1694.86
548.79	1697.05
549.14	1699.00
549.50	1701.00
549.86	1701.38
550.21	1702.36
550.57	1704.64
550.92	1705.93
551.28	1707.90
551.64	1709.10
551.99	1709.24
552.35	1710.48
552.70	1710.71
553.06	1712.88
553.41	1714.57
553.77	1717.07
554.13	1717.86
554.48	1720.40
554.84	1722.21
555.19	1723.71
555.55	1725.86
555.90	1727.79
556.26	1727.64
556.61	1728.67
556.97	1727.95
557.32	1729.19
557.68	1730.43
558.03	1730.79
558.39	1730.88
558.74	1731.02
559.10	1730.69
559.45	1731.10
559.81	1732.17
560.16	1731.81
560.52	1731.67
560.87	1732.74
561.23	1730.67
561.58	1732.43
561.94	1731.86
562.29	1731.33
562.64	1730.21
563.00	1728.48
563.35	1727.93
563.71	1728.55
564.06	1729.17
564.42	1729.45
564.77	1729.45
565.12	1730.21
565.48	1731.48
565.83	1732.71
566.19	1733.24
566.54	1733.29
566.89	1733.00
567.25	1734.05
567.60	1735.74
567.96	1737.69
568.31	1737.93
568.66	1738.36
569.02	1737.07
569.37	1735.88
569.72	1735.74
570.08	1735.45
570.43	1735.02
570.78	1734.29
571.14	1733.33
571.49	1731.79
571.84	1731.36
572.20	1730.17
572.55	1729.62
572.90	1726.05
573.26	1723.57
573.61	1721.90
573.96	1720.17
574.31	1718.21
574.67	1715.05
575.02	1711.45
575.37	1706.62
575.72	1703.36
576.08	1701.02
576.43	1697.36
576.78	1694.02
577.13	1689.93
577.49	1687.29
577.84	1684.12
578.19	1681.48
578.54	1678.74
578.90	1675.79
579.25	1672.14
579.60	1667.88
579.95	1662.50
580.30	1659.40
580.66	1656.07
581.01	1651.98
581.36	1647.90
581.71	1643.19
582.06	1639.69
582.42	1635.90
582.77	1631.50
583.12	1627.00
583.47	1622.33
583.82	1618.48
584.17	1614.88
584.53	1611.67
584.88	1605.79
585.23	1601.33
585.58	1596.17
585.93	1589.79
586.28	1584.69
586.63	1579.36
586.98	1575.60
587.34	1571.81
587.69	1566.71
588.04	1561.62
588.39	1556.55
588.74	1551.45
589.09	1546.64
589.44	1540.52
589.79	1534.17
590.14	1529.57
590.49	1524.05
590.84	1518.14
591.19	1513.10
591.54	1507.95
591.89	1502.24
592.25	1500.10
592.60	1494.79
592.95	1489.95
593.30	1485.81
593.65	1479.88
594.00	1474.93
594.35	1474.21
594.70	1467.69
595.05	1462.50
595.40	1456.02
595.75	1449.76
596.10	1444.62
596.45	1440.19
596.80	1434.81
597.15	1430.19
597.50	1423.86
597.85	1418.52
598.19	1413.38
598.54	1407.36
598.89	1401.02
599.24	1395.52
599.59	1387.21
599.94	1380.95
600.29	1374.76
600.64	1368.71
600.99	1363.93
601.34	1358.31
601.69	1347.33
602.04	1341.57
602.39	1335.71
602.74	1330.81
603.08	1324.79
603.43	1319.83
603.78	1313.02
604.13	1307.33
604.48	1300.88
604.83	1295.86
605.18	1290.45
605.53	1284.79
605.87	1278.95
606.22	1272.71
606.57	1266.74
606.92	1261.12
607.27	1255.12
607.62	1249.10
607.96	1243.19
608.31	1236.86
608.66	1230.76
609.01	1224.74
609.36	1219.52
609.70	1213.45
610.05	1207.14
610.40	1202.26
610.75	1195.29
611.10	1189.33
611.44	1183.69
611.79	1178.10
612.14	1172.52
612.49	1165.69
612.83	1159.17
613.18	1152.26
613.53	1147.10
613.88	1140.52
614.22	1134.29
614.57	1128.50
614.92	1122.29
615.27	1116.86
615.61	1110.14
615.96	1103.83
616.31	1097.74
616.65	1092.26
617.00	1086.19
617.35	1080.05
617.70	1073.76
618.04	1067.21
618.39	1061.45
618.74	1055.33
619.08	1049.79
619.43	1043.10
619.78	1037.31
620.12	1032.12
620.47	1027.50
620.82	1021.69
621.16	1016.12
621.51	1011.86
621.85	1005.71
622.20	1000.02
622.55	993.43
622.89	988.00
623.24	983.24
623.59	977.62
623.93	971.57
624.28	966.38
624.62	963.86
624.97	960.24
625.32	955.38
625.66	950.50
626.01	944.90
626.35	939.29
626.70	933.98
627.04	929.29
627.39	923.69
627.73	918.98
628.08	913.95
628.43	909.05
628.77	902.79
629.12	898.43
629.46	894.12
629.81	889.26
630.15	884.52
630.50	878.93
630.84	873.93
631.19	868.64
631.53	863.07
631.88	855.29
632.22	848.21
632.57	843.07
632.91	837.57
633.26	832.83
633.60	827.69
633.95	822.24
634.29	816.83
634.64	812.38
634.98	806.36
635.32	801.76
635.67	796.86
636.01	792.07
636.36	786.83
636.70	781.38
637.05	776.36
637.39	772.02
637.73	767.21
638.08	762.86
638.42	757.95
638.77	753.64
639.11	749.26
639.45	744.50
639.80	739.50
640.14	734.50
640.49	729.05
640.83	724.00
641.17	719.93
641.52	715.07
641.86	710.14
642.20	707.02
642.55	702.00
642.89	697.21
643.23	692.36
643.58	688.38
643.92	683.33
644.26	679.05
644.61	674.57
644.95	670.05
645.29	665.21
645.64	661.62
645.98	656.83
646.32	652.50
646.66	648.45
647.01	644.40
647.35	640.98
647.69	637.62
648.04	633.81
648.38	629.52
648.72	625.83
649.06	621.71
649.41	616.33
649.75	612.05
650.09	608.19
650.43	604.38
650.78	600.02
651.12	596.17
651.46	592.29
651.80	588.26
652.14	584.48
652.49	581.64
652.83	577.17
653.17	573.48
653.51	569.31
653.85	565.55
654.20	561.81
654.54	557.64
654.88	553.40
655.22	551.00
655.56	546.95
655.90	543.50
656.25	540.45
656.59	537.19
656.93	533.95
657.27	531.31
657.61	527.60
657.95	524.71
658.29	521.55
658.64	518.79
658.98	515.50
659.32	512.50
659.66	508.60
660.00	505.76
660.34	502.81
660.68	499.67
661.02	496.67
661.36	493.76
661.70	490.55
662.05	487.81
662.39	484.14
662.73	482.69
663.07	480.81
663.41	478.21
663.75	475.33
664.09	472.40
664.43	468.79
664.77	466.50
665.11	463.05
665.45	460.31
665.79	457.76
666.13	454.79
666.47	451.98
666.81	449.69
667.15	446.93
667.49	444.86
667.83	443.57
668.17	441.07
668.51	439.21
668.85	437.45
669.19	436.05
669.53	433.45
669.87	430.48
670.21	427.45
670.55	424.98
670.89	424.14
671.23	421.98
671.57	420.00
671.91	418.24
672.25	416.55
672.58	415.17
672.92	412.29
673.26	410.33
673.60	408.62
673.94	406.71
674.28	405.17
674.62	403.33
674.96	400.79
675.30	399.48
675.64	397.02
675.97	395.00
676.31	392.48
676.65	390.60
676.99	389.19
677.33	387.07
677.67	385.17
678.01	382.33
678.34	380.67
678.68	379.07
679.02	376.88
679.36	374.90
679.70	373.07
680.04	371.76
680.37	370.14
680.71	368.26
681.05	366.45
681.39	364.88
681.73	362.71
682.06	360.93
682.40	359.10
682.74	357.93
683.08	357.12
683.42	355.45
683.75	354.07
684.09	352.14
684.43	350.69
684.77	349.07
685.10	347.69
685.44	346.31
685.78	344.62
686.12	343.67
686.45	342.48
686.79	340.67
687.13	339.55
687.46	338.38
687.80	337.57
688.14	336.19
688.48	334.71
688.81	333.88
689.15	333.24
689.49	331.67
689.82	330.40
690.16	328.38
690.50	327.00
690.83	325.76
691.17	323.86
691.51	322.71
691.84	322.02
692.18	320.64
692.52	319.57
692.85	318.88
693.19	318.19
693.52	317.07
693.86	316.33
694.20	315.17
694.53	313.88
694.87	312.40
695.21	311.21
695.54	310.29
695.88	308.62
696.21	306.83
696.55	305.90
696.88	304.67
697.22	303.24
697.56	302.52
697.89	301.26
698.23	301.19
698.56	300.07
698.90	298.98
699.23	297.74
699.57	296.79
699.90	295.71
700.24	294.12
700.58	293.31
700.91	292.93
701.25	293.45
701.58	293.40
701.92	293.00
702.25	292.14
702.59	291.14
702.92	290.69
703.26	290.31
703.59	289.69
703.93	290.67
704.26	290.36
704.60	289.69
704.93	289.17
705.26	288.19
705.60	287.62
705.93	286.43
706.27	286.48
706.60	286.33
706.94	286.24
707.27	285.45
707.61	284.60
707.94	283.10
708.27	280.67
708.61	278.86
708.94	277.98
709.28	277.50
709.61	276.57
709.94	275.86
710.28	274.98
710.61	274.17
710.95	271.74
711.28	272.38
711.61	271.60
711.95	271.40
712.28	270.43
712.61	270.02
712.95	270.69
713.28	270.95
713.61	269.79
713.95	268.38
714.28	267.71
714.61	267.14
714.95	266.57
715.28	266.02
715.61	265.79
715.95	265.10
716.28	264.40
716.61	264.24
716.95	263.64
717.28	263.05
717.61	262.57
717.94	262.02
718.28	259.90
718.61	259.21
718.94	258.07
719.27	257.71
719.61	257.19
719.94	256.02
720.27	254.40
720.60	253.86
720.94	253.43
721.27	253.33
721.60	253.33
721.93	253.00
722.27	253.33
722.60	253.17
722.93	252.36
723.26	252.36
723.59	251.71
723.93	251.55
724.26	251.38
724.59	251.12
724.92	250.90
725.25	251.33
725.59	251.02
725.92	250.95
726.25	250.60
726.58	250.29
726.91	249.55
727.24	249.38
727.57	249.05
727.91	248.55
728.24	248.10
728.57	247.38
728.90	247.12
729.23	245.95
729.56	246.67
729.89	246.74
730.22	245.81
730.55	245.38
730.89	244.93
731.22	244.24
731.55	243.76
731.88	243.45
732.21	242.88
732.54	242.33
732.87	241.98
733.20	242.05
733.53	241.67
733.86	241.76
734.19	241.29
734.52	241.36
734.85	242.57
735.18	242.07
735.51	242.62
735.84	242.64
736.17	243.10
736.50	241.57
736.83	243.86
737.16	243.95
737.49	243.98
737.82	243.76
738.15	244.14
738.48	243.79
738.81	243.36
739.14	242.60
739.47	242.43
739.80	242.00
740.13	241.79
740.46	241.33
740.79	240.86
741.12	240.62
741.45	240.10
741.78	238.67
742.11	239.02
742.44	238.24
742.77	238.05
743.10	237.48
743.43	237.21
743.75	234.62
744.08	236.95
744.41	236.48
744.74	235.90
745.07	234.98
745.40	235.31
745.73	236.02
746.06	236.05
746.39	236.05
746.71	235.90
747.04	235.26
747.37	235.00
747.70	235.19
748.03	235.05
748.36	235.17
748.68	234.86
749.01	234.02
749.34	233.48
749.67	233.24
750.00	233.29
750.33	234.74
750.65	234.83
750.98	231.90
751.31	231.98
751.64	232.12
751.97	233.14
752.29	232.74
752.62	231.62
752.95	231.36
753.28	231.00
753.60	230.90
753.93	231.43
754.26	231.48
754.59	230.62
754.91	230.29
755.24	230.00
755.57	229.93
755.90	230.02
756.22	230.05
756.55	229.64
756.88	229.07
757.20	227.43
757.53	226.60
757.86	226.48
758.19	226.24
758.51	225.69
758.84	224.24
759.17	223.81
759.49	223.81
759.82	224.69
760.15	224.98
760.47	224.81
760.80	223.90
761.13	224.02
761.45	223.98
761.78	223.95
762.11	223.86
762.43	223.69
762.76	223.31
763.08	223.29
763.41	223.36
763.74	223.62
764.06	223.71
764.39	223.79
764.71	223.67
765.04	223.33
765.37	223.38
765.69	223.64
766.02	223.67
766.34	223.45
766.67	222.67
767.00	222.93
767.32	223.98
767.65	225.14
767.97	224.86
768.30	224.86
768.62	224.76
768.95	224.24
769.27	224.19
769.60	224.57
769.92	224.19
770.25	223.76
770.57	223.36
770.90	223.07
771.22	222.83
771.55	222.88
771.87	222.88
772.20	222.81
772.52	224.48
772.85	226.71
773.17	226.50
773.50	226.33
773.82	225.88
774.15	224.67
774.47	223.21
774.80	222.95
775.12	222.95
775.45	222.71
775.77	222.88
776.09	222.57
776.42	222.50
776.74	223.26
777.07	223.12
777.39	222.90
777.72	222.79
778.04	223.10
778.36	222.86
778.69	223.21
779.01	223.36
779.33	221.52
779.66	219.29
779.98	219.36
780.31	219.19
780.63	219.98
780.95	220.43
781.28	220.38
781.60	220.10
781.92	220.00
782.25	220.07
782.57	220.12
782.89	219.98
783.22	219.55
783.54	218.88
783.86	219.21
784.19	219.33
784.51	219.76
784.83	219.12
785.16	219.19
785.48	218.83
785.80	218.83
786.12	218.98
786.45	219.00
786.77	219.02
787.09	219.05
787.42	218.17
787.74	218.21
788.06	218.36
788.38	218.52
788.71	218.33
789.03	218.38
789.35	218.62
789.67	218.74
789.99	219.12
790.32	218.71
790.64	218.79
790.96	220.21
791.28	219.48
791.61	219.33
791.93	219.33
792.25	219.26
792.57	220.64
792.89	220.31
793.21	220.14
793.54	219.86
793.86	219.67
794.18	219.83
794.50	219.29
794.82	219.33
795.14	219.48
795.47	219.98
795.79	219.83
796.11	219.21
796.43	218.83
796.75	218.74
797.07	219.00
797.39	218.76
797.71	217.19
798.04	217.52
798.36	217.67
798.68	217.71
799.00	217.90
799.32	216.60
799.64	216.95
799.96	217.19
800.28	217.52
800.60	217.00
800.92	217.14
801.24	216.88
801.56	216.86
801.89	216.43
802.21	216.50
802.53	216.12
802.85	216.45
803.17	217.79
803.49	217.38
803.81	217.17
804.13	217.17
804.45	217.02
804.77	217.29
805.09	217.29
805.41	217.07
805.73	216.67
806.05	216.29
806.37	216.14
806.69	215.62
807.01	215.64
807.33	216.02
807.65	215.05
807.97	216.05
808.28	216.05
808.60	216.29
808.92	215.93
809.24	217.31
809.56	217.19
809.88	216.24
810.20	216.52
810.52	216.93
810.84	216.60
811.16	216.52
811.48	216.21
811.80	217.31
812.12	217.31
812.43	218.05
812.75	218.24
813.07	218.05
813.39	218.50
813.71	218.00
814.03	217.83
814.35	218.07
814.67	217.40
814.98	217.12
815.30	217.00
815.62	216.69
815.94	215.43
816.26	215.52
816.58	215.19
816.89	215.17
817.21	214.79
817.53	215.07
817.85	215.07
818.17	214.88
818.48	213.76
818.80	214.05
819.12	213.33
819.44	213.02
819.76	212.81
820.07	212.71
820.39	212.71
820.71	213.07
821.03	213.19
821.34	212.98
821.66	213.45
821.98	213.71
822.30	213.55
822.61	214.90
822.93	214.62
823.25	214.52
823.57	214.40
823.88	214.74
824.20	214.40
824.52	214.67
824.83	214.64
825.15	214.57
825.47	214.52
825.79	214.71
826.10	214.79
826.42	214.64
826.74	214.67
827.05	215.07
827.37	214.86
827.69	214.60
828.00	214.71
828.32	214.60
828.64	214.38
828.95	215.64
829.27	215.07
829.58	215.17
829.90	215.74
830.22	215.76
830.53	215.57
830.85	215.55
831.17	215.26
831.48	215.19
831.80	215.21
832.11	214.95
832.43	214.83
832.75	214.81
833.06	216.31
833.38	215.83
833.69	215.60
834.01	215.86
834.32	215.83
834.64	215.67
834.96	215.67
835.27	215.45
835.59	214.64
835.90	214.17
836.22	214.17
836.53	213.71
836.85	213.67
837.16	215.48
837.48	215.67
837.79	216.38
838.11	216.50
838.42	216.48
838.74	216.71
839.05	216.57
839.37	216.43
839.68	214.93
840.00	214.88
840.31	215.02
840.63	214.60
840.94	214.62
841.26	214.50
841.57	214.36
841.88	214.71
842.20	214.55
842.51	214.29
842.83	214.48
843.14	216.17
843.46	216.12
843.77	215.07
844.08	215.00
844.40	214.33
844.71	214.36
845.03	214.29
845.34	213.98
845.65	213.90
845.97	214.10
846.28	214.36
846.60	214.52
846.91	214.38
847.22	214.60
847.54	214.76
847.85	214.88
848.16	214.74
848.48	214.50
848.79	215.33
849.10	215.50
849.42	215.26
849.73	213.50
850.04	213.40
850.36	212.60
850.67	212.76
850.98	212.83
851.30	212.86
851.61	212.83
851.92	212.93
852.23	213.48
852.55	213.40
852.86	213.43
853.17	213.67
853.49	214.00
853.80	214.57
854.11	215.07
854.42	215.50
854.74	215.36
855.05	215.60
855.36	214.55
855.67	214.71
855.99	214.74
856.30	217.33
856.61	217.07
856.92	217.10
857.23	216.98
857.55	216.74
857.86	216.83
858.17	217.21
858.48	216.98
858.79	216.71
859.11	217.07
859.42	217.05
859.73	216.64
860.04	216.50
860.35	215.86
860.66	215.26
860.98	215.07
861.29	215.31
861.60	214.88
861.91	215.21
862.22	214.95
862.53	214.60
862.84	212.26
863.16	212.98
863.47	212.69
863.78	212.36
864.09	212.38
864.40	212.36
864.71	212.26
865.02	212.67
865.33	212.43
865.64	211.93
865.95	211.69
866.27	212.98
866.58	212.64
866.89	212.60
867.20	212.21
867.51	211.71
867.82	211.48
868.13	212.21
868.44	211.64
868.75	212.14
869.06	212.60
869.37	212.83
869.68	212.36
869.99	212.81
870.30	213.19
870.61	213.48
870.92	213.24
871.23	212.98
871.54	212.95
871.85	213.24
872.16	213.57
872.47	213.67
872.78	212.48
873.09	212.76
873.40	212.79
873.71	213.21
874.02	213.38
874.33	213.21
874.64	212.64
874.95	213.07
875.26	212.60
875.56	212.38
875.87	212.10
876.18	211.95
876.49	213.74
876.80	213.50
877.11	213.19
877.42	213.33
877.73	213.38
878.04	213.14
878.35	213.26
878.66	213.17
878.96	212.98
879.27	213.00
879.58	212.86
879.89	212.76
880.20	213.31
880.51	213.45
880.82	213.71
881.12	213.69
881.43	213.31
881.74	212.88
882.05	212.79
882.36	212.93
882.67	213.07
882.97	211.02
883.28	211.02
883.59	210.86
883.90	211.14
884.21	211.76
884.51	211.57
884.82	211.24
885.13	211.24
885.44	211.19
885.74	211.40
886.05	211.40
886.36	211.48
886.67	210.71
886.98	211.40
887.28	211.52
887.59	211.55
887.90	211.71
888.20	211.86
888.51	212.26
888.82	211.95
889.13	212.12
889.43	213.74
889.74	213.64
890.05	213.55
890.35	213.14
890.66	212.50
890.97	212.36
891.28	212.26
891.58	212.43
891.89	212.40
892.20	212.05
892.50	212.02
892.81	212.00
893.12	211.88
893.42	211.12
893.73	211.17
894.04	211.31
894.34	211.52
894.65	211.67
894.95	211.52
895.26	211.57
895.57	212.38
895.87	210.62
896.18	211.02
896.48	211.26
896.79	211.21
897.10	211.64
897.40	211.86
897.71	212.02
898.01	211.62
898.32	212.00
898.63	211.83
898.93	211.88
899.24	211.88
899.54	212.00
899.85	211.81
900.15	211.86
900.46	211.79
900.76	211.81
901.07	211.60
901.38	211.60
901.68	211.64
901.99	210.74
902.29	210.83
902.60	210.29
902.90	210.29
903.21	210.29
903.51	209.98
903.82	210.62
904.12	210.83
904.43	211.14
904.73	211.05
905.03	211.24
905.34	213.24
905.64	213.10
905.95	213.21
906.25	213.21
906.56	213.02
906.86	213.07
907.17	212.90
907.47	213.26
907.77	212.86
908.08	212.43
908.38	212.45
908.69	212.71
908.99	213.45
909.30	213.33
909.60	213.50
909.90	213.83
910.21	213.02
910.51	212.81
910.81	212.76
911.12	212.90
911.42	212.93
911.73	210.76
912.03	211.14
912.33	211.45
912.64	211.38
912.94	211.21
913.24	211.02
913.55	210.76
913.85	210.50
914.15	211.02
914.46	211.60
914.76	211.33
915.06	211.17
915.37	210.55
915.67	210.67
915.97	210.55
916.27	209.93
916.58	210.12
916.88	209.76
917.18	209.67
917.49	211.05
917.79	210.88
918.09	211.43
918.39	211.71
918.70	211.60
919.00	211.88
919.30	212.83
919.60	212.64
919.91	212.60
920.21	212.67
920.51	212.29
920.81	212.02
921.12	212.55
921.42	212.57
921.72	212.74
922.02	212.81
922.32	213.17
922.63	213.29
922.93	214.36
923.23	214.38
923.53	214.10
923.83	212.81
924.13	213.26
924.44	213.02
924.74	213.36
925.04	213.60
925.34	213.57
925.64	212.81
925.94	212.76
926.24	214.07
926.55	214.00
926.85	214.31
927.15	214.31
927.45	214.21
927.75	214.12
928.05	214.36
928.35	214.31
928.65	214.48
928.95	214.76
929.26	213.81
929.56	214.36
929.86	214.74
930.16	214.29
930.46	214.10
930.76	214.14
931.06	213.21
931.36	213.05
931.66	213.40
931.96	213.69
932.26	214.02
932.56	213.05
932.86	213.26
933.16	213.10
933.46	213.21
933.76	212.76
934.06	213.02
934.36	213.62
934.66	213.52
934.96	213.33
935.26	213.29
935.56	213.69
935.86	213.17
936.16	212.81
936.46	212.86
936.76	212.67
937.06	212.10
937.36	212.26
937.66	211.98
937.96	211.71
938.26	211.29
938.56	211.12
938.86	211.17
939.16	211.33
939.46	211.40
939.76	211.29
940.06	211.62
940.35	211.45
940.65	210.36
940.95	210.55
941.25	210.07
941.55	209.93
941.85	209.74
942.15	210.36
942.45	211.07
942.75	211.19
943.04	211.24
943.34	211.90
943.64	211.71
943.94	211.52
944.24	211.50
944.54	211.45
944.84	211.24
945.13	211.05
945.43	210.88
945.73	210.90
946.03	210.90
946.33	210.69
946.62	210.36
946.92	210.36
947.22	210.55
947.52	210.71
947.82	211.10
948.11	210.90
948.41	210.50
948.71	210.00
949.01	209.90
949.31	209.74
949.60	209.64
949.90	210.00
950.20	210.12
950.50	210.17
950.79	210.24
951.09	210.64
951.39	210.69
951.69	210.40
951.98	210.71
952.28	210.74
952.58	210.55
952.87	210.71
953.17	211.12
953.47	210.64
953.76	210.60
954.06	210.14
954.36	210.05
954.66	209.86
954.95	210.31
955.25	210.57
955.55	210.90
955.84	210.60
956.14	210.55
956.44	210.48
956.73	210.10
957.03	210.21
957.32	210.21
957.62	210.17
957.92	210.74
958.21	210.48
958.51	212.83
958.81	213.07
959.10	213.17
959.40	213.55
959.69	213.81
959.99	214.17
960.29	214.31
960.58	214.07
960.88	214.86
961.17	214.45
961.47	214.55
961.76	214.38
962.06	214.67
962.36	214.60
962.65	214.74
962.95	214.93
963.24	214.71
963.54	214.74
963.83	214.93
964.13	214.67
964.42	214.43
964.72	212.60
965.01	212.64
965.31	212.52
965.60	212.02
965.90	213.31
966.19	212.86
966.49	212.93
966.78	213.12
967.08	213.00
967.37	213.02
967.67	212.64
967.96	212.83
968.26	212.76
968.55	213.00
968.85	212.86
969.14	212.86
969.43	212.71
969.73	212.69
970.02	212.60
970.32	212.67
970.61	212.45
970.91	212.12
971.20	212.14
971.49	212.14
971.79	212.62
972.08	211.21
972.38	211.38
972.67	211.38
972.96	211.62
973.26	211.31
973.55	212.00
973.85	211.90
974.14	211.79
974.43	211.95
974.73	211.55
975.02	211.43
975.31	211.29
975.61	211.43
975.90	211.12
976.19	210.95
976.49	211.14
976.78	211.52
977.07	211.38
977.37	211.10
977.66	211.21
977.95	210.50
978.24	210.55
978.54	210.88
978.83	210.62
979.12	210.40
979.42	210.26
979.71	209.93
980.00	209.95
980.29	210.19
980.59	209.64
980.88	210.12
981.17	210.14
981.46	210.19
981.76	210.02
982.05	210.67
982.34	210.76
982.63	210.57
982.93	210.45
983.22	210.98
983.51	210.95
983.80	211.17
984.09	211.71
984.39	211.57
984.68	211.10
984.97	211.38
985.26	211.21
985.55	211.21
985.85	210.62
986.14	211.12
986.43	211.19
986.72	211.33
987.01	210.86
987.30	210.86
987.59	210.79
987.89	210.93
988.18	210.29
988.47	209.90
988.76	209.81
989.05	209.71
989.34	209.48
989.63	210.40
989.92	210.12
990.22	209.71
990.51	209.71
990.80	209.81
991.09	209.93
991.38	210.24
991.67	210.19
991.96	210.21
992.25	210.10
992.54	209.62
992.83	209.69
993.12	209.81
993.41	210.12
993.70	210.98
993.99	211.67
994.28	211.93
994.58	212.48
994.87	212.29
995.16	212.33
995.45	212.26
995.74	211.60
996.03	211.98
996.32	212.17
996.61	212.86
996.90	212.79
997.19	212.48
997.48	212.45
997.77	212.24
998.06	212.33
998.34	212.05
998.63	212.26
998.92	212.19
999.21	212.38
999.50	212.38
999.79	211.57
1000.08	211.24
1000.37	211.17
1000.66	210.86
1000.95	211.33
1001.24	211.52
1001.53	211.67
1001.82	211.50
1002.11	211.07
1002.40	211.48
1002.68	211.64
1002.97	213.24
1003.26	213.14
1003.55	213.02
1003.84	213.24
1004.13	214.07
1004.42	213.93
1004.71	213.86
1004.99	213.90
1005.28	214.38
1005.57	214.21
1005.86	213.93
1006.15	213.90
1006.44	213.88
1006.72	214.19
1007.01	214.00
1007.30	213.81
1007.59	213.48
1007.88	213.45
1008.17	213.62
1008.45	213.21
1008.74	212.38
1009.03	211.40
1009.32	211.38
1009.60	211.21
1009.89	211.07
1010.18	210.05
1010.47	210.31
1010.76	210.38
1011.04	210.19
1011.33	210.10
1011.62	210.26
1011.91	210.67
1012.19	210.67
1012.48	210.52
1012.77	210.43
1013.05	211.02
1013.34	211.00
1013.63	211.10
1013.92	211.33
1014.20	211.07
1014.49	211.17
1014.78	211.45
1015.06	210.74
1015.35	210.76
1015.64	211.26
1015.92	211.43
1016.21	211.62
1016.50	211.55
1016.78	211.81
1017.07	212.17
1017.36	211.67
1017.64	211.45
1017.93	211.71
1018.22	211.55
1018.50	211.69
1018.79	211.52
1019.08	210.71
1019.36	210.88
1019.65	210.40
1019.93	210.95
1020.22	211.07
1020.51	212.00
1020.79	211.67
1021.08	210.00
1021.36	209.00
1021.65	207.50
1021.94	209.00
1022.22	212.50
1022.51	202.50
1022.79	223.00
1023.08	209.50
1023.36	233.50
1023.65	205.50
>>>>>End Processed Spectral Data<<<<<
