SpectraSuite Data File
++++++++++++++++++++++++++++++++++++
Date: Tue Apr 02 18:43:40 EDT 2013
User: group
Dark Spectrum Present: No
Reference Spectrum Present: No
Number of Sampled Component Spectra: 1
Spectrometers: USB2E7196
Integration Time (usec): 580000 (USB2E7196)
Spectra Averaged: 2 (USB2E7196)
Boxcar Smoothing: 10 (USB2E7196)
Correct for Electrical Dark: No (USB2E7196)
Strobe/Lamp Enabled: No (USB2E7196)
Correct for Detector Non-linearity: No (USB2E7196)
Correct for Stray Light: No (USB2E7196)
Number of Pixels in Processed Spectrum: 2048
>>>>>Begin Processed Spectral Data<<<<<
339.09	0.00
339.48	195.00
339.86	199.00
340.24	195.50
340.63	200.00
341.01	231.00
341.39	203.00
341.78	206.00
342.16	216.50
342.54	204.00
342.93	199.36
343.31	209.36
343.69	209.71
344.07	210.07
344.46	211.05
344.84	211.64
345.22	210.38
345.60	210.67
345.99	211.00
346.37	210.62
346.75	210.88
347.13	211.02
347.52	210.90
347.90	211.83
348.28	211.98
348.66	212.31
349.05	211.48
349.43	211.55
349.81	211.74
350.19	211.79
350.57	212.05
350.96	212.14
351.34	212.17
351.72	212.45
352.10	212.40
352.48	212.12
352.87	212.00
353.25	212.31
353.63	212.14
354.01	211.79
354.39	211.88
354.77	211.67
355.15	212.19
355.54	211.83
355.92	211.00
356.30	211.05
356.68	212.40
357.06	212.71
357.44	212.50
357.82	212.26
358.20	212.95
358.58	212.86
358.97	212.67
359.35	213.14
359.73	213.45
360.11	213.60
360.49	213.71
360.87	213.45
361.25	213.64
361.63	214.43
362.01	214.71
362.39	214.57
362.77	214.81
363.15	214.71
363.53	214.98
363.91	215.21
364.29	215.21
364.67	213.29
365.05	213.38
365.43	213.50
365.81	213.69
366.19	213.81
366.57	214.48
366.95	214.48
367.33	214.02
367.71	214.10
368.09	214.55
368.47	214.60
368.85	214.79
369.23	215.36
369.61	214.86
369.99	215.64
370.37	216.02
370.75	217.19
371.13	216.88
371.51	216.52
371.89	216.50
372.27	216.71
372.65	216.88
373.03	216.93
373.41	216.83
373.78	216.86
374.16	215.86
374.54	215.21
374.92	215.33
375.30	215.40
375.68	214.88
376.06	214.93
376.44	214.86
376.82	215.21
377.19	214.95
377.57	214.88
377.95	214.26
378.33	214.29
378.71	212.81
379.09	213.07
379.47	213.48
379.84	213.55
380.22	213.43
380.60	212.98
380.98	212.90
381.36	212.69
381.73	212.33
382.11	212.86
382.49	212.79
382.87	212.57
383.25	212.55
383.62	214.93
384.00	214.60
384.38	214.64
384.76	214.83
385.13	215.62
385.51	215.60
385.89	215.31
386.27	215.26
386.64	215.79
387.02	215.50
387.40	215.29
387.78	215.24
388.15	215.12
388.53	215.26
388.91	215.21
389.29	215.24
389.66	215.57
390.04	215.14
390.42	215.64
390.79	215.83
391.17	215.86
391.55	213.71
391.92	213.74
392.30	213.93
392.68	213.57
393.05	213.26
393.43	213.31
393.81	213.45
394.18	213.19
394.56	213.19
394.94	213.48
395.31	213.17
395.69	213.79
396.06	214.02
396.44	214.07
396.82	213.88
397.19	215.07
397.57	214.86
397.95	215.26
398.32	214.74
398.70	214.83
399.07	215.14
399.45	215.14
399.82	214.93
400.20	214.60
400.58	214.50
400.95	213.48
401.33	213.88
401.70	215.36
402.08	215.43
402.45	215.43
402.83	216.17
403.20	216.67
403.58	216.64
403.95	217.07
404.33	217.62
404.71	217.98
405.08	219.21
405.46	219.79
405.83	220.14
406.21	220.69
406.58	221.02
406.96	221.33
407.33	221.86
407.70	222.79
408.08	225.07
408.45	226.12
408.83	227.40
409.20	227.95
409.58	227.50
409.95	228.69
410.33	229.69
410.70	229.76
411.08	230.88
411.45	231.69
411.82	232.50
412.20	234.12
412.57	236.74
412.95	236.14
413.32	237.86
413.69	239.21
414.07	241.02
414.44	243.10
414.82	245.00
415.19	247.48
415.56	249.57
415.94	250.86
416.31	253.67
416.68	256.17
417.06	259.45
417.43	262.98
417.81	266.45
418.18	269.90
418.55	273.50
418.93	277.40
419.30	281.69
419.67	286.26
420.04	290.69
420.42	294.57
420.79	301.95
421.16	307.17
421.54	314.38
421.91	320.69
422.28	326.88
422.66	333.29
423.03	341.26
423.40	348.19
423.77	355.50
424.15	362.33
424.52	370.02
424.89	378.74
425.26	386.64
425.64	394.12
426.01	402.52
426.38	411.81
426.75	421.31
427.13	430.69
427.50	440.45
427.87	450.38
428.24	461.02
428.61	469.12
428.99	480.71
429.36	490.74
429.73	501.76
430.10	513.05
430.47	524.90
430.85	535.88
431.22	548.31
431.59	562.79
431.96	575.79
432.33	590.05
432.70	603.48
433.08	618.90
433.45	634.36
433.82	649.74
434.19	667.33
434.56	684.12
434.93	699.81
435.30	715.31
435.68	732.86
436.05	749.45
436.42	766.74
436.79	782.57
437.16	799.95
437.53	817.79
437.90	835.52
438.27	854.05
438.64	871.40
439.01	888.67
439.38	902.36
439.75	917.26
440.13	934.31
440.50	949.64
440.87	962.79
441.24	976.19
441.61	990.43
441.98	999.86
442.35	1012.33
442.72	1024.98
443.09	1038.76
443.46	1045.95
443.83	1051.40
444.20	1056.02
444.57	1061.74
444.94	1065.57
445.31	1069.12
445.68	1075.43
446.05	1076.26
446.42	1074.55
446.79	1073.29
447.16	1071.24
447.53	1070.33
447.90	1063.90
448.27	1057.88
448.64	1049.48
449.01	1043.33
449.37	1032.45
449.74	1022.00
450.11	1010.05
450.48	995.62
450.85	979.19
451.22	967.26
451.59	956.02
451.96	944.48
452.33	929.29
452.70	914.55
453.07	897.33
453.43	877.83
453.80	860.93
454.17	845.62
454.54	830.19
454.91	814.40
455.28	797.83
455.65	782.95
456.02	771.50
456.38	758.60
456.75	742.76
457.12	729.81
457.49	717.43
457.86	703.52
458.23	693.36
458.59	681.95
458.96	669.76
459.33	658.50
459.70	648.45
460.07	639.98
460.43	630.17
460.80	621.33
461.17	613.40
461.54	605.33
461.91	597.33
462.27	589.17
462.64	582.14
463.01	575.48
463.38	569.14
463.74	558.50
464.11	551.90
464.48	546.67
464.85	540.43
465.21	535.57
465.58	530.67
465.95	524.14
466.32	519.24
466.68	514.12
467.05	509.24
467.42	503.88
467.78	498.48
468.15	493.79
468.52	490.14
468.88	484.36
469.25	479.93
469.62	476.76
469.98	472.74
470.35	469.12
470.72	465.10
471.08	460.21
471.45	457.21
471.82	454.45
472.18	450.67
472.55	448.00
472.92	444.50
473.28	441.50
473.65	438.45
474.02	436.10
474.38	433.50
474.75	431.83
475.11	429.29
475.48	427.60
475.85	425.69
476.21	423.76
476.58	422.43
476.94	421.45
477.31	420.10
477.67	418.95
478.04	417.79
478.41	416.95
478.77	418.52
479.14	417.40
479.50	416.71
479.87	416.33
480.23	416.07
480.60	415.90
480.96	415.48
481.33	416.50
481.69	416.14
482.06	416.90
482.42	416.88
482.79	417.40
483.15	417.74
483.52	418.76
483.88	419.43
484.25	420.12
484.61	420.60
484.98	421.36
485.34	423.07
485.71	424.81
486.07	426.14
486.44	425.31
486.80	427.29
487.17	428.88
487.53	431.12
487.90	433.07
488.26	435.71
488.62	438.64
488.99	440.26
489.35	443.19
489.72	445.62
490.08	447.83
490.44	450.62
490.81	453.81
491.17	456.79
491.54	460.17
491.90	464.36
492.26	467.74
492.63	471.45
492.99	474.90
493.36	478.86
493.72	483.14
494.08	487.64
494.45	492.60
494.81	497.43
495.17	501.95
495.54	507.33
495.90	511.76
496.26	516.93
496.63	522.60
496.99	528.17
497.35	534.00
497.72	540.00
498.08	545.83
498.44	551.98
498.80	558.00
499.17	564.69
499.53	570.76
499.89	578.10
500.26	584.95
500.62	592.10
500.98	599.60
501.34	606.76
501.71	614.38
502.07	621.02
502.43	628.21
502.79	635.55
503.16	642.64
503.52	650.21
503.88	657.10
504.24	664.60
504.60	671.48
504.97	678.55
505.33	685.98
505.69	694.33
506.05	702.24
506.41	709.93
506.78	717.19
507.14	724.74
507.50	731.95
507.86	740.02
508.22	747.45
508.59	753.74
508.95	761.86
509.31	769.90
509.67	777.90
510.03	786.10
510.39	794.07
510.75	801.62
511.12	808.40
511.48	816.21
511.84	824.07
512.20	832.00
512.56	840.17
512.92	848.43
513.28	856.29
513.64	863.29
514.00	870.81
514.37	877.83
514.73	885.02
515.09	893.05
515.45	899.10
515.81	906.31
516.17	913.76
516.53	919.67
516.89	925.50
517.25	931.60
517.61	938.21
517.97	944.17
518.33	950.60
518.69	957.64
519.05	964.26
519.41	970.17
519.77	977.55
520.13	983.43
520.49	988.88
520.85	994.00
521.21	1000.60
521.57	1006.64
521.93	1012.21
522.29	1018.12
522.65	1022.19
523.01	1028.31
523.37	1033.12
523.73	1038.21
524.09	1043.71
524.45	1048.88
524.81	1053.24
525.17	1057.81
525.53	1062.31
525.89	1067.12
526.25	1072.31
526.61	1075.95
526.97	1080.19
527.33	1084.31
527.68	1089.83
528.04	1094.14
528.40	1098.17
528.76	1102.43
529.12	1106.21
529.48	1110.76
529.84	1114.90
530.20	1119.86
530.56	1124.02
530.91	1128.24
531.27	1133.71
531.63	1137.98
531.99	1142.02
532.35	1146.24
532.71	1150.19
533.07	1154.95
533.42	1161.57
533.78	1165.48
534.14	1169.83
534.50	1173.81
534.86	1177.86
535.21	1180.00
535.57	1184.36
535.93	1188.10
536.29	1192.60
536.65	1197.00
537.00	1200.83
537.36	1204.14
537.72	1207.10
538.08	1211.05
538.44	1214.98
538.79	1217.52
539.15	1220.71
539.51	1223.76
539.87	1227.74
540.22	1231.07
540.58	1233.98
540.94	1234.43
541.29	1237.07
541.65	1239.17
542.01	1242.67
542.37	1244.45
542.72	1246.79
543.08	1249.02
543.44	1252.17
543.79	1253.48
544.15	1256.64
544.51	1259.74
544.87	1262.36
545.22	1266.07
545.58	1268.31
545.94	1270.48
546.29	1273.29
546.65	1275.76
547.01	1278.86
547.36	1281.60
547.72	1284.40
548.07	1287.43
548.43	1290.31
548.79	1292.55
549.14	1295.88
549.50	1298.31
549.86	1301.00
550.21	1305.26
550.57	1308.33
550.92	1310.71
551.28	1314.62
551.64	1316.64
551.99	1319.74
552.35	1322.55
552.70	1324.43
553.06	1327.98
553.41	1331.19
553.77	1334.74
554.13	1338.88
554.48	1342.98
554.84	1347.17
555.19	1350.43
555.55	1355.50
555.90	1358.95
556.26	1363.29
556.61	1366.62
556.97	1370.07
557.32	1374.50
557.68	1377.57
558.03	1380.98
558.39	1384.93
558.74	1388.19
559.10	1392.19
559.45	1396.50
559.81	1401.29
560.16	1405.88
560.52	1409.88
560.87	1414.62
561.23	1418.64
561.58	1423.79
561.94	1427.60
562.29	1430.93
562.64	1435.62
563.00	1438.95
563.35	1443.95
563.71	1448.29
564.06	1454.48
564.42	1460.21
564.77	1465.45
565.12	1471.95
565.48	1479.69
565.83	1485.76
566.19	1492.21
566.54	1497.62
566.89	1502.88
567.25	1509.31
567.60	1516.60
567.96	1524.81
568.31	1531.69
568.66	1538.24
569.02	1541.83
569.37	1547.62
569.72	1553.93
570.08	1558.62
570.43	1563.19
570.78	1568.88
571.14	1575.67
571.49	1580.50
571.84	1585.69
572.20	1590.50
572.55	1595.17
572.90	1597.17
573.26	1601.69
573.61	1605.71
573.96	1610.36
574.31	1614.79
574.67	1618.02
575.02	1621.74
575.37	1623.26
575.72	1626.48
576.08	1630.69
576.43	1634.90
576.78	1638.05
577.13	1641.88
577.49	1646.55
577.84	1651.19
578.19	1655.17
578.54	1657.88
578.90	1662.33
579.25	1666.36
579.60	1669.90
579.95	1672.21
580.30	1676.83
580.66	1680.64
581.01	1683.55
581.36	1686.88
581.71	1689.71
582.06	1694.90
582.42	1698.45
582.77	1701.19
583.12	1703.33
583.47	1706.21
583.82	1710.21
584.17	1714.02
584.53	1717.45
584.88	1720.67
585.23	1723.52
585.58	1725.29
585.93	1728.38
586.28	1730.29
586.63	1733.02
586.98	1735.67
587.34	1739.31
587.69	1742.07
588.04	1745.05
588.39	1747.48
588.74	1748.90
589.09	1751.19
589.44	1750.02
589.79	1751.40
590.14	1753.38
590.49	1755.86
590.84	1755.90
591.19	1756.79
591.54	1757.69
591.89	1757.62
592.25	1760.00
592.60	1760.90
592.95	1762.48
593.30	1764.36
593.65	1764.07
594.00	1762.88
594.35	1769.67
594.70	1770.31
595.05	1770.43
595.40	1769.79
595.75	1770.02
596.10	1771.38
596.45	1772.02
596.80	1774.26
597.15	1775.33
597.50	1775.79
597.85	1777.10
598.19	1777.67
598.54	1777.71
598.89	1777.62
599.24	1779.29
599.59	1778.48
599.94	1778.50
600.29	1778.26
600.64	1776.98
600.99	1778.69
601.34	1779.71
601.69	1773.81
602.04	1772.52
602.39	1772.88
602.74	1773.93
603.08	1774.07
603.43	1776.14
603.78	1776.05
604.13	1775.43
604.48	1774.43
604.83	1775.10
605.18	1774.19
605.53	1774.19
605.87	1773.60
606.22	1772.88
606.57	1771.21
606.92	1769.17
607.27	1767.67
607.62	1767.74
607.96	1768.14
608.31	1766.69
608.66	1766.02
609.01	1763.50
609.36	1763.26
609.70	1761.05
610.05	1758.05
610.40	1756.17
610.75	1752.02
611.10	1750.10
611.44	1747.55
611.79	1745.26
612.14	1742.48
612.49	1739.19
612.83	1736.17
613.18	1733.93
613.53	1731.19
613.88	1727.93
614.22	1725.29
614.57	1722.31
614.92	1718.38
615.27	1713.60
615.61	1709.24
615.96	1705.67
616.31	1703.24
616.65	1700.55
617.00	1697.29
617.35	1694.60
617.70	1691.67
618.04	1688.12
618.39	1683.36
618.74	1679.76
619.08	1675.43
619.43	1671.60
619.78	1668.00
620.12	1665.10
620.47	1661.17
620.82	1657.14
621.16	1653.60
621.51	1650.71
621.85	1646.69
622.20	1642.79
622.55	1639.29
622.89	1636.55
623.24	1633.00
623.59	1628.71
623.93	1624.19
624.28	1619.64
624.62	1618.12
624.97	1614.74
625.32	1610.86
625.66	1607.86
626.01	1604.21
626.35	1600.90
626.70	1596.81
627.04	1593.86
627.39	1589.55
627.73	1586.57
628.08	1583.05
628.43	1579.07
628.77	1574.57
629.12	1571.36
629.46	1568.10
629.81	1563.83
630.15	1559.50
630.50	1554.62
630.84	1550.69
631.19	1545.14
631.53	1541.05
631.88	1533.00
632.22	1526.90
632.57	1522.40
632.91	1516.83
633.26	1512.17
633.60	1506.79
633.95	1501.83
634.29	1494.98
634.64	1490.33
634.98	1484.19
635.32	1480.12
635.67	1476.57
636.01	1472.12
636.36	1466.45
636.70	1461.33
637.05	1456.36
637.39	1451.40
637.73	1447.31
638.08	1443.07
638.42	1438.31
638.77	1434.31
639.11	1429.79
639.45	1425.02
639.80	1420.12
640.14	1415.07
640.49	1409.29
640.83	1404.57
641.17	1400.05
641.52	1395.69
641.86	1390.40
642.20	1386.67
642.55	1380.38
642.89	1374.02
643.23	1367.86
643.58	1363.52
643.92	1356.52
644.26	1350.88
644.61	1345.67
644.95	1339.29
645.29	1331.95
645.64	1327.45
645.98	1321.14
646.32	1315.88
646.66	1309.55
647.01	1303.10
647.35	1297.76
647.69	1291.50
648.04	1285.67
648.38	1278.74
648.72	1272.71
649.06	1266.93
649.41	1259.64
649.75	1253.76
650.09	1247.17
650.43	1241.17
650.78	1234.02
651.12	1227.93
651.46	1222.19
651.80	1215.29
652.14	1208.76
652.49	1203.21
652.83	1196.33
653.17	1189.17
653.51	1182.48
653.85	1176.52
654.20	1170.24
654.54	1163.81
654.88	1157.26
655.22	1151.10
655.56	1144.64
655.90	1138.83
656.25	1131.50
656.59	1125.55
656.93	1118.48
657.27	1113.19
657.61	1106.64
657.95	1100.98
658.29	1095.19
658.64	1089.45
658.98	1082.24
659.32	1075.31
659.66	1069.29
660.00	1062.50
660.34	1056.90
660.68	1050.62
661.02	1043.83
661.36	1037.55
661.70	1031.14
662.05	1026.12
662.39	1020.14
662.73	1015.05
663.07	1009.76
663.41	1003.95
663.75	997.26
664.09	991.71
664.43	984.38
664.77	977.83
665.11	970.76
665.45	964.81
665.79	958.10
666.13	952.67
666.47	947.38
666.81	941.07
667.15	935.21
667.49	929.76
667.83	924.62
668.17	919.24
668.51	913.57
668.85	907.74
669.19	902.93
669.53	896.50
669.87	889.90
670.21	882.50
670.55	876.00
670.89	871.48
671.23	865.76
671.57	860.55
671.91	855.76
672.25	851.14
672.58	846.86
672.92	841.12
673.26	836.57
673.60	831.31
673.94	825.81
674.28	821.19
674.62	816.50
674.96	810.64
675.30	805.64
675.64	800.19
675.97	795.45
676.31	789.67
676.65	784.52
676.99	780.64
677.33	776.21
677.67	771.83
678.01	765.98
678.34	761.76
678.68	757.29
679.02	751.88
679.36	746.88
679.70	740.40
680.04	735.60
680.37	730.43
680.71	725.38
681.05	721.33
681.39	716.21
681.73	710.76
682.06	706.26
682.40	702.29
682.74	698.17
683.08	694.38
683.42	689.07
683.75	684.67
684.09	679.19
684.43	674.26
684.77	669.69
685.10	665.45
685.44	660.57
685.78	655.76
686.12	651.02
686.45	646.40
686.79	642.00
687.13	638.24
687.46	633.64
687.80	630.07
688.14	625.83
688.48	621.88
688.81	617.57
689.15	613.83
689.49	608.52
689.82	604.55
690.16	599.21
690.50	595.36
690.83	591.07
691.17	586.90
691.51	582.90
691.84	579.31
692.18	575.29
692.52	571.62
692.85	568.19
693.19	565.79
693.52	562.60
693.86	558.83
694.20	554.45
694.53	550.48
694.87	546.43
695.21	542.14
695.54	538.07
695.88	533.83
696.21	529.19
696.55	525.71
696.88	521.55
697.22	518.17
697.56	514.98
697.89	511.26
698.23	508.12
698.56	504.69
698.90	500.88
699.23	497.10
699.57	493.60
699.90	489.98
700.24	486.24
700.58	482.33
700.91	479.67
701.25	478.24
701.58	476.21
701.92	473.71
702.25	470.67
702.59	467.26
702.92	464.64
703.26	461.88
703.59	459.12
703.93	458.14
704.26	455.55
704.60	452.36
704.93	449.48
705.26	446.26
705.60	443.71
705.93	440.88
706.27	438.60
706.60	436.40
706.94	434.43
707.27	431.26
707.61	428.81
707.94	425.60
708.27	421.38
708.61	418.02
708.94	414.88
709.28	412.45
709.61	410.14
709.94	407.93
710.28	405.69
710.61	403.36
710.95	399.12
711.28	397.76
711.61	395.62
711.95	393.86
712.28	391.38
712.61	388.81
712.95	387.81
713.28	386.52
713.61	384.14
713.95	381.38
714.28	379.33
714.61	377.00
714.95	375.02
715.28	372.74
715.61	370.64
715.95	368.86
716.28	366.95
716.61	365.52
716.95	362.83
717.28	360.57
717.61	358.64
717.94	356.95
718.28	353.93
718.61	352.17
718.94	350.14
719.27	348.81
719.61	347.45
719.94	344.88
720.27	342.00
720.60	339.74
720.94	338.29
721.27	337.05
721.60	335.71
721.93	334.48
722.27	333.74
722.60	332.17
722.93	330.48
723.26	328.88
723.59	327.05
723.93	326.19
724.26	325.07
724.59	323.50
724.92	322.21
725.25	321.36
725.59	320.17
725.92	318.98
726.25	317.60
726.58	316.55
726.91	315.45
727.24	314.60
727.57	313.36
727.91	311.48
728.24	310.38
728.57	309.36
728.90	308.45
729.23	306.69
729.56	306.67
729.89	305.74
730.22	304.62
730.55	303.48
730.89	302.57
731.22	301.74
731.55	300.76
731.88	299.79
732.21	298.48
732.54	297.12
732.87	296.24
733.20	295.12
733.53	294.12
733.86	293.36
734.19	292.17
734.52	291.81
734.85	292.60
735.18	291.45
735.51	290.90
735.84	290.12
736.17	289.90
736.50	288.38
736.83	289.74
737.16	289.19
737.49	288.67
737.82	287.45
738.15	286.52
738.48	285.86
738.81	285.07
739.14	283.93
739.47	282.95
739.80	282.07
740.13	281.48
740.46	280.33
740.79	279.36
741.12	278.79
741.45	277.69
741.78	275.74
742.11	275.60
742.44	274.76
742.77	274.38
743.10	273.50
743.43	272.48
743.75	269.52
744.08	271.19
744.41	270.29
744.74	269.76
745.07	269.00
745.40	268.69
745.73	268.62
746.06	268.48
746.39	268.12
746.71	267.12
747.04	266.29
747.37	265.64
747.70	265.05
748.03	264.26
748.36	264.21
748.68	263.69
749.01	262.38
749.34	261.50
749.67	260.90
750.00	260.60
750.33	261.48
750.65	261.14
750.98	258.05
751.31	257.60
751.64	257.17
751.97	258.00
752.29	257.21
752.62	255.64
752.95	254.90
753.28	254.19
753.60	253.81
753.93	254.05
754.26	253.57
754.59	252.67
754.91	252.00
755.24	251.36
755.57	250.69
755.90	250.21
756.22	249.67
756.55	248.95
756.88	247.98
757.20	246.38
757.53	245.45
757.86	244.98
758.19	244.79
758.51	244.24
758.84	242.52
759.17	242.02
759.49	241.98
759.82	242.60
760.15	242.50
760.47	242.02
760.80	241.07
761.13	241.40
761.45	241.02
761.78	240.79
762.11	240.21
762.43	239.90
762.76	239.64
763.08	239.64
763.41	239.29
763.74	239.07
764.06	238.71
764.39	238.33
764.71	238.19
765.04	237.45
765.37	236.95
765.69	236.88
766.02	236.48
766.34	236.00
766.67	234.88
767.00	235.14
767.32	236.21
767.65	237.05
767.97	236.38
768.30	236.26
768.62	236.24
768.95	235.93
769.27	235.62
769.60	235.38
769.92	234.79
770.25	234.36
770.57	233.88
770.90	233.17
771.22	233.02
771.55	233.00
771.87	232.74
772.20	232.45
772.52	233.76
772.85	235.86
773.17	235.93
773.50	235.83
773.82	235.05
774.15	233.74
774.47	232.62
774.80	232.10
775.12	232.19
775.45	231.76
775.77	231.57
776.09	231.55
776.42	231.60
776.74	232.02
777.07	231.64
777.39	231.48
777.72	231.60
778.04	231.64
778.36	231.00
778.69	231.17
779.01	231.38
779.33	229.38
779.66	226.90
779.98	226.50
780.31	226.26
780.63	227.02
780.95	227.05
781.28	226.69
781.60	226.67
781.92	226.17
782.25	226.10
782.57	225.93
782.89	225.52
783.22	224.90
783.54	224.24
783.86	224.43
784.19	224.19
784.51	224.55
784.83	224.00
785.16	224.07
785.48	224.07
785.80	223.74
786.12	223.90
786.45	223.88
786.77	224.05
787.09	223.71
787.42	222.62
787.74	222.86
788.06	222.62
788.38	222.31
788.71	222.21
789.03	222.17
789.35	222.31
789.67	221.81
789.99	221.88
790.32	221.52
790.64	221.55
790.96	223.17
791.28	222.31
791.61	222.24
791.93	222.10
792.25	221.79
792.57	223.43
792.89	222.81
793.21	223.02
793.54	222.67
793.86	222.45
794.18	222.83
794.50	222.19
794.82	222.36
795.14	222.55
795.47	222.83
795.79	222.95
796.11	222.64
796.43	222.81
796.75	222.98
797.07	223.24
797.39	223.00
797.71	221.45
798.04	221.64
798.36	221.62
798.68	221.64
799.00	221.69
799.32	220.31
799.64	220.71
799.96	220.45
800.28	220.74
800.60	220.57
800.92	220.43
801.24	220.33
801.56	220.55
801.89	220.29
802.21	220.50
802.53	220.02
802.85	220.52
803.17	221.48
803.49	220.95
803.81	220.69
804.13	220.60
804.45	220.33
804.77	220.69
805.09	220.60
805.41	220.43
805.73	220.14
806.05	219.67
806.37	219.38
806.69	219.17
807.01	218.90
807.33	219.07
807.65	218.33
807.97	219.33
808.28	218.79
808.60	218.88
808.92	218.31
809.24	219.60
809.56	219.00
809.88	218.19
810.20	218.43
810.52	218.90
810.84	218.43
811.16	218.38
811.48	218.00
811.80	218.90
812.12	218.71
812.43	218.95
812.75	219.14
813.07	218.86
813.39	218.98
813.71	218.55
814.03	218.36
814.35	218.43
814.67	217.45
814.98	217.26
815.30	217.14
815.62	216.86
815.94	215.17
816.26	215.29
816.58	214.88
816.89	214.93
817.21	214.26
817.53	214.52
817.85	214.52
818.17	214.40
818.48	213.62
818.80	213.88
819.12	213.57
819.44	213.21
819.76	213.19
820.07	213.02
820.39	213.12
820.71	213.14
821.03	213.26
821.34	213.00
821.66	213.29
821.98	213.50
822.30	213.50
822.61	215.07
822.93	215.05
823.25	215.12
823.57	214.81
823.88	215.21
824.20	215.07
824.52	215.33
824.83	215.33
825.15	215.00
825.47	215.07
825.79	215.21
826.10	215.14
826.42	215.00
826.74	215.55
827.05	215.69
827.37	215.90
827.69	215.76
828.00	215.83
828.32	215.79
828.64	215.45
828.95	216.31
829.27	215.71
829.58	215.50
829.90	216.10
830.22	216.40
830.53	215.88
830.85	215.74
831.17	215.43
831.48	215.43
831.80	215.52
832.11	215.38
832.43	215.21
832.75	215.24
833.06	216.62
833.38	215.81
833.69	215.50
834.01	215.57
834.32	215.67
834.64	215.62
834.96	215.60
835.27	215.57
835.59	215.17
835.90	214.57
836.22	214.60
836.53	213.95
836.85	213.45
837.16	215.45
837.48	215.52
837.79	216.05
838.11	216.07
838.42	216.02
838.74	216.17
839.05	215.95
839.37	216.05
839.68	214.79
840.00	214.74
840.31	215.24
840.63	215.19
840.94	215.10
841.26	215.00
841.57	215.21
841.88	215.64
842.20	215.31
842.51	215.38
842.83	215.26
843.14	217.21
843.46	217.55
843.77	216.50
844.08	216.55
844.40	215.86
844.71	215.88
845.03	215.81
845.34	215.81
845.65	215.74
845.97	215.71
846.28	215.62
846.60	215.74
846.91	215.24
847.22	215.00
847.54	215.57
847.85	215.81
848.16	215.36
848.48	214.64
848.79	215.45
849.10	215.74
849.42	216.05
849.73	214.19
850.04	214.07
850.36	213.26
850.67	213.64
850.98	213.95
851.30	213.95
851.61	213.88
851.92	213.64
852.23	214.36
852.55	214.33
852.86	214.50
853.17	214.69
853.49	215.24
853.80	215.76
854.11	215.38
854.42	215.38
854.74	215.26
855.05	215.40
855.36	214.31
855.67	214.07
855.99	213.95
856.30	216.26
856.61	216.10
856.92	216.24
857.23	216.21
857.55	216.02
857.86	215.90
858.17	216.12
858.48	215.86
858.79	215.31
859.11	215.40
859.42	215.19
859.73	214.86
860.04	214.71
860.35	214.17
860.66	213.93
860.98	214.00
861.29	214.33
861.60	214.26
861.91	214.67
862.22	214.40
862.53	214.24
862.84	211.98
863.16	212.50
863.47	212.14
863.78	211.81
864.09	211.83
864.40	211.90
864.71	211.98
865.02	212.21
865.33	211.95
865.64	211.67
865.95	211.76
866.27	213.14
866.58	212.90
866.89	212.95
867.20	212.79
867.51	212.31
867.82	212.00
868.13	212.64
868.44	212.31
868.75	212.71
869.06	212.52
869.37	212.62
869.68	211.93
869.99	212.10
870.30	212.02
870.61	212.19
870.92	211.74
871.23	211.52
871.54	211.64
871.85	212.38
872.16	212.79
872.47	212.55
872.78	211.31
873.09	211.62
873.40	211.48
873.71	211.67
874.02	211.86
874.33	211.79
874.64	211.33
874.95	211.93
875.26	211.48
875.56	211.45
875.87	211.29
876.18	211.45
876.49	213.86
876.80	213.74
877.11	213.17
877.42	213.14
877.73	213.12
878.04	212.95
878.35	212.67
878.66	212.50
878.96	212.57
879.27	212.52
879.58	212.05
879.89	211.86
880.20	212.40
880.51	212.19
880.82	212.31
881.12	212.50
881.43	211.76
881.74	211.83
882.05	211.95
882.36	212.24
882.67	212.38
882.97	210.00
883.28	209.83
883.59	209.79
883.90	210.43
884.21	210.79
884.51	210.62
884.82	210.29
885.13	210.07
885.44	210.17
885.74	210.07
886.05	210.21
886.36	210.43
886.67	209.79
886.98	210.95
887.28	211.26
887.59	211.05
887.90	211.38
888.20	211.02
888.51	211.21
888.82	210.86
889.13	210.79
889.43	212.55
889.74	212.71
890.05	212.88
890.35	212.38
890.66	211.98
890.97	211.95
891.28	211.79
891.58	212.00
891.89	211.95
892.20	211.76
892.50	211.62
892.81	211.45
893.12	211.40
893.42	210.48
893.73	210.57
894.04	210.64
894.34	210.76
894.65	210.67
894.95	210.50
895.26	210.48
895.57	211.60
895.87	209.57
896.18	209.81
896.48	210.00
896.79	210.36
897.10	210.93
897.40	211.12
897.71	211.69
898.01	211.55
898.32	211.98
898.63	212.19
898.93	212.29
899.24	212.26
899.54	212.07
899.85	211.93
900.15	211.95
900.46	212.10
900.76	212.21
901.07	212.40
901.38	212.52
901.68	212.83
901.99	211.67
902.29	211.79
902.60	211.74
902.90	211.50
903.21	211.29
903.51	211.00
903.82	211.21
904.12	211.14
904.43	211.21
904.73	210.90
905.03	211.10
905.34	213.36
905.64	213.26
905.95	213.38
906.25	213.36
906.56	212.95
906.86	212.98
907.17	212.71
907.47	213.00
907.77	212.76
908.08	212.52
908.38	212.74
908.69	213.17
908.99	213.48
909.30	213.67
909.60	213.76
909.90	213.86
910.21	213.36
910.51	213.14
910.81	213.43
911.12	213.67
911.42	213.57
911.73	211.45
912.03	211.90
912.33	212.31
912.64	212.64
912.94	212.57
913.24	212.07
913.55	212.02
913.85	211.81
914.15	212.38
914.46	212.55
914.76	212.62
915.06	212.45
915.37	212.12
915.67	211.98
915.97	212.02
916.27	211.64
916.58	212.07
916.88	211.95
917.18	211.71
917.49	213.00
917.79	212.69
918.09	212.88
918.39	213.26
918.70	213.07
919.00	212.93
919.30	213.88
919.60	213.74
919.91	213.74
920.21	214.00
920.51	213.17
920.81	213.00
921.12	213.07
921.42	213.05
921.72	213.05
922.02	213.07
922.32	213.31
922.63	213.48
922.93	214.31
923.23	214.21
923.53	213.86
923.83	212.57
924.13	212.86
924.44	212.76
924.74	213.00
925.04	213.55
925.34	213.55
925.64	212.71
925.94	212.93
926.24	214.00
926.55	213.74
926.85	214.12
927.15	213.98
927.45	214.07
927.75	213.98
928.05	214.21
928.35	214.21
928.65	214.45
928.95	214.69
929.26	213.98
929.56	214.79
929.86	215.40
930.16	215.05
930.46	214.98
930.76	214.90
931.06	213.86
931.36	213.29
931.66	213.38
931.96	213.52
932.26	213.52
932.56	212.48
932.86	212.45
933.16	212.43
933.46	212.31
933.76	211.76
934.06	212.43
934.36	212.88
934.66	212.74
934.96	212.26
935.26	212.40
935.56	212.55
935.86	211.76
936.16	211.33
936.46	211.29
936.76	211.21
937.06	210.86
937.36	211.02
937.66	211.07
937.96	211.07
938.26	210.74
938.56	210.83
938.86	210.98
939.16	211.52
939.46	211.98
939.76	212.19
940.06	212.38
940.35	211.69
940.65	210.74
940.95	211.21
941.25	210.83
941.55	210.45
941.85	210.21
942.15	210.79
942.45	211.45
942.75	211.52
943.04	211.62
943.34	212.17
943.64	212.12
943.94	211.79
944.24	211.88
944.54	212.21
944.84	212.14
945.13	212.00
945.43	211.62
945.73	211.45
946.03	211.57
946.33	211.33
946.62	211.12
946.92	211.29
947.22	211.24
947.52	211.55
947.82	211.83
948.11	211.67
948.41	211.05
948.71	210.43
949.01	210.38
949.31	210.33
949.60	210.12
949.90	210.31
950.20	210.40
950.50	210.19
950.79	209.79
951.09	210.24
951.39	210.07
951.69	209.83
951.98	210.21
952.28	210.07
952.58	210.17
952.87	210.24
953.17	210.55
953.47	210.33
953.76	210.24
954.06	209.93
954.36	209.57
954.66	209.62
954.95	210.12
955.25	210.40
955.55	210.64
955.84	210.36
956.14	210.48
956.44	210.83
956.73	210.55
957.03	210.86
957.32	210.43
957.62	210.43
957.92	211.10
958.21	210.76
958.51	213.07
958.81	213.40
959.10	213.76
959.40	214.14
959.69	214.07
959.99	214.50
960.29	214.38
960.58	214.50
960.88	215.33
961.17	215.14
961.47	215.21
961.76	214.88
962.06	215.36
962.36	215.33
962.65	215.21
962.95	215.43
963.24	215.26
963.54	215.71
963.83	215.93
964.13	215.62
964.42	215.24
964.72	213.33
965.01	213.14
965.31	213.00
965.60	212.43
965.90	213.86
966.19	213.40
966.49	213.50
966.78	213.60
967.08	213.24
967.37	213.21
967.67	213.05
967.96	213.67
968.26	213.57
968.55	213.83
968.85	213.62
969.14	213.64
969.43	213.57
969.73	213.17
970.02	213.14
970.32	213.31
970.61	213.40
970.91	212.98
971.20	212.76
971.49	212.43
971.79	212.60
972.08	211.12
972.38	211.21
972.67	211.36
972.96	211.33
973.26	211.14
973.55	211.69
973.85	211.43
974.14	211.02
974.43	210.98
974.73	210.57
975.02	210.48
975.31	210.50
975.61	210.52
975.90	210.50
976.19	210.26
976.49	210.26
976.78	210.43
977.07	210.50
977.37	210.74
977.66	210.98
977.95	210.74
978.24	211.05
978.54	211.33
978.83	210.95
979.12	210.93
979.42	210.86
979.71	210.45
980.00	210.64
980.29	210.55
980.59	210.26
980.88	210.81
981.17	210.69
981.46	210.71
981.76	210.86
982.05	211.45
982.34	211.43
982.63	211.45
982.93	211.45
983.22	211.93
983.51	211.86
983.80	212.14
984.09	212.38
984.39	212.21
984.68	212.17
984.97	212.43
985.26	212.36
985.55	212.62
985.85	212.31
986.14	212.52
986.43	212.76
986.72	212.67
987.01	211.88
987.30	212.12
987.59	211.88
987.89	211.95
988.18	211.38
988.47	211.48
988.76	211.17
989.05	210.81
989.34	210.55
989.63	211.07
989.92	210.86
990.22	210.62
990.51	210.43
990.80	210.19
991.09	210.43
991.38	210.71
991.67	210.40
991.96	210.17
992.25	210.12
992.54	210.05
992.83	210.29
993.12	210.40
993.41	210.71
993.70	211.50
993.99	211.67
994.28	211.69
994.58	211.83
994.87	211.55
995.16	211.52
995.45	211.31
995.74	210.50
996.03	210.88
996.32	211.26
996.61	211.79
996.90	211.83
997.19	211.67
997.48	211.62
997.77	211.33
998.06	211.71
998.34	211.55
998.63	211.43
998.92	211.52
999.21	211.81
999.50	211.88
999.79	211.21
1000.08	211.29
1000.37	211.43
1000.66	211.17
1000.95	211.69
1001.24	211.64
1001.53	211.88
1001.82	211.90
1002.11	211.21
1002.40	211.36
1002.68	211.83
1002.97	213.38
1003.26	213.19
1003.55	212.98
1003.84	213.33
1004.13	213.74
1004.42	213.79
1004.71	213.81
1004.99	213.60
1005.28	214.19
1005.57	213.93
1005.86	213.88
1006.15	213.52
1006.44	213.19
1006.72	213.62
1007.01	213.38
1007.30	213.60
1007.59	213.62
1007.88	213.67
1008.17	213.90
1008.45	213.50
1008.74	212.48
1009.03	211.29
1009.32	211.19
1009.60	211.10
1009.89	210.81
1010.18	210.07
1010.47	209.93
1010.76	209.98
1011.04	210.00
1011.33	209.67
1011.62	209.90
1011.91	209.90
1012.19	210.12
1012.48	210.36
1012.77	210.29
1013.05	211.19
1013.34	211.12
1013.63	210.95
1013.92	211.21
1014.20	211.17
1014.49	211.17
1014.78	211.31
1015.06	210.74
1015.35	210.93
1015.64	211.07
1015.92	211.29
1016.21	211.50
1016.50	211.38
1016.78	211.55
1017.07	211.62
1017.36	211.33
1017.64	210.95
1017.93	211.26
1018.22	210.93
1018.50	210.67
1018.79	210.48
1019.08	209.52
1019.36	209.71
1019.65	209.36
1019.93	209.62
1020.22	209.76
1020.51	210.86
1020.79	210.74
1021.08	206.00
1021.36	205.00
1021.65	210.00
1021.94	209.50
1022.22	212.00
1022.51	204.50
1022.79	217.00
1023.08	211.50
1023.36	235.00
1023.65	205.50
>>>>>End Processed Spectral Data<<<<<
