SpectraSuite Data File
++++++++++++++++++++++++++++++++++++
Date: Tue Apr 02 18:44:35 EDT 2013
User: group
Dark Spectrum Present: No
Reference Spectrum Present: No
Number of Sampled Component Spectra: 1
Spectrometers: USB2E7196
Integration Time (usec): 580000 (USB2E7196)
Spectra Averaged: 2 (USB2E7196)
Boxcar Smoothing: 10 (USB2E7196)
Correct for Electrical Dark: No (USB2E7196)
Strobe/Lamp Enabled: No (USB2E7196)
Correct for Detector Non-linearity: No (USB2E7196)
Correct for Stray Light: No (USB2E7196)
Number of Pixels in Processed Spectrum: 2048
>>>>>Begin Processed Spectral Data<<<<<
339.09	0.00
339.48	194.00
339.86	192.50
340.24	192.00
340.63	200.00
341.01	230.50
341.39	203.50
341.78	206.00
342.16	204.50
342.54	203.50
342.93	196.86
343.31	206.60
343.69	207.07
344.07	207.69
344.46	208.62
344.84	209.31
345.22	208.14
345.60	208.31
345.99	208.55
346.37	208.71
346.75	208.88
347.13	208.83
347.52	209.05
347.90	209.71
348.28	209.64
348.66	209.98
349.05	209.55
349.43	210.21
349.81	210.40
350.19	210.57
350.57	210.76
350.96	211.21
351.34	211.43
351.72	211.52
352.10	211.64
352.48	211.45
352.87	211.19
353.25	211.29
353.63	211.31
354.01	211.26
354.39	211.57
354.77	211.64
355.15	212.29
355.54	212.10
355.92	211.55
356.30	211.69
356.68	213.29
357.06	213.24
357.44	212.81
357.82	212.95
358.20	214.00
358.58	213.98
358.97	214.02
359.35	214.50
359.73	215.24
360.11	215.50
360.49	215.60
360.87	215.67
361.25	215.98
361.63	216.95
362.01	217.14
362.39	216.93
362.77	217.33
363.15	217.14
363.53	217.24
363.91	217.40
364.29	217.36
364.67	215.55
365.05	215.71
365.43	215.81
365.81	216.10
366.19	216.31
366.57	216.93
366.95	216.93
367.33	216.81
367.71	216.74
368.09	217.19
368.47	217.43
368.85	217.62
369.23	218.29
369.61	217.40
369.99	218.05
370.37	218.57
370.75	219.55
371.13	219.26
371.51	219.05
371.89	219.45
372.27	219.69
372.65	219.79
373.03	219.48
373.41	219.60
373.78	219.26
374.16	218.17
374.54	217.57
374.92	217.38
375.30	217.17
375.68	216.64
376.06	216.71
376.44	216.55
376.82	216.57
377.19	216.26
377.57	216.31
377.95	215.45
378.33	215.12
378.71	213.76
379.09	213.88
379.47	214.31
379.84	213.76
380.22	213.74
380.60	213.50
380.98	213.74
381.36	213.43
381.73	213.29
382.11	213.76
382.49	214.17
382.87	213.93
383.25	213.95
383.62	216.43
384.00	215.76
384.38	215.83
384.76	216.24
385.13	216.98
385.51	216.95
385.89	216.98
386.27	217.02
386.64	217.43
387.02	217.26
387.40	216.83
387.78	217.10
388.15	216.98
388.53	216.74
388.91	216.95
389.29	216.93
389.66	217.05
390.04	216.52
390.42	216.48
390.79	216.52
391.17	216.67
391.55	214.31
391.92	214.52
392.30	214.74
392.68	214.26
393.05	213.93
393.43	213.88
393.81	214.17
394.18	213.88
394.56	213.88
394.94	214.38
395.31	214.43
395.69	215.00
396.06	215.38
396.44	215.50
396.82	215.00
397.19	216.14
397.57	215.95
397.95	216.40
398.32	216.00
398.70	216.17
399.07	216.50
399.45	216.69
399.82	216.45
400.20	216.10
400.58	216.19
400.95	215.60
401.33	216.14
401.70	217.48
402.08	217.79
402.45	217.52
402.83	218.10
403.20	218.29
403.58	217.98
403.95	218.26
404.33	218.79
404.71	219.19
405.08	220.38
405.46	220.71
405.83	221.12
406.21	221.50
406.58	221.83
406.96	221.90
407.33	222.31
407.70	223.00
408.08	225.19
408.45	226.05
408.83	226.71
409.20	227.19
409.58	226.57
409.95	227.52
410.33	228.71
410.70	228.93
411.08	230.12
411.45	231.33
411.82	232.21
412.20	233.90
412.57	236.21
412.95	235.86
413.32	237.86
413.69	239.26
414.07	241.10
414.44	243.12
414.82	245.31
415.19	247.55
415.56	249.86
415.94	251.07
416.31	253.83
416.68	256.52
417.06	259.93
417.43	263.60
417.81	267.02
418.18	270.64
418.55	274.29
418.93	278.14
419.30	282.24
419.67	286.45
420.04	290.64
420.42	294.95
420.79	301.90
421.16	307.64
421.54	314.36
421.91	320.14
422.28	326.21
422.66	332.50
423.03	340.64
423.40	347.48
423.77	354.57
424.15	361.62
424.52	369.52
424.89	377.93
425.26	385.24
425.64	393.12
426.01	400.95
426.38	409.60
426.75	419.12
427.13	428.52
427.50	438.10
427.87	447.67
428.24	457.64
428.61	466.17
428.99	477.02
429.36	487.12
429.73	498.43
430.10	510.45
430.47	522.14
430.85	532.43
431.22	544.81
431.59	559.38
431.96	572.10
432.33	586.21
432.70	599.26
433.08	615.60
433.45	630.95
433.82	646.36
434.19	663.79
434.56	680.17
434.93	695.50
435.30	711.88
435.68	729.74
436.05	747.67
436.42	764.79
436.79	780.12
437.16	797.43
437.53	815.17
437.90	831.86
438.27	850.29
438.64	868.83
439.01	886.33
439.38	899.83
439.75	914.76
440.13	931.05
440.50	946.79
440.87	959.64
441.24	972.60
441.61	987.93
441.98	998.48
442.35	1010.48
442.72	1022.69
443.09	1035.36
443.46	1043.21
443.83	1047.55
444.20	1052.29
444.57	1058.67
444.94	1061.74
445.31	1065.31
445.68	1070.57
446.05	1071.31
446.42	1069.38
446.79	1067.95
447.16	1066.93
447.53	1065.64
447.90	1059.21
448.27	1053.31
448.64	1044.79
449.01	1038.81
449.37	1027.00
449.74	1015.98
450.11	1005.43
450.48	991.24
450.85	975.62
451.22	962.69
451.59	950.62
451.96	938.43
452.33	923.14
452.70	909.60
453.07	892.50
453.43	873.52
453.80	857.21
454.17	841.62
454.54	826.12
454.91	809.98
455.28	793.83
455.65	779.69
456.02	768.19
456.38	755.57
456.75	740.52
457.12	727.45
457.49	714.55
457.86	700.05
458.23	689.83
458.59	678.71
458.96	666.90
459.33	656.40
459.70	646.60
460.07	637.90
460.43	627.79
460.80	619.48
461.17	612.83
461.54	604.60
461.91	597.33
462.27	589.31
462.64	582.00
463.01	574.81
463.38	568.10
463.74	557.55
464.11	550.76
464.48	544.64
464.85	538.45
465.21	534.26
465.58	529.19
465.95	523.02
466.32	517.79
466.68	512.88
467.05	508.10
467.42	502.83
467.78	497.36
468.15	492.67
468.52	488.71
468.88	482.79
469.25	478.21
469.62	474.40
469.98	470.38
470.35	466.50
470.72	462.83
471.08	458.21
471.45	455.17
471.82	452.31
472.18	448.40
472.55	445.86
472.92	442.29
473.28	439.50
473.65	436.86
474.02	433.86
474.38	431.62
474.75	429.64
475.11	427.26
475.48	426.21
475.85	424.55
476.21	422.74
476.58	421.74
476.94	420.64
477.31	419.38
477.67	417.93
478.04	416.98
478.41	416.26
478.77	417.69
479.14	416.86
479.50	416.26
479.87	415.95
480.23	415.69
480.60	415.21
480.96	415.00
481.33	415.93
481.69	416.17
482.06	416.24
482.42	416.60
482.79	417.52
483.15	417.43
483.52	418.45
483.88	419.07
484.25	419.33
484.61	420.19
484.98	420.93
485.34	422.74
485.71	424.00
486.07	425.50
486.44	425.21
486.80	426.50
487.17	427.60
487.53	429.74
487.90	431.76
488.26	434.67
488.62	437.67
488.99	439.50
489.35	442.17
489.72	444.38
490.08	447.14
490.44	449.45
490.81	452.81
491.17	455.69
491.54	458.81
491.90	462.71
492.26	466.10
492.63	469.38
492.99	473.02
493.36	477.07
493.72	480.83
494.08	485.05
494.45	489.57
494.81	494.93
495.17	500.07
495.54	505.14
495.90	509.90
496.26	514.43
496.63	519.90
496.99	525.74
497.35	531.57
497.72	537.69
498.08	543.36
498.44	548.67
498.80	554.93
499.17	561.00
499.53	567.24
499.89	574.14
500.26	581.05
500.62	587.50
500.98	595.10
501.34	602.36
501.71	609.98
502.07	617.05
502.43	624.12
502.79	631.29
503.16	638.38
503.52	646.05
503.88	653.14
504.24	660.21
504.60	667.10
504.97	675.40
505.33	681.69
505.69	690.50
506.05	698.90
506.41	706.45
506.78	714.62
507.14	722.02
507.50	729.83
507.86	737.67
508.22	745.95
508.59	752.67
508.95	760.57
509.31	769.07
509.67	777.31
510.03	784.69
510.39	791.71
510.75	799.33
511.12	806.19
511.48	814.12
511.84	821.33
512.20	829.05
512.56	835.79
512.92	844.31
513.28	851.31
513.64	858.67
514.00	865.88
514.37	873.62
514.73	880.95
515.09	888.12
515.45	894.98
515.81	901.74
516.17	909.00
516.53	914.98
516.89	920.60
517.25	926.86
517.61	934.21
517.97	940.43
518.33	946.74
518.69	953.00
519.05	959.12
519.41	966.31
519.77	973.79
520.13	979.95
520.49	985.52
520.85	991.33
521.21	997.45
521.57	1003.60
521.93	1008.21
522.29	1014.79
522.65	1019.79
523.01	1025.88
523.37	1030.74
523.73	1036.31
524.09	1041.79
524.45	1046.74
524.81	1051.14
525.17	1055.64
525.53	1060.45
525.89	1065.26
526.25	1070.90
526.61	1074.76
526.97	1078.05
527.33	1081.90
527.68	1088.05
528.04	1092.62
528.40	1097.00
528.76	1101.17
529.12	1105.12
529.48	1110.40
529.84	1113.40
530.20	1117.79
530.56	1121.45
530.91	1126.12
531.27	1130.07
531.63	1135.12
531.99	1138.19
532.35	1142.62
532.71	1145.43
533.07	1150.02
533.42	1155.90
533.78	1160.12
534.14	1165.05
534.50	1169.24
534.86	1173.31
535.21	1176.62
535.57	1180.69
535.93	1184.40
536.29	1189.31
536.65	1193.19
537.00	1196.55
537.36	1200.17
537.72	1203.52
538.08	1206.55
538.44	1209.26
538.79	1212.50
539.15	1214.55
539.51	1219.05
539.87	1222.69
540.22	1226.62
540.58	1229.33
540.94	1230.67
541.29	1233.48
541.65	1235.95
542.01	1239.50
542.37	1242.14
542.72	1243.14
543.08	1245.21
543.44	1247.64
543.79	1249.07
544.15	1251.93
544.51	1255.21
544.87	1258.64
545.22	1261.38
545.58	1263.83
545.94	1267.45
546.29	1270.60
546.65	1273.38
547.01	1274.83
547.36	1277.67
547.72	1279.62
548.07	1282.98
548.43	1285.33
548.79	1286.67
549.14	1288.93
549.50	1291.79
549.86	1292.93
550.21	1296.40
550.57	1299.93
550.92	1302.50
551.28	1305.31
551.64	1307.95
551.99	1310.07
552.35	1311.98
552.70	1314.69
553.06	1318.64
553.41	1320.83
553.77	1325.00
554.13	1328.36
554.48	1333.17
554.84	1336.98
555.19	1341.67
555.55	1346.74
555.90	1350.79
556.26	1355.24
556.61	1359.62
556.97	1362.81
557.32	1367.64
557.68	1371.57
558.03	1375.62
558.39	1379.60
558.74	1383.93
559.10	1387.98
559.45	1392.40
559.81	1397.10
560.16	1401.36
560.52	1405.71
560.87	1411.14
561.23	1413.55
561.58	1420.00
561.94	1423.45
562.29	1427.79
562.64	1432.81
563.00	1435.98
563.35	1440.19
563.71	1445.50
564.06	1450.50
564.42	1456.19
564.77	1461.69
565.12	1467.40
565.48	1474.48
565.83	1480.55
566.19	1487.07
566.54	1493.50
566.89	1498.60
567.25	1504.95
567.60	1511.86
567.96	1518.98
568.31	1525.45
568.66	1532.90
569.02	1536.67
569.37	1542.43
569.72	1547.74
570.08	1552.50
570.43	1557.67
570.78	1564.45
571.14	1569.93
571.49	1575.12
571.84	1580.83
572.20	1586.31
572.55	1591.14
572.90	1594.62
573.26	1598.98
573.61	1601.33
573.96	1605.71
574.31	1610.88
574.67	1614.79
575.02	1618.48
575.37	1620.83
575.72	1623.36
576.08	1627.55
576.43	1631.71
576.78	1635.31
577.13	1638.81
577.49	1641.98
577.84	1646.60
578.19	1649.93
578.54	1653.19
578.90	1656.79
579.25	1659.98
579.60	1662.71
579.95	1665.62
580.30	1668.38
580.66	1672.12
581.01	1677.98
581.36	1680.50
581.71	1683.93
582.06	1688.57
582.42	1692.17
582.77	1695.67
583.12	1698.67
583.47	1701.24
583.82	1704.74
584.17	1707.64
584.53	1711.93
584.88	1716.24
585.23	1719.40
585.58	1720.98
585.93	1723.26
586.28	1726.95
586.63	1729.52
586.98	1732.14
587.34	1735.36
587.69	1737.24
588.04	1739.55
588.39	1740.17
588.74	1741.95
589.09	1743.50
589.44	1743.55
589.79	1745.07
590.14	1747.95
590.49	1750.60
590.84	1752.00
591.19	1754.43
591.54	1757.05
591.89	1757.24
592.25	1759.98
592.60	1760.48
592.95	1762.50
593.30	1765.45
593.65	1767.05
594.00	1767.74
594.35	1774.14
594.70	1774.38
595.05	1776.10
595.40	1777.36
595.75	1777.98
596.10	1779.74
596.45	1780.45
596.80	1781.81
597.15	1783.10
597.50	1782.36
597.85	1782.98
598.19	1783.31
598.54	1783.52
598.89	1784.00
599.24	1784.38
599.59	1783.36
599.94	1784.24
600.29	1785.45
600.64	1784.95
600.99	1784.31
601.34	1784.60
601.69	1778.69
602.04	1778.90
602.39	1778.67
602.74	1777.98
603.08	1778.67
603.43	1779.50
603.78	1779.38
604.13	1778.55
604.48	1777.10
604.83	1777.07
605.18	1776.93
605.53	1775.62
605.87	1774.00
606.22	1772.33
606.57	1771.29
606.92	1770.07
607.27	1768.64
607.62	1767.76
607.96	1766.69
608.31	1766.05
608.66	1765.12
609.01	1764.07
609.36	1763.29
609.70	1762.21
610.05	1760.24
610.40	1757.64
610.75	1754.48
611.10	1752.81
611.44	1750.36
611.79	1747.81
612.14	1745.07
612.49	1741.17
612.83	1738.79
613.18	1736.19
613.53	1734.17
613.88	1731.88
614.22	1728.95
614.57	1725.02
614.92	1720.64
615.27	1716.64
615.61	1710.81
615.96	1706.83
616.31	1703.95
616.65	1700.81
617.00	1697.40
617.35	1694.67
617.70	1691.67
618.04	1687.24
618.39	1683.40
618.74	1680.67
619.08	1677.31
619.43	1674.38
619.78	1671.21
620.12	1668.86
620.47	1665.43
620.82	1661.50
621.16	1656.95
621.51	1653.60
621.85	1649.86
622.20	1645.74
622.55	1641.48
622.89	1638.98
623.24	1636.05
623.59	1631.48
623.93	1626.52
624.28	1622.31
624.62	1620.40
624.97	1618.52
625.32	1615.07
625.66	1611.38
626.01	1606.60
626.35	1603.14
626.70	1599.33
627.04	1595.64
627.39	1590.48
627.73	1587.19
628.08	1583.55
628.43	1580.76
628.77	1576.19
629.12	1573.02
629.46	1569.88
629.81	1566.74
630.15	1562.31
630.50	1557.50
630.84	1553.52
631.19	1549.38
631.53	1545.17
631.88	1538.05
632.22	1530.62
632.57	1527.19
632.91	1521.60
633.26	1517.43
633.60	1512.52
633.95	1506.50
634.29	1502.26
634.64	1498.76
634.98	1493.43
635.32	1488.88
635.67	1484.79
636.01	1480.52
636.36	1474.55
636.70	1470.43
637.05	1465.71
637.39	1461.38
637.73	1457.12
638.08	1452.69
638.42	1447.90
638.77	1443.14
639.11	1438.74
639.45	1434.36
639.80	1428.81
640.14	1424.31
640.49	1420.14
640.83	1414.71
641.17	1410.38
641.52	1404.95
641.86	1398.86
642.20	1394.60
642.55	1389.40
642.89	1383.57
643.23	1378.52
643.58	1374.48
643.92	1367.26
644.26	1361.14
644.61	1356.00
644.95	1350.67
645.29	1344.86
645.64	1339.81
645.98	1334.02
646.32	1328.33
646.66	1321.52
647.01	1315.36
647.35	1310.19
647.69	1303.48
648.04	1298.43
648.38	1292.81
648.72	1286.29
649.06	1279.95
649.41	1272.93
649.75	1266.17
650.09	1259.60
650.43	1252.57
650.78	1245.93
651.12	1240.07
651.46	1234.19
651.80	1227.86
652.14	1221.95
652.49	1216.17
652.83	1209.29
653.17	1202.36
653.51	1196.19
653.85	1191.57
654.20	1185.14
654.54	1177.83
654.88	1171.50
655.22	1165.86
655.56	1159.48
655.90	1153.07
656.25	1147.33
656.59	1141.14
656.93	1134.64
657.27	1129.24
657.61	1122.19
657.95	1116.02
658.29	1110.21
658.64	1104.02
658.98	1097.38
659.32	1089.17
659.66	1082.55
660.00	1076.48
660.34	1070.74
660.68	1064.43
661.02	1057.83
661.36	1051.79
661.70	1046.36
662.05	1040.50
662.39	1034.02
662.73	1028.79
663.07	1024.36
663.41	1018.36
663.75	1011.81
664.09	1006.29
664.43	998.90
664.77	993.50
665.11	987.19
665.45	981.43
665.79	975.62
666.13	969.52
666.47	964.05
666.81	958.26
667.15	952.55
667.49	946.43
667.83	941.43
668.17	935.79
668.51	930.60
668.85	925.45
669.19	920.88
669.53	914.50
669.87	908.14
670.21	901.71
670.55	896.10
670.89	891.90
671.23	886.52
671.57	881.12
671.91	876.19
672.25	871.14
672.58	866.02
672.92	860.17
673.26	855.50
673.60	850.57
673.94	845.40
674.28	840.38
674.62	836.14
674.96	830.24
675.30	825.33
675.64	819.88
675.97	814.24
676.31	808.43
676.65	803.48
676.99	799.14
677.33	793.98
677.67	789.40
678.01	783.52
678.34	778.17
678.68	774.05
679.02	768.36
679.36	763.29
679.70	757.93
680.04	753.26
680.37	747.83
680.71	742.48
681.05	737.95
681.39	733.00
681.73	728.07
682.06	723.29
682.40	718.67
682.74	714.26
683.08	710.17
683.42	705.40
683.75	700.90
684.09	695.64
684.43	690.86
684.77	686.05
685.10	681.26
685.44	676.64
685.78	672.02
686.12	668.29
686.45	663.88
686.79	659.50
687.13	655.29
687.46	650.86
687.80	648.02
688.14	643.38
688.48	639.17
688.81	634.10
689.15	630.60
689.49	625.67
689.82	621.93
690.16	616.52
690.50	612.10
690.83	607.76
691.17	602.86
691.51	598.36
691.84	594.14
692.18	590.07
692.52	586.33
692.85	582.55
693.19	579.36
693.52	575.36
693.86	571.17
694.20	567.33
694.53	563.74
694.87	558.64
695.21	554.31
695.54	550.31
695.88	546.40
696.21	541.67
696.55	537.90
696.88	533.21
697.22	529.31
697.56	525.76
697.89	521.88
698.23	518.83
698.56	515.33
698.90	511.83
699.23	508.40
699.57	505.05
699.90	501.00
700.24	496.43
700.58	492.95
700.91	489.90
701.25	488.00
701.58	485.31
701.92	482.86
702.25	479.93
702.59	476.57
702.92	473.64
703.26	470.60
703.59	467.64
703.93	466.86
704.26	464.45
704.60	461.76
704.93	458.69
705.26	455.24
705.60	452.93
705.93	449.48
706.27	447.43
706.60	445.00
706.94	442.81
707.27	440.57
707.61	438.10
707.94	435.45
708.27	431.02
708.61	427.55
708.94	424.50
709.28	422.24
709.61	419.36
709.94	416.90
710.28	414.55
710.61	412.21
710.95	407.36
711.28	406.74
711.61	403.88
711.95	402.10
712.28	399.74
712.61	397.26
712.95	396.31
713.28	394.64
713.61	391.57
713.95	389.26
714.28	386.81
714.61	384.48
714.95	381.93
715.28	379.60
715.61	377.67
715.95	375.67
716.28	373.76
716.61	372.55
716.95	370.40
717.28	368.31
717.61	366.07
717.94	364.57
718.28	360.64
718.61	358.52
718.94	356.38
719.27	354.55
719.61	352.76
719.94	349.95
720.27	347.07
720.60	345.79
720.94	343.69
721.27	342.24
721.60	340.86
721.93	339.52
722.27	338.90
722.60	337.45
722.93	335.81
723.26	334.33
723.59	332.52
723.93	331.38
724.26	330.14
724.59	328.93
724.92	327.69
725.25	326.90
725.59	326.10
725.92	325.21
726.25	324.33
726.58	322.95
726.91	322.07
727.24	321.26
727.57	320.12
727.91	319.00
728.24	318.12
728.57	316.60
728.90	315.71
729.23	313.79
729.56	313.57
729.89	312.48
730.22	310.98
730.55	309.69
730.89	308.43
731.22	307.21
731.55	305.83
731.88	304.88
732.21	303.57
732.54	302.36
732.87	300.95
733.20	299.86
733.53	298.81
733.86	298.38
734.19	297.07
734.52	296.38
734.85	296.71
735.18	295.40
735.51	295.21
735.84	294.26
736.17	293.88
736.50	291.81
736.83	293.21
737.16	292.29
737.49	291.69
737.82	290.67
738.15	290.17
738.48	289.60
738.81	288.33
739.14	287.31
739.47	286.21
739.80	285.57
740.13	284.76
740.46	283.98
740.79	282.21
741.12	281.17
741.45	279.76
741.78	277.76
742.11	277.52
742.44	276.21
742.77	275.81
743.10	274.76
743.43	273.98
743.75	271.10
744.08	273.00
744.41	272.10
744.74	271.21
745.07	270.05
745.40	269.69
745.73	270.07
746.06	269.45
746.39	269.19
746.71	268.07
747.04	267.48
747.37	266.67
747.70	266.64
748.03	266.12
748.36	265.98
748.68	265.38
749.01	263.95
749.34	263.55
749.67	262.62
750.00	262.36
750.33	263.55
750.65	263.05
750.98	260.02
751.31	259.57
751.64	259.14
751.97	259.88
752.29	259.17
752.62	257.57
752.95	256.90
753.28	255.98
753.60	255.76
753.93	255.67
754.26	255.50
754.59	254.45
754.91	253.71
755.24	253.05
755.57	252.52
755.90	252.05
756.22	251.40
756.55	250.88
756.88	250.12
757.20	248.21
757.53	247.36
757.86	246.90
758.19	246.52
758.51	246.24
758.84	244.48
759.17	243.62
759.49	243.24
759.82	243.71
760.15	243.67
760.47	243.05
760.80	242.29
761.13	241.98
761.45	241.36
761.78	240.83
762.11	240.45
762.43	240.07
762.76	239.86
763.08	239.60
763.41	239.36
763.74	239.12
764.06	238.74
764.39	238.38
764.71	237.98
765.04	237.45
765.37	237.07
765.69	236.83
766.02	236.55
766.34	236.33
766.67	235.50
767.00	235.64
767.32	236.43
767.65	237.17
767.97	236.79
768.30	236.81
768.62	236.81
768.95	236.29
769.27	235.81
769.60	235.76
769.92	235.29
770.25	234.60
770.57	234.10
770.90	233.64
771.22	233.38
771.55	233.40
771.87	233.14
772.20	232.76
772.52	234.10
772.85	236.38
773.17	236.24
773.50	236.10
773.82	235.33
774.15	234.12
774.47	232.60
774.80	232.31
775.12	232.14
775.45	231.71
775.77	231.67
776.09	231.86
776.42	231.71
776.74	231.93
777.07	231.86
777.39	231.52
777.72	231.40
778.04	231.67
778.36	231.21
778.69	231.14
779.01	231.12
779.33	229.48
779.66	227.12
779.98	226.86
780.31	226.48
780.63	227.38
780.95	227.60
781.28	227.52
781.60	226.90
781.92	226.67
782.25	226.71
782.57	226.43
782.89	225.83
783.22	225.38
783.54	225.02
783.86	224.76
784.19	224.74
784.51	225.36
784.83	224.67
785.16	224.48
785.48	224.43
785.80	224.26
786.12	224.57
786.45	224.31
786.77	224.48
787.09	224.45
787.42	223.52
787.74	223.50
788.06	223.67
788.38	223.67
788.71	223.45
789.03	223.31
789.35	223.52
789.67	223.26
789.99	223.19
790.32	222.95
790.64	223.26
790.96	224.88
791.28	223.95
791.61	223.88
791.93	223.76
792.25	223.64
792.57	224.90
792.89	224.21
793.21	224.45
793.54	223.95
793.86	223.76
794.18	223.74
794.50	223.07
794.82	223.00
795.14	223.31
795.47	223.50
795.79	223.67
796.11	223.24
796.43	223.26
796.75	223.26
797.07	223.17
797.39	222.88
797.71	221.38
798.04	221.17
798.36	221.29
798.68	221.14
799.00	221.07
799.32	220.00
799.64	220.10
799.96	220.05
800.28	220.26
800.60	220.14
800.92	220.21
801.24	220.40
801.56	220.12
801.89	219.88
802.21	220.02
802.53	219.48
802.85	219.86
803.17	220.88
803.49	220.45
803.81	220.36
804.13	220.50
804.45	220.05
804.77	220.50
805.09	220.40
805.41	220.29
805.73	219.74
806.05	219.29
806.37	219.14
806.69	218.81
807.01	218.81
807.33	218.95
807.65	218.17
807.97	219.07
808.28	218.71
808.60	218.55
808.92	218.40
809.24	219.88
809.56	219.45
809.88	218.38
810.20	218.64
810.52	218.95
810.84	218.74
811.16	218.52
811.48	218.19
811.80	218.90
812.12	218.93
812.43	219.50
812.75	219.62
813.07	219.52
813.39	219.52
813.71	219.26
814.03	218.74
814.35	218.64
814.67	217.76
814.98	217.69
815.30	217.52
815.62	216.90
815.94	215.33
816.26	215.40
816.58	215.26
816.89	215.12
817.21	214.57
817.53	214.43
817.85	214.38
818.17	214.33
818.48	213.36
818.80	213.83
819.12	213.45
819.44	213.02
819.76	212.81
820.07	212.86
820.39	212.74
820.71	212.98
821.03	213.24
821.34	213.02
821.66	213.52
821.98	213.98
822.30	214.00
822.61	214.95
822.93	214.71
823.25	214.69
823.57	214.57
823.88	215.07
824.20	215.00
824.52	215.55
824.83	215.74
825.15	215.50
825.47	215.40
825.79	215.74
826.10	215.43
826.42	215.50
826.74	215.90
827.05	215.83
827.37	216.00
827.69	215.79
828.00	215.98
828.32	216.00
828.64	215.55
828.95	216.64
829.27	216.43
829.58	216.38
829.90	216.71
830.22	216.83
830.53	216.14
830.85	216.12
831.17	215.62
831.48	215.33
831.80	215.81
832.11	215.40
832.43	214.83
832.75	215.10
833.06	216.24
833.38	215.24
833.69	215.12
834.01	214.88
834.32	214.98
834.64	214.64
834.96	214.36
835.27	214.45
835.59	213.86
835.90	213.24
836.22	213.14
836.53	212.64
836.85	212.55
837.16	214.81
837.48	214.60
837.79	215.40
838.11	215.45
838.42	215.31
838.74	215.55
839.05	215.48
839.37	215.62
839.68	214.21
840.00	214.45
840.31	214.79
840.63	214.83
840.94	214.45
841.26	214.43
841.57	214.67
841.88	214.93
842.20	214.40
842.51	214.43
842.83	214.29
843.14	216.19
843.46	216.21
843.77	215.05
844.08	215.10
844.40	214.21
844.71	214.07
845.03	213.71
845.34	213.67
845.65	213.79
845.97	213.69
846.28	213.95
846.60	213.86
846.91	213.55
847.22	213.55
847.54	214.26
847.85	214.26
848.16	213.71
848.48	213.31
848.79	214.21
849.10	214.55
849.42	214.93
849.73	213.07
850.04	212.93
850.36	212.17
850.67	212.36
850.98	212.60
851.30	212.88
851.61	212.81
851.92	212.79
852.23	213.33
852.55	213.52
852.86	213.38
853.17	213.67
853.49	213.95
853.80	214.33
854.11	214.48
854.42	214.71
854.74	214.74
855.05	214.62
855.36	213.62
855.67	213.48
855.99	213.57
856.30	215.86
856.61	215.62
856.92	215.83
857.23	215.88
857.55	215.48
857.86	215.38
858.17	215.76
858.48	215.45
858.79	215.10
859.11	215.07
859.42	215.31
859.73	215.07
860.04	215.17
860.35	214.67
860.66	213.95
860.98	213.86
861.29	214.10
861.60	214.21
861.91	214.60
862.22	214.33
862.53	214.05
862.84	211.64
863.16	212.26
863.47	211.74
863.78	211.57
864.09	212.00
864.40	212.17
864.71	212.31
865.02	212.43
865.33	212.17
865.64	212.02
865.95	211.93
866.27	213.48
866.58	213.19
866.89	213.17
867.20	213.12
867.51	212.79
867.82	212.71
868.13	213.29
868.44	213.00
868.75	213.52
869.06	213.64
869.37	214.19
869.68	213.50
869.99	213.98
870.30	214.10
870.61	214.17
870.92	213.55
871.23	213.36
871.54	213.93
871.85	214.26
872.16	214.36
872.47	214.10
872.78	212.79
873.09	213.12
873.40	212.98
873.71	213.14
874.02	213.29
874.33	213.24
874.64	212.67
874.95	213.24
875.26	212.50
875.56	212.21
875.87	211.71
876.18	211.93
876.49	213.95
876.80	213.62
877.11	213.17
877.42	213.50
877.73	213.31
878.04	212.69
878.35	212.83
878.66	212.88
878.96	213.00
879.27	212.81
879.58	212.62
879.89	212.55
880.20	213.05
880.51	213.00
880.82	212.90
881.12	213.12
881.43	212.50
881.74	212.55
882.05	212.74
882.36	212.95
882.67	213.07
882.97	210.71
883.28	210.83
883.59	211.02
883.90	211.17
884.21	211.60
884.51	211.50
884.82	211.05
885.13	210.86
885.44	210.74
885.74	210.88
886.05	210.57
886.36	210.67
886.67	210.02
886.98	211.14
887.28	211.60
887.59	211.62
887.90	211.81
888.20	211.48
888.51	211.74
888.82	211.50
889.13	211.71
889.43	213.48
889.74	213.29
890.05	213.02
890.35	212.98
890.66	212.76
890.97	212.76
891.28	212.81
891.58	213.21
891.89	213.14
892.20	212.86
892.50	212.93
892.81	212.79
893.12	212.76
893.42	211.79
893.73	211.52
894.04	211.38
894.34	211.31
894.65	211.50
894.95	211.36
895.26	211.60
895.57	212.43
895.87	210.31
896.18	210.76
896.48	210.93
896.79	210.81
897.10	210.95
897.40	210.71
897.71	210.86
898.01	210.60
898.32	211.02
898.63	211.24
898.93	211.14
899.24	211.36
899.54	211.29
899.85	211.05
900.15	211.05
900.46	211.05
900.76	211.33
901.07	211.38
901.38	211.31
901.68	211.36
901.99	210.26
902.29	210.64
902.60	210.38
902.90	210.26
903.21	210.19
903.51	210.17
903.82	210.95
904.12	210.86
904.43	211.17
904.73	210.74
905.03	210.52
905.34	212.40
905.64	212.24
905.95	212.45
906.25	212.64
906.56	212.48
906.86	212.52
907.17	212.38
907.47	212.67
907.77	212.50
908.08	212.21
908.38	212.67
908.69	212.90
908.99	213.21
909.30	213.52
909.60	213.52
909.90	213.60
910.21	212.88
910.51	212.69
910.81	212.31
911.12	212.55
911.42	212.67
911.73	210.81
912.03	211.02
912.33	211.45
912.64	211.50
912.94	211.31
913.24	211.14
913.55	210.98
913.85	210.57
914.15	210.95
914.46	211.33
914.76	210.81
915.06	210.45
915.37	210.17
915.67	210.05
915.97	210.10
916.27	209.71
916.58	209.95
916.88	209.86
917.18	209.90
917.49	211.19
917.79	211.02
918.09	211.21
918.39	211.62
918.70	211.14
919.00	211.00
919.30	211.93
919.60	211.79
919.91	211.45
920.21	211.62
920.51	211.10
920.81	210.95
921.12	211.48
921.42	211.57
921.72	211.62
922.02	211.52
922.32	211.95
922.63	212.00
922.93	213.21
923.23	213.38
923.53	213.21
923.83	212.05
924.13	212.45
924.44	212.50
924.74	212.93
925.04	213.48
925.34	213.45
925.64	212.74
925.94	212.69
926.24	214.10
926.55	213.90
926.85	214.33
927.15	214.02
927.45	213.88
927.75	214.05
928.05	214.31
928.35	214.26
928.65	214.45
928.95	214.62
929.26	213.64
929.56	214.21
929.86	214.48
930.16	214.62
930.46	214.36
930.76	214.60
931.06	213.55
931.36	213.14
931.66	213.88
931.96	214.07
932.26	214.29
932.56	213.50
932.86	213.86
933.16	213.71
933.46	213.81
933.76	213.45
934.06	213.69
934.36	214.17
934.66	214.14
934.96	213.86
935.26	214.00
935.56	214.31
935.86	213.60
936.16	213.14
936.46	212.76
936.76	212.69
937.06	212.31
937.36	212.40
937.66	212.38
937.96	211.83
938.26	211.50
938.56	211.48
938.86	211.40
939.16	211.83
939.46	211.98
939.76	212.05
940.06	212.31
940.35	211.93
940.65	210.93
940.95	210.98
941.25	210.43
941.55	210.07
941.85	209.83
942.15	210.62
942.45	211.26
942.75	211.24
943.04	211.26
943.34	211.71
943.64	211.79
943.94	211.45
944.24	211.52
944.54	211.60
944.84	211.36
945.13	211.14
945.43	210.62
945.73	210.69
946.03	210.50
946.33	210.17
946.62	209.95
946.92	210.05
947.22	210.24
947.52	210.33
947.82	210.62
948.11	210.40
948.41	209.83
948.71	209.57
949.01	209.76
949.31	209.69
949.60	209.36
949.90	209.48
950.20	209.50
950.50	209.48
950.79	209.48
951.09	209.81
951.39	209.90
951.69	209.95
951.98	210.38
952.28	210.43
952.58	210.40
952.87	210.55
953.17	210.81
953.47	210.55
953.76	210.67
954.06	210.40
954.36	210.21
954.66	210.17
954.95	210.67
955.25	210.62
955.55	210.86
955.84	210.76
956.14	210.88
956.44	211.12
956.73	210.62
957.03	210.79
957.32	210.64
957.62	210.50
957.92	210.74
958.21	210.43
958.51	212.81
958.81	212.98
959.10	213.26
959.40	213.55
959.69	213.74
959.99	214.00
960.29	214.07
960.58	214.00
960.88	214.69
961.17	214.50
961.47	214.90
961.76	214.76
962.06	215.05
962.36	215.14
962.65	215.29
962.95	215.62
963.24	215.31
963.54	215.55
963.83	215.67
964.13	215.48
964.42	214.95
964.72	213.29
965.01	213.60
965.31	213.29
965.60	212.95
965.90	214.43
966.19	213.93
966.49	214.10
966.78	214.07
967.08	213.93
967.37	213.93
967.67	213.31
967.96	213.43
968.26	213.33
968.55	213.38
968.85	213.14
969.14	212.98
969.43	212.93
969.73	212.90
970.02	212.90
970.32	212.86
970.61	212.88
970.91	212.40
971.20	211.98
971.49	211.88
971.79	212.19
972.08	210.74
972.38	210.93
972.67	210.67
972.96	210.86
973.26	210.48
973.55	210.88
973.85	210.79
974.14	210.86
974.43	210.88
974.73	210.33
975.02	210.31
975.31	210.48
975.61	210.67
975.90	210.48
976.19	210.45
976.49	210.67
976.78	211.07
977.07	211.10
977.37	211.26
977.66	211.38
977.95	211.05
978.24	211.14
978.54	211.55
978.83	211.52
979.12	211.45
979.42	211.45
979.71	211.05
980.00	211.33
980.29	211.36
980.59	210.98
980.88	211.57
981.17	211.52
981.46	211.50
981.76	211.60
982.05	212.19
982.34	212.10
982.63	212.07
982.93	211.90
983.22	212.36
983.51	212.31
983.80	212.62
984.09	212.79
984.39	212.52
984.68	212.31
984.97	212.33
985.26	212.24
985.55	212.52
985.85	212.19
986.14	212.43
986.43	212.57
986.72	212.50
987.01	211.86
987.30	211.93
987.59	211.86
987.89	211.88
988.18	211.17
988.47	211.00
988.76	210.74
989.05	210.43
989.34	210.17
989.63	210.64
989.92	210.26
990.22	209.90
990.51	209.83
990.80	209.55
991.09	209.69
991.38	209.95
991.67	209.74
991.96	209.40
992.25	209.50
992.54	209.10
992.83	209.29
993.12	209.57
993.41	209.88
993.70	210.71
993.99	211.02
994.28	211.38
994.58	211.69
994.87	211.67
995.16	211.76
995.45	211.50
995.74	210.74
996.03	211.14
996.32	211.60
996.61	212.14
996.90	212.07
997.19	212.02
997.48	212.05
997.77	211.69
998.06	212.07
998.34	211.71
998.63	211.81
998.92	211.81
999.21	212.10
999.50	212.02
999.79	211.17
1000.08	211.14
1000.37	211.12
1000.66	211.00
1000.95	211.48
1001.24	211.60
1001.53	211.79
1001.82	211.69
1002.11	211.24
1002.40	211.50
1002.68	211.74
1002.97	213.26
1003.26	213.07
1003.55	212.74
1003.84	213.07
1004.13	213.76
1004.42	213.67
1004.71	213.64
1004.99	213.57
1005.28	213.74
1005.57	213.43
1005.86	213.50
1006.15	213.10
1006.44	212.88
1006.72	213.02
1007.01	212.64
1007.30	212.48
1007.59	212.43
1007.88	212.71
1008.17	212.81
1008.45	212.24
1008.74	211.43
1009.03	210.69
1009.32	210.79
1009.60	210.93
1009.89	210.57
1010.18	209.64
1010.47	209.64
1010.76	209.60
1011.04	209.55
1011.33	211.88
1011.62	211.95
1011.91	211.95
1012.19	212.26
1012.48	212.07
1012.77	212.17
1013.05	213.10
1013.34	213.21
1013.63	212.74
1013.92	212.81
1014.20	212.76
1014.49	213.19
1014.78	213.62
1015.06	212.86
1015.35	212.71
1015.64	212.98
1015.92	213.36
1016.21	213.67
1016.50	213.81
1016.78	213.90
1017.07	213.95
1017.36	211.12
1017.64	210.93
1017.93	211.19
1018.22	210.83
1018.50	210.98
1018.79	210.67
1019.08	209.67
1019.36	209.79
1019.65	209.76
1019.93	210.10
1020.22	210.40
1020.51	211.07
1020.79	210.71
1021.08	207.00
1021.36	208.00
1021.65	208.00
1021.94	208.50
1022.22	212.00
1022.51	203.00
1022.79	216.50
1023.08	213.50
1023.36	233.00
1023.65	206.50
>>>>>End Processed Spectral Data<<<<<
