SpectraSuite Data File
++++++++++++++++++++++++++++++++++++
Date: Tue Apr 02 18:41:30 EDT 2013
User: group
Dark Spectrum Present: No
Reference Spectrum Present: No
Number of Sampled Component Spectra: 1
Spectrometers: USB2E7196
Integration Time (usec): 580000 (USB2E7196)
Spectra Averaged: 2 (USB2E7196)
Boxcar Smoothing: 10 (USB2E7196)
Correct for Electrical Dark: No (USB2E7196)
Strobe/Lamp Enabled: No (USB2E7196)
Correct for Detector Non-linearity: No (USB2E7196)
Correct for Stray Light: No (USB2E7196)
Number of Pixels in Processed Spectrum: 2048
>>>>>Begin Processed Spectral Data<<<<<
339.09	0.00
339.48	195.50
339.86	196.00
340.24	199.50
340.63	199.00
341.01	232.50
341.39	203.00
341.78	206.00
342.16	210.50
342.54	206.50
342.93	198.67
343.31	208.50
343.69	209.17
344.07	209.60
344.46	210.12
344.84	210.62
345.22	209.24
345.60	209.62
345.99	209.90
346.37	209.79
346.75	209.86
347.13	209.81
347.52	209.93
347.90	210.50
348.28	210.43
348.66	210.71
349.05	209.86
349.43	210.21
349.81	210.71
350.19	210.93
350.57	210.93
350.96	211.21
351.34	211.43
351.72	211.50
352.10	211.62
352.48	211.43
352.87	211.24
353.25	211.67
353.63	211.43
354.01	211.14
354.39	211.60
354.77	211.60
355.15	212.19
355.54	211.93
355.92	211.40
356.30	211.55
356.68	212.95
357.06	213.21
357.44	213.00
357.82	212.74
358.20	213.69
358.58	213.62
358.97	213.60
359.35	214.00
359.73	214.40
360.11	214.50
360.49	214.79
360.87	214.93
361.25	214.98
361.63	215.81
362.01	216.17
362.39	216.00
362.77	216.24
363.15	216.26
363.53	216.31
363.91	216.48
364.29	216.45
364.67	214.62
365.05	214.45
365.43	214.76
365.81	215.12
366.19	215.29
366.57	216.10
366.95	216.02
367.33	215.57
367.71	215.38
368.09	215.83
368.47	215.69
368.85	215.95
369.23	216.36
369.61	215.62
369.99	216.24
370.37	216.52
370.75	217.50
371.13	217.02
371.51	216.88
371.89	217.17
372.27	217.21
372.65	217.31
373.03	217.60
373.41	217.38
373.78	217.48
374.16	216.29
374.54	215.71
374.92	215.76
375.30	215.71
375.68	215.55
376.06	215.45
376.44	215.60
376.82	215.52
377.19	215.64
377.57	215.67
377.95	215.07
378.33	214.74
378.71	213.31
379.09	213.45
379.47	213.69
379.84	213.38
380.22	213.36
380.60	213.05
380.98	212.90
381.36	212.98
381.73	212.57
382.11	212.90
382.49	213.12
382.87	212.67
383.25	212.74
383.62	215.05
384.00	214.67
384.38	214.69
384.76	215.14
385.13	215.50
385.51	215.55
385.89	215.38
386.27	215.38
386.64	216.00
387.02	216.14
387.40	216.02
387.78	216.21
388.15	216.31
388.53	216.19
388.91	216.07
389.29	215.79
389.66	215.95
390.04	215.90
390.42	216.26
390.79	216.43
391.17	216.48
391.55	214.33
391.92	214.67
392.30	214.98
392.68	214.40
393.05	214.45
393.43	214.69
393.81	214.69
394.18	214.57
394.56	214.69
394.94	214.88
395.31	214.71
395.69	215.29
396.06	215.43
396.44	215.76
396.82	215.71
397.19	216.90
397.57	217.12
397.95	217.38
398.32	216.57
398.70	216.88
399.07	217.24
399.45	217.02
399.82	216.98
400.20	216.43
400.58	216.52
400.95	215.57
401.33	215.74
401.70	217.12
402.08	217.31
402.45	217.24
402.83	217.90
403.20	218.05
403.58	217.86
403.95	218.45
404.33	218.88
404.71	219.31
405.08	220.60
405.46	220.69
405.83	221.02
406.21	221.71
406.58	222.31
406.96	222.81
407.33	223.55
407.70	223.95
408.08	226.19
408.45	227.12
408.83	228.40
409.20	228.90
409.58	228.69
409.95	229.81
410.33	230.74
410.70	230.90
411.08	232.31
411.45	233.62
411.82	234.57
412.20	236.19
412.57	238.52
412.95	238.12
413.32	240.00
413.69	241.40
414.07	242.93
414.44	244.60
414.82	246.50
415.19	248.83
415.56	251.36
415.94	252.76
416.31	255.76
416.68	258.50
417.06	262.19
417.43	265.69
417.81	269.14
418.18	273.17
418.55	276.95
418.93	281.17
419.30	285.29
419.67	289.62
420.04	294.24
420.42	298.60
420.79	305.98
421.16	311.67
421.54	318.64
421.91	325.05
422.28	331.71
422.66	338.64
423.03	346.57
423.40	353.55
423.77	361.19
424.15	368.43
424.52	376.52
424.89	385.29
425.26	393.57
425.64	401.48
426.01	409.83
426.38	418.98
426.75	428.55
427.13	437.79
427.50	447.81
427.87	457.74
428.24	468.10
428.61	476.33
428.99	487.57
429.36	498.36
429.73	510.21
430.10	521.43
430.47	533.21
430.85	543.88
431.22	556.62
431.59	571.57
431.96	584.76
432.33	599.10
432.70	613.17
433.08	629.12
433.45	645.02
433.82	660.33
434.19	677.93
434.56	694.81
434.93	710.95
435.30	727.29
435.68	745.64
436.05	763.40
436.42	780.71
436.79	797.43
437.16	815.24
437.53	833.07
437.90	851.07
438.27	869.64
438.64	888.95
439.01	907.07
439.38	921.24
439.75	936.52
440.13	953.69
440.50	968.93
440.87	983.21
441.24	996.64
441.61	1012.05
441.98	1023.86
442.35	1036.29
442.72	1050.12
443.09	1063.55
443.46	1071.02
443.83	1076.12
444.20	1081.29
444.57	1087.12
444.94	1090.00
445.31	1094.19
445.68	1100.45
446.05	1102.07
446.42	1100.14
446.79	1098.67
447.16	1096.19
447.53	1095.19
447.90	1088.60
448.27	1082.29
448.64	1072.24
449.01	1066.07
449.37	1054.62
449.74	1042.71
450.11	1030.98
450.48	1015.50
450.85	999.21
451.22	986.38
451.59	974.60
451.96	962.71
452.33	946.45
452.70	932.02
453.07	914.62
453.43	894.64
453.80	876.81
454.17	860.52
454.54	844.48
454.91	828.38
455.28	811.67
455.65	796.60
456.02	785.33
456.38	772.79
456.75	756.69
457.12	743.19
457.49	729.67
457.86	715.24
458.23	704.93
458.59	692.76
458.96	680.60
459.33	668.98
459.70	658.48
460.07	650.14
460.43	640.17
460.80	630.93
461.17	623.38
461.54	615.76
461.91	608.17
462.27	599.79
462.64	592.50
463.01	584.69
463.38	578.07
463.74	566.64
464.11	559.60
464.48	553.62
464.85	547.19
465.21	542.76
465.58	537.81
465.95	530.67
466.32	526.17
466.68	520.67
467.05	515.60
467.42	510.17
467.78	504.86
468.15	499.57
468.52	495.69
468.88	489.76
469.25	484.74
469.62	480.98
469.98	476.93
470.35	473.71
470.72	470.02
471.08	464.52
471.45	461.90
471.82	459.05
472.18	455.36
472.55	452.74
472.92	448.86
473.28	445.62
473.65	442.71
474.02	439.83
474.38	437.69
474.75	435.98
475.11	433.62
475.48	431.55
475.85	430.14
476.21	428.10
476.58	426.88
476.94	425.38
477.31	423.95
477.67	422.69
478.04	420.90
478.41	420.17
478.77	422.21
479.14	420.83
479.50	420.05
479.87	420.12
480.23	419.33
480.60	419.17
480.96	418.98
481.33	420.33
481.69	420.07
482.06	420.52
482.42	420.88
482.79	421.29
483.15	421.79
483.52	422.69
483.88	422.90
484.25	423.55
484.61	424.50
484.98	425.00
485.34	426.90
485.71	428.43
486.07	429.62
486.44	428.98
486.80	430.62
487.17	431.90
487.53	434.05
487.90	436.57
488.26	439.36
488.62	442.33
488.99	443.83
489.35	447.00
489.72	449.52
490.08	451.88
490.44	454.40
490.81	458.17
491.17	461.02
491.54	464.60
491.90	468.48
492.26	471.71
492.63	475.69
492.99	478.93
493.36	483.31
493.72	488.00
494.08	492.36
494.45	497.21
494.81	502.64
495.17	507.10
495.54	512.17
495.90	517.10
496.26	522.12
496.63	527.64
496.99	532.50
497.35	538.07
497.72	544.50
498.08	550.45
498.44	556.48
498.80	563.69
499.17	570.52
499.53	576.83
499.89	584.86
500.26	592.02
500.62	598.86
500.98	606.26
501.34	613.21
501.71	620.98
502.07	628.52
502.43	635.43
502.79	642.62
503.16	649.55
503.52	656.88
503.88	663.90
504.24	671.83
504.60	679.79
504.97	688.14
505.33	695.45
505.69	704.55
506.05	712.48
506.41	719.98
506.78	727.86
507.14	735.67
507.50	742.64
507.86	751.02
508.22	759.31
508.59	766.79
508.95	775.12
509.31	783.62
509.67	791.26
510.03	799.12
510.39	807.50
510.75	815.19
511.12	823.05
511.48	831.40
511.84	838.76
512.20	846.74
512.56	854.07
512.92	862.48
513.28	870.17
513.64	877.38
514.00	884.74
514.37	892.69
514.73	900.02
515.09	907.98
515.45	914.79
515.81	921.76
516.17	928.90
516.53	935.14
516.89	941.14
517.25	947.60
517.61	954.88
517.97	961.05
518.33	967.76
518.69	974.19
519.05	981.17
519.41	987.71
519.77	994.90
520.13	1001.24
520.49	1006.67
520.85	1012.45
521.21	1019.38
521.57	1025.17
521.93	1029.98
522.29	1036.90
522.65	1042.48
523.01	1048.50
523.37	1053.69
523.73	1059.29
524.09	1065.31
524.45	1070.31
524.81	1075.74
525.17	1081.64
525.53	1086.74
525.89	1092.36
526.25	1097.50
526.61	1101.29
526.97	1106.76
527.33	1111.14
527.68	1117.19
528.04	1122.36
528.40	1126.07
528.76	1130.02
529.12	1135.05
529.48	1140.71
529.84	1143.86
530.20	1148.26
530.56	1153.29
530.91	1158.62
531.27	1163.36
531.63	1168.14
531.99	1172.86
532.35	1177.05
532.71	1180.45
533.07	1184.98
533.42	1191.07
533.78	1195.81
534.14	1201.48
534.50	1204.36
534.86	1209.02
535.21	1211.79
535.57	1216.17
535.93	1220.74
536.29	1225.62
536.65	1229.88
537.00	1232.79
537.36	1237.55
537.72	1241.98
538.08	1244.95
538.44	1247.50
538.79	1251.19
539.15	1254.07
539.51	1258.57
539.87	1262.00
540.22	1266.38
540.58	1270.95
540.94	1272.52
541.29	1276.17
541.65	1278.05
542.01	1283.26
542.37	1285.67
542.72	1288.74
543.08	1291.00
543.44	1294.71
543.79	1296.90
544.15	1300.57
544.51	1304.95
544.87	1307.95
545.22	1310.95
545.58	1314.31
545.94	1318.55
546.29	1321.79
546.65	1324.74
547.01	1326.83
547.36	1330.60
547.72	1332.88
548.07	1335.17
548.43	1338.29
548.79	1341.36
549.14	1344.74
549.50	1347.55
549.86	1350.69
550.21	1354.05
550.57	1358.40
550.92	1360.62
551.28	1364.76
551.64	1367.64
551.99	1370.52
552.35	1373.29
552.70	1375.79
553.06	1378.98
553.41	1382.71
553.77	1387.31
554.13	1391.86
554.48	1397.12
554.84	1402.10
555.19	1406.67
555.55	1412.86
555.90	1417.60
556.26	1421.86
556.61	1426.17
556.97	1429.76
557.32	1434.19
557.68	1438.43
558.03	1442.07
558.39	1447.33
558.74	1451.50
559.10	1455.86
559.45	1460.50
559.81	1465.81
560.16	1470.67
560.52	1475.40
560.87	1480.14
561.23	1483.02
561.58	1489.00
561.94	1492.88
562.29	1496.45
562.64	1501.81
563.00	1505.10
563.35	1509.21
563.71	1513.55
564.06	1518.69
564.42	1523.95
564.77	1529.62
565.12	1536.57
565.48	1544.52
565.83	1550.55
566.19	1556.12
566.54	1561.88
566.89	1567.93
567.25	1574.83
567.60	1582.95
567.96	1590.55
568.31	1596.95
568.66	1604.45
569.02	1608.67
569.37	1614.55
569.72	1620.10
570.08	1624.48
570.43	1629.48
570.78	1635.71
571.14	1641.21
571.49	1646.90
571.84	1653.00
572.20	1658.17
572.55	1661.62
572.90	1663.71
573.26	1667.90
573.61	1671.21
573.96	1675.24
574.31	1679.07
574.67	1682.76
575.02	1684.19
575.37	1686.76
575.72	1689.14
576.08	1692.57
576.43	1696.21
576.78	1698.50
577.13	1702.00
577.49	1706.12
577.84	1710.00
578.19	1713.00
578.54	1717.29
578.90	1721.02
579.25	1723.67
579.60	1726.64
579.95	1729.38
580.30	1732.62
580.66	1735.81
581.01	1740.81
581.36	1743.45
581.71	1745.60
582.06	1748.52
582.42	1751.64
582.77	1753.12
583.12	1755.45
583.47	1757.62
583.82	1759.69
584.17	1763.07
584.53	1766.29
584.88	1767.76
585.23	1770.52
585.58	1772.43
585.93	1773.60
586.28	1775.10
586.63	1776.62
586.98	1778.52
587.34	1781.74
587.69	1783.60
588.04	1784.71
588.39	1785.21
588.74	1785.95
589.09	1788.10
589.44	1787.60
589.79	1788.67
590.14	1790.71
590.49	1791.74
590.84	1791.76
591.19	1792.48
591.54	1793.50
591.89	1793.52
592.25	1796.12
592.60	1795.05
592.95	1795.36
593.30	1795.93
593.65	1795.74
594.00	1795.76
594.35	1800.69
594.70	1799.62
595.05	1799.05
595.40	1799.33
595.75	1799.19
596.10	1799.98
596.45	1800.98
596.80	1801.74
597.15	1802.19
597.50	1802.07
597.85	1803.74
598.19	1803.98
598.54	1803.81
598.89	1802.93
599.24	1803.57
599.59	1801.81
599.94	1801.55
600.29	1801.86
600.64	1801.24
600.99	1800.86
601.34	1801.07
601.69	1796.33
602.04	1795.19
602.39	1793.98
602.74	1793.29
603.08	1791.48
603.43	1790.86
603.78	1788.86
604.13	1788.00
604.48	1786.60
604.83	1785.90
605.18	1784.57
605.53	1783.21
605.87	1782.40
606.22	1779.74
606.57	1777.17
606.92	1775.24
607.27	1773.86
607.62	1772.33
607.96	1770.88
608.31	1769.93
608.66	1767.00
609.01	1763.38
609.36	1762.29
609.70	1759.98
610.05	1757.26
610.40	1755.64
610.75	1752.88
611.10	1750.07
611.44	1746.74
611.79	1743.40
612.14	1739.60
612.49	1734.93
612.83	1730.98
613.18	1727.64
613.53	1725.00
613.88	1720.57
614.22	1716.31
614.57	1711.95
614.92	1707.38
615.27	1703.43
615.61	1698.10
615.96	1694.29
616.31	1690.17
616.65	1687.02
617.00	1683.50
617.35	1679.45
617.70	1674.36
618.04	1669.57
618.39	1665.24
618.74	1660.90
619.08	1656.50
619.43	1652.43
619.78	1647.69
620.12	1644.40
620.47	1639.07
620.82	1633.69
621.16	1628.86
621.51	1625.00
621.85	1619.52
622.20	1614.43
622.55	1608.86
622.89	1604.79
623.24	1600.45
623.59	1596.26
623.93	1589.69
624.28	1585.26
624.62	1582.55
624.97	1579.98
625.32	1576.12
625.66	1570.38
626.01	1565.29
626.35	1561.07
626.70	1555.86
627.04	1552.31
627.39	1546.55
627.73	1543.00
628.08	1539.38
628.43	1535.31
628.77	1530.38
629.12	1527.12
629.46	1522.71
629.81	1517.52
630.15	1511.43
630.50	1505.69
630.84	1499.60
631.19	1494.14
631.53	1488.69
631.88	1480.02
632.22	1472.79
632.57	1467.76
632.91	1461.95
633.26	1456.93
633.60	1451.14
633.95	1445.10
634.29	1438.26
634.64	1433.62
634.98	1427.33
635.32	1422.17
635.67	1417.19
636.01	1412.38
636.36	1405.88
636.70	1401.57
637.05	1396.10
637.39	1391.45
637.73	1386.45
638.08	1382.05
638.42	1377.07
638.77	1371.88
639.11	1366.93
639.45	1361.50
639.80	1354.95
640.14	1350.14
640.49	1343.40
640.83	1337.48
641.17	1331.29
641.52	1325.31
641.86	1318.95
642.20	1314.62
642.55	1307.60
642.89	1301.48
643.23	1295.10
643.58	1290.19
643.92	1282.81
644.26	1277.12
644.61	1271.40
644.95	1264.21
645.29	1257.71
645.64	1251.48
645.98	1245.17
646.32	1239.57
646.66	1232.43
647.01	1225.55
647.35	1219.24
647.69	1213.79
648.04	1207.64
648.38	1202.48
648.72	1196.55
649.06	1189.69
649.41	1181.83
649.75	1175.48
650.09	1168.50
650.43	1160.74
650.78	1153.19
651.12	1146.14
651.46	1139.02
651.80	1131.48
652.14	1125.93
652.49	1119.67
652.83	1112.14
653.17	1105.14
653.51	1098.10
653.85	1091.83
654.20	1085.40
654.54	1078.17
654.88	1070.52
655.22	1064.43
655.56	1056.90
655.90	1050.36
656.25	1043.71
656.59	1037.02
656.93	1030.74
657.27	1025.88
657.61	1019.81
657.95	1014.40
658.29	1007.79
658.64	1002.21
658.98	995.76
659.32	988.71
659.66	982.05
660.00	977.24
660.34	971.00
660.68	964.55
661.02	958.76
661.36	952.52
661.70	946.93
662.05	942.10
662.39	935.45
662.73	930.86
663.07	926.14
663.41	920.29
663.75	914.43
664.09	908.64
664.43	901.21
664.77	895.95
665.11	889.29
665.45	884.00
665.79	878.29
666.13	872.86
666.47	867.31
666.81	861.02
667.15	854.93
667.49	849.64
667.83	844.88
668.17	839.14
668.51	833.26
668.85	828.12
669.19	823.19
669.53	817.19
669.87	810.45
670.21	803.79
670.55	798.26
670.89	793.93
671.23	789.26
671.57	784.31
671.91	779.21
672.25	774.26
672.58	769.71
672.92	764.31
673.26	759.40
673.60	754.36
673.94	749.79
674.28	744.74
674.62	740.26
674.96	734.95
675.30	730.38
675.64	726.26
675.97	721.21
676.31	715.67
676.65	710.83
676.99	707.64
677.33	703.43
677.67	699.48
678.01	693.86
678.34	689.38
678.68	684.86
679.02	680.17
679.36	675.67
679.70	670.38
680.04	665.45
680.37	660.98
680.71	656.74
681.05	652.57
681.39	648.24
681.73	643.55
682.06	638.88
682.40	634.48
682.74	630.36
683.08	626.62
683.42	621.95
683.75	618.29
684.09	612.98
684.43	608.69
684.77	604.02
685.10	599.50
685.44	594.64
685.78	590.50
686.12	585.90
686.45	581.86
686.79	577.81
687.13	574.12
687.46	569.69
687.80	565.86
688.14	561.79
688.48	557.81
688.81	553.76
689.15	550.71
689.49	546.93
689.82	542.74
690.16	537.93
690.50	534.79
690.83	531.05
691.17	526.88
691.51	522.88
691.84	519.31
692.18	515.74
692.52	511.81
692.85	508.26
693.19	505.83
693.52	502.07
693.86	498.69
694.20	495.12
694.53	492.05
694.87	488.31
695.21	484.31
695.54	481.00
695.88	477.00
696.21	473.02
696.55	469.33
696.88	466.05
697.22	462.98
697.56	459.50
697.89	455.90
698.23	453.45
698.56	450.29
698.90	447.43
699.23	444.29
699.57	441.62
699.90	438.79
700.24	434.90
700.58	431.88
700.91	429.07
701.25	427.98
701.58	425.50
701.92	423.14
702.25	420.71
702.59	417.76
702.92	415.79
703.26	413.33
703.59	411.10
703.93	410.33
704.26	408.29
704.60	406.02
704.93	403.62
705.26	400.93
705.60	399.02
705.93	396.48
706.27	395.26
706.60	393.50
706.94	392.21
707.27	389.98
707.61	388.12
707.94	386.00
708.27	382.33
708.61	380.10
708.94	377.95
709.28	376.26
709.61	374.17
709.94	372.14
710.28	370.12
710.61	368.36
710.95	364.52
711.28	363.76
711.61	361.50
711.95	360.29
712.28	358.31
712.61	355.98
712.95	355.31
713.28	353.86
713.61	351.57
713.95	349.00
714.28	347.43
714.61	345.74
714.95	344.14
715.28	342.36
715.61	340.10
715.95	338.79
716.28	336.86
716.61	335.79
716.95	334.12
717.28	332.71
717.61	331.26
717.94	329.86
718.28	326.67
718.61	325.31
718.94	323.33
719.27	322.10
719.61	321.10
719.94	319.14
720.27	316.60
720.60	315.24
720.94	314.00
721.27	312.60
721.60	311.43
721.93	310.12
722.27	309.43
722.60	308.88
722.93	307.24
723.26	306.40
723.59	304.90
723.93	303.98
724.26	302.98
724.59	301.50
724.92	300.93
725.25	300.93
725.59	300.17
725.92	299.60
726.25	298.38
726.58	297.50
726.91	296.57
727.24	296.21
727.57	295.31
727.91	293.98
728.24	293.43
728.57	292.43
728.90	291.52
729.23	290.26
729.56	290.29
729.89	289.67
730.22	288.67
730.55	287.83
730.89	286.88
731.22	286.12
731.55	285.14
731.88	284.52
732.21	283.29
732.54	282.33
732.87	281.43
733.20	280.71
733.53	279.93
733.86	279.02
734.19	277.64
734.52	277.38
734.85	277.98
735.18	276.90
735.51	276.95
735.84	276.62
736.17	276.40
736.50	274.69
736.83	276.36
737.16	275.79
737.49	275.17
737.82	274.62
738.15	274.21
738.48	274.10
738.81	273.07
739.14	271.95
739.47	270.88
739.80	270.17
740.13	270.00
740.46	269.10
740.79	268.10
741.12	267.81
741.45	266.88
741.78	265.36
742.11	265.55
742.44	264.43
742.77	264.10
743.10	263.21
743.43	262.60
743.75	260.00
744.08	261.86
744.41	261.05
744.74	260.48
745.07	259.24
745.40	258.74
745.73	258.76
746.06	258.45
746.39	258.45
746.71	257.71
747.04	256.69
747.37	256.19
747.70	256.10
748.03	255.83
748.36	255.83
748.68	255.12
749.01	253.76
749.34	253.17
749.67	252.45
750.00	252.31
750.33	253.29
750.65	252.81
750.98	249.98
751.31	249.69
751.64	249.24
751.97	250.12
752.29	249.43
752.62	248.52
752.95	247.93
753.28	247.50
753.60	247.26
753.93	247.48
754.26	246.93
754.59	246.07
754.91	245.24
755.24	244.48
755.57	244.02
755.90	243.62
756.22	243.17
756.55	242.48
756.88	241.57
757.20	239.93
757.53	238.95
757.86	238.64
758.19	238.52
758.51	238.07
758.84	236.93
759.17	236.52
759.49	236.21
759.82	237.02
760.15	236.74
760.47	236.40
760.80	235.48
761.13	235.81
761.45	235.24
761.78	234.95
762.11	234.57
762.43	234.31
762.76	234.12
763.08	234.21
763.41	234.19
763.74	234.36
764.06	234.17
764.39	234.02
764.71	233.74
765.04	233.19
765.37	232.95
765.69	232.40
766.02	232.00
766.34	231.52
766.67	230.60
767.00	230.57
767.32	231.52
767.65	232.67
767.97	231.98
768.30	232.31
768.62	232.00
768.95	231.90
769.27	231.79
769.60	231.83
769.92	231.00
770.25	230.31
770.57	229.43
770.90	228.95
771.22	228.79
771.55	228.57
771.87	228.45
772.20	228.24
772.52	229.90
772.85	232.43
773.17	232.24
773.50	231.95
773.82	231.40
774.15	229.98
774.47	228.69
774.80	228.71
775.12	228.48
775.45	228.69
775.77	228.62
776.09	228.71
776.42	228.71
776.74	229.50
777.07	229.26
777.39	229.40
777.72	229.26
778.04	229.24
778.36	228.95
778.69	228.93
779.01	229.05
779.33	227.10
779.66	224.60
779.98	224.36
780.31	224.29
780.63	225.17
780.95	225.71
781.28	225.71
781.60	225.36
781.92	225.14
782.25	224.83
782.57	224.50
782.89	224.17
783.22	223.76
783.54	223.14
783.86	223.52
784.19	223.31
784.51	223.74
784.83	223.38
785.16	223.19
785.48	222.98
785.80	222.45
786.12	222.55
786.45	222.24
786.77	222.38
787.09	222.05
787.42	221.43
787.74	221.12
788.06	220.81
788.38	220.60
788.71	220.31
789.03	220.24
789.35	220.40
789.67	219.98
789.99	220.14
790.32	219.93
790.64	219.81
790.96	221.45
791.28	220.62
791.61	220.45
791.93	220.71
792.25	220.57
792.57	222.21
792.89	221.74
793.21	221.93
793.54	221.48
793.86	221.36
794.18	221.17
794.50	220.71
794.82	220.76
795.14	221.10
795.47	221.45
795.79	221.43
796.11	221.02
796.43	221.02
796.75	220.60
797.07	220.60
797.39	220.43
797.71	218.88
798.04	219.19
798.36	219.40
798.68	219.29
799.00	219.52
799.32	218.40
799.64	218.93
799.96	218.76
800.28	219.45
800.60	219.40
800.92	219.52
801.24	219.48
801.56	219.40
801.89	218.98
802.21	219.17
802.53	218.81
802.85	219.19
803.17	219.93
803.49	219.86
803.81	219.67
804.13	219.55
804.45	219.26
804.77	219.26
805.09	219.19
805.41	218.83
805.73	218.38
806.05	217.88
806.37	217.50
806.69	217.45
807.01	217.14
807.33	217.24
807.65	216.36
807.97	217.33
808.28	217.10
808.60	217.38
808.92	216.81
809.24	218.14
809.56	217.55
809.88	216.83
810.20	216.76
810.52	217.14
810.84	217.05
811.16	216.83
811.48	216.60
811.80	217.29
812.12	217.26
812.43	217.50
812.75	217.69
813.07	217.60
813.39	217.71
813.71	217.36
814.03	217.24
814.35	217.24
814.67	216.33
814.98	216.40
815.30	216.12
815.62	215.83
815.94	214.48
816.26	214.71
816.58	214.52
816.89	214.88
817.21	214.48
817.53	214.40
817.85	214.69
818.17	214.64
818.48	213.67
818.80	214.21
819.12	214.07
819.44	213.81
819.76	213.40
820.07	213.48
820.39	213.40
820.71	213.48
821.03	213.69
821.34	213.45
821.66	213.74
821.98	214.29
822.30	214.33
822.61	215.50
822.93	215.31
823.25	215.17
823.57	215.02
823.88	215.21
824.20	215.45
824.52	215.69
824.83	215.71
825.15	215.62
825.47	215.52
825.79	215.79
826.10	215.52
826.42	215.79
826.74	215.93
827.05	215.86
827.37	215.86
827.69	215.67
828.00	215.90
828.32	215.57
828.64	215.02
828.95	216.31
829.27	215.81
829.58	215.71
829.90	216.31
830.22	216.07
830.53	215.76
830.85	215.33
831.17	214.86
831.48	214.93
831.80	215.19
832.11	214.81
832.43	214.26
832.75	214.33
833.06	215.40
833.38	214.79
833.69	214.95
834.01	215.05
834.32	215.12
834.64	215.02
834.96	215.12
835.27	215.14
835.59	214.17
835.90	213.55
836.22	213.69
836.53	213.10
836.85	213.10
837.16	215.12
837.48	215.29
837.79	215.76
838.11	215.69
838.42	215.50
838.74	215.93
839.05	215.88
839.37	215.81
839.68	214.57
840.00	214.57
840.31	214.76
840.63	214.64
840.94	214.62
841.26	214.45
841.57	214.55
841.88	214.74
842.20	214.57
842.51	214.74
842.83	214.76
843.14	216.57
843.46	216.74
843.77	215.88
844.08	215.71
844.40	215.10
844.71	214.88
845.03	214.74
845.34	214.48
845.65	214.62
845.97	214.74
846.28	214.88
846.60	215.00
846.91	214.57
847.22	214.57
847.54	214.98
847.85	214.95
848.16	214.83
848.48	214.40
848.79	215.05
849.10	215.19
849.42	215.24
849.73	213.24
850.04	213.19
850.36	212.17
850.67	212.55
850.98	212.67
851.30	213.24
851.61	213.26
851.92	213.17
852.23	213.79
852.55	213.64
852.86	213.74
853.17	213.83
853.49	214.50
853.80	214.74
854.11	214.67
854.42	214.95
854.74	214.62
855.05	214.81
855.36	213.81
855.67	214.00
855.99	214.07
856.30	216.88
856.61	216.79
856.92	216.98
857.23	216.83
857.55	216.69
857.86	216.24
858.17	216.50
858.48	216.24
858.79	215.83
859.11	216.14
859.42	215.86
859.73	215.67
860.04	215.19
860.35	214.71
860.66	214.19
860.98	214.02
861.29	214.36
861.60	214.05
861.91	214.43
862.22	213.93
862.53	213.67
862.84	210.95
863.16	211.48
863.47	211.24
863.78	211.31
864.09	211.62
864.40	211.71
864.71	211.74
865.02	211.98
865.33	211.62
865.64	211.12
865.95	211.17
866.27	212.48
866.58	212.45
866.89	212.64
867.20	212.64
867.51	212.43
867.82	212.14
868.13	212.81
868.44	212.55
868.75	212.95
869.06	212.98
869.37	213.36
869.68	212.52
869.99	212.64
870.30	212.64
870.61	212.76
870.92	212.60
871.23	212.43
871.54	212.64
871.85	213.17
872.16	213.36
872.47	213.43
872.78	212.12
873.09	212.55
873.40	212.31
873.71	212.40
874.02	212.29
874.33	212.17
874.64	211.67
874.95	211.95
875.26	211.40
875.56	211.21
875.87	211.26
876.18	211.36
876.49	213.31
876.80	213.10
877.11	212.62
877.42	212.76
877.73	212.76
878.04	212.57
878.35	212.52
878.66	212.71
878.96	212.57
879.27	212.69
879.58	212.26
879.89	212.17
880.20	212.74
880.51	212.90
880.82	212.98
881.12	213.05
881.43	212.69
881.74	212.38
882.05	212.57
882.36	212.62
882.67	212.52
882.97	210.31
883.28	210.10
883.59	210.07
883.90	210.21
884.21	210.40
884.51	210.17
884.82	210.00
885.13	209.95
885.44	209.86
885.74	209.79
886.05	209.83
886.36	209.86
886.67	209.02
886.98	209.98
887.28	210.26
887.59	210.31
887.90	210.43
888.20	210.55
888.51	210.60
888.82	209.98
889.13	210.43
889.43	212.17
889.74	212.17
890.05	212.21
890.35	211.95
890.66	211.83
890.97	211.86
891.28	211.76
891.58	211.69
891.89	211.60
892.20	211.45
892.50	211.29
892.81	211.40
893.12	211.64
893.42	210.76
893.73	210.83
894.04	211.05
894.34	211.26
894.65	211.38
894.95	211.43
895.26	211.81
895.57	212.69
895.87	210.88
896.18	211.19
896.48	211.57
896.79	211.62
897.10	211.93
897.40	212.05
897.71	212.21
898.01	212.24
898.32	212.64
898.63	212.67
898.93	212.88
899.24	212.79
899.54	212.69
899.85	212.74
900.15	212.64
900.46	212.36
900.76	212.62
901.07	212.57
901.38	212.29
901.68	212.52
901.99	211.40
902.29	211.45
902.60	211.57
902.90	211.21
903.21	211.26
903.51	211.02
903.82	211.33
904.12	211.29
904.43	211.45
904.73	211.31
905.03	211.55
905.34	213.60
905.64	213.48
905.95	213.67
906.25	213.69
906.56	213.64
906.86	213.90
907.17	213.52
907.47	213.74
907.77	213.74
908.08	213.12
908.38	213.38
908.69	213.52
908.99	213.88
909.30	214.02
909.60	213.93
909.90	214.24
910.21	213.81
910.51	213.71
910.81	213.81
911.12	214.00
911.42	213.88
911.73	211.62
912.03	212.12
912.33	212.57
912.64	212.69
912.94	212.50
913.24	212.07
913.55	212.07
913.85	211.86
914.15	212.43
914.46	212.76
914.76	212.55
915.06	212.36
915.37	211.76
915.67	211.40
915.97	211.55
916.27	210.93
916.58	210.90
916.88	210.67
917.18	210.55
917.49	211.98
917.79	211.98
918.09	212.45
918.39	212.71
918.70	212.33
919.00	212.10
919.30	213.26
919.60	213.19
919.91	213.10
920.21	213.24
920.51	212.86
920.81	212.81
921.12	212.95
921.42	213.14
921.72	213.43
922.02	213.71
922.32	214.00
922.63	214.02
922.93	215.05
923.23	215.05
923.53	214.81
923.83	213.38
924.13	213.45
924.44	213.36
924.74	213.57
925.04	213.90
925.34	213.98
925.64	212.86
925.94	213.05
926.24	213.95
926.55	213.79
926.85	213.88
927.15	214.12
927.45	214.05
927.75	213.83
928.05	213.76
928.35	213.76
928.65	213.98
928.95	214.31
929.26	213.50
929.56	213.90
929.86	214.29
930.16	214.24
930.46	214.12
930.76	214.12
931.06	213.14
931.36	212.74
931.66	213.05
931.96	213.12
932.26	212.98
932.56	212.14
932.86	212.21
933.16	212.31
933.46	212.02
933.76	212.07
934.06	212.81
934.36	213.57
934.66	213.60
934.96	213.26
935.26	213.36
935.56	213.74
935.86	213.31
936.16	212.83
936.46	212.40
936.76	212.38
937.06	212.14
937.36	212.48
937.66	212.69
937.96	212.31
938.26	212.10
938.56	212.21
938.86	212.50
939.16	213.00
939.46	213.33
939.76	213.33
940.06	213.29
940.35	212.57
940.65	211.67
940.95	211.74
941.25	211.26
941.55	210.76
941.85	210.60
942.15	211.12
942.45	211.86
942.75	212.07
943.04	212.21
943.34	212.57
943.64	212.50
943.94	212.12
944.24	212.50
944.54	212.76
944.84	212.79
945.13	212.48
945.43	212.36
945.73	211.88
946.03	211.83
946.33	211.71
946.62	211.74
946.92	211.45
947.22	211.64
947.52	211.69
947.82	212.36
948.11	212.31
948.41	211.83
948.71	211.21
949.01	211.43
949.31	211.10
949.60	210.88
949.90	211.26
950.20	211.29
950.50	211.31
950.79	211.17
951.09	211.26
951.39	211.17
951.69	210.64
951.98	211.05
952.28	211.17
952.58	211.00
952.87	211.07
953.17	211.55
953.47	211.14
953.76	211.36
954.06	210.90
954.36	210.38
954.66	210.43
954.95	211.02
955.25	211.14
955.55	211.33
955.84	211.10
956.14	211.00
956.44	211.07
956.73	210.48
957.03	210.55
957.32	210.69
957.62	210.67
957.92	211.14
958.21	211.00
958.51	213.55
958.81	213.98
959.10	214.48
959.40	214.90
959.69	215.02
959.99	215.33
960.29	215.45
960.58	215.50
960.88	216.21
961.17	215.90
961.47	216.07
961.76	215.98
962.06	216.24
962.36	215.88
962.65	216.00
962.95	216.26
963.24	216.29
963.54	216.36
963.83	216.69
964.13	216.55
964.42	216.02
964.72	214.10
965.01	213.98
965.31	213.55
965.60	213.05
965.90	214.62
966.19	214.31
966.49	214.33
966.78	214.60
967.08	214.50
967.37	214.48
967.67	214.12
967.96	214.60
968.26	214.74
968.55	215.00
968.85	214.90
969.14	214.62
969.43	214.40
969.73	214.02
970.02	213.86
970.32	213.79
970.61	213.95
970.91	213.45
971.20	213.14
971.49	212.81
971.79	212.88
972.08	211.36
972.38	211.43
972.67	211.21
972.96	211.24
973.26	210.81
973.55	211.62
973.85	211.71
974.14	211.38
974.43	211.57
974.73	211.38
975.02	211.19
975.31	211.52
975.61	211.67
975.90	211.43
976.19	211.36
976.49	211.26
976.78	211.33
977.07	211.33
977.37	211.60
977.66	212.02
977.95	211.79
978.24	211.55
978.54	211.95
978.83	211.93
979.12	211.88
979.42	211.88
979.71	211.14
980.00	210.93
980.29	211.12
980.59	210.50
980.88	211.17
981.17	211.17
981.46	211.14
981.76	211.05
982.05	211.57
982.34	211.76
982.63	212.05
982.93	212.02
983.22	212.50
983.51	212.50
983.80	212.64
984.09	213.00
984.39	213.02
984.68	212.52
984.97	212.67
985.26	212.43
985.55	212.57
985.85	212.21
986.14	212.74
986.43	212.79
986.72	212.79
987.01	211.95
987.30	211.98
987.59	211.76
987.89	211.88
988.18	211.50
988.47	211.19
988.76	211.05
989.05	210.93
989.34	210.62
989.63	211.26
989.92	211.00
990.22	210.62
990.51	210.62
990.80	210.50
991.09	210.64
991.38	210.86
991.67	210.57
991.96	210.50
992.25	210.31
992.54	209.81
992.83	209.79
993.12	209.86
993.41	210.12
993.70	210.86
993.99	211.21
994.28	211.52
994.58	211.71
994.87	211.43
995.16	211.55
995.45	211.12
995.74	210.21
996.03	210.43
996.32	210.67
996.61	211.31
996.90	211.31
997.19	211.29
997.48	211.50
997.77	211.43
998.06	211.69
998.34	211.31
998.63	211.45
998.92	211.48
999.21	212.02
999.50	212.21
999.79	211.67
1000.08	211.57
1000.37	211.52
1000.66	211.19
1000.95	211.90
1001.24	211.88
1001.53	212.36
1001.82	212.36
1002.11	212.02
1002.40	212.33
1002.68	212.60
1002.97	213.93
1003.26	213.71
1003.55	213.31
1003.84	213.50
1004.13	214.10
1004.42	214.07
1004.71	214.19
1004.99	214.05
1005.28	214.21
1005.57	213.98
1005.86	213.60
1006.15	213.29
1006.44	213.24
1006.72	213.93
1007.01	213.14
1007.30	213.07
1007.59	212.76
1007.88	212.57
1008.17	212.43
1008.45	211.98
1008.74	211.12
1009.03	210.21
1009.32	210.14
1009.60	210.05
1009.89	209.86
1010.18	209.12
1010.47	209.07
1010.76	209.00
1011.04	209.17
1011.33	209.12
1011.62	209.14
1011.91	209.43
1012.19	209.52
1012.48	209.40
1012.77	209.24
1013.05	210.43
1013.34	210.52
1013.63	210.40
1013.92	210.67
1014.20	210.71
1014.49	210.67
1014.78	210.98
1015.06	210.48
1015.35	210.31
1015.64	210.67
1015.92	210.95
1016.21	211.05
1016.50	211.10
1016.78	211.26
1017.07	211.33
1017.36	210.81
1017.64	210.45
1017.93	210.71
1018.22	210.57
1018.50	210.50
1018.79	210.12
1019.08	209.24
1019.36	209.31
1019.65	209.33
1019.93	210.07
1020.22	210.14
1020.51	211.60
1020.79	211.24
1021.08	207.50
1021.36	206.50
1021.65	207.00
1021.94	211.00
1022.22	212.00
1022.51	208.50
1022.79	223.50
1023.08	208.00
1023.36	241.00
1023.65	205.50
>>>>>End Processed Spectral Data<<<<<
