SpectraSuite Data File
++++++++++++++++++++++++++++++++++++
Date: Tue Apr 02 18:45:23 EDT 2013
User: group
Dark Spectrum Present: No
Reference Spectrum Present: No
Number of Sampled Component Spectra: 1
Spectrometers: USB2E7196
Integration Time (usec): 580000 (USB2E7196)
Spectra Averaged: 2 (USB2E7196)
Boxcar Smoothing: 10 (USB2E7196)
Correct for Electrical Dark: No (USB2E7196)
Strobe/Lamp Enabled: No (USB2E7196)
Correct for Detector Non-linearity: No (USB2E7196)
Correct for Stray Light: No (USB2E7196)
Number of Pixels in Processed Spectrum: 2048
>>>>>Begin Processed Spectral Data<<<<<
339.09	0.00
339.48	191.50
339.86	196.50
340.24	198.50
340.63	198.00
341.01	227.50
341.39	199.50
341.78	205.50
342.16	210.50
342.54	204.00
342.93	196.64
343.31	206.43
343.69	207.29
344.07	207.79
344.46	208.40
344.84	208.98
345.22	207.83
345.60	208.24
345.99	208.38
346.37	208.00
346.75	208.07
347.13	208.00
347.52	207.88
347.90	208.55
348.28	208.62
348.66	209.24
349.05	208.76
349.43	209.19
349.81	209.50
350.19	209.33
350.57	209.43
350.96	209.86
351.34	210.19
351.72	210.29
352.10	210.36
352.48	210.17
352.87	209.93
353.25	210.02
353.63	210.14
354.01	210.19
354.39	210.79
354.77	210.88
355.15	211.45
355.54	211.36
355.92	210.67
356.30	210.74
356.68	211.98
357.06	212.19
357.44	211.93
357.82	211.98
358.20	213.31
358.58	213.21
358.97	213.29
359.35	213.67
359.73	214.07
360.11	214.26
360.49	214.60
360.87	215.02
361.25	215.55
361.63	216.19
362.01	216.62
362.39	216.40
362.77	216.81
363.15	217.10
363.53	217.31
363.91	217.90
364.29	217.88
364.67	216.10
365.05	216.07
365.43	216.29
365.81	216.67
366.19	216.57
366.57	217.62
366.95	217.67
367.33	217.17
367.71	217.12
368.09	217.50
368.47	217.52
368.85	217.40
369.23	218.02
369.61	217.50
369.99	218.07
370.37	218.48
370.75	219.60
371.13	219.00
371.51	218.71
371.89	219.05
372.27	219.36
372.65	219.60
373.03	220.00
373.41	220.02
373.78	219.81
374.16	218.69
374.54	217.93
374.92	217.79
375.30	217.88
375.68	217.52
376.06	217.57
376.44	217.43
376.82	217.50
377.19	217.33
377.57	217.24
377.95	216.52
378.33	216.45
378.71	215.12
379.09	215.48
379.47	215.83
379.84	215.26
380.22	215.10
380.60	214.76
380.98	214.40
381.36	214.24
381.73	214.00
382.11	214.64
382.49	214.71
382.87	214.67
383.25	214.79
383.62	216.93
384.00	216.62
384.38	216.57
384.76	216.98
385.13	217.57
385.51	217.57
385.89	217.38
386.27	217.21
386.64	217.38
387.02	217.17
387.40	216.93
387.78	217.19
388.15	217.19
388.53	217.19
388.91	217.10
389.29	217.05
389.66	217.29
390.04	216.90
390.42	217.19
390.79	217.29
391.17	217.10
391.55	214.93
391.92	214.86
392.30	215.07
392.68	214.48
393.05	213.98
393.43	214.00
393.81	214.10
394.18	214.05
394.56	214.21
394.94	214.60
395.31	214.40
395.69	215.02
396.06	215.29
396.44	215.33
396.82	215.36
397.19	216.55
397.57	216.26
397.95	216.55
398.32	216.00
398.70	216.12
399.07	216.62
399.45	216.60
399.82	216.40
400.20	216.02
400.58	215.95
400.95	215.52
401.33	216.10
401.70	217.45
402.08	217.52
402.45	217.45
402.83	217.79
403.20	218.12
403.58	217.88
403.95	218.36
404.33	218.81
404.71	218.98
405.08	219.81
405.46	220.17
405.83	220.48
406.21	220.67
406.58	221.12
406.96	221.29
407.33	221.95
407.70	222.81
408.08	225.26
408.45	226.26
408.83	227.00
409.20	227.12
409.58	226.45
409.95	227.55
410.33	228.60
410.70	229.19
411.08	230.26
411.45	231.24
411.82	231.76
412.20	232.95
412.57	235.36
412.95	234.95
413.32	236.57
413.69	237.95
414.07	239.88
414.44	241.64
414.82	243.76
415.19	246.21
415.56	248.26
415.94	249.36
416.31	252.26
416.68	254.95
417.06	258.12
417.43	261.95
417.81	265.14
418.18	268.76
418.55	272.50
418.93	276.43
419.30	280.29
419.67	284.93
420.04	289.52
420.42	293.88
420.79	301.07
421.16	306.83
421.54	313.95
421.91	319.93
422.28	326.02
422.66	332.40
423.03	339.76
423.40	346.19
423.77	353.17
424.15	360.12
424.52	367.76
424.89	376.57
425.26	383.88
425.64	391.33
426.01	398.93
426.38	407.88
426.75	417.64
427.13	427.12
427.50	436.52
427.87	446.62
428.24	456.21
428.61	464.50
428.99	475.60
429.36	485.69
429.73	496.95
430.10	508.50
430.47	519.90
430.85	530.48
431.22	543.36
431.59	558.36
431.96	570.95
432.33	585.40
432.70	599.29
433.08	615.86
433.45	631.29
433.82	646.90
434.19	663.38
434.56	679.95
434.93	695.76
435.30	711.71
435.68	729.07
436.05	746.50
436.42	763.14
436.79	779.12
437.16	796.14
437.53	813.86
437.90	831.29
438.27	849.07
438.64	866.95
439.01	884.21
439.38	897.71
439.75	912.19
440.13	928.93
440.50	943.90
440.87	955.95
441.24	969.29
441.61	983.55
441.98	994.00
442.35	1005.07
442.72	1017.74
443.09	1031.21
443.46	1038.64
443.83	1044.00
444.20	1048.88
444.57	1054.64
444.94	1057.43
445.31	1061.17
445.68	1066.90
446.05	1068.17
446.42	1066.83
446.79	1065.21
447.16	1062.98
447.53	1062.45
447.90	1055.81
448.27	1049.86
448.64	1041.36
449.01	1035.26
449.37	1024.60
449.74	1014.05
450.11	1003.52
450.48	988.93
450.85	972.76
451.22	959.95
451.59	947.76
451.96	936.02
452.33	920.40
452.70	907.10
453.07	889.67
453.43	870.17
453.80	854.40
454.17	839.26
454.54	824.17
454.91	808.07
455.28	791.93
455.65	777.33
456.02	765.79
456.38	753.40
456.75	737.86
457.12	724.36
457.49	711.67
457.86	697.36
458.23	687.10
458.59	675.71
458.96	664.21
459.33	653.98
459.70	643.88
460.07	636.10
460.43	626.21
460.80	618.19
461.17	611.07
461.54	602.33
461.91	594.19
462.27	585.90
462.64	579.36
463.01	572.33
463.38	565.57
463.74	554.98
464.11	548.40
464.48	542.64
464.85	536.48
465.21	531.90
465.58	527.05
465.95	520.67
466.32	515.98
466.68	510.57
467.05	505.71
467.42	500.69
467.78	494.74
468.15	490.05
468.52	486.07
468.88	480.29
469.25	475.90
469.62	472.57
469.98	468.79
470.35	465.31
470.72	461.45
471.08	456.55
471.45	453.74
471.82	450.98
472.18	447.21
472.55	445.31
472.92	441.81
473.28	438.71
473.65	435.76
474.02	433.07
474.38	431.55
474.75	429.31
475.11	426.98
475.48	425.33
475.85	423.62
476.21	421.74
476.58	420.57
476.94	418.98
477.31	417.55
477.67	416.62
478.04	415.45
478.41	414.79
478.77	416.50
479.14	415.02
479.50	414.40
479.87	414.24
480.23	413.17
480.60	412.93
480.96	412.76
481.33	413.81
481.69	413.40
482.06	413.12
482.42	413.62
482.79	414.33
483.15	414.52
483.52	415.33
483.88	415.69
484.25	416.31
484.61	417.45
484.98	418.21
485.34	419.60
485.71	421.05
486.07	421.98
486.44	421.26
486.80	423.07
487.17	424.29
487.53	426.69
487.90	428.93
488.26	431.67
488.62	434.55
488.99	436.64
489.35	439.69
489.72	442.33
490.08	444.31
490.44	446.98
490.81	450.57
491.17	453.50
491.54	457.02
491.90	460.86
492.26	464.67
492.63	468.57
492.99	472.17
493.36	476.19
493.72	481.38
494.08	485.90
494.45	490.62
494.81	495.71
495.17	500.43
495.54	505.93
495.90	510.36
496.26	515.26
496.63	520.64
496.99	525.88
497.35	531.33
497.72	537.62
498.08	543.45
498.44	549.38
498.80	555.38
499.17	561.62
499.53	568.17
499.89	575.02
500.26	581.83
500.62	588.26
500.98	595.36
501.34	601.83
501.71	608.93
502.07	616.17
502.43	623.50
502.79	630.12
503.16	636.86
503.52	644.38
503.88	651.07
504.24	657.90
504.60	665.43
504.97	673.26
505.33	680.60
505.69	689.45
506.05	697.33
506.41	704.95
506.78	712.83
507.14	719.74
507.50	727.14
507.86	735.02
508.22	743.38
508.59	750.50
508.95	758.33
509.31	766.95
509.67	773.76
510.03	780.95
510.39	788.60
510.75	796.62
511.12	804.31
511.48	812.60
511.84	820.57
512.20	828.50
512.56	836.05
512.92	844.31
513.28	850.67
513.64	858.05
514.00	865.90
514.37	873.07
514.73	880.98
515.09	888.81
515.45	895.19
515.81	901.31
516.17	908.05
516.53	914.31
516.89	919.88
517.25	927.00
517.61	934.12
517.97	940.90
518.33	947.14
518.69	953.86
519.05	959.76
519.41	966.31
519.77	973.14
520.13	979.31
520.49	984.33
520.85	990.36
521.21	996.79
521.57	1002.40
521.93	1007.40
522.29	1012.50
522.65	1017.17
523.01	1022.95
523.37	1028.36
523.73	1034.14
524.09	1039.10
524.45	1044.95
524.81	1049.86
525.17	1054.95
525.53	1059.74
525.89	1064.17
526.25	1068.93
526.61	1073.19
526.97	1077.31
527.33	1081.64
527.68	1088.02
528.04	1092.64
528.40	1096.81
528.76	1101.07
529.12	1105.19
529.48	1110.05
529.84	1114.17
530.20	1118.62
530.56	1122.83
530.91	1127.81
531.27	1131.79
531.63	1136.31
531.99	1139.45
532.35	1143.90
532.71	1148.05
533.07	1152.90
533.42	1159.43
533.78	1163.24
534.14	1167.74
534.50	1171.14
534.86	1175.10
535.21	1176.86
535.57	1180.86
535.93	1184.14
536.29	1188.38
536.65	1192.62
537.00	1195.43
537.36	1198.95
537.72	1202.43
538.08	1206.02
538.44	1208.67
538.79	1212.74
539.15	1215.31
539.51	1219.26
539.87	1222.62
540.22	1225.57
540.58	1228.17
540.94	1228.98
541.29	1232.26
541.65	1234.21
542.01	1238.19
542.37	1240.21
542.72	1242.21
543.08	1243.95
543.44	1247.62
543.79	1248.64
544.15	1250.79
544.51	1254.14
544.87	1256.48
545.22	1258.98
545.58	1261.98
545.94	1265.38
546.29	1267.60
546.65	1270.31
547.01	1272.60
547.36	1275.21
547.72	1277.31
548.07	1280.10
548.43	1282.55
548.79	1284.45
549.14	1287.81
549.50	1289.93
549.86	1291.95
550.21	1295.38
550.57	1298.83
550.92	1300.33
551.28	1304.02
551.64	1307.10
551.99	1309.62
552.35	1312.69
552.70	1315.19
553.06	1318.14
553.41	1320.33
553.77	1324.50
554.13	1328.43
554.48	1332.62
554.84	1336.95
555.19	1340.50
555.55	1345.10
555.90	1348.83
556.26	1352.33
556.61	1355.67
556.97	1359.50
557.32	1363.86
557.68	1367.83
558.03	1371.45
558.39	1375.33
558.74	1378.07
559.10	1382.48
559.45	1387.76
559.81	1392.74
560.16	1396.76
560.52	1399.98
560.87	1404.40
561.23	1407.33
561.58	1413.62
561.94	1417.29
562.29	1420.00
562.64	1424.95
563.00	1428.12
563.35	1432.62
563.71	1438.19
564.06	1443.43
564.42	1448.00
564.77	1453.36
565.12	1459.48
565.48	1466.93
565.83	1473.67
566.19	1479.95
566.54	1484.29
566.89	1489.17
567.25	1494.81
567.60	1502.36
567.96	1510.07
568.31	1516.76
568.66	1523.71
569.02	1526.95
569.37	1531.76
569.72	1537.69
570.08	1542.67
570.43	1548.31
570.78	1554.24
571.14	1559.55
571.49	1564.64
571.84	1570.36
572.20	1575.38
572.55	1579.62
572.90	1581.98
573.26	1585.79
573.61	1590.00
573.96	1594.86
574.31	1599.26
574.67	1602.98
575.02	1605.88
575.37	1607.79
575.72	1610.76
576.08	1613.86
576.43	1618.33
576.78	1622.45
577.13	1627.02
577.49	1630.98
577.84	1635.69
578.19	1639.60
578.54	1643.67
578.90	1648.29
579.25	1651.74
579.60	1653.90
579.95	1657.05
580.30	1662.00
580.66	1665.98
581.01	1669.71
581.36	1672.90
581.71	1676.67
582.06	1681.52
582.42	1685.93
582.77	1690.67
583.12	1694.64
583.47	1697.64
583.82	1700.81
584.17	1704.50
584.53	1707.98
584.88	1711.17
585.23	1713.55
585.58	1716.05
585.93	1717.55
586.28	1720.12
586.63	1723.14
586.98	1727.88
587.34	1731.71
587.69	1733.74
588.04	1736.43
588.39	1739.10
588.74	1740.45
589.09	1742.43
589.44	1742.62
589.79	1743.76
590.14	1744.98
590.49	1746.79
590.84	1748.71
591.19	1750.48
591.54	1751.52
591.89	1752.60
592.25	1754.76
592.60	1755.55
592.95	1757.64
593.30	1760.48
593.65	1761.40
594.00	1761.81
594.35	1767.71
594.70	1768.02
595.05	1769.38
595.40	1769.83
595.75	1770.50
596.10	1773.64
596.45	1774.98
596.80	1777.10
597.15	1778.71
597.50	1779.31
597.85	1780.14
598.19	1780.88
598.54	1781.76
598.89	1782.24
599.24	1782.83
599.59	1782.81
599.94	1783.71
600.29	1783.21
600.64	1782.74
600.99	1782.81
601.34	1784.12
601.69	1778.40
602.04	1777.07
602.39	1776.90
602.74	1778.07
603.08	1777.31
603.43	1776.71
603.78	1775.57
604.13	1774.40
604.48	1772.64
604.83	1773.02
605.18	1773.10
605.53	1772.67
605.87	1771.05
606.22	1770.71
606.57	1769.45
606.92	1768.05
607.27	1767.50
607.62	1767.71
607.96	1767.00
608.31	1766.50
608.66	1764.81
609.01	1762.95
609.36	1763.31
609.70	1761.19
610.05	1758.26
610.40	1756.81
610.75	1755.48
611.10	1754.05
611.44	1752.90
611.79	1751.12
612.14	1748.31
612.49	1744.26
612.83	1742.12
613.18	1740.19
613.53	1737.10
613.88	1733.74
614.22	1730.98
614.57	1726.81
614.92	1722.57
615.27	1718.81
615.61	1714.79
615.96	1711.33
616.31	1709.71
616.65	1706.19
617.00	1703.71
617.35	1701.26
617.70	1698.62
618.04	1694.05
618.39	1690.17
618.74	1686.31
619.08	1683.17
619.43	1680.69
619.78	1678.07
620.12	1673.86
620.47	1669.81
620.82	1666.64
621.16	1663.26
621.51	1660.21
621.85	1656.74
622.20	1653.36
622.55	1649.26
622.89	1646.10
623.24	1642.88
623.59	1638.31
623.93	1635.07
624.28	1631.24
624.62	1628.02
624.97	1625.57
625.32	1622.17
625.66	1618.29
626.01	1613.88
626.35	1609.55
626.70	1604.57
627.04	1601.52
627.39	1597.74
627.73	1594.90
628.08	1591.60
628.43	1587.98
628.77	1583.98
629.12	1581.12
629.46	1577.52
629.81	1575.02
630.15	1570.38
630.50	1565.76
630.84	1561.29
631.19	1555.95
631.53	1551.26
631.88	1545.83
632.22	1539.50
632.57	1535.86
632.91	1531.29
633.26	1526.95
633.60	1522.43
633.95	1517.10
634.29	1511.93
634.64	1508.33
634.98	1502.98
635.32	1499.24
635.67	1495.19
636.01	1491.12
636.36	1485.90
636.70	1481.00
637.05	1475.67
637.39	1471.60
637.73	1467.31
638.08	1463.00
638.42	1458.52
638.77	1454.86
639.11	1450.40
639.45	1445.71
639.80	1439.12
640.14	1434.76
640.49	1429.48
640.83	1423.88
641.17	1420.10
641.52	1414.36
641.86	1408.21
642.20	1404.76
642.55	1398.62
642.89	1392.43
643.23	1386.38
643.58	1381.52
643.92	1375.90
644.26	1370.31
644.61	1365.40
644.95	1359.93
645.29	1354.71
645.64	1350.10
645.98	1343.76
646.32	1338.52
646.66	1332.71
647.01	1327.76
647.35	1322.19
647.69	1316.52
648.04	1312.79
648.38	1307.10
648.72	1301.83
649.06	1296.55
649.41	1288.83
649.75	1281.76
650.09	1276.19
650.43	1270.00
650.78	1263.33
651.12	1256.81
651.46	1250.07
651.80	1243.33
652.14	1236.60
652.49	1230.45
652.83	1222.90
653.17	1215.81
653.51	1208.83
653.85	1202.95
654.20	1196.24
654.54	1188.98
654.88	1182.29
655.22	1176.26
655.56	1169.50
655.90	1163.14
656.25	1156.67
656.59	1151.26
656.93	1146.57
657.27	1141.02
657.61	1135.00
657.95	1129.38
658.29	1123.55
658.64	1118.29
658.98	1112.02
659.32	1105.52
659.66	1098.67
660.00	1092.83
660.34	1087.24
660.68	1081.36
661.02	1075.29
661.36	1069.69
661.70	1064.19
662.05	1058.69
662.39	1051.17
662.73	1045.98
663.07	1040.98
663.41	1034.52
663.75	1028.60
664.09	1021.83
664.43	1015.40
664.77	1009.45
665.11	1002.88
665.45	997.17
665.79	991.36
666.13	985.62
666.47	980.31
666.81	975.00
667.15	969.24
667.49	963.81
667.83	958.40
668.17	952.81
668.51	947.07
668.85	941.86
669.19	937.43
669.53	931.74
669.87	925.62
670.21	919.76
670.55	914.71
670.89	909.71
671.23	904.26
671.57	898.67
671.91	893.50
672.25	888.60
672.58	883.93
672.92	878.00
673.26	872.86
673.60	867.24
673.94	861.69
674.28	856.48
674.62	851.93
674.96	846.33
675.30	841.10
675.64	836.24
675.97	830.81
676.31	825.33
676.65	820.50
676.99	816.31
677.33	810.45
677.67	805.40
678.01	799.38
678.34	794.64
678.68	790.36
679.02	785.17
679.36	779.95
679.70	774.19
680.04	769.43
680.37	763.86
680.71	759.57
681.05	755.14
681.39	750.64
681.73	745.57
682.06	741.26
682.40	736.95
682.74	732.52
683.08	728.48
683.42	723.02
683.75	718.64
684.09	713.38
684.43	708.52
684.77	703.33
685.10	698.95
685.44	694.48
685.78	689.60
686.12	684.98
686.45	680.38
686.79	675.83
687.13	671.76
687.46	667.45
687.80	663.50
688.14	658.62
688.48	654.21
688.81	649.26
689.15	645.29
689.49	640.43
689.82	635.98
690.16	630.79
690.50	626.60
690.83	622.12
691.17	617.43
691.51	613.45
691.84	610.21
692.18	606.02
692.52	601.74
692.85	597.93
693.19	594.76
693.52	590.62
693.86	586.19
694.20	582.07
694.53	578.57
694.87	573.62
695.21	569.90
695.54	565.88
695.88	561.67
696.21	556.45
696.55	552.55
696.88	548.48
697.22	544.90
697.56	541.71
697.89	537.55
698.23	534.19
698.56	530.40
698.90	526.24
699.23	522.26
699.57	518.64
699.90	514.43
700.24	509.95
700.58	506.55
700.91	503.74
701.25	501.69
701.58	498.48
701.92	496.19
702.25	492.98
702.59	489.69
702.92	486.67
703.26	484.21
703.59	481.60
703.93	479.76
704.26	476.90
704.60	473.50
704.93	470.57
705.26	467.33
705.60	464.40
705.93	461.07
706.27	458.86
706.60	456.43
706.94	454.48
707.27	451.36
707.61	448.74
707.94	445.83
708.27	441.48
708.61	438.07
708.94	434.74
709.28	431.79
709.61	429.07
709.94	426.50
710.28	423.71
710.61	420.79
710.95	416.76
711.28	415.81
711.61	413.05
711.95	410.98
712.28	408.17
712.61	405.62
712.95	404.52
713.28	402.79
713.61	400.14
713.95	397.55
714.28	395.38
714.61	392.71
714.95	390.19
715.28	387.93
715.61	385.86
715.95	383.76
716.28	381.24
716.61	379.43
716.95	377.36
717.28	375.14
717.61	372.88
717.94	370.83
718.28	367.00
718.61	365.26
718.94	362.88
719.27	361.10
719.61	359.21
719.94	356.60
720.27	353.69
720.60	351.81
720.94	349.60
721.27	348.19
721.60	347.00
721.93	345.69
722.27	344.76
722.60	343.17
722.93	341.74
723.26	340.81
723.59	338.79
723.93	337.60
724.26	336.24
724.59	334.71
724.92	333.48
725.25	332.71
725.59	331.50
725.92	330.52
726.25	329.40
726.58	328.38
726.91	326.95
727.24	326.10
727.57	324.81
727.91	323.43
728.24	321.98
728.57	320.43
728.90	319.17
729.23	317.02
729.56	316.76
729.89	315.45
730.22	313.88
730.55	312.69
730.89	311.21
731.22	309.88
731.55	308.71
731.88	307.48
732.21	305.98
732.54	304.76
732.87	303.90
733.20	302.88
733.53	301.88
733.86	301.12
734.19	299.79
734.52	299.05
734.85	299.45
735.18	298.76
735.51	298.38
735.84	297.43
736.17	297.10
736.50	295.14
736.83	296.52
737.16	296.00
737.49	295.52
737.82	294.52
738.15	294.05
738.48	293.26
738.81	292.55
739.14	291.43
739.47	290.38
739.80	289.29
740.13	288.38
740.46	287.00
740.79	285.95
741.12	285.05
741.45	284.02
741.78	282.05
742.11	281.57
742.44	280.21
742.77	279.86
743.10	278.83
743.43	278.07
743.75	275.19
744.08	276.60
744.41	275.50
744.74	274.88
745.07	273.74
745.40	273.24
745.73	273.40
746.06	272.64
746.39	272.05
746.71	271.31
747.04	270.60
747.37	269.98
747.70	269.55
748.03	269.19
748.36	268.52
748.68	267.81
749.01	266.50
749.34	266.10
749.67	265.31
750.00	265.05
750.33	266.07
750.65	265.55
750.98	262.76
751.31	262.21
751.64	261.71
751.97	262.50
752.29	261.79
752.62	260.19
752.95	260.00
753.28	259.21
753.60	258.57
753.93	258.55
754.26	258.26
754.59	257.17
754.91	256.26
755.24	255.79
755.57	255.31
755.90	254.79
756.22	253.88
756.55	253.17
756.88	252.36
757.20	250.60
757.53	249.38
757.86	248.88
758.19	248.71
758.51	248.29
758.84	246.60
759.17	245.71
759.49	245.43
759.82	245.71
760.15	245.64
760.47	245.12
760.80	244.12
761.13	243.98
761.45	243.71
761.78	243.40
762.11	243.05
762.43	242.60
762.76	242.24
763.08	242.10
763.41	241.88
763.74	241.60
764.06	241.19
764.39	241.07
764.71	240.67
765.04	240.07
765.37	239.38
765.69	238.88
766.02	238.64
766.34	238.21
766.67	237.21
767.00	237.12
767.32	237.98
767.65	238.81
767.97	238.33
768.30	238.07
768.62	237.74
768.95	237.33
769.27	236.81
769.60	236.95
769.92	236.21
770.25	235.76
770.57	235.10
770.90	234.74
771.22	234.40
771.55	234.02
771.87	233.83
772.20	233.50
772.52	235.26
772.85	237.67
773.17	237.67
773.50	237.50
773.82	237.12
774.15	235.88
774.47	234.45
774.80	234.02
775.12	233.64
775.45	233.45
775.77	233.31
776.09	233.62
776.42	233.33
776.74	234.05
777.07	233.67
777.39	233.55
777.72	233.02
778.04	233.14
778.36	232.95
778.69	232.79
779.01	233.05
779.33	231.07
779.66	228.93
779.98	228.55
780.31	228.40
780.63	228.90
780.95	228.98
781.28	228.81
781.60	228.60
781.92	228.64
782.25	228.57
782.57	228.38
782.89	227.86
783.22	227.64
783.54	226.86
783.86	227.05
784.19	226.76
784.51	227.48
784.83	227.00
785.16	226.86
785.48	226.79
785.80	226.60
786.12	226.40
786.45	225.86
786.77	225.86
787.09	225.57
787.42	224.81
787.74	224.57
788.06	224.57
788.38	224.50
788.71	224.10
789.03	223.71
789.35	223.90
789.67	223.71
789.99	223.57
790.32	223.57
790.64	223.50
790.96	225.10
791.28	224.14
791.61	224.00
791.93	224.00
792.25	223.71
792.57	225.12
792.89	224.86
793.21	225.05
793.54	224.81
793.86	224.50
794.18	224.43
794.50	224.19
794.82	224.12
795.14	224.31
795.47	224.52
795.79	224.74
796.11	223.93
796.43	223.74
796.75	223.60
797.07	223.31
797.39	223.19
797.71	221.79
798.04	221.83
798.36	222.00
798.68	221.88
799.00	222.02
799.32	220.71
799.64	221.02
799.96	220.69
800.28	220.90
800.60	220.95
800.92	220.93
801.24	220.76
801.56	220.62
801.89	220.43
802.21	220.81
802.53	220.43
802.85	221.24
803.17	222.19
803.49	221.86
803.81	222.00
804.13	221.50
804.45	221.05
804.77	221.17
805.09	220.98
805.41	220.64
805.73	220.07
806.05	219.52
806.37	219.40
806.69	219.26
807.01	219.07
807.33	218.76
807.65	218.14
807.97	219.12
808.28	218.90
808.60	218.62
808.92	218.07
809.24	219.21
809.56	218.57
809.88	217.81
810.20	217.88
810.52	218.21
810.84	218.29
811.16	218.17
811.48	218.05
811.80	218.74
812.12	218.60
812.43	219.14
812.75	219.36
813.07	219.17
813.39	219.43
813.71	218.95
814.03	218.88
814.35	218.95
814.67	217.93
814.98	217.93
815.30	217.83
815.62	217.38
815.94	215.98
816.26	216.02
816.58	215.79
816.89	215.83
817.21	215.07
817.53	215.24
817.85	215.40
818.17	215.48
818.48	214.57
818.80	215.05
819.12	214.76
819.44	214.19
819.76	213.83
820.07	213.67
820.39	213.67
820.71	213.83
821.03	213.79
821.34	213.79
821.66	213.90
821.98	214.29
822.30	214.38
822.61	215.81
822.93	215.45
823.25	215.24
823.57	215.00
823.88	215.60
824.20	215.33
824.52	215.71
824.83	215.57
825.15	215.50
825.47	215.71
825.79	215.93
826.10	215.83
826.42	215.95
826.74	216.19
827.05	216.14
827.37	216.14
827.69	216.00
828.00	216.02
828.32	216.05
828.64	215.57
828.95	216.67
829.27	215.90
829.58	216.05
829.90	216.57
830.22	216.86
830.53	216.24
830.85	216.24
831.17	215.64
831.48	215.64
831.80	215.71
832.11	215.31
832.43	214.81
832.75	214.90
833.06	215.79
833.38	215.17
833.69	215.10
834.01	215.24
834.32	215.17
834.64	214.93
834.96	214.86
835.27	214.90
835.59	214.07
835.90	213.71
836.22	213.71
836.53	213.19
836.85	212.76
837.16	214.69
837.48	214.57
837.79	215.17
838.11	215.10
838.42	215.05
838.74	215.07
839.05	214.93
839.37	214.93
839.68	213.90
840.00	213.74
840.31	214.21
840.63	214.14
840.94	213.93
841.26	213.74
841.57	213.83
841.88	214.05
842.20	213.76
842.51	213.67
842.83	213.64
843.14	215.38
843.46	215.45
843.77	214.55
844.08	214.38
844.40	213.95
844.71	214.05
845.03	213.95
845.34	214.05
845.65	214.05
845.97	214.14
846.28	214.21
846.60	214.24
846.91	213.88
847.22	213.60
847.54	214.29
847.85	214.67
848.16	214.60
848.48	214.24
848.79	215.19
849.10	215.24
849.42	215.36
849.73	213.69
850.04	213.71
850.36	212.93
850.67	213.36
850.98	213.55
851.30	213.69
851.61	213.60
851.92	213.45
852.23	213.81
852.55	213.90
852.86	214.00
853.17	214.17
853.49	214.60
853.80	215.05
854.11	215.12
854.42	215.21
854.74	214.83
855.05	214.95
855.36	213.90
855.67	214.10
855.99	213.98
856.30	216.33
856.61	216.38
856.92	216.81
857.23	216.60
857.55	216.26
857.86	215.93
858.17	216.26
858.48	215.93
858.79	215.55
859.11	215.40
859.42	215.31
859.73	215.36
860.04	215.33
860.35	214.76
860.66	214.14
860.98	213.86
861.29	214.29
861.60	213.88
861.91	214.45
862.22	213.95
862.53	213.83
862.84	211.31
863.16	211.90
863.47	211.17
863.78	211.05
864.09	211.17
864.40	211.33
864.71	211.21
865.02	211.64
865.33	211.60
865.64	211.50
865.95	211.38
866.27	212.43
866.58	212.10
866.89	212.50
867.20	212.64
867.51	212.50
867.82	212.29
868.13	213.21
868.44	212.76
868.75	213.26
869.06	213.29
869.37	213.81
869.68	213.00
869.99	213.38
870.30	213.57
870.61	213.60
870.92	213.38
871.23	213.31
871.54	213.17
871.85	213.57
872.16	213.83
872.47	213.62
872.78	212.55
873.09	212.69
873.40	212.31
873.71	212.24
874.02	212.29
874.33	212.19
874.64	211.74
874.95	211.81
875.26	211.36
875.56	211.55
875.87	211.17
876.18	210.90
876.49	212.86
876.80	212.83
877.11	212.55
877.42	212.55
877.73	212.60
878.04	212.33
878.35	212.55
878.66	212.50
878.96	212.52
879.27	212.26
879.58	211.98
879.89	212.02
880.20	212.67
880.51	212.50
880.82	212.52
881.12	212.67
881.43	212.38
881.74	212.19
882.05	211.83
882.36	211.95
882.67	212.48
882.97	210.26
883.28	210.05
883.59	210.10
883.90	210.12
884.21	210.45
884.51	210.57
884.82	210.24
885.13	210.38
885.44	210.38
885.74	210.52
886.05	210.64
886.36	210.64
886.67	209.81
886.98	211.10
887.28	211.36
887.59	211.36
887.90	211.52
888.20	211.50
888.51	211.98
888.82	211.69
889.13	211.83
889.43	213.60
889.74	213.40
890.05	213.29
890.35	213.36
890.66	212.93
890.97	212.67
891.28	212.52
891.58	212.45
891.89	212.48
892.20	212.29
892.50	212.24
892.81	212.02
893.12	212.14
893.42	211.00
893.73	210.76
894.04	210.67
894.34	210.64
894.65	210.76
894.95	210.52
895.26	210.48
895.57	211.00
895.87	209.24
896.18	209.74
896.48	209.83
896.79	209.83
897.10	210.00
897.40	210.33
897.71	210.60
898.01	210.29
898.32	210.57
898.63	210.67
898.93	210.71
899.24	210.81
899.54	210.55
899.85	210.90
900.15	211.00
900.46	211.02
900.76	211.31
901.07	211.10
901.38	211.31
901.68	211.64
901.99	210.86
902.29	210.98
902.60	210.81
902.90	210.79
903.21	210.64
903.51	210.71
903.82	210.81
904.12	210.50
904.43	211.00
904.73	211.02
905.03	211.29
905.34	213.31
905.64	213.31
905.95	213.57
906.25	213.24
906.56	213.07
906.86	212.95
907.17	212.90
907.47	213.29
907.77	212.86
908.08	212.52
908.38	212.67
908.69	212.90
908.99	213.24
909.30	213.40
909.60	213.48
909.90	213.50
910.21	213.19
910.51	213.10
910.81	212.88
911.12	212.90
911.42	212.93
911.73	210.60
912.03	210.79
912.33	211.10
912.64	211.07
912.94	211.07
913.24	210.88
913.55	210.48
913.85	210.31
914.15	210.74
914.46	211.05
914.76	210.88
915.06	210.50
915.37	210.17
915.67	210.17
915.97	210.26
916.27	209.86
916.58	209.95
916.88	210.07
917.18	209.88
917.49	211.17
917.79	211.07
918.09	211.60
918.39	212.02
918.70	211.88
919.00	211.76
919.30	212.64
919.60	212.69
919.91	212.71
920.21	212.71
920.51	212.17
920.81	212.05
921.12	212.57
921.42	212.67
921.72	213.00
922.02	212.90
922.32	213.05
922.63	213.21
922.93	214.38
923.23	214.48
923.53	214.33
923.83	213.00
924.13	213.14
924.44	212.95
924.74	213.10
925.04	213.50
925.34	213.45
925.64	212.62
925.94	212.52
926.24	213.79
926.55	213.67
926.85	214.24
927.15	214.10
927.45	213.93
927.75	213.81
928.05	213.86
928.35	213.79
928.65	214.17
928.95	214.12
929.26	213.17
929.56	213.60
929.86	213.93
930.16	213.74
930.46	213.40
930.76	213.55
931.06	212.90
931.36	212.38
931.66	213.07
931.96	213.19
932.26	213.48
932.56	212.67
932.86	212.83
933.16	212.62
933.46	212.57
933.76	212.33
934.06	212.79
934.36	213.31
934.66	213.24
934.96	212.88
935.26	212.90
935.56	213.12
935.86	212.50
936.16	212.21
936.46	212.05
936.76	212.10
937.06	211.90
937.36	212.05
937.66	212.12
937.96	211.86
938.26	211.48
938.56	211.31
938.86	211.50
939.16	211.95
939.46	212.26
939.76	212.52
940.06	212.45
940.35	211.95
940.65	210.88
940.95	211.00
941.25	210.50
941.55	210.36
941.85	210.14
942.15	210.62
942.45	211.17
942.75	211.21
943.04	211.43
943.34	211.98
943.64	211.69
943.94	211.33
944.24	211.29
944.54	211.64
944.84	211.71
945.13	211.21
945.43	211.00
945.73	210.83
946.03	210.74
946.33	210.64
946.62	210.74
946.92	210.76
947.22	211.02
947.52	211.14
947.82	211.69
948.11	211.64
948.41	211.12
948.71	210.69
949.01	210.95
949.31	210.69
949.60	210.40
949.90	210.57
950.20	210.62
950.50	210.71
950.79	210.29
951.09	210.40
951.39	210.43
951.69	209.93
951.98	210.19
952.28	210.24
952.58	210.02
952.87	209.98
953.17	210.24
953.47	209.90
953.76	209.95
954.06	209.40
954.36	209.29
954.66	209.43
954.95	210.00
955.25	210.29
955.55	210.45
955.84	210.17
956.14	210.33
956.44	210.64
956.73	210.21
957.03	210.74
957.32	210.81
957.62	210.69
957.92	211.26
958.21	211.21
958.51	213.48
958.81	213.86
959.10	214.21
959.40	214.76
959.69	214.98
959.99	215.40
960.29	215.45
960.58	215.43
960.88	216.14
961.17	215.69
961.47	215.64
961.76	215.40
962.06	215.69
962.36	215.62
962.65	215.55
962.95	215.74
963.24	215.33
963.54	215.19
963.83	215.21
964.13	215.05
964.42	214.36
964.72	212.62
965.01	212.86
965.31	212.50
965.60	211.88
965.90	213.02
966.19	212.67
966.49	212.74
966.78	212.40
967.08	212.29
967.37	212.48
967.67	212.12
967.96	212.43
968.26	212.31
968.55	212.60
968.85	212.36
969.14	212.43
969.43	212.45
969.73	212.36
970.02	212.36
970.32	212.24
970.61	212.45
970.91	212.05
971.20	211.67
971.49	211.43
971.79	211.62
972.08	210.21
972.38	210.14
972.67	210.05
972.96	210.62
973.26	210.05
973.55	210.55
973.85	210.50
974.14	210.38
974.43	210.45
974.73	210.00
975.02	209.95
975.31	209.95
975.61	210.07
975.90	209.98
976.19	209.81
976.49	210.00
976.78	210.05
977.07	210.00
977.37	209.86
977.66	210.21
977.95	210.07
978.24	210.29
978.54	210.83
978.83	210.95
979.12	210.64
979.42	210.88
979.71	210.45
980.00	210.40
980.29	210.50
980.59	210.24
980.88	210.79
981.17	210.98
981.46	211.07
981.76	210.83
982.05	211.29
982.34	211.83
982.63	211.64
982.93	211.88
983.22	212.21
983.51	212.55
983.80	212.83
984.09	213.10
984.39	212.93
984.68	212.55
984.97	212.55
985.26	212.69
985.55	212.83
985.85	212.57
986.14	212.98
986.43	213.40
986.72	213.45
987.01	212.90
987.30	212.86
987.59	212.43
987.89	212.45
988.18	211.98
988.47	211.52
988.76	211.50
989.05	211.21
989.34	211.10
989.63	211.38
989.92	211.14
990.22	210.74
990.51	210.74
990.80	210.81
991.09	210.69
991.38	210.64
991.67	210.29
991.96	210.10
992.25	209.86
992.54	209.26
992.83	209.29
993.12	209.19
993.41	209.48
993.70	210.40
993.99	210.88
994.28	211.17
994.58	211.24
994.87	211.12
995.16	210.95
995.45	210.52
995.74	209.86
996.03	209.93
996.32	210.29
996.61	210.62
996.90	210.38
997.19	210.57
997.48	210.67
997.77	210.57
998.06	210.60
998.34	210.64
998.63	210.88
998.92	210.83
999.21	211.26
999.50	211.12
999.79	210.52
1000.08	210.48
1000.37	210.19
1000.66	210.10
1000.95	210.69
1001.24	210.76
1001.53	211.26
1001.82	211.10
1002.11	210.76
1002.40	210.93
1002.68	211.52
1002.97	212.88
1003.26	212.45
1003.55	212.10
1003.84	212.14
1004.13	212.88
1004.42	212.81
1004.71	212.67
1004.99	212.62
1005.28	212.93
1005.57	212.93
1005.86	212.60
1006.15	212.43
1006.44	212.57
1006.72	212.88
1007.01	212.38
1007.30	212.50
1007.59	212.24
1007.88	212.38
1008.17	212.62
1008.45	212.29
1008.74	211.26
1009.03	210.40
1009.32	210.55
1009.60	210.43
1009.89	210.05
1010.18	208.98
1010.47	208.67
1010.76	208.57
1011.04	208.43
1011.33	208.38
1011.62	208.71
1011.91	208.93
1012.19	208.88
1012.48	208.86
1012.77	208.74
1013.05	209.71
1013.34	209.69
1013.63	209.43
1013.92	209.67
1014.20	209.45
1014.49	209.55
1014.78	209.90
1015.06	209.31
1015.35	209.10
1015.64	209.57
1015.92	210.17
1016.21	210.57
1016.50	210.88
1016.78	211.07
1017.07	211.24
1017.36	210.98
1017.64	210.52
1017.93	211.00
1018.22	210.83
1018.50	210.74
1018.79	210.74
1019.08	209.81
1019.36	209.98
1019.65	210.05
1019.93	210.62
1020.22	210.90
1020.51	211.64
1020.79	211.31
1021.08	205.50
1021.36	206.50
1021.65	210.50
1021.94	209.50
1022.22	212.50
1022.51	209.00
1022.79	221.50
1023.08	212.50
1023.36	230.50
1023.65	206.00
>>>>>End Processed Spectral Data<<<<<
