SpectraSuite Data File
++++++++++++++++++++++++++++++++++++
Date: Tue Apr 02 18:45:50 EDT 2013
User: group
Dark Spectrum Present: No
Reference Spectrum Present: No
Number of Sampled Component Spectra: 1
Spectrometers: USB2E7196
Integration Time (usec): 580000 (USB2E7196)
Spectra Averaged: 2 (USB2E7196)
Boxcar Smoothing: 10 (USB2E7196)
Correct for Electrical Dark: No (USB2E7196)
Strobe/Lamp Enabled: No (USB2E7196)
Correct for Detector Non-linearity: No (USB2E7196)
Correct for Stray Light: No (USB2E7196)
Number of Pixels in Processed Spectrum: 2048
>>>>>Begin Processed Spectral Data<<<<<
339.09	0.00
339.48	194.00
339.86	191.00
340.24	196.50
340.63	202.50
341.01	232.50
341.39	204.00
341.78	208.50
342.16	213.50
342.54	206.00
342.93	199.14
343.31	208.93
343.69	209.52
344.07	210.17
344.46	210.93
344.84	211.31
345.22	210.19
345.60	210.62
345.99	210.76
346.37	210.62
346.75	210.86
347.13	211.14
347.52	211.45
347.90	212.00
348.28	211.98
348.66	212.36
349.05	211.76
349.43	211.93
349.81	212.48
350.19	212.60
350.57	212.76
350.96	212.90
351.34	213.31
351.72	213.43
352.10	213.60
352.48	213.43
352.87	213.50
353.25	213.55
353.63	213.57
354.01	213.67
354.39	213.79
354.77	213.64
355.15	214.17
355.54	213.60
355.92	212.95
356.30	212.83
356.68	214.17
357.06	214.24
357.44	214.00
357.82	213.64
358.20	214.50
358.58	214.31
358.97	214.48
359.35	214.62
359.73	214.98
360.11	215.05
360.49	215.24
360.87	215.24
361.25	215.64
361.63	216.31
362.01	216.40
362.39	216.21
362.77	216.55
363.15	216.38
363.53	216.76
363.91	216.79
364.29	216.79
364.67	214.79
365.05	214.90
365.43	214.98
365.81	215.31
366.19	215.38
366.57	216.05
366.95	215.74
367.33	215.52
367.71	215.48
368.09	215.90
368.47	215.83
368.85	215.64
369.23	215.98
369.61	215.02
369.99	215.50
370.37	215.88
370.75	216.74
371.13	216.33
371.51	215.93
371.89	216.19
372.27	216.50
372.65	216.71
373.03	216.79
373.41	216.62
373.78	216.64
374.16	215.52
374.54	215.19
374.92	215.05
375.30	214.93
375.68	214.48
376.06	214.64
376.44	214.38
376.82	214.74
377.19	214.33
377.57	214.36
377.95	213.57
378.33	213.40
378.71	212.26
379.09	212.55
379.47	212.74
379.84	212.60
380.22	212.33
380.60	211.93
380.98	211.48
381.36	211.71
381.73	211.21
382.11	211.55
382.49	211.40
382.87	211.10
383.25	211.14
383.62	213.86
384.00	213.36
384.38	213.74
384.76	213.86
385.13	214.76
385.51	214.95
385.89	214.90
386.27	215.00
386.64	215.24
387.02	215.19
387.40	215.40
387.78	215.60
388.15	215.83
388.53	215.74
388.91	215.88
389.29	215.79
389.66	216.17
390.04	216.07
390.42	216.50
390.79	216.67
391.17	216.60
391.55	214.19
391.92	214.21
392.30	214.14
392.68	213.71
393.05	213.48
393.43	213.29
393.81	213.40
394.18	213.14
394.56	213.12
394.94	213.45
395.31	213.43
395.69	214.05
396.06	214.19
396.44	214.55
396.82	214.45
397.19	215.40
397.57	215.12
397.95	215.36
398.32	214.81
398.70	215.31
399.07	215.79
399.45	215.62
399.82	215.55
400.20	215.48
400.58	215.64
400.95	214.71
401.33	215.17
401.70	216.67
402.08	216.64
402.45	216.83
402.83	217.21
403.20	217.26
403.58	216.81
403.95	217.29
404.33	217.79
404.71	218.12
405.08	219.36
405.46	219.69
405.83	219.95
406.21	220.57
406.58	220.86
406.96	221.14
407.33	221.86
407.70	222.55
408.08	224.71
408.45	225.57
408.83	226.57
409.20	227.05
409.58	226.55
409.95	227.74
410.33	228.62
410.70	229.07
411.08	230.24
411.45	231.40
411.82	232.21
412.20	233.43
412.57	235.76
412.95	235.40
413.32	237.38
413.69	239.07
414.07	240.24
414.44	241.83
414.82	243.76
415.19	246.21
415.56	248.48
415.94	249.79
416.31	252.43
416.68	255.43
417.06	258.74
417.43	262.24
417.81	265.69
418.18	269.31
418.55	273.02
418.93	276.64
419.30	280.81
419.67	285.48
420.04	289.62
420.42	293.98
420.79	300.88
421.16	306.14
421.54	312.88
421.91	319.24
422.28	325.50
422.66	332.29
423.03	339.90
423.40	346.93
423.77	353.95
424.15	360.93
424.52	368.31
424.89	376.57
425.26	384.19
425.64	391.71
426.01	399.95
426.38	408.64
426.75	418.31
427.13	427.48
427.50	436.62
427.87	447.02
428.24	456.81
428.61	465.19
428.99	476.36
429.36	486.40
429.73	497.55
430.10	509.17
430.47	520.67
430.85	531.38
431.22	543.98
431.59	558.98
431.96	571.79
432.33	585.98
432.70	600.05
433.08	615.64
433.45	631.14
433.82	646.52
434.19	663.50
434.56	679.79
434.93	695.12
435.30	710.88
435.68	727.90
436.05	745.40
436.42	762.55
436.79	778.55
437.16	796.24
437.53	814.00
437.90	831.76
438.27	849.62
438.64	867.69
439.01	884.12
439.38	897.40
439.75	912.14
440.13	928.86
440.50	943.48
440.87	956.86
441.24	969.90
441.61	984.05
441.98	994.62
442.35	1007.50
442.72	1021.29
443.09	1034.64
443.46	1042.40
443.83	1047.31
444.20	1051.71
444.57	1057.48
444.94	1059.95
445.31	1063.81
445.68	1069.00
446.05	1070.74
446.42	1069.64
446.79	1068.64
447.16	1066.86
447.53	1065.48
447.90	1058.90
448.27	1053.07
448.64	1044.14
449.01	1037.55
449.37	1026.86
449.74	1016.02
450.11	1004.26
450.48	988.88
450.85	973.19
451.22	960.76
451.59	948.76
451.96	937.50
452.33	922.52
452.70	909.12
453.07	892.17
453.43	873.07
453.80	855.76
454.17	839.62
454.54	824.45
454.91	808.43
455.28	792.88
455.65	778.40
456.02	767.57
456.38	755.19
456.75	739.67
457.12	725.95
457.49	713.17
457.86	699.00
458.23	689.45
458.59	677.86
458.96	666.31
459.33	655.98
459.70	645.57
460.07	636.90
460.43	627.07
460.80	618.29
461.17	611.14
461.54	603.67
461.91	595.62
462.27	587.38
462.64	580.21
463.01	572.71
463.38	566.33
463.74	555.10
464.11	548.52
464.48	543.19
464.85	537.45
465.21	533.02
465.58	527.93
465.95	521.19
466.32	516.31
466.68	510.83
467.05	505.60
467.42	500.71
467.78	495.29
468.15	490.21
468.52	486.31
468.88	480.21
469.25	475.29
469.62	472.07
469.98	468.07
470.35	464.57
470.72	461.33
471.08	456.57
471.45	454.14
471.82	451.60
472.18	448.55
472.55	446.10
472.92	442.50
473.28	439.71
473.65	437.12
474.02	434.60
474.38	432.52
474.75	430.76
475.11	428.19
475.48	426.50
475.85	425.00
476.21	422.86
476.58	421.81
476.94	420.60
477.31	419.43
477.67	418.40
478.04	417.14
478.41	416.36
478.77	417.69
479.14	416.55
479.50	415.93
479.87	415.50
480.23	414.74
480.60	414.50
480.96	414.31
481.33	415.10
481.69	415.00
482.06	415.43
482.42	415.76
482.79	415.95
483.15	416.17
483.52	416.95
483.88	417.69
484.25	418.19
484.61	419.10
484.98	419.57
485.34	421.31
485.71	423.14
486.07	424.62
486.44	424.24
486.80	425.71
487.17	427.07
487.53	429.57
487.90	432.31
488.26	435.38
488.62	438.24
488.99	439.76
489.35	442.69
489.72	445.12
490.08	447.69
490.44	450.55
490.81	454.02
491.17	456.81
491.54	460.67
491.90	464.64
492.26	467.98
492.63	471.90
492.99	475.05
493.36	478.93
493.72	483.17
494.08	487.69
494.45	492.31
494.81	497.12
495.17	501.38
495.54	506.29
495.90	510.71
496.26	515.64
496.63	521.24
496.99	526.50
497.35	532.14
497.72	538.29
498.08	544.12
498.44	550.29
498.80	556.76
499.17	562.81
499.53	568.90
499.89	576.00
500.26	583.21
500.62	590.02
500.98	597.62
501.34	604.33
501.71	611.83
502.07	619.17
502.43	626.07
502.79	632.71
503.16	639.93
503.52	647.36
503.88	654.55
504.24	661.83
504.60	669.52
504.97	677.40
505.33	684.98
505.69	693.83
506.05	701.57
506.41	709.33
506.78	716.88
507.14	724.17
507.50	732.02
507.86	740.00
508.22	748.19
508.59	755.36
508.95	763.76
509.31	771.83
509.67	779.90
510.03	787.38
510.39	794.98
510.75	802.64
511.12	810.19
511.48	817.71
511.84	825.17
512.20	833.07
512.56	840.26
512.92	847.79
513.28	854.40
513.64	861.31
514.00	869.21
514.37	876.88
514.73	884.74
515.09	891.90
515.45	898.26
515.81	904.86
516.17	911.98
516.53	918.33
516.89	924.00
517.25	930.57
517.61	937.24
517.97	943.33
518.33	949.79
518.69	956.31
519.05	962.64
519.41	969.07
519.77	975.93
520.13	981.86
520.49	986.90
520.85	993.02
521.21	999.24
521.57	1004.71
521.93	1009.52
522.29	1014.50
522.65	1019.19
523.01	1024.83
523.37	1029.38
523.73	1034.62
524.09	1039.31
524.45	1043.69
524.81	1048.14
525.17	1053.55
525.53	1059.55
525.89	1063.95
526.25	1068.90
526.61	1073.02
526.97	1077.50
527.33	1081.24
527.68	1087.31
528.04	1091.86
528.40	1095.81
528.76	1100.33
529.12	1104.88
529.48	1110.17
529.84	1114.64
530.20	1119.69
530.56	1123.88
530.91	1128.60
531.27	1132.60
531.63	1137.19
531.99	1141.60
532.35	1145.43
532.71	1148.55
533.07	1152.69
533.42	1159.05
533.78	1163.33
534.14	1168.24
534.50	1172.64
534.86	1176.33
535.21	1179.17
535.57	1183.81
535.93	1187.67
536.29	1192.64
536.65	1195.79
537.00	1198.40
537.36	1202.33
537.72	1205.12
538.08	1208.55
538.44	1211.71
538.79	1215.02
539.15	1217.90
539.51	1222.07
539.87	1225.62
540.22	1229.02
540.58	1231.52
540.94	1232.21
541.29	1234.60
541.65	1237.07
542.01	1239.57
542.37	1241.81
542.72	1244.07
543.08	1246.00
543.44	1248.83
543.79	1250.36
544.15	1253.74
544.51	1257.55
544.87	1260.05
545.22	1263.74
545.58	1266.40
545.94	1268.79
546.29	1271.74
546.65	1274.05
547.01	1275.52
547.36	1278.31
547.72	1281.38
548.07	1284.67
548.43	1287.24
548.79	1289.33
549.14	1291.60
549.50	1294.29
549.86	1296.64
550.21	1299.48
550.57	1302.24
550.92	1304.69
551.28	1306.83
551.64	1308.86
551.99	1311.67
552.35	1314.33
552.70	1315.98
553.06	1318.60
553.41	1321.93
553.77	1325.83
554.13	1329.43
554.48	1334.21
554.84	1337.90
555.19	1341.90
555.55	1346.64
555.90	1350.57
556.26	1353.90
556.61	1357.31
556.97	1360.00
557.32	1363.90
557.68	1367.17
558.03	1370.81
558.39	1374.93
558.74	1378.40
559.10	1382.26
559.45	1386.02
559.81	1389.86
560.16	1394.12
560.52	1397.95
560.87	1401.90
561.23	1404.67
561.58	1410.48
561.94	1413.60
562.29	1416.76
562.64	1421.00
563.00	1424.38
563.35	1428.62
563.71	1434.29
564.06	1438.95
564.42	1444.26
564.77	1450.19
565.12	1455.81
565.48	1464.05
565.83	1469.81
566.19	1476.26
566.54	1481.90
566.89	1487.38
567.25	1493.36
567.60	1499.95
567.96	1508.40
568.31	1514.95
568.66	1522.14
569.02	1525.95
569.37	1531.62
569.72	1537.90
570.08	1543.14
570.43	1547.67
570.78	1553.67
571.14	1559.14
571.49	1564.88
571.84	1571.02
572.20	1576.31
572.55	1581.00
572.90	1582.86
573.26	1587.48
573.61	1591.26
573.96	1595.98
574.31	1599.93
574.67	1604.17
575.02	1607.07
575.37	1608.98
575.72	1612.74
576.08	1616.07
576.43	1620.67
576.78	1623.95
577.13	1627.29
577.49	1631.24
577.84	1635.38
578.19	1639.26
578.54	1643.14
578.90	1647.29
579.25	1650.69
579.60	1652.81
579.95	1656.29
580.30	1661.19
580.66	1664.81
581.01	1669.45
581.36	1672.05
581.71	1676.50
582.06	1681.31
582.42	1685.31
582.77	1688.31
583.12	1691.52
583.47	1694.74
583.82	1697.57
584.17	1700.88
584.53	1704.40
584.88	1707.17
585.23	1711.10
585.58	1713.21
585.93	1716.05
586.28	1718.62
586.63	1721.57
586.98	1725.14
587.34	1729.21
587.69	1730.95
588.04	1733.71
588.39	1735.26
588.74	1737.71
589.09	1739.60
589.44	1739.40
589.79	1741.50
590.14	1744.45
590.49	1746.67
590.84	1747.40
591.19	1749.40
591.54	1752.48
591.89	1755.10
592.25	1758.26
592.60	1758.07
592.95	1760.21
593.30	1761.38
593.65	1763.07
594.00	1763.00
594.35	1770.45
594.70	1769.93
595.05	1772.00
595.40	1772.74
595.75	1774.07
596.10	1775.60
596.45	1777.21
596.80	1779.95
597.15	1781.29
597.50	1781.88
597.85	1782.45
598.19	1783.81
598.54	1783.95
598.89	1783.31
599.24	1783.79
599.59	1783.57
599.94	1784.45
600.29	1784.74
600.64	1785.10
600.99	1785.26
601.34	1787.40
601.69	1781.10
602.04	1781.74
602.39	1780.76
602.74	1780.31
603.08	1779.64
603.43	1780.52
603.78	1778.64
604.13	1778.00
604.48	1777.48
604.83	1776.71
605.18	1776.62
605.53	1775.83
605.87	1775.83
606.22	1775.79
606.57	1774.38
606.92	1772.57
607.27	1772.19
607.62	1771.81
607.96	1771.10
608.31	1769.93
608.66	1767.24
609.01	1766.10
609.36	1765.36
609.70	1764.45
610.05	1762.60
610.40	1761.14
610.75	1758.31
611.10	1757.57
611.44	1754.74
611.79	1752.21
612.14	1749.90
612.49	1745.98
612.83	1743.07
613.18	1739.40
613.53	1736.05
613.88	1733.26
614.22	1730.26
614.57	1725.88
614.92	1721.26
615.27	1718.02
615.61	1714.38
615.96	1711.48
616.31	1707.95
616.65	1705.26
617.00	1701.95
617.35	1699.21
617.70	1696.14
618.04	1692.86
618.39	1688.83
618.74	1686.45
619.08	1683.52
619.43	1680.24
619.78	1677.93
620.12	1675.57
620.47	1672.81
620.82	1669.50
621.16	1665.05
621.51	1662.40
621.85	1659.48
622.20	1656.76
622.55	1652.81
622.89	1649.48
623.24	1647.86
623.59	1644.69
623.93	1639.62
624.28	1635.26
624.62	1632.98
624.97	1630.69
625.32	1626.81
625.66	1623.14
626.01	1618.57
626.35	1614.76
626.70	1610.57
627.04	1607.21
627.39	1602.90
627.73	1600.07
628.08	1596.33
628.43	1592.76
628.77	1588.43
629.12	1584.98
629.46	1581.02
629.81	1576.83
630.15	1572.55
630.50	1566.40
630.84	1561.40
631.19	1556.62
631.53	1552.48
631.88	1545.98
632.22	1539.17
632.57	1534.55
632.91	1529.64
633.26	1525.19
633.60	1519.90
633.95	1514.57
634.29	1509.81
634.64	1505.76
634.98	1500.31
635.32	1496.79
635.67	1493.05
636.01	1488.55
636.36	1484.00
636.70	1479.55
637.05	1474.62
637.39	1469.60
637.73	1465.88
638.08	1462.79
638.42	1458.76
638.77	1454.05
639.11	1449.60
639.45	1445.50
639.80	1440.48
640.14	1435.36
640.49	1430.86
640.83	1425.98
641.17	1422.48
641.52	1416.79
641.86	1410.83
642.20	1406.36
642.55	1400.14
642.89	1394.14
643.23	1388.60
643.58	1384.36
643.92	1378.45
644.26	1373.29
644.61	1368.76
644.95	1362.86
645.29	1355.95
645.64	1351.38
645.98	1344.90
646.32	1339.74
646.66	1333.29
647.01	1327.83
647.35	1322.67
647.69	1316.10
648.04	1310.38
648.38	1303.71
648.72	1298.62
649.06	1293.36
649.41	1286.83
649.75	1281.05
650.09	1275.55
650.43	1269.07
650.78	1261.95
651.12	1255.50
651.46	1249.26
651.80	1243.24
652.14	1236.50
652.49	1231.17
652.83	1223.86
653.17	1218.43
653.51	1212.10
653.85	1206.43
654.20	1199.50
654.54	1192.33
654.88	1186.02
655.22	1180.76
655.56	1174.50
655.90	1168.67
656.25	1162.40
656.59	1155.86
656.93	1149.64
657.27	1144.38
657.61	1138.24
657.95	1132.21
658.29	1126.52
658.64	1120.88
658.98	1113.81
659.32	1108.19
659.66	1101.38
660.00	1095.55
660.34	1089.67
660.68	1083.48
661.02	1077.57
661.36	1072.55
661.70	1067.24
662.05	1061.76
662.39	1055.81
662.73	1051.36
663.07	1045.60
663.41	1038.98
663.75	1033.81
664.09	1028.40
664.43	1021.17
664.77	1016.19
665.11	1010.00
665.45	1004.36
665.79	998.86
666.13	992.71
666.47	986.57
666.81	981.50
667.15	975.76
667.49	969.86
667.83	964.71
668.17	959.48
668.51	953.60
668.85	948.40
669.19	943.98
669.53	937.57
669.87	931.00
670.21	924.93
670.55	919.69
670.89	914.93
671.23	909.24
671.57	904.40
671.91	898.24
672.25	893.79
672.58	889.64
672.92	883.81
673.26	879.29
673.60	874.45
673.94	868.86
674.28	863.90
674.62	859.52
674.96	853.95
675.30	848.76
675.64	843.62
675.97	838.62
676.31	832.50
676.65	827.48
676.99	823.62
677.33	818.26
677.67	814.00
678.01	808.64
678.34	804.21
678.68	800.40
679.02	795.71
679.36	789.98
679.70	783.64
680.04	778.76
680.37	773.95
680.71	768.52
681.05	764.31
681.39	759.64
681.73	754.71
682.06	750.64
682.40	746.10
682.74	741.45
683.08	736.83
683.42	732.07
683.75	727.55
684.09	721.81
684.43	717.36
684.77	711.86
685.10	706.45
685.44	701.60
685.78	696.00
686.12	691.76
686.45	687.36
686.79	682.90
687.13	678.45
687.46	673.88
687.80	670.62
688.14	665.81
688.48	661.48
688.81	656.67
689.15	651.98
689.49	647.19
689.82	643.02
690.16	638.21
690.50	633.93
690.83	629.52
691.17	624.83
691.51	620.31
691.84	616.19
692.18	612.07
692.52	607.74
692.85	604.33
693.19	600.74
693.52	596.71
693.86	592.57
694.20	588.69
694.53	584.52
694.87	579.62
695.21	575.52
695.54	571.14
695.88	566.95
696.21	562.33
696.55	558.38
696.88	554.10
697.22	550.29
697.56	547.02
697.89	543.57
698.23	540.52
698.56	537.10
698.90	533.74
699.23	529.74
699.57	526.05
699.90	521.24
700.24	516.93
700.58	513.36
700.91	509.90
701.25	507.93
701.58	505.38
701.92	502.62
702.25	498.98
702.59	495.57
702.92	492.40
703.26	489.31
703.59	486.50
703.93	485.50
704.26	482.71
704.60	479.57
704.93	476.21
705.26	472.38
705.60	469.60
705.93	466.52
706.27	464.50
706.60	461.86
706.94	460.05
707.27	456.90
707.61	454.14
707.94	451.31
708.27	446.93
708.61	443.33
708.94	440.14
709.28	438.05
709.61	435.38
709.94	433.12
710.28	430.48
710.61	427.69
710.95	422.74
711.28	421.57
711.61	418.55
711.95	416.50
712.28	414.00
712.61	411.43
712.95	409.83
713.28	408.02
713.61	405.17
713.95	402.02
714.28	400.05
714.61	397.86
714.95	395.79
715.28	393.33
715.61	391.14
715.95	389.14
716.28	386.14
716.61	384.21
716.95	381.38
717.28	379.48
717.61	377.33
717.94	375.67
718.28	372.05
718.61	370.05
718.94	367.43
719.27	365.81
719.61	363.79
719.94	361.17
720.27	358.33
720.60	356.62
720.94	354.79
721.27	353.29
721.60	351.83
721.93	350.05
722.27	349.31
722.60	348.07
722.93	346.31
723.26	345.14
723.59	343.33
723.93	342.60
724.26	341.10
724.59	339.26
724.92	338.31
725.25	337.26
725.59	335.62
725.92	334.69
726.25	333.29
726.58	331.95
726.91	330.95
727.24	329.95
727.57	328.88
727.91	327.33
728.24	326.07
728.57	324.00
728.90	323.00
729.23	320.64
729.56	319.95
729.89	318.64
730.22	317.40
730.55	316.10
730.89	314.62
731.22	313.33
731.55	312.33
731.88	310.81
732.21	309.64
732.54	308.86
732.87	307.43
733.20	306.69
733.53	305.88
733.86	304.74
734.19	303.21
734.52	302.07
734.85	302.64
735.18	301.10
735.51	300.98
735.84	299.98
736.17	299.57
736.50	297.79
736.83	299.26
737.16	298.21
737.49	297.45
737.82	296.48
738.15	295.74
738.48	294.93
738.81	293.88
739.14	292.45
739.47	291.07
739.80	290.24
740.13	289.14
740.46	287.79
740.79	286.71
741.12	285.79
741.45	284.88
741.78	282.62
742.11	282.48
742.44	281.10
742.77	280.36
743.10	279.43
743.43	278.21
743.75	275.12
744.08	276.83
744.41	275.98
744.74	274.90
745.07	273.60
745.40	273.05
745.73	273.29
746.06	272.88
746.39	272.45
746.71	271.74
747.04	270.64
747.37	270.02
747.70	269.60
748.03	268.98
748.36	268.52
748.68	267.79
749.01	266.45
749.34	266.00
749.67	265.38
750.00	265.19
750.33	266.43
750.65	266.14
750.98	263.38
751.31	262.81
751.64	262.43
751.97	263.36
752.29	262.71
752.62	261.26
752.95	260.43
753.28	259.60
753.60	258.95
753.93	259.38
754.26	259.05
754.59	257.90
754.91	257.36
755.24	256.57
755.57	256.21
755.90	255.88
756.22	255.26
756.55	254.52
756.88	253.33
757.20	251.29
757.53	250.05
757.86	249.17
758.19	248.74
758.51	248.21
758.84	246.48
759.17	245.88
759.49	245.57
759.82	246.10
760.15	246.17
760.47	245.71
760.80	244.43
761.13	244.33
761.45	243.86
761.78	243.60
762.11	243.19
762.43	242.86
762.76	242.38
763.08	242.19
763.41	241.86
763.74	241.79
764.06	241.62
764.39	241.33
764.71	241.36
765.04	240.98
765.37	240.26
765.69	240.24
766.02	239.95
766.34	239.29
766.67	238.26
767.00	238.02
767.32	238.88
767.65	239.57
767.97	239.07
768.30	238.93
768.62	238.55
768.95	238.07
769.27	237.40
769.60	237.36
769.92	236.69
770.25	236.14
770.57	235.29
770.90	234.95
771.22	234.74
771.55	234.33
771.87	234.07
772.20	234.12
772.52	235.33
772.85	237.45
773.17	237.57
773.50	237.19
773.82	237.07
774.15	235.67
774.47	234.50
774.80	233.95
775.12	233.98
775.45	233.62
775.77	233.64
776.09	233.79
776.42	233.38
776.74	233.86
777.07	233.79
777.39	233.69
777.72	233.21
778.04	233.17
778.36	232.69
778.69	232.50
779.01	232.19
779.33	230.33
779.66	227.93
779.98	227.36
780.31	227.31
780.63	227.67
780.95	228.00
781.28	227.60
781.60	227.33
781.92	227.02
782.25	226.98
782.57	226.79
782.89	226.57
783.22	226.33
783.54	225.79
783.86	225.50
784.19	225.43
784.51	226.21
784.83	225.71
785.16	225.67
785.48	225.69
785.80	225.45
786.12	225.36
786.45	224.93
786.77	224.95
787.09	224.79
787.42	223.93
787.74	223.93
788.06	224.02
788.38	223.90
788.71	223.52
789.03	223.57
789.35	223.64
789.67	223.12
789.99	223.21
790.32	222.79
790.64	223.12
790.96	224.88
791.28	223.86
791.61	223.69
791.93	223.62
792.25	223.17
792.57	224.83
792.89	224.69
793.21	224.86
793.54	224.76
793.86	224.45
794.18	224.76
794.50	224.17
794.82	224.36
795.14	224.50
795.47	224.98
795.79	224.81
796.11	224.24
796.43	224.26
796.75	224.12
797.07	224.24
797.39	223.98
797.71	222.21
798.04	222.29
798.36	222.45
798.68	222.55
799.00	222.95
799.32	221.74
799.64	221.93
799.96	221.88
800.28	222.33
800.60	222.19
800.92	221.81
801.24	221.40
801.56	221.12
801.89	220.79
802.21	220.50
802.53	219.90
802.85	220.31
803.17	221.14
803.49	220.62
803.81	220.43
804.13	220.12
804.45	219.90
804.77	220.05
805.09	219.90
805.41	219.62
805.73	218.95
806.05	218.38
806.37	218.02
806.69	217.69
807.01	217.17
807.33	217.43
807.65	216.86
807.97	218.17
808.28	217.93
808.60	217.79
808.92	217.93
809.24	219.43
809.56	219.14
809.88	218.43
810.20	218.52
810.52	218.55
810.84	218.40
811.16	218.14
811.48	217.98
811.80	218.83
812.12	218.67
812.43	219.05
812.75	219.31
813.07	218.90
813.39	218.95
813.71	218.55
814.03	218.07
814.35	218.21
814.67	217.21
814.98	217.07
815.30	217.10
815.62	216.45
815.94	214.90
816.26	214.88
816.58	214.38
816.89	214.52
817.21	214.45
817.53	214.50
817.85	214.52
818.17	214.33
818.48	213.31
818.80	213.88
819.12	213.48
819.44	213.02
819.76	213.10
820.07	213.02
820.39	213.26
820.71	213.24
821.03	213.19
821.34	212.93
821.66	213.31
821.98	213.57
822.30	213.50
822.61	214.69
822.93	214.57
823.25	214.60
823.57	214.38
823.88	214.71
824.20	214.76
824.52	215.17
824.83	215.14
825.15	215.14
825.47	214.79
825.79	215.02
826.10	214.86
826.42	214.81
826.74	215.33
827.05	215.17
827.37	215.38
827.69	215.19
828.00	215.33
828.32	215.33
828.64	215.17
828.95	216.31
829.27	215.90
829.58	215.98
829.90	216.33
830.22	216.81
830.53	216.17
830.85	216.02
831.17	215.62
831.48	215.57
831.80	215.71
832.11	215.50
832.43	215.36
832.75	215.40
833.06	216.64
833.38	215.81
833.69	215.86
834.01	216.07
834.32	216.26
834.64	216.12
834.96	216.19
835.27	216.19
835.59	215.48
835.90	215.02
836.22	214.90
836.53	214.55
836.85	214.02
837.16	216.07
837.48	216.10
837.79	216.52
838.11	216.62
838.42	216.40
838.74	216.86
839.05	216.76
839.37	216.74
839.68	215.50
840.00	215.38
840.31	215.64
840.63	215.36
840.94	215.05
841.26	214.76
841.57	214.57
841.88	214.76
842.20	214.40
842.51	214.07
842.83	214.17
843.14	215.95
843.46	215.90
843.77	214.79
844.08	214.50
844.40	213.88
844.71	213.57
845.03	213.62
845.34	213.57
845.65	213.33
845.97	213.40
846.28	213.55
846.60	213.90
846.91	213.40
847.22	213.40
847.54	213.88
847.85	214.05
848.16	213.90
848.48	213.33
848.79	214.17
849.10	214.52
849.42	214.50
849.73	212.81
850.04	212.93
850.36	211.95
850.67	212.45
850.98	212.62
851.30	213.05
851.61	212.95
851.92	212.71
852.23	213.40
852.55	213.33
852.86	213.50
853.17	213.33
853.49	213.71
853.80	214.05
854.11	214.24
854.42	214.50
854.74	214.45
855.05	214.52
855.36	213.55
855.67	213.69
855.99	213.71
856.30	216.19
856.61	216.05
856.92	216.45
857.23	216.40
857.55	216.36
857.86	216.33
858.17	216.38
858.48	216.26
858.79	215.93
859.11	216.12
859.42	215.93
859.73	215.71
860.04	215.45
860.35	215.12
860.66	214.43
860.98	214.33
861.29	214.43
861.60	214.43
861.91	214.88
862.22	214.62
862.53	214.24
862.84	211.60
863.16	212.10
863.47	211.74
863.78	211.52
864.09	211.50
864.40	211.45
864.71	211.76
865.02	211.90
865.33	211.52
865.64	211.19
865.95	211.10
866.27	212.48
866.58	212.67
866.89	212.81
867.20	212.76
867.51	212.43
867.82	212.36
868.13	212.90
868.44	212.38
868.75	212.52
869.06	212.60
869.37	212.81
869.68	212.14
869.99	212.36
870.30	212.57
870.61	212.69
870.92	212.36
871.23	211.98
871.54	212.33
871.85	212.90
872.16	213.31
872.47	213.10
872.78	212.17
873.09	212.48
873.40	212.36
873.71	212.60
874.02	213.05
874.33	212.81
874.64	212.40
874.95	212.88
875.26	212.43
875.56	212.55
875.87	212.69
876.18	212.90
876.49	214.83
876.80	214.62
877.11	214.43
877.42	214.62
877.73	214.74
878.04	213.93
878.35	213.95
878.66	213.74
878.96	213.90
879.27	213.71
879.58	213.40
879.89	213.31
880.20	213.79
880.51	213.45
880.82	213.60
881.12	213.69
881.43	213.36
881.74	213.43
882.05	213.48
882.36	213.64
882.67	213.79
882.97	211.69
883.28	211.60
883.59	211.64
883.90	211.60
884.21	211.90
884.51	212.05
884.82	211.69
885.13	211.88
885.44	211.57
885.74	211.50
886.05	211.43
886.36	211.19
886.67	210.50
886.98	211.60
887.28	211.83
887.59	211.79
887.90	211.76
888.20	211.67
888.51	211.95
888.82	211.38
889.13	211.31
889.43	212.81
889.74	212.74
890.05	212.52
890.35	212.33
890.66	211.79
890.97	211.55
891.28	211.38
891.58	211.50
891.89	211.55
892.20	211.43
892.50	211.24
892.81	211.26
893.12	211.29
893.42	210.14
893.73	209.98
894.04	209.93
894.34	210.17
894.65	210.12
894.95	209.90
895.26	210.07
895.57	211.21
895.87	209.57
896.18	209.88
896.48	210.17
896.79	210.31
897.10	210.69
897.40	210.98
897.71	211.33
898.01	211.07
898.32	211.48
898.63	211.40
898.93	211.64
899.24	211.71
899.54	211.81
899.85	211.93
900.15	211.67
900.46	211.64
900.76	211.69
901.07	211.83
901.38	211.79
901.68	211.95
901.99	210.67
902.29	210.88
902.60	210.60
902.90	210.26
903.21	210.38
903.51	210.38
903.82	211.05
904.12	210.79
904.43	211.05
904.73	210.93
905.03	211.12
905.34	213.10
905.64	213.00
905.95	212.83
906.25	212.83
906.56	213.17
906.86	213.02
907.17	212.81
907.47	213.00
907.77	212.90
908.08	212.38
908.38	212.62
908.69	212.69
908.99	213.10
909.30	213.38
909.60	213.36
909.90	213.33
910.21	212.33
910.51	212.05
910.81	212.12
911.12	212.36
911.42	212.33
911.73	210.02
912.03	210.07
912.33	210.45
912.64	210.36
912.94	210.14
913.24	210.00
913.55	209.86
913.85	209.67
914.15	209.88
914.46	210.40
914.76	210.24
915.06	210.05
915.37	209.67
915.67	209.55
915.97	209.50
916.27	209.12
916.58	209.55
916.88	209.74
917.18	209.48
917.49	210.67
917.79	210.67
918.09	211.07
918.39	211.64
918.70	211.40
919.00	211.40
919.30	212.12
919.60	212.10
919.91	212.14
920.21	212.17
920.51	211.86
920.81	211.71
921.12	212.02
921.42	212.31
921.72	212.60
922.02	212.74
922.32	212.98
922.63	213.19
922.93	213.88
923.23	213.83
923.53	213.45
923.83	212.17
924.13	212.29
924.44	212.40
924.74	212.64
925.04	213.24
925.34	213.40
925.64	212.74
925.94	212.88
926.24	214.02
926.55	213.98
926.85	214.02
927.15	213.93
927.45	213.93
927.75	213.57
928.05	213.62
928.35	213.55
928.65	214.17
928.95	214.38
929.26	213.69
929.56	214.05
929.86	214.64
930.16	214.50
930.46	214.40
930.76	214.10
931.06	213.24
931.36	212.64
931.66	212.71
931.96	212.90
932.26	213.02
932.56	211.86
932.86	211.79
933.16	211.95
933.46	211.90
933.76	211.60
934.06	212.40
934.36	212.88
934.66	212.79
934.96	212.26
935.26	212.24
935.56	212.55
935.86	212.17
936.16	211.86
936.46	211.76
936.76	211.74
937.06	211.67
937.36	211.88
937.66	212.05
937.96	212.14
938.26	211.76
938.56	211.79
938.86	212.36
939.16	212.83
939.46	213.21
939.76	213.12
940.06	213.19
940.35	212.69
940.65	211.86
940.95	211.90
941.25	211.36
941.55	211.00
941.85	210.90
942.15	211.60
942.45	212.05
942.75	212.05
943.04	212.33
943.34	212.93
943.64	212.62
943.94	212.12
944.24	211.98
944.54	212.24
944.84	212.10
945.13	211.60
945.43	211.29
945.73	210.88
946.03	210.88
946.33	210.60
946.62	210.29
946.92	210.21
947.22	210.38
947.52	210.62
947.82	210.95
948.11	210.52
948.41	209.83
948.71	209.43
949.01	209.43
949.31	209.05
949.60	208.86
949.90	209.12
950.20	209.29
950.50	209.05
950.79	208.74
951.09	208.88
951.39	208.90
951.69	208.93
951.98	209.57
952.28	209.69
952.58	209.62
952.87	209.64
953.17	210.00
953.47	209.83
953.76	209.76
954.06	209.45
954.36	209.50
954.66	209.43
954.95	209.90
955.25	209.93
955.55	209.90
955.84	209.43
956.14	209.69
956.44	209.83
956.73	209.60
957.03	209.83
957.32	209.90
957.62	209.79
957.92	209.93
958.21	209.57
958.51	212.02
958.81	212.40
959.10	212.69
959.40	213.12
959.69	213.26
959.99	213.74
960.29	213.83
960.58	213.71
960.88	214.67
961.17	214.14
961.47	214.31
961.76	214.31
962.06	214.81
962.36	214.64
962.65	214.52
962.95	214.81
963.24	214.69
963.54	214.52
963.83	214.64
964.13	214.55
964.42	213.93
964.72	212.17
965.01	212.21
965.31	211.86
965.60	211.26
965.90	212.45
966.19	211.88
966.49	212.00
966.78	212.17
967.08	211.81
967.37	212.02
967.67	211.71
967.96	212.17
968.26	211.98
968.55	212.14
968.85	212.12
969.14	211.93
969.43	211.88
969.73	211.90
970.02	211.88
970.32	211.64
970.61	211.60
970.91	211.02
971.20	210.64
971.49	210.64
971.79	210.79
972.08	209.43
972.38	209.64
972.67	209.57
972.96	209.57
973.26	209.14
973.55	209.74
973.85	209.62
974.14	209.52
974.43	209.74
974.73	209.26
975.02	209.29
975.31	209.48
975.61	209.33
975.90	209.05
976.19	208.95
976.49	209.29
976.78	209.60
977.07	209.62
977.37	209.95
977.66	210.17
977.95	209.83
978.24	210.05
978.54	210.24
978.83	210.12
979.12	210.02
979.42	210.17
979.71	209.69
980.00	209.88
980.29	209.79
980.59	209.31
980.88	210.02
981.17	210.12
981.46	210.00
981.76	210.05
982.05	210.83
982.34	210.90
982.63	210.93
982.93	210.88
983.22	211.38
983.51	211.43
983.80	211.83
984.09	212.29
984.39	212.02
984.68	211.98
984.97	212.12
985.26	211.95
985.55	211.90
985.85	211.29
986.14	211.43
986.43	211.57
986.72	211.76
987.01	211.10
987.30	210.88
987.59	210.90
987.89	211.10
988.18	210.40
988.47	210.12
988.76	209.86
989.05	209.83
989.34	209.76
989.63	210.14
989.92	209.55
990.22	209.33
990.51	209.14
990.80	209.12
991.09	209.33
991.38	209.57
991.67	209.52
991.96	209.71
992.25	209.93
992.54	209.76
992.83	209.69
993.12	209.79
993.41	210.21
993.70	211.19
993.99	211.43
994.28	211.86
994.58	212.26
994.87	212.05
995.16	212.12
995.45	211.67
995.74	211.05
996.03	211.45
996.32	211.67
996.61	212.24
996.90	212.17
997.19	211.83
997.48	211.88
997.77	211.62
998.06	211.67
998.34	211.52
998.63	211.38
998.92	211.43
999.21	211.71
999.50	211.74
999.79	210.88
1000.08	210.98
1000.37	210.95
1000.66	210.86
1000.95	211.45
1001.24	211.55
1001.53	211.95
1001.82	212.05
1002.11	211.71
1002.40	212.00
1002.68	212.50
1002.97	213.79
1003.26	213.55
1003.55	213.43
1003.84	213.60
1004.13	214.33
1004.42	214.02
1004.71	213.86
1004.99	213.69
1005.28	213.98
1005.57	213.79
1005.86	213.64
1006.15	213.43
1006.44	213.19
1006.72	213.43
1007.01	213.12
1007.30	212.95
1007.59	212.57
1007.88	212.57
1008.17	212.57
1008.45	212.00
1008.74	211.00
1009.03	210.00
1009.32	210.24
1009.60	210.21
1009.89	210.26
1010.18	209.55
1010.47	209.76
1010.76	209.86
1011.04	209.98
1011.33	210.12
1011.62	210.33
1011.91	210.57
1012.19	210.71
1012.48	210.69
1012.77	210.74
1013.05	211.52
1013.34	211.62
1013.63	211.62
1013.92	211.55
1014.20	211.52
1014.49	211.71
1014.78	211.93
1015.06	211.31
1015.35	211.14
1015.64	211.36
1015.92	211.52
1016.21	211.48
1016.50	211.29
1016.78	211.43
1017.07	211.43
1017.36	210.86
1017.64	210.67
1017.93	210.81
1018.22	210.43
1018.50	210.52
1018.79	210.17
1019.08	209.33
1019.36	209.45
1019.65	209.45
1019.93	209.93
1020.22	210.29
1020.51	211.12
1020.79	210.95
1021.08	206.00
1021.36	210.00
1021.65	208.00
1021.94	210.00
1022.22	213.50
1022.51	211.00
1022.79	218.00
1023.08	214.50
1023.36	231.50
1023.65	204.50
>>>>>End Processed Spectral Data<<<<<
