SpectraSuite Data File
++++++++++++++++++++++++++++++++++++
Date: Tue Apr 02 18:38:10 EDT 2013
User: group
Dark Spectrum Present: No
Reference Spectrum Present: No
Number of Sampled Component Spectra: 1
Spectrometers: USB2E7196
Integration Time (usec): 580000 (USB2E7196)
Spectra Averaged: 2 (USB2E7196)
Boxcar Smoothing: 10 (USB2E7196)
Correct for Electrical Dark: No (USB2E7196)
Strobe/Lamp Enabled: No (USB2E7196)
Correct for Detector Non-linearity: No (USB2E7196)
Correct for Stray Light: No (USB2E7196)
Number of Pixels in Processed Spectrum: 2048
>>>>>Begin Processed Spectral Data<<<<<
339.09	0.00
339.48	194.50
339.86	197.00
340.24	199.00
340.63	198.50
341.01	230.00
341.39	198.50
341.78	207.00
342.16	210.00
342.54	203.00
342.93	198.02
343.31	207.74
343.69	208.24
344.07	208.71
344.46	209.33
344.84	210.10
345.22	209.17
345.60	209.83
345.99	210.00
346.37	210.00
346.75	210.40
347.13	210.57
347.52	210.62
347.90	211.48
348.28	211.52
348.66	211.93
349.05	211.21
349.43	211.50
349.81	211.88
350.19	212.31
350.57	212.38
350.96	212.62
351.34	213.05
351.72	213.36
352.10	213.45
352.48	213.24
352.87	213.21
353.25	213.17
353.63	213.17
354.01	213.00
354.39	213.17
354.77	213.12
355.15	213.64
355.54	213.40
355.92	212.57
356.30	212.67
356.68	214.02
357.06	214.45
357.44	214.19
357.82	214.00
358.20	214.71
358.58	214.57
358.97	214.57
359.35	215.05
359.73	215.57
360.11	215.48
360.49	215.81
360.87	215.83
361.25	216.26
361.63	216.93
362.01	217.24
362.39	217.24
362.77	217.33
363.15	217.21
363.53	217.60
363.91	217.90
364.29	218.12
364.67	216.17
365.05	216.17
365.43	216.50
365.81	216.62
366.19	216.71
366.57	217.60
366.95	217.45
367.33	216.76
367.71	216.52
368.09	217.00
368.47	217.07
368.85	216.93
369.23	217.26
369.61	216.40
369.99	217.02
370.37	217.17
370.75	218.17
371.13	217.83
371.51	217.33
371.89	217.43
372.27	217.19
372.65	217.26
373.03	217.05
373.41	216.86
373.78	216.83
374.16	215.88
374.54	215.29
374.92	215.10
375.30	215.31
375.68	215.00
376.06	215.19
376.44	214.93
376.82	214.95
377.19	214.60
377.57	214.43
377.95	213.69
378.33	213.50
378.71	212.31
379.09	212.48
379.47	212.67
379.84	212.43
380.22	212.10
380.60	211.95
380.98	212.10
381.36	211.98
381.73	211.64
382.11	212.05
382.49	212.14
382.87	212.00
383.25	211.86
383.62	214.19
384.00	213.69
384.38	213.74
384.76	214.21
385.13	215.19
385.51	215.43
385.89	215.21
386.27	215.26
386.64	215.55
387.02	215.48
387.40	215.43
387.78	215.52
388.15	215.86
388.53	215.71
388.91	215.71
389.29	215.76
389.66	216.17
390.04	215.79
390.42	216.29
390.79	216.55
391.17	216.50
391.55	214.10
391.92	214.14
392.30	214.26
392.68	213.90
393.05	213.52
393.43	213.57
393.81	213.88
394.18	213.69
394.56	213.93
394.94	214.55
395.31	214.17
395.69	214.93
396.06	215.14
396.44	215.40
396.82	215.07
397.19	216.14
397.57	215.79
397.95	216.29
398.32	215.71
398.70	215.62
399.07	216.12
399.45	216.17
399.82	216.24
400.20	216.14
400.58	216.12
400.95	215.31
401.33	215.93
401.70	217.43
402.08	217.62
402.45	217.67
402.83	217.71
403.20	218.12
403.58	217.90
403.95	218.50
404.33	219.02
404.71	219.52
405.08	220.74
405.46	221.19
405.83	221.57
406.21	221.93
406.58	222.69
406.96	223.17
407.33	223.81
407.70	224.67
408.08	227.17
408.45	228.02
408.83	229.48
409.20	229.76
409.58	229.40
409.95	230.88
410.33	231.76
410.70	232.36
411.08	234.05
411.45	235.38
411.82	235.95
412.20	237.67
412.57	240.36
412.95	240.29
413.32	242.31
413.69	243.81
414.07	245.93
414.44	247.86
414.82	249.83
415.19	252.48
415.56	254.98
415.94	256.29
416.31	259.60
416.68	262.67
417.06	266.55
417.43	270.40
417.81	274.05
418.18	278.60
418.55	283.40
418.93	288.12
419.30	292.83
419.67	298.33
420.04	303.31
420.42	308.31
420.79	316.17
421.16	322.90
421.54	330.64
421.91	337.52
422.28	344.88
422.66	353.17
423.03	362.52
423.40	370.50
423.77	379.07
424.15	387.38
424.52	396.40
424.89	406.69
425.26	415.90
425.64	424.76
426.01	433.93
426.38	443.81
426.75	454.33
427.13	465.33
427.50	477.26
427.87	489.02
428.24	500.83
428.61	510.93
428.99	524.12
429.36	537.05
429.73	550.40
430.10	563.67
430.47	577.07
430.85	589.60
431.22	604.86
431.59	621.83
431.96	637.07
432.33	653.76
432.70	669.90
433.08	688.71
433.45	707.57
433.82	726.62
434.19	747.14
434.56	767.81
434.93	786.57
435.30	805.24
435.68	826.88
436.05	847.79
436.42	868.38
436.79	887.48
437.16	907.88
437.53	930.00
437.90	951.93
438.27	973.40
438.64	995.88
439.01	1017.45
439.38	1035.21
439.75	1053.81
440.13	1073.98
440.50	1093.17
440.87	1109.40
441.24	1125.21
441.61	1142.74
441.98	1156.36
442.35	1171.31
442.72	1187.19
443.09	1203.40
443.46	1212.64
443.83	1218.86
444.20	1224.86
444.57	1232.24
444.94	1236.60
445.31	1240.71
445.68	1247.21
446.05	1248.86
446.42	1247.31
446.79	1244.74
447.16	1242.64
447.53	1240.74
447.90	1233.55
448.27	1226.29
448.64	1215.74
449.01	1208.26
449.37	1195.17
449.74	1181.52
450.11	1166.98
450.48	1149.93
450.85	1131.40
451.22	1115.29
451.59	1102.07
451.96	1088.24
452.33	1069.90
452.70	1053.05
453.07	1032.69
453.43	1009.83
453.80	990.43
454.17	972.05
454.54	953.48
454.91	933.52
455.28	914.64
455.65	896.60
456.02	882.14
456.38	867.07
456.75	848.86
457.12	832.88
457.49	818.33
457.86	801.90
458.23	789.79
458.59	775.55
458.96	761.98
459.33	748.67
459.70	736.19
460.07	726.00
460.43	714.60
460.80	704.43
461.17	695.52
461.54	685.95
461.91	675.67
462.27	665.98
462.64	657.57
463.01	648.64
463.38	641.05
463.74	628.21
464.11	620.50
464.48	613.52
464.85	606.21
465.21	600.38
465.58	594.64
465.95	586.90
466.32	581.26
466.68	575.31
467.05	569.05
467.42	562.93
467.78	556.43
468.15	550.57
468.52	545.90
468.88	539.40
469.25	533.71
469.62	530.02
469.98	526.00
470.35	522.17
470.72	518.12
471.08	513.14
471.45	510.43
471.82	506.98
472.18	502.90
472.55	499.93
472.92	495.83
473.28	492.02
473.65	488.40
474.02	485.19
474.38	482.83
474.75	480.95
475.11	478.60
475.48	477.29
475.85	474.74
476.21	472.69
476.58	471.02
476.94	469.93
477.31	468.50
477.67	466.71
478.04	465.40
478.41	464.71
478.77	465.86
479.14	464.38
479.50	463.90
479.87	464.17
480.23	463.57
480.60	462.81
480.96	463.21
481.33	464.36
481.69	464.67
482.06	465.21
482.42	465.43
482.79	465.93
483.15	466.17
483.52	468.10
483.88	469.29
484.25	470.26
484.61	471.45
484.98	472.24
485.34	474.55
485.71	476.67
486.07	478.43
486.44	478.55
486.80	481.07
487.17	483.29
487.53	486.05
487.90	489.45
488.26	493.67
488.62	496.86
488.99	499.26
489.35	502.48
489.72	505.69
490.08	509.12
490.44	512.67
490.81	516.81
491.17	520.31
491.54	524.71
491.90	529.52
492.26	534.38
492.63	539.50
492.99	544.00
493.36	549.19
493.72	555.24
494.08	560.93
494.45	567.14
494.81	573.90
495.17	580.00
495.54	586.43
495.90	592.55
496.26	599.05
496.63	606.21
496.99	613.40
497.35	620.90
497.72	629.17
498.08	637.05
498.44	644.55
498.80	653.38
499.17	661.21
499.53	669.79
499.89	678.76
500.26	687.38
500.62	696.40
500.98	706.21
501.34	714.67
501.71	724.57
502.07	733.24
502.43	741.69
502.79	750.14
503.16	758.95
503.52	768.48
503.88	778.50
504.24	788.67
504.60	798.26
504.97	809.17
505.33	818.33
505.69	829.10
506.05	839.95
506.41	850.19
506.78	860.14
507.14	869.52
507.50	879.45
507.86	889.62
508.22	899.98
508.59	909.40
508.95	919.67
509.31	930.17
509.67	941.74
510.03	952.38
510.39	963.88
510.75	974.05
511.12	984.07
511.48	993.90
511.84	1003.86
512.20	1013.90
512.56	1023.36
512.92	1033.36
513.28	1042.64
513.64	1051.98
514.00	1060.76
514.37	1071.07
514.73	1081.26
515.09	1091.36
515.45	1100.57
515.81	1110.14
516.17	1119.14
516.53	1128.10
516.89	1135.60
517.25	1143.21
517.61	1151.69
517.97	1159.31
518.33	1166.83
518.69	1175.00
519.05	1182.98
519.41	1190.43
519.77	1199.33
520.13	1206.74
520.49	1214.10
520.85	1221.17
521.21	1228.90
521.57	1236.12
521.93	1241.86
522.29	1249.12
522.65	1254.83
523.01	1262.10
523.37	1267.38
523.73	1273.45
524.09	1279.62
524.45	1286.38
524.81	1292.33
525.17	1297.69
525.53	1303.14
525.89	1309.55
526.25	1315.24
526.61	1320.33
526.97	1325.50
527.33	1329.38
527.68	1335.31
528.04	1340.33
528.40	1344.88
528.76	1348.50
529.12	1353.17
529.48	1358.36
529.84	1361.71
530.20	1364.90
530.56	1368.86
530.91	1372.81
531.27	1376.71
531.63	1380.79
531.99	1383.52
532.35	1387.02
532.71	1390.62
533.07	1394.36
533.42	1399.79
533.78	1403.38
534.14	1406.36
534.50	1409.40
534.86	1413.38
535.21	1414.79
535.57	1416.90
535.93	1419.55
536.29	1423.43
536.65	1426.33
537.00	1428.14
537.36	1431.36
537.72	1433.76
538.08	1435.43
538.44	1437.21
538.79	1439.19
539.15	1440.40
539.51	1442.79
539.87	1444.26
540.22	1445.83
540.58	1447.67
540.94	1447.52
541.29	1448.17
541.65	1448.74
542.01	1449.76
542.37	1450.21
542.72	1449.83
543.08	1450.67
543.44	1451.24
543.79	1449.45
544.15	1448.81
544.51	1449.86
544.87	1448.98
545.22	1449.64
545.58	1448.71
545.94	1449.19
546.29	1448.79
546.65	1448.00
547.01	1447.00
547.36	1446.19
547.72	1444.88
548.07	1443.40
548.43	1442.19
548.79	1440.33
549.14	1439.24
549.50	1437.57
549.86	1434.67
550.21	1433.95
550.57	1433.71
550.92	1432.10
551.28	1431.69
551.64	1430.57
551.99	1429.29
552.35	1428.57
552.70	1426.69
553.06	1426.10
553.41	1425.05
553.77	1424.57
554.13	1423.24
554.48	1422.76
554.84	1422.40
555.19	1421.90
555.55	1422.38
555.90	1420.83
556.26	1419.52
556.61	1418.55
556.97	1416.60
557.32	1415.90
557.68	1415.02
558.03	1412.76
558.39	1411.45
558.74	1410.36
559.10	1408.76
559.45	1407.43
559.81	1404.90
560.16	1403.10
560.52	1401.07
560.87	1398.38
561.23	1395.21
561.58	1396.02
561.94	1393.45
562.29	1390.45
562.64	1388.98
563.00	1384.88
563.35	1383.43
563.71	1382.45
564.06	1381.48
564.42	1380.33
564.77	1379.79
565.12	1379.05
565.48	1379.05
565.83	1378.00
566.19	1376.12
566.54	1374.90
566.89	1372.81
567.25	1372.33
567.60	1372.67
567.96	1373.79
568.31	1374.26
568.66	1374.69
569.02	1370.76
569.37	1368.45
569.72	1367.45
570.08	1365.10
570.43	1364.07
570.78	1361.67
571.14	1360.19
571.49	1357.43
571.84	1356.07
572.20	1353.10
572.55	1350.86
572.90	1347.50
573.26	1344.36
573.61	1341.74
573.96	1339.76
574.31	1337.12
574.67	1334.26
575.02	1330.69
575.37	1324.98
575.72	1319.95
576.08	1315.74
576.43	1312.52
576.78	1309.69
577.13	1305.21
577.49	1301.83
577.84	1298.36
578.19	1295.02
578.54	1291.36
578.90	1287.57
579.25	1283.88
579.60	1280.38
579.95	1275.00
580.30	1270.55
580.66	1267.29
581.01	1263.98
581.36	1258.83
581.71	1254.17
582.06	1251.31
582.42	1247.50
582.77	1243.38
583.12	1239.81
583.47	1235.07
583.82	1230.81
584.17	1226.90
584.53	1223.93
584.88	1219.76
585.23	1216.26
585.58	1211.40
585.93	1206.40
586.28	1203.14
586.63	1199.38
586.98	1195.71
587.34	1193.02
587.69	1189.43
588.04	1184.67
588.39	1180.48
588.74	1176.40
589.09	1173.02
589.44	1167.00
589.79	1162.05
590.14	1158.50
590.49	1154.05
590.84	1150.00
591.19	1145.69
591.54	1141.86
591.89	1136.95
592.25	1134.38
592.60	1129.52
592.95	1126.12
593.30	1122.17
593.65	1117.24
594.00	1112.00
594.35	1112.98
594.70	1107.55
595.05	1102.07
595.40	1097.93
595.75	1092.26
596.10	1087.98
596.45	1083.64
596.80	1079.36
597.15	1075.19
597.50	1070.21
597.85	1066.95
598.19	1062.40
598.54	1058.62
598.89	1054.05
599.24	1050.86
599.59	1045.10
599.94	1040.24
600.29	1035.81
600.64	1031.57
600.99	1027.83
601.34	1024.14
601.69	1013.95
602.04	1009.64
602.39	1005.14
602.74	1001.55
603.08	998.05
603.43	994.86
603.78	990.24
604.13	985.60
604.48	980.26
604.83	975.95
605.18	970.31
605.53	966.26
605.87	961.07
606.22	956.29
606.57	951.64
606.92	946.55
607.27	942.12
607.62	937.74
607.96	933.55
608.31	929.19
608.66	925.02
609.01	920.14
609.36	916.10
609.70	912.62
610.05	907.86
610.40	903.81
610.75	898.90
611.10	894.40
611.44	890.29
611.79	886.17
612.14	882.10
612.49	877.31
612.83	872.38
613.18	868.17
613.53	863.71
613.88	858.40
614.22	854.38
614.57	850.29
614.92	845.45
615.27	840.71
615.61	835.50
615.96	830.12
616.31	826.07
616.65	822.00
617.00	817.52
617.35	813.05
617.70	808.33
618.04	803.24
618.39	798.55
618.74	794.50
619.08	790.67
619.43	786.62
619.78	782.83
620.12	779.40
620.47	775.86
620.82	771.83
621.16	767.52
621.51	764.74
621.85	760.12
622.20	756.40
622.55	752.36
622.89	748.60
623.24	745.24
623.59	741.45
623.93	737.40
624.28	733.69
624.62	732.38
624.97	729.71
625.32	726.69
625.66	723.45
626.01	719.36
626.35	715.95
626.70	712.17
627.04	709.64
627.39	705.76
627.73	702.88
628.08	699.95
628.43	697.00
628.77	692.36
629.12	689.36
629.46	686.79
629.81	683.24
630.15	680.00
630.50	676.12
630.84	673.05
631.19	669.29
631.53	665.95
631.88	660.00
632.22	655.19
632.57	651.81
632.91	648.00
633.26	644.86
633.60	641.43
633.95	637.98
634.29	633.57
634.64	630.50
634.98	626.21
635.32	622.90
635.67	619.62
636.01	616.55
636.36	613.10
636.70	609.24
637.05	606.29
637.39	602.95
637.73	600.19
638.08	596.93
638.42	594.02
638.77	591.64
639.11	588.64
639.45	585.57
639.80	581.62
640.14	579.17
640.49	576.12
640.83	572.57
641.17	569.90
641.52	566.95
641.86	563.86
642.20	561.69
642.55	558.33
642.89	555.48
643.23	552.31
643.58	550.07
643.92	546.64
644.26	543.83
644.61	541.45
644.95	538.55
645.29	535.43
645.64	533.64
645.98	529.74
646.32	527.24
646.66	524.50
647.01	522.14
647.35	519.00
647.69	516.48
648.04	514.40
648.38	511.40
648.72	509.07
649.06	506.10
649.41	502.69
649.75	500.17
650.09	497.76
650.43	495.29
650.78	491.88
651.12	489.81
651.46	487.19
651.80	484.05
652.14	481.26
652.49	479.43
652.83	475.57
653.17	473.62
653.51	470.93
653.85	468.90
654.20	466.86
654.54	464.21
654.88	461.19
655.22	459.43
655.56	456.76
655.90	454.40
656.25	452.50
656.59	450.50
656.93	447.93
657.27	446.10
657.61	443.79
657.95	442.21
658.29	439.74
658.64	437.98
658.98	435.81
659.32	433.93
659.66	431.52
660.00	430.40
660.34	428.38
660.68	426.40
661.02	424.31
661.36	421.71
661.70	420.14
662.05	418.43
662.39	416.07
662.73	415.14
663.07	414.29
663.41	412.29
663.75	410.12
664.09	408.40
664.43	406.00
664.77	404.31
665.11	402.05
665.45	400.40
665.79	398.90
666.13	397.50
666.47	395.45
666.81	393.69
667.15	391.21
667.49	389.86
667.83	388.95
668.17	387.14
668.51	385.90
668.85	384.50
669.19	383.98
669.53	381.76
669.87	380.52
670.21	378.43
670.55	377.21
670.89	376.74
671.23	375.24
671.57	373.71
671.91	372.36
672.25	371.45
672.58	370.67
672.92	368.29
673.26	366.88
673.60	366.17
673.94	364.81
674.28	363.81
674.62	362.36
674.96	360.74
675.30	359.69
675.64	358.29
675.97	357.07
676.31	354.76
676.65	353.64
676.99	352.33
677.33	350.64
677.67	349.17
678.01	347.14
678.34	346.12
678.68	345.62
679.02	344.40
679.36	342.90
679.70	341.31
680.04	340.40
680.37	339.05
680.71	337.50
681.05	336.29
681.39	335.10
681.73	333.31
682.06	331.74
682.40	330.55
682.74	329.76
683.08	329.12
683.42	328.24
683.75	327.60
684.09	325.67
684.43	324.69
684.77	323.45
685.10	322.36
685.44	321.52
685.78	319.69
686.12	318.40
686.45	317.40
686.79	316.21
687.13	315.79
687.46	314.64
687.80	314.14
688.14	313.10
688.48	312.43
688.81	311.83
689.15	311.71
689.49	310.64
689.82	309.95
690.16	308.07
690.50	307.24
690.83	305.95
691.17	304.79
691.51	303.81
691.84	303.26
692.18	302.14
692.52	300.86
692.85	300.29
693.19	300.17
693.52	299.36
693.86	298.12
694.20	296.95
694.53	296.29
694.87	295.00
695.21	294.10
695.54	293.26
695.88	292.24
696.21	290.50
696.55	289.88
696.88	288.71
697.22	288.07
697.56	287.48
697.89	286.57
698.23	286.55
698.56	285.69
698.90	284.93
699.23	284.40
699.57	283.71
699.90	282.81
700.24	281.29
700.58	280.71
700.91	280.55
701.25	281.48
701.58	281.36
701.92	281.00
702.25	280.38
702.59	279.48
702.92	278.83
703.26	278.14
703.59	277.40
703.93	278.43
704.26	277.95
704.60	277.43
704.93	276.79
705.26	275.50
705.60	275.38
705.93	274.45
706.27	274.48
706.60	274.33
706.94	274.71
707.27	273.88
707.61	273.24
707.94	272.55
708.27	270.36
708.61	269.00
708.94	268.26
709.28	267.98
709.61	267.40
709.94	267.19
710.28	266.93
710.61	266.79
710.95	264.48
711.28	265.38
711.61	264.74
711.95	265.14
712.28	264.71
712.61	263.83
712.95	264.43
713.28	264.33
713.61	263.62
713.95	262.21
714.28	262.14
714.61	261.36
714.95	260.67
715.28	260.12
715.61	259.88
715.95	259.67
716.28	258.90
716.61	258.62
716.95	257.71
717.28	257.10
717.61	256.33
717.94	255.74
718.28	253.79
718.61	253.38
718.94	252.07
719.27	251.79
719.61	251.69
719.94	250.67
720.27	249.36
720.60	248.71
720.94	248.26
721.27	247.95
721.60	248.26
721.93	248.10
722.27	248.43
722.60	248.31
722.93	247.69
723.26	247.40
723.59	246.79
723.93	247.00
724.26	247.02
724.59	246.67
724.92	246.79
725.25	247.02
725.59	246.29
725.92	246.45
726.25	246.07
726.58	245.60
726.91	245.14
727.24	245.02
727.57	244.81
727.91	244.48
728.24	244.26
728.57	243.57
728.90	243.48
729.23	242.50
729.56	243.12
729.89	242.76
730.22	242.62
730.55	242.45
730.89	242.19
731.22	241.83
731.55	241.33
731.88	241.02
732.21	240.52
732.54	240.38
732.87	239.95
733.20	239.95
733.53	239.81
733.86	239.88
734.19	239.31
734.52	239.38
734.85	240.48
735.18	239.93
735.51	240.26
735.84	240.07
736.17	240.33
736.50	238.83
736.83	240.98
737.16	240.50
737.49	240.38
737.82	239.93
738.15	239.88
738.48	239.93
738.81	239.71
739.14	239.24
739.47	239.02
739.80	238.86
740.13	238.69
740.46	238.24
740.79	237.52
741.12	237.50
741.45	237.12
741.78	235.81
742.11	236.55
742.44	236.12
742.77	236.19
743.10	235.83
743.43	235.83
743.75	233.50
744.08	236.19
744.41	235.57
744.74	235.05
745.07	234.55
745.40	234.36
745.73	235.07
746.06	234.79
746.39	234.81
746.71	234.57
747.04	234.19
747.37	234.07
747.70	234.38
748.03	234.52
748.36	234.43
748.68	234.29
749.01	233.24
749.34	232.74
749.67	232.31
750.00	232.19
750.33	233.50
750.65	233.38
750.98	230.50
751.31	230.45
751.64	230.60
751.97	231.43
752.29	231.33
752.62	230.17
752.95	230.05
753.28	229.81
753.60	229.43
753.93	229.57
754.26	229.55
754.59	228.74
754.91	228.21
755.24	228.02
755.57	227.67
755.90	227.45
756.22	227.10
756.55	226.69
756.88	226.19
757.20	224.62
757.53	224.17
757.86	224.02
758.19	224.43
758.51	224.40
758.84	223.19
759.17	222.95
759.49	222.76
759.82	223.74
760.15	223.62
760.47	223.52
760.80	222.90
761.13	223.00
761.45	223.14
761.78	222.95
762.11	222.88
762.43	222.90
762.76	222.88
763.08	223.19
763.41	223.45
763.74	223.50
764.06	223.43
764.39	223.43
764.71	223.31
765.04	222.90
765.37	222.69
765.69	222.69
766.02	222.43
766.34	222.40
766.67	221.48
767.00	221.71
767.32	222.76
767.65	223.83
767.97	223.48
768.30	223.40
768.62	223.43
768.95	223.05
769.27	222.93
769.60	223.26
769.92	222.79
770.25	222.17
770.57	221.93
770.90	221.98
771.22	221.48
771.55	221.31
771.87	221.31
772.20	221.10
772.52	222.86
772.85	225.29
773.17	225.26
773.50	224.81
773.82	224.45
774.15	223.31
774.47	222.17
774.80	222.12
775.12	222.02
775.45	221.86
775.77	221.95
776.09	221.98
776.42	221.90
776.74	222.52
777.07	222.50
777.39	222.38
777.72	222.07
778.04	222.62
778.36	222.50
778.69	222.33
779.01	222.48
779.33	220.55
779.66	218.14
779.98	218.02
780.31	218.14
780.63	218.86
780.95	219.38
781.28	219.43
781.60	219.17
781.92	218.98
782.25	218.95
782.57	218.81
782.89	218.52
783.22	218.31
783.54	217.90
783.86	217.98
784.19	217.95
784.51	218.38
784.83	217.83
785.16	217.86
785.48	218.00
785.80	217.67
786.12	218.10
786.45	218.10
786.77	218.10
787.09	218.05
787.42	217.45
787.74	217.36
788.06	217.31
788.38	217.14
788.71	216.95
789.03	217.24
789.35	217.60
789.67	217.21
789.99	217.19
790.32	216.88
790.64	217.17
790.96	218.74
791.28	217.93
791.61	218.10
791.93	218.26
792.25	217.98
792.57	219.60
792.89	218.74
793.21	218.88
793.54	218.79
793.86	218.76
794.18	218.55
794.50	217.90
794.82	217.71
795.14	218.05
795.47	218.43
795.79	218.36
796.11	217.83
796.43	218.14
796.75	218.21
797.07	218.26
797.39	218.17
797.71	216.76
798.04	216.98
798.36	217.21
798.68	217.05
799.00	217.24
799.32	216.12
799.64	216.62
799.96	216.67
800.28	216.95
800.60	216.57
800.92	216.86
801.24	216.79
801.56	217.07
801.89	217.07
802.21	217.21
802.53	216.76
802.85	217.07
803.17	217.67
803.49	217.24
803.81	217.05
804.13	216.81
804.45	216.81
804.77	216.98
805.09	216.64
805.41	216.36
805.73	216.07
806.05	215.76
806.37	215.67
806.69	215.38
807.01	215.33
807.33	215.83
807.65	215.36
807.97	216.36
808.28	216.12
808.60	215.79
808.92	215.55
809.24	216.93
809.56	216.81
809.88	216.26
810.20	216.26
810.52	216.93
810.84	216.67
811.16	216.21
811.48	216.02
811.80	216.83
812.12	216.93
812.43	217.12
812.75	217.17
813.07	216.88
813.39	217.02
813.71	216.62
814.03	216.45
814.35	216.45
814.67	215.60
814.98	215.62
815.30	215.57
815.62	215.36
815.94	213.83
816.26	213.81
816.58	213.48
816.89	213.62
817.21	212.88
817.53	213.19
817.85	213.26
818.17	213.26
818.48	212.55
818.80	212.69
819.12	212.76
819.44	212.55
819.76	212.43
820.07	212.40
820.39	212.36
820.71	212.36
821.03	212.14
821.34	212.21
821.66	212.40
821.98	212.67
822.30	212.31
822.61	213.62
822.93	213.43
823.25	213.57
823.57	213.19
823.88	213.31
824.20	213.00
824.52	213.33
824.83	213.26
825.15	212.81
825.47	213.02
825.79	213.10
826.10	212.98
826.42	213.05
826.74	213.33
827.05	213.19
827.37	213.19
827.69	213.43
828.00	213.31
828.32	213.26
828.64	212.93
828.95	214.14
829.27	213.74
829.58	213.76
829.90	213.83
830.22	214.19
830.53	214.17
830.85	214.07
831.17	213.71
831.48	213.81
831.80	214.19
832.11	213.83
832.43	213.45
832.75	213.45
833.06	214.57
833.38	213.86
833.69	213.90
834.01	213.88
834.32	213.62
834.64	213.48
834.96	213.36
835.27	213.71
835.59	213.00
835.90	212.10
836.22	212.07
836.53	211.81
836.85	211.69
837.16	213.83
837.48	213.98
837.79	214.62
838.11	214.50
838.42	214.38
838.74	214.88
839.05	214.86
839.37	214.57
839.68	213.48
840.00	213.62
840.31	213.79
840.63	213.67
840.94	213.62
841.26	213.67
841.57	213.76
841.88	213.71
842.20	213.33
842.51	213.57
842.83	213.62
843.14	215.36
843.46	215.38
843.77	214.19
844.08	214.21
844.40	213.57
844.71	213.67
845.03	213.60
845.34	213.29
845.65	213.31
845.97	213.69
846.28	213.67
846.60	213.81
846.91	213.64
847.22	213.67
847.54	214.21
847.85	214.33
848.16	214.05
848.48	213.76
848.79	215.02
849.10	215.21
849.42	215.26
849.73	213.62
850.04	213.71
850.36	213.00
850.67	213.24
850.98	213.12
851.30	213.21
851.61	213.00
851.92	213.00
852.23	213.60
852.55	213.64
852.86	213.74
853.17	213.57
853.49	214.19
853.80	214.69
854.11	214.76
854.42	215.12
854.74	215.05
855.05	215.12
855.36	213.79
855.67	214.07
855.99	214.07
856.30	216.24
856.61	216.17
856.92	216.21
857.23	216.24
857.55	216.21
857.86	216.00
858.17	216.50
858.48	216.21
858.79	215.69
859.11	215.62
859.42	215.60
859.73	215.50
860.04	215.17
860.35	214.40
860.66	213.81
860.98	213.64
861.29	214.07
861.60	214.07
861.91	214.86
862.22	214.40
862.53	214.36
862.84	212.12
863.16	212.33
863.47	211.83
863.78	211.69
864.09	211.90
864.40	211.95
864.71	211.88
865.02	212.10
865.33	211.95
865.64	211.79
865.95	211.60
866.27	213.14
866.58	212.88
866.89	213.38
867.20	213.26
867.51	212.90
867.82	212.55
868.13	213.00
868.44	212.55
868.75	212.81
869.06	212.83
869.37	213.05
869.68	212.52
869.99	212.88
870.30	212.95
870.61	212.98
870.92	212.86
871.23	212.62
871.54	212.71
871.85	212.81
872.16	212.90
872.47	212.83
872.78	211.50
873.09	211.86
873.40	211.45
873.71	211.98
874.02	212.29
874.33	212.33
874.64	211.83
874.95	211.88
875.26	211.57
875.56	211.55
875.87	211.40
876.18	211.50
876.49	213.36
876.80	213.24
877.11	213.02
877.42	213.05
877.73	213.07
878.04	212.79
878.35	213.07
878.66	213.29
878.96	213.43
879.27	213.52
879.58	213.36
879.89	213.36
880.20	213.64
880.51	213.31
880.82	213.26
881.12	213.36
881.43	213.07
881.74	212.86
882.05	212.67
882.36	212.69
882.67	212.67
882.97	210.88
883.28	210.71
883.59	210.86
883.90	211.17
884.21	211.55
884.51	211.52
884.82	211.29
885.13	211.14
885.44	210.88
885.74	210.57
886.05	210.48
886.36	210.57
886.67	209.88
886.98	210.93
887.28	211.07
887.59	211.02
887.90	211.19
888.20	211.21
888.51	211.71
888.82	211.52
889.13	211.69
889.43	213.05
889.74	212.98
890.05	212.76
890.35	212.38
890.66	212.14
890.97	212.12
891.28	211.86
891.58	211.83
891.89	211.83
892.20	211.74
892.50	211.62
892.81	211.69
893.12	211.48
893.42	210.40
893.73	210.45
894.04	210.55
894.34	210.55
894.65	210.57
894.95	210.10
895.26	210.40
895.57	211.31
895.87	209.50
896.18	209.79
896.48	210.07
896.79	210.26
897.10	210.33
897.40	210.24
897.71	210.55
898.01	210.62
898.32	211.12
898.63	211.12
898.93	211.31
899.24	210.93
899.54	211.10
899.85	211.19
900.15	211.31
900.46	211.40
900.76	211.67
901.07	211.52
901.38	211.67
901.68	211.90
901.99	210.86
902.29	211.05
902.60	210.93
902.90	210.69
903.21	210.69
903.51	210.71
903.82	211.21
904.12	210.98
904.43	211.00
904.73	210.79
905.03	211.05
905.34	212.88
905.64	213.02
905.95	212.93
906.25	213.00
906.56	212.74
906.86	212.83
907.17	212.76
907.47	213.10
907.77	213.00
908.08	212.43
908.38	212.64
908.69	213.07
908.99	213.31
909.30	213.17
909.60	213.17
909.90	213.17
910.21	212.57
910.51	212.64
910.81	212.60
911.12	212.64
911.42	212.79
911.73	210.62
912.03	210.83
912.33	211.36
912.64	211.40
912.94	211.40
913.24	210.95
913.55	210.67
913.85	210.43
914.15	210.83
914.46	211.00
914.76	210.83
915.06	210.48
915.37	210.10
915.67	210.24
915.97	210.05
916.27	209.62
916.58	209.98
916.88	209.74
917.18	209.55
917.49	210.88
917.79	210.64
918.09	211.05
918.39	211.45
918.70	211.26
919.00	211.17
919.30	212.10
919.60	211.95
919.91	212.10
920.21	212.33
920.51	211.79
920.81	211.74
921.12	212.21
921.42	212.19
921.72	212.71
922.02	212.83
922.32	213.00
922.63	213.26
922.93	214.26
923.23	214.55
923.53	214.60
923.83	213.45
924.13	213.79
924.44	213.83
924.74	214.05
925.04	214.48
925.34	214.48
925.64	213.52
925.94	213.52
926.24	214.62
926.55	214.24
926.85	214.69
927.15	214.76
927.45	214.62
927.75	214.71
928.05	214.33
928.35	214.14
928.65	214.67
928.95	214.76
929.26	213.60
929.56	213.83
929.86	214.02
930.16	213.71
930.46	213.36
930.76	213.36
931.06	212.64
931.36	212.21
931.66	212.55
931.96	212.79
932.26	212.98
932.56	211.98
932.86	212.48
933.16	212.24
933.46	212.21
933.76	211.93
934.06	212.40
934.36	213.21
934.66	213.19
934.96	212.93
935.26	213.21
935.56	213.74
935.86	213.38
936.16	213.02
936.46	213.05
936.76	213.12
937.06	212.88
937.36	212.86
937.66	212.88
937.96	212.57
938.26	212.12
938.56	212.02
938.86	212.02
939.16	212.19
939.46	212.64
939.76	212.76
940.06	212.79
940.35	212.29
940.65	211.40
940.95	211.57
941.25	210.95
941.55	210.29
941.85	210.10
942.15	210.57
942.45	211.19
942.75	211.14
943.04	211.19
943.34	211.48
943.64	211.21
943.94	210.95
944.24	211.33
944.54	211.57
944.84	211.62
945.13	211.50
945.43	211.17
945.73	210.83
946.03	210.57
946.33	210.21
946.62	210.12
946.92	210.10
947.22	210.19
947.52	210.60
947.82	211.36
948.11	211.10
948.41	210.60
948.71	210.24
949.01	210.26
949.31	209.95
949.60	209.76
949.90	210.36
950.20	210.29
950.50	210.05
950.79	209.81
951.09	210.17
951.39	210.12
951.69	209.76
951.98	210.31
952.28	210.38
952.58	210.45
952.87	210.45
953.17	210.83
953.47	210.55
953.76	210.45
954.06	209.93
954.36	209.76
954.66	209.64
954.95	209.90
955.25	210.05
955.55	210.21
955.84	210.19
956.14	210.24
956.44	210.45
956.73	210.19
957.03	210.40
957.32	210.36
957.62	210.26
957.92	210.88
958.21	210.38
958.51	212.90
958.81	213.31
959.10	213.50
959.40	213.90
959.69	214.00
959.99	214.33
960.29	214.43
960.58	214.43
960.88	215.26
961.17	215.12
961.47	215.38
961.76	215.14
962.06	215.52
962.36	215.21
962.65	215.43
962.95	215.50
963.24	215.40
963.54	215.50
963.83	215.69
964.13	215.48
964.42	215.21
964.72	213.43
965.01	213.50
965.31	213.40
965.60	212.67
965.90	214.14
966.19	213.67
966.49	213.55
966.78	213.62
967.08	213.64
967.37	213.67
967.67	213.24
967.96	213.81
968.26	213.45
968.55	213.64
968.85	213.43
969.14	213.48
969.43	213.50
969.73	213.05
970.02	212.98
970.32	212.90
970.61	212.95
970.91	212.19
971.20	212.00
971.49	211.71
971.79	211.86
972.08	210.31
972.38	210.52
972.67	210.62
972.96	210.88
973.26	210.29
973.55	210.98
973.85	210.93
974.14	210.57
974.43	210.93
974.73	210.86
975.02	210.69
975.31	210.74
975.61	210.55
975.90	210.48
976.19	210.36
976.49	210.45
976.78	210.50
977.07	210.69
977.37	210.64
977.66	210.88
977.95	210.64
978.24	210.76
978.54	211.21
978.83	210.95
979.12	210.71
979.42	210.79
979.71	210.14
980.00	210.33
980.29	210.67
980.59	210.12
980.88	210.69
981.17	210.69
981.46	210.52
981.76	210.74
982.05	211.48
982.34	211.62
982.63	211.62
982.93	211.62
983.22	212.17
983.51	212.24
983.80	212.60
984.09	212.83
984.39	212.62
984.68	212.29
984.97	212.36
985.26	212.36
985.55	212.40
985.85	212.10
986.14	212.38
986.43	212.52
986.72	212.55
987.01	211.55
987.30	211.45
987.59	211.38
987.89	211.26
988.18	210.52
988.47	210.33
988.76	210.19
989.05	209.95
989.34	209.48
989.63	210.00
989.92	209.69
990.22	209.43
990.51	209.67
990.80	209.62
991.09	209.88
991.38	210.05
991.67	209.88
991.96	209.69
992.25	209.29
992.54	208.90
992.83	208.98
993.12	209.21
993.41	209.55
993.70	210.40
993.99	210.64
994.28	211.00
994.58	211.24
994.87	211.14
995.16	211.12
995.45	210.98
995.74	210.38
996.03	210.60
996.32	211.12
996.61	211.69
996.90	211.60
997.19	211.69
997.48	211.79
997.77	211.60
998.06	211.86
998.34	211.79
998.63	211.88
998.92	212.10
999.21	212.45
999.50	212.57
999.79	211.86
1000.08	212.10
1000.37	212.29
1000.66	212.00
1000.95	212.45
1001.24	212.62
1001.53	213.07
1001.82	213.00
1002.11	212.38
1002.40	212.64
1002.68	212.64
1002.97	214.29
1003.26	213.95
1003.55	213.48
1003.84	213.60
1004.13	214.29
1004.42	214.36
1004.71	214.29
1004.99	213.90
1005.28	214.19
1005.57	213.90
1005.86	213.60
1006.15	213.38
1006.44	212.83
1006.72	213.07
1007.01	212.76
1007.30	212.79
1007.59	212.48
1007.88	212.40
1008.17	212.67
1008.45	212.12
1008.74	211.45
1009.03	210.33
1009.32	210.24
1009.60	210.19
1009.89	210.21
1010.18	209.45
1010.47	209.50
1010.76	209.36
1011.04	209.50
1011.33	209.57
1011.62	209.86
1011.91	210.07
1012.19	209.98
1012.48	210.10
1012.77	210.17
1013.05	211.17
1013.34	211.24
1013.63	211.05
1013.92	211.19
1014.20	211.07
1014.49	211.12
1014.78	211.10
1015.06	210.55
1015.35	210.74
1015.64	211.19
1015.92	211.40
1016.21	211.19
1016.50	211.12
1016.78	211.57
1017.07	211.62
1017.36	211.10
1017.64	210.79
1017.93	211.17
1018.22	211.10
1018.50	211.19
1018.79	211.00
1019.08	210.12
1019.36	210.24
1019.65	210.07
1019.93	210.50
1020.22	210.79
1020.51	211.76
1020.79	211.57
1021.08	208.50
1021.36	209.50
1021.65	209.00
1021.94	213.00
1022.22	212.50
1022.51	205.50
1022.79	218.50
1023.08	211.50
1023.36	233.00
1023.65	202.50
>>>>>End Processed Spectral Data<<<<<
