SpectraSuite Data File
++++++++++++++++++++++++++++++++++++
Date: Tue Apr 02 18:43:04 EDT 2013
User: group
Dark Spectrum Present: No
Reference Spectrum Present: No
Number of Sampled Component Spectra: 1
Spectrometers: USB2E7196
Integration Time (usec): 580000 (USB2E7196)
Spectra Averaged: 2 (USB2E7196)
Boxcar Smoothing: 10 (USB2E7196)
Correct for Electrical Dark: No (USB2E7196)
Strobe/Lamp Enabled: No (USB2E7196)
Correct for Detector Non-linearity: No (USB2E7196)
Correct for Stray Light: No (USB2E7196)
Number of Pixels in Processed Spectrum: 2048
>>>>>Begin Processed Spectral Data<<<<<
339.09	0.00
339.48	190.50
339.86	194.50
340.24	195.50
340.63	192.50
341.01	230.00
341.39	201.00
341.78	205.50
342.16	207.50
342.54	204.50
342.93	196.24
343.31	205.93
343.69	206.57
344.07	207.21
344.46	207.98
344.84	208.64
345.22	207.43
345.60	207.76
345.99	207.95
346.37	208.02
346.75	208.19
347.13	208.52
347.52	208.67
347.90	209.60
348.28	209.62
348.66	210.19
349.05	209.62
349.43	209.98
349.81	210.33
350.19	210.57
350.57	210.95
350.96	211.07
351.34	211.50
351.72	211.60
352.10	211.64
352.48	211.45
352.87	211.43
353.25	211.64
353.63	211.67
354.01	211.57
354.39	211.95
354.77	211.93
355.15	212.29
355.54	212.26
355.92	211.64
356.30	211.76
356.68	212.83
357.06	212.95
357.44	212.83
357.82	212.88
358.20	213.67
358.58	213.50
358.97	213.79
359.35	214.26
359.73	215.07
360.11	215.12
360.49	215.40
360.87	215.60
361.25	215.90
361.63	216.86
362.01	217.19
362.39	216.81
362.77	217.07
363.15	216.86
363.53	216.76
363.91	216.93
364.29	216.98
364.67	215.07
365.05	215.14
365.43	215.31
365.81	215.55
366.19	215.74
366.57	216.52
366.95	216.31
367.33	215.64
367.71	215.31
368.09	215.83
368.47	215.95
368.85	216.00
369.23	216.31
369.61	215.52
369.99	216.17
370.37	216.50
370.75	217.55
371.13	217.43
371.51	217.36
371.89	217.52
372.27	217.67
372.65	218.00
373.03	218.21
373.41	217.74
373.78	217.60
374.16	216.52
374.54	215.90
374.92	215.95
375.30	215.93
375.68	215.52
376.06	215.52
376.44	215.33
376.82	215.62
377.19	215.52
377.57	215.43
377.95	214.48
378.33	214.26
378.71	213.12
379.09	213.52
379.47	213.93
379.84	213.67
380.22	213.36
380.60	212.88
380.98	212.69
381.36	212.79
381.73	212.43
382.11	212.79
382.49	212.76
382.87	212.57
383.25	212.81
383.62	215.38
384.00	214.88
384.38	214.90
384.76	215.29
385.13	216.00
385.51	216.00
385.89	215.90
386.27	216.19
386.64	216.43
387.02	216.00
387.40	215.76
387.78	215.95
388.15	215.98
388.53	216.05
388.91	216.12
389.29	216.19
389.66	216.64
390.04	216.33
390.42	216.88
390.79	216.90
391.17	216.67
391.55	214.36
391.92	214.26
392.30	214.60
392.68	213.98
393.05	213.79
393.43	213.76
393.81	214.00
394.18	213.57
394.56	213.67
394.94	214.10
395.31	214.00
395.69	214.62
396.06	215.31
396.44	215.40
396.82	215.33
397.19	216.38
397.57	216.02
397.95	216.69
398.32	216.00
398.70	216.29
399.07	216.93
399.45	216.83
399.82	216.95
400.20	216.50
400.58	216.62
400.95	215.86
401.33	216.33
401.70	217.88
402.08	217.98
402.45	217.86
402.83	218.26
403.20	218.19
403.58	217.83
403.95	218.07
404.33	218.64
404.71	218.90
405.08	219.88
405.46	220.33
405.83	220.40
406.21	220.86
406.58	221.17
406.96	221.50
407.33	222.10
407.70	222.90
408.08	224.98
408.45	225.81
408.83	227.10
409.20	227.50
409.58	227.02
409.95	228.40
410.33	229.45
410.70	230.05
411.08	231.55
411.45	232.83
411.82	233.55
412.20	235.05
412.57	237.60
412.95	237.31
413.32	239.07
413.69	240.24
414.07	241.90
414.44	243.71
414.82	245.45
415.19	247.64
415.56	249.76
415.94	250.81
416.31	253.57
416.68	256.07
417.06	259.31
417.43	262.76
417.81	265.88
418.18	269.45
418.55	273.29
418.93	277.00
419.30	281.12
419.67	285.62
420.04	289.93
420.42	294.00
420.79	301.29
421.16	307.10
421.54	314.21
421.91	320.52
422.28	326.60
422.66	333.24
423.03	341.12
423.40	348.07
423.77	355.60
424.15	362.76
424.52	370.67
424.89	379.48
425.26	387.21
425.64	394.95
426.01	403.40
426.38	412.14
426.75	421.64
427.13	430.71
427.50	440.24
427.87	450.17
428.24	460.17
428.61	468.50
428.99	479.52
429.36	490.31
429.73	501.29
430.10	512.69
430.47	524.43
430.85	535.43
431.22	548.00
431.59	562.95
431.96	575.98
432.33	589.79
432.70	603.07
433.08	619.62
433.45	634.95
433.82	650.17
434.19	667.38
434.56	684.57
434.93	700.40
435.30	716.50
435.68	734.48
436.05	752.05
436.42	769.26
436.79	785.31
437.16	802.31
437.53	819.93
437.90	838.24
438.27	856.19
438.64	874.38
439.01	891.07
439.38	904.62
439.75	918.98
440.13	935.86
440.50	951.88
440.87	964.26
441.24	977.74
441.61	992.48
441.98	1002.90
442.35	1014.40
442.72	1027.55
443.09	1040.57
443.46	1048.12
443.83	1053.31
444.20	1058.00
444.57	1063.17
444.94	1066.60
445.31	1070.81
445.68	1076.50
446.05	1078.36
446.42	1077.21
446.79	1076.29
447.16	1074.50
447.53	1074.00
447.90	1067.62
448.27	1060.93
448.64	1052.36
449.01	1046.00
449.37	1034.90
449.74	1024.21
450.11	1013.19
450.48	998.48
450.85	983.26
451.22	969.83
451.59	957.69
451.96	946.48
452.33	931.55
452.70	917.29
453.07	900.21
453.43	880.36
453.80	863.29
454.17	847.26
454.54	831.81
454.91	815.38
455.28	798.76
455.65	784.14
456.02	772.79
456.38	760.40
456.75	744.57
457.12	731.00
457.49	718.24
457.86	703.69
458.23	693.69
458.59	681.83
458.96	670.38
459.33	659.48
459.70	648.29
460.07	640.02
460.43	630.19
460.80	621.50
461.17	614.14
461.54	605.98
461.91	597.76
462.27	589.57
462.64	583.00
463.01	575.40
463.38	568.43
463.74	557.62
464.11	550.74
464.48	545.40
464.85	539.07
465.21	534.50
465.58	529.86
465.95	522.76
466.32	517.40
466.68	512.00
467.05	507.29
467.42	502.21
467.78	496.52
468.15	491.29
468.52	487.31
468.88	481.69
469.25	476.90
469.62	474.12
469.98	470.12
470.35	466.31
470.72	462.81
471.08	458.48
471.45	455.93
471.82	453.07
472.18	449.52
472.55	447.26
472.92	443.60
473.28	440.05
473.65	437.50
474.02	435.33
474.38	433.81
474.75	431.79
475.11	429.55
475.48	427.79
475.85	426.07
476.21	424.02
476.58	423.12
476.94	422.29
477.31	420.19
477.67	419.26
478.04	418.10
478.41	417.60
478.77	418.93
479.14	417.33
479.50	416.36
479.87	416.07
480.23	415.74
480.60	415.36
480.96	415.19
481.33	415.93
481.69	415.74
482.06	415.57
482.42	416.00
482.79	416.60
483.15	416.83
483.52	417.81
483.88	418.21
484.25	418.40
484.61	418.64
484.98	419.36
485.34	420.93
485.71	422.50
486.07	423.76
486.44	423.19
486.80	425.21
487.17	426.83
487.53	429.33
487.90	431.33
488.26	434.38
488.62	437.45
488.99	439.33
489.35	442.02
489.72	444.69
490.08	447.33
490.44	449.93
490.81	453.29
491.17	456.10
491.54	459.69
491.90	463.43
492.26	467.45
492.63	471.45
492.99	475.17
493.36	479.10
493.72	483.98
494.08	488.43
494.45	493.43
494.81	498.79
495.17	502.95
495.54	508.17
495.90	512.95
496.26	518.14
496.63	523.83
496.99	529.21
497.35	534.71
497.72	540.64
498.08	546.76
498.44	552.71
498.80	560.07
499.17	566.00
499.53	572.10
499.89	579.21
500.26	586.26
500.62	592.79
500.98	599.95
501.34	606.48
501.71	613.62
502.07	619.93
502.43	626.38
502.79	633.52
503.16	640.52
503.52	647.50
503.88	654.14
504.24	661.36
504.60	668.60
504.97	676.71
505.33	683.90
505.69	692.31
506.05	700.24
506.41	706.90
506.78	714.98
507.14	722.79
507.50	730.00
507.86	737.33
508.22	745.43
508.59	752.40
508.95	760.45
509.31	768.88
509.67	776.86
510.03	785.07
510.39	793.12
510.75	801.21
511.12	808.69
511.48	817.02
511.84	824.43
512.20	832.02
512.56	839.31
512.92	846.86
513.28	853.98
513.64	861.00
514.00	869.14
514.37	876.74
514.73	883.79
515.09	891.33
515.45	898.21
515.81	904.71
516.17	912.17
516.53	918.50
516.89	924.45
517.25	931.52
517.61	938.55
517.97	944.55
518.33	950.02
518.69	957.26
519.05	963.60
519.41	969.79
519.77	977.90
520.13	983.74
520.49	989.05
520.85	994.31
521.21	1001.48
521.57	1007.69
521.93	1012.71
522.29	1018.48
522.65	1023.14
523.01	1029.19
523.37	1034.50
523.73	1039.81
524.09	1045.43
524.45	1050.67
524.81	1055.33
525.17	1059.83
525.53	1064.07
525.89	1069.21
526.25	1073.74
526.61	1077.88
526.97	1081.76
527.33	1084.88
527.68	1091.33
528.04	1096.60
528.40	1101.14
528.76	1104.48
529.12	1107.79
529.48	1113.43
529.84	1117.76
530.20	1122.38
530.56	1127.14
530.91	1131.57
531.27	1136.14
531.63	1140.12
531.99	1143.74
532.35	1147.67
532.71	1151.14
533.07	1156.43
533.42	1162.90
533.78	1166.62
534.14	1171.64
534.50	1176.83
534.86	1181.38
535.21	1183.93
535.57	1188.02
535.93	1191.52
536.29	1197.02
536.65	1201.05
537.00	1203.50
537.36	1207.52
537.72	1211.81
538.08	1215.05
538.44	1217.50
538.79	1220.69
539.15	1223.95
539.51	1227.50
539.87	1232.02
540.22	1236.02
540.58	1239.31
540.94	1240.29
541.29	1243.74
541.65	1245.55
542.01	1248.62
542.37	1250.74
542.72	1252.57
543.08	1254.62
543.44	1258.62
543.79	1259.93
544.15	1262.62
544.51	1266.43
544.87	1269.36
545.22	1271.69
545.58	1273.76
545.94	1277.95
546.29	1280.83
546.65	1283.62
547.01	1286.88
547.36	1288.95
547.72	1292.21
548.07	1294.98
548.43	1298.02
548.79	1300.29
549.14	1303.12
549.50	1306.64
549.86	1308.95
550.21	1311.93
550.57	1315.64
550.92	1316.76
551.28	1320.12
551.64	1323.93
551.99	1326.21
552.35	1329.05
552.70	1331.74
553.06	1335.19
553.41	1338.38
553.77	1342.62
554.13	1346.26
554.48	1350.21
554.84	1354.64
555.19	1358.00
555.55	1363.26
555.90	1366.74
556.26	1370.64
556.61	1374.24
556.97	1376.69
557.32	1380.79
557.68	1385.14
558.03	1388.81
558.39	1394.60
558.74	1398.33
559.10	1402.26
559.45	1407.05
559.81	1411.19
560.16	1415.19
560.52	1419.67
560.87	1424.29
561.23	1427.57
561.58	1433.48
561.94	1437.12
562.29	1440.48
562.64	1445.31
563.00	1448.60
563.35	1453.10
563.71	1458.88
564.06	1464.33
564.42	1469.79
564.77	1476.24
565.12	1482.55
565.48	1490.00
565.83	1495.40
566.19	1501.26
566.54	1506.74
566.89	1511.69
567.25	1517.62
567.60	1524.64
567.96	1533.02
568.31	1539.40
568.66	1546.19
569.02	1551.05
569.37	1556.98
569.72	1562.79
570.08	1567.43
570.43	1572.14
570.78	1578.93
571.14	1583.60
571.49	1588.67
571.84	1594.07
572.20	1598.05
572.55	1602.98
572.90	1606.07
573.26	1609.74
573.61	1613.26
573.96	1617.71
574.31	1622.43
574.67	1626.76
575.02	1630.86
575.37	1632.10
575.72	1634.26
576.08	1638.05
576.43	1641.36
576.78	1644.95
577.13	1648.90
577.49	1652.64
577.84	1657.67
578.19	1660.33
578.54	1664.52
578.90	1669.67
579.25	1672.71
579.60	1676.69
579.95	1678.57
580.30	1681.93
580.66	1686.17
581.01	1690.31
581.36	1693.79
581.71	1696.79
582.06	1700.64
582.42	1703.40
582.77	1706.86
583.12	1710.48
583.47	1713.26
583.82	1716.02
584.17	1719.48
584.53	1722.64
584.88	1725.79
585.23	1728.14
585.58	1731.19
585.93	1732.93
586.28	1734.90
586.63	1738.24
586.98	1740.74
587.34	1744.07
587.69	1746.67
588.04	1749.57
588.39	1751.79
588.74	1752.36
589.09	1755.67
589.44	1756.57
589.79	1759.02
590.14	1761.12
590.49	1762.60
590.84	1763.31
591.19	1765.10
591.54	1766.57
591.89	1767.62
592.25	1770.64
592.60	1772.36
592.95	1772.93
593.30	1774.40
593.65	1775.10
594.00	1775.50
594.35	1782.07
594.70	1781.71
595.05	1781.86
595.40	1781.98
595.75	1782.12
596.10	1783.81
596.45	1783.43
596.80	1783.86
597.15	1784.19
597.50	1784.52
597.85	1785.81
598.19	1786.93
598.54	1786.48
598.89	1786.81
599.24	1787.57
599.59	1786.69
599.94	1786.02
600.29	1787.05
600.64	1786.60
600.99	1786.33
601.34	1787.10
601.69	1781.71
602.04	1781.43
602.39	1781.71
602.74	1781.95
603.08	1781.43
603.43	1781.88
603.78	1781.45
604.13	1781.74
604.48	1781.02
604.83	1780.50
605.18	1780.43
605.53	1779.24
605.87	1778.81
606.22	1776.79
606.57	1775.05
606.92	1773.14
607.27	1772.43
607.62	1770.83
607.96	1770.90
608.31	1769.86
608.66	1767.95
609.01	1766.02
609.36	1767.19
609.70	1765.60
610.05	1763.21
610.40	1762.26
610.75	1759.10
611.10	1757.19
611.44	1754.83
611.79	1752.33
612.14	1749.55
612.49	1746.50
612.83	1743.86
613.18	1741.10
613.53	1738.90
613.88	1735.62
614.22	1732.71
614.57	1729.24
614.92	1725.86
615.27	1721.62
615.61	1717.64
615.96	1713.71
616.31	1709.88
616.65	1706.93
617.00	1703.48
617.35	1700.26
617.70	1697.38
618.04	1693.50
618.39	1689.17
618.74	1685.33
619.08	1681.95
619.43	1678.69
619.78	1675.10
620.12	1671.95
620.47	1668.33
620.82	1664.62
621.16	1660.81
621.51	1657.86
621.85	1652.98
622.20	1648.74
622.55	1644.55
622.89	1640.60
623.24	1638.10
623.59	1634.69
623.93	1629.31
624.28	1625.02
624.62	1622.69
624.97	1618.76
625.32	1614.76
625.66	1611.17
626.01	1606.57
626.35	1603.24
626.70	1598.14
627.04	1594.43
627.39	1589.14
627.73	1585.76
628.08	1582.12
628.43	1577.60
628.77	1572.83
629.12	1569.62
629.46	1566.19
629.81	1562.29
630.15	1558.74
630.50	1553.17
630.84	1547.52
631.19	1542.50
631.53	1537.93
631.88	1530.02
632.22	1523.02
632.57	1519.76
632.91	1514.76
633.26	1510.62
633.60	1503.64
633.95	1498.64
634.29	1491.67
634.64	1488.00
634.98	1482.31
635.32	1477.31
635.67	1474.05
636.01	1469.55
636.36	1464.17
636.70	1459.40
637.05	1454.43
637.39	1448.74
637.73	1443.83
638.08	1440.00
638.42	1434.38
638.77	1429.83
639.11	1425.33
639.45	1421.02
639.80	1414.67
640.14	1409.93
640.49	1403.95
640.83	1398.93
641.17	1394.50
641.52	1389.69
641.86	1383.50
642.20	1378.88
642.55	1372.45
642.89	1365.79
643.23	1359.45
643.58	1354.26
643.92	1346.98
644.26	1340.50
644.61	1335.43
644.95	1329.14
645.29	1322.38
645.64	1317.26
645.98	1310.95
646.32	1304.90
646.66	1298.62
647.01	1292.57
647.35	1286.14
647.69	1279.86
648.04	1274.74
648.38	1268.29
648.72	1262.33
649.06	1256.31
649.41	1249.69
649.75	1243.26
650.09	1237.24
650.43	1230.81
650.78	1224.05
651.12	1217.98
651.46	1211.86
651.80	1204.86
652.14	1199.10
652.49	1193.81
652.83	1186.38
653.17	1179.36
653.51	1172.98
653.85	1166.10
654.20	1159.48
654.54	1152.52
654.88	1146.12
655.22	1140.05
655.56	1132.88
655.90	1126.48
656.25	1119.31
656.59	1112.60
656.93	1106.40
657.27	1100.64
657.61	1093.98
657.95	1087.29
658.29	1081.00
658.64	1074.55
658.98	1067.98
659.32	1060.79
659.66	1053.19
660.00	1047.38
660.34	1040.90
660.68	1034.45
661.02	1028.86
661.36	1022.38
661.70	1016.26
662.05	1009.81
662.39	1003.14
662.73	997.83
663.07	992.86
663.41	987.43
663.75	980.88
664.09	975.07
664.43	968.36
664.77	962.55
665.11	956.90
665.45	951.33
665.79	946.12
666.13	940.17
666.47	934.40
666.81	928.79
667.15	922.60
667.49	918.02
667.83	912.60
668.17	906.57
668.51	901.40
668.85	895.86
669.19	891.67
669.53	885.05
669.87	879.21
670.21	872.17
670.55	865.81
670.89	861.00
671.23	855.79
671.57	850.12
671.91	844.95
672.25	839.50
672.58	834.69
672.92	828.60
673.26	823.24
673.60	818.07
673.94	812.76
674.28	807.88
674.62	802.02
674.96	797.00
675.30	792.62
675.64	787.52
675.97	782.71
676.31	777.00
676.65	772.40
676.99	767.62
677.33	762.64
677.67	758.57
678.01	753.00
678.34	747.74
678.68	743.76
679.02	738.38
679.36	732.83
679.70	726.79
680.04	722.19
680.37	717.48
680.71	712.69
681.05	708.38
681.39	703.36
681.73	698.71
682.06	693.90
682.40	689.00
682.74	684.26
683.08	679.71
683.42	674.86
683.75	670.48
684.09	665.48
684.43	661.43
684.77	656.26
685.10	652.48
685.44	648.10
685.78	642.38
686.12	637.95
686.45	633.81
686.79	629.88
687.13	625.86
687.46	621.48
687.80	617.52
688.14	613.02
688.48	609.62
688.81	605.17
689.15	601.86
689.49	597.24
689.82	593.14
690.16	588.31
690.50	584.36
690.83	579.83
691.17	575.45
691.51	570.95
691.84	567.71
692.18	563.17
692.52	559.29
692.85	556.40
693.19	553.43
693.52	549.81
693.86	546.02
694.20	541.95
694.53	538.24
694.87	534.31
695.21	530.43
695.54	526.12
695.88	521.57
696.21	517.26
696.55	513.74
696.88	510.10
697.22	506.62
697.56	502.79
697.89	499.38
698.23	496.43
698.56	492.98
698.90	489.31
699.23	485.71
699.57	482.07
699.90	478.31
700.24	474.60
700.58	471.40
700.91	468.43
701.25	466.76
701.58	464.31
701.92	461.67
702.25	458.38
702.59	455.40
702.92	452.93
703.26	449.67
703.59	446.81
703.93	445.93
704.26	443.38
704.60	440.69
704.93	437.67
705.26	434.67
705.60	432.43
705.93	429.45
706.27	427.40
706.60	425.40
706.94	423.29
707.27	420.64
707.61	418.12
707.94	415.38
708.27	411.02
708.61	408.00
708.94	405.52
709.28	403.67
709.61	401.10
709.94	399.19
710.28	397.14
710.61	395.21
710.95	390.60
711.28	389.81
711.61	387.90
711.95	386.57
712.28	384.26
712.61	382.26
712.95	381.19
713.28	380.10
713.61	377.57
713.95	375.07
714.28	372.90
714.61	370.90
714.95	368.76
715.28	366.88
715.61	364.83
715.95	362.71
716.28	360.43
716.61	358.98
716.95	356.83
717.28	354.93
717.61	352.88
717.94	350.98
718.28	347.81
718.61	345.86
718.94	343.36
719.27	341.81
719.61	339.71
719.94	337.60
720.27	334.69
720.60	333.10
720.94	331.62
721.27	330.24
721.60	328.93
721.93	327.36
722.27	327.12
722.60	325.90
722.93	324.33
723.26	323.64
723.59	321.83
723.93	320.86
724.26	319.79
724.59	318.52
724.92	317.64
725.25	317.14
725.59	315.81
725.92	315.02
726.25	313.76
726.58	312.88
726.91	311.60
727.24	310.69
727.57	309.29
727.91	307.71
728.24	306.86
728.57	305.45
728.90	305.05
729.23	302.79
729.56	302.79
729.89	302.05
730.22	300.50
730.55	299.50
730.89	298.71
731.22	297.45
731.55	296.19
731.88	295.38
732.21	293.71
732.54	292.88
732.87	292.02
733.20	291.05
733.53	290.02
733.86	289.19
734.19	287.76
734.52	287.38
734.85	288.17
735.18	286.95
735.51	286.71
735.84	285.81
736.17	285.81
736.50	283.88
736.83	285.40
737.16	284.64
737.49	284.05
737.82	282.83
738.15	282.21
738.48	281.50
738.81	280.50
739.14	279.69
739.47	278.83
739.80	277.90
740.13	277.79
740.46	276.86
740.79	275.71
741.12	275.19
741.45	274.33
741.78	272.57
742.11	272.57
742.44	271.38
742.77	270.98
743.10	269.93
743.43	269.12
743.75	265.88
744.08	267.83
744.41	267.02
744.74	266.33
745.07	265.45
745.40	265.26
745.73	265.48
746.06	264.98
746.39	264.71
746.71	263.88
747.04	262.95
747.37	262.38
747.70	262.40
748.03	261.88
748.36	261.43
748.68	260.62
749.01	259.26
749.34	258.93
749.67	258.36
750.00	258.12
750.33	259.19
750.65	259.29
750.98	256.45
751.31	256.05
751.64	255.67
751.97	256.43
752.29	255.74
752.62	254.57
752.95	254.07
753.28	253.24
753.60	252.83
753.93	252.64
754.26	252.29
754.59	251.21
754.91	250.48
755.24	249.98
755.57	249.36
755.90	248.88
756.22	248.14
756.55	247.19
756.88	246.31
757.20	244.60
757.53	243.36
757.86	242.74
758.19	242.64
758.51	242.05
758.84	240.50
759.17	240.05
759.49	239.64
759.82	240.21
760.15	239.81
760.47	239.69
760.80	238.83
761.13	239.07
761.45	238.95
761.78	238.79
762.11	238.52
762.43	238.02
762.76	237.67
763.08	237.76
763.41	237.74
763.74	237.57
764.06	237.36
764.39	237.31
764.71	236.90
765.04	236.07
765.37	235.62
765.69	235.60
766.02	235.19
766.34	234.98
766.67	233.86
767.00	234.00
767.32	234.62
767.65	235.79
767.97	234.95
768.30	234.43
768.62	234.26
768.95	233.81
769.27	233.83
769.60	234.00
769.92	233.33
770.25	232.88
770.57	232.31
770.90	232.05
771.22	231.62
771.55	231.67
771.87	231.83
772.20	232.02
772.52	233.12
772.85	235.29
773.17	235.02
773.50	234.71
773.82	234.36
774.15	233.12
774.47	231.40
774.80	231.24
775.12	231.05
775.45	231.19
775.77	230.98
776.09	230.81
776.42	230.50
776.74	230.98
777.07	230.60
777.39	230.52
777.72	229.98
778.04	229.93
778.36	229.67
778.69	229.62
779.01	229.29
779.33	227.57
779.66	225.21
779.98	224.81
780.31	224.86
780.63	225.45
780.95	225.57
781.28	225.57
781.60	225.45
781.92	225.29
782.25	224.83
782.57	224.81
782.89	224.48
783.22	224.21
783.54	223.69
783.86	224.02
784.19	223.83
784.51	224.52
784.83	224.38
785.16	224.10
785.48	223.95
785.80	223.98
786.12	224.21
786.45	224.26
786.77	224.33
787.09	224.29
787.42	223.52
787.74	223.57
788.06	223.57
788.38	223.40
788.71	223.21
789.03	223.26
789.35	223.26
789.67	223.00
789.99	223.33
790.32	223.00
790.64	222.88
790.96	224.45
791.28	223.69
791.61	223.48
791.93	223.52
792.25	223.31
792.57	224.52
792.89	223.76
793.21	223.62
793.54	223.33
793.86	223.07
794.18	223.10
794.50	222.67
794.82	222.64
795.14	222.74
795.47	223.29
795.79	223.07
796.11	222.67
796.43	222.60
796.75	222.14
797.07	222.50
797.39	222.29
797.71	220.74
798.04	220.79
798.36	221.02
798.68	220.88
799.00	220.86
799.32	219.74
799.64	220.21
799.96	220.19
800.28	220.64
800.60	220.33
800.92	220.36
801.24	220.52
801.56	220.69
801.89	220.43
802.21	220.43
802.53	220.10
802.85	220.64
803.17	221.57
803.49	221.21
803.81	220.83
804.13	220.74
804.45	220.64
804.77	220.64
805.09	220.45
805.41	220.19
805.73	219.71
806.05	219.29
806.37	218.88
806.69	218.67
807.01	218.43
807.33	218.43
807.65	217.57
807.97	218.29
808.28	217.90
808.60	217.88
808.92	217.55
809.24	218.93
809.56	218.50
809.88	217.90
810.20	217.93
810.52	218.24
810.84	218.00
811.16	217.52
811.48	217.33
811.80	217.98
812.12	218.05
812.43	218.57
812.75	218.64
813.07	218.60
813.39	218.74
813.71	218.31
814.03	218.24
814.35	218.40
814.67	217.40
814.98	217.31
815.30	217.14
815.62	216.71
815.94	215.21
816.26	215.17
816.58	214.64
816.89	214.86
817.21	214.38
817.53	214.60
817.85	214.71
818.17	214.74
818.48	213.88
818.80	214.14
819.12	213.81
819.44	213.45
819.76	213.21
820.07	212.95
820.39	213.05
820.71	213.21
821.03	213.07
821.34	213.02
821.66	213.38
821.98	213.74
822.30	213.74
822.61	215.07
822.93	214.88
823.25	214.86
823.57	214.74
823.88	214.93
824.20	214.81
824.52	215.26
824.83	215.07
825.15	214.83
825.47	214.64
825.79	214.69
826.10	214.74
826.42	215.00
826.74	215.48
827.05	215.45
827.37	215.69
827.69	215.64
828.00	215.57
828.32	215.38
828.64	214.79
828.95	215.90
829.27	215.33
829.58	215.21
829.90	215.83
830.22	216.05
830.53	215.69
830.85	215.50
831.17	215.02
831.48	215.19
831.80	215.31
832.11	215.12
832.43	214.98
832.75	215.05
833.06	215.98
833.38	215.14
833.69	215.07
834.01	214.95
834.32	215.02
834.64	214.95
834.96	215.00
835.27	214.95
835.59	214.00
835.90	213.40
836.22	213.29
836.53	212.52
836.85	212.19
837.16	214.45
837.48	214.40
837.79	215.14
838.11	215.05
838.42	215.19
838.74	215.55
839.05	215.29
839.37	215.17
839.68	213.88
840.00	213.98
840.31	214.48
840.63	214.26
840.94	214.10
841.26	214.14
841.57	214.24
841.88	214.62
842.20	214.33
842.51	214.29
842.83	214.36
843.14	216.31
843.46	216.33
843.77	215.05
844.08	215.17
844.40	214.33
844.71	214.10
845.03	213.93
845.34	213.67
845.65	213.69
845.97	213.55
846.28	213.81
846.60	213.90
846.91	213.38
847.22	213.26
847.54	213.88
847.85	213.88
848.16	213.60
848.48	213.26
848.79	214.43
849.10	214.76
849.42	215.05
849.73	213.19
850.04	213.21
850.36	212.64
850.67	212.83
850.98	213.07
851.30	213.43
851.61	213.21
851.92	213.40
852.23	213.95
852.55	214.21
852.86	214.14
853.17	214.50
853.49	214.83
853.80	215.31
854.11	215.52
854.42	216.00
854.74	215.76
855.05	215.88
855.36	214.64
855.67	214.62
855.99	214.60
856.30	217.24
856.61	217.10
856.92	217.24
857.23	217.26
857.55	217.07
857.86	216.83
858.17	217.45
858.48	217.05
858.79	216.86
859.11	216.88
859.42	216.95
859.73	216.50
860.04	216.69
860.35	216.12
860.66	215.21
860.98	214.83
861.29	215.02
861.60	214.76
861.91	215.48
862.22	215.21
862.53	214.98
862.84	212.29
863.16	212.79
863.47	212.43
863.78	212.17
864.09	212.14
864.40	212.33
864.71	212.26
865.02	212.52
865.33	212.26
865.64	212.02
865.95	211.81
866.27	213.21
866.58	212.86
866.89	213.02
867.20	213.17
867.51	212.98
867.82	212.93
868.13	213.88
868.44	213.40
868.75	213.86
869.06	213.98
869.37	214.45
869.68	214.02
869.99	214.21
870.30	214.50
870.61	214.79
870.92	214.52
871.23	214.38
871.54	214.71
871.85	214.95
872.16	215.26
872.47	215.17
872.78	213.95
873.09	214.07
873.40	214.10
873.71	214.21
874.02	214.14
874.33	214.19
874.64	213.62
874.95	214.00
875.26	213.36
875.56	213.29
875.87	213.12
876.18	213.17
876.49	215.26
876.80	214.98
877.11	214.67
877.42	214.83
877.73	214.74
878.04	214.29
878.35	214.17
878.66	213.93
878.96	214.02
879.27	213.90
879.58	213.74
879.89	213.36
880.20	213.71
880.51	213.83
880.82	213.57
881.12	213.60
881.43	212.98
881.74	212.95
882.05	212.64
882.36	212.62
882.67	212.43
882.97	210.26
883.28	210.10
883.59	210.05
883.90	210.10
884.21	210.52
884.51	210.33
884.82	210.21
885.13	210.29
885.44	210.17
885.74	210.12
886.05	210.10
886.36	210.24
886.67	209.83
886.98	210.86
887.28	211.31
887.59	211.29
887.90	211.50
888.20	211.38
888.51	212.05
888.82	211.69
889.13	211.76
889.43	213.31
889.74	213.19
890.05	213.24
890.35	213.07
890.66	212.52
890.97	212.52
891.28	212.29
891.58	212.38
891.89	212.48
892.20	212.45
892.50	212.12
892.81	211.90
893.12	211.71
893.42	210.60
893.73	210.62
894.04	210.67
894.34	210.83
894.65	210.79
894.95	210.48
895.26	210.67
895.57	211.93
895.87	210.31
896.18	210.71
896.48	210.81
896.79	211.07
897.10	211.45
897.40	211.71
897.71	212.17
898.01	211.90
898.32	212.36
898.63	212.24
898.93	212.55
899.24	212.88
899.54	212.95
899.85	213.14
900.15	213.07
900.46	213.17
900.76	213.31
901.07	213.14
901.38	212.95
901.68	213.24
901.99	211.95
902.29	212.02
902.60	211.74
902.90	211.55
903.21	211.21
903.51	210.93
903.82	211.24
904.12	211.17
904.43	211.48
904.73	211.17
905.03	211.55
905.34	213.57
905.64	213.50
905.95	213.69
906.25	213.36
906.56	213.17
906.86	212.76
907.17	212.62
907.47	212.88
907.77	212.93
908.08	212.55
908.38	212.74
908.69	212.69
908.99	213.14
909.30	213.55
909.60	213.71
909.90	213.83
910.21	213.26
910.51	213.07
910.81	212.95
911.12	213.05
911.42	212.95
911.73	210.76
912.03	210.81
912.33	211.05
912.64	211.36
912.94	211.12
913.24	211.17
913.55	210.83
913.85	210.81
914.15	211.29
914.46	211.45
914.76	211.31
915.06	211.12
915.37	210.88
915.67	210.52
915.97	210.55
916.27	210.10
916.58	210.05
916.88	209.88
917.18	209.79
917.49	211.21
917.79	211.12
918.09	211.52
918.39	211.98
918.70	211.71
919.00	211.60
919.30	212.55
919.60	212.31
919.91	212.24
920.21	212.21
920.51	211.67
920.81	211.57
921.12	211.95
921.42	212.00
921.72	212.26
922.02	212.67
922.32	213.07
922.63	213.31
922.93	214.38
923.23	214.62
923.53	214.52
923.83	213.24
924.13	213.43
924.44	213.31
924.74	213.52
925.04	213.95
925.34	213.90
925.64	213.50
925.94	213.55
926.24	214.81
926.55	214.62
926.85	215.02
927.15	215.05
927.45	214.93
927.75	214.76
928.05	214.62
928.35	214.24
928.65	214.36
928.95	214.45
929.26	213.95
929.56	214.07
929.86	214.14
930.16	213.90
930.46	213.86
930.76	213.81
931.06	213.19
931.36	212.76
931.66	213.14
931.96	212.98
932.26	213.31
932.56	212.52
932.86	212.71
933.16	212.69
933.46	212.48
933.76	212.24
934.06	212.79
934.36	213.67
934.66	213.62
934.96	213.43
935.26	213.64
935.56	213.88
935.86	213.64
936.16	213.64
936.46	213.43
936.76	213.19
937.06	213.24
937.36	213.24
937.66	213.19
937.96	212.98
938.26	212.69
938.56	212.33
938.86	212.26
939.16	212.71
939.46	212.93
939.76	213.17
940.06	212.98
940.35	212.57
940.65	211.10
940.95	211.21
941.25	210.74
941.55	210.45
941.85	210.29
942.15	210.88
942.45	211.40
942.75	211.36
943.04	211.50
943.34	211.74
943.64	211.55
943.94	211.29
944.24	211.29
944.54	211.29
944.84	211.36
945.13	211.14
945.43	210.67
945.73	210.48
946.03	210.43
946.33	210.31
946.62	210.19
946.92	210.17
947.22	210.12
947.52	210.31
947.82	210.45
948.11	210.21
948.41	209.64
948.71	209.05
949.01	209.29
949.31	209.05
949.60	208.95
949.90	209.21
950.20	209.29
950.50	209.10
950.79	208.79
951.09	209.00
951.39	208.86
951.69	208.93
951.98	209.29
952.28	209.21
952.58	209.33
952.87	209.57
953.17	210.05
953.47	209.88
953.76	209.79
954.06	209.48
954.36	209.10
954.66	209.10
954.95	209.60
955.25	209.67
955.55	209.83
955.84	209.36
956.14	209.71
956.44	209.81
956.73	209.55
957.03	209.98
957.32	210.07
957.62	210.21
957.92	210.55
958.21	210.26
958.51	212.67
958.81	212.93
959.10	213.02
959.40	213.60
959.69	213.76
959.99	214.07
960.29	214.14
960.58	214.19
960.88	214.98
961.17	214.76
961.47	214.88
961.76	214.76
962.06	215.31
962.36	214.79
962.65	215.14
962.95	215.55
963.24	215.45
963.54	215.52
963.83	215.55
964.13	215.36
964.42	214.83
964.72	213.14
965.01	213.36
965.31	213.10
965.60	212.55
965.90	213.71
966.19	213.14
966.49	213.43
966.78	213.36
967.08	213.12
967.37	213.19
967.67	213.00
967.96	213.33
968.26	213.02
968.55	213.26
968.85	212.86
969.14	212.79
969.43	212.71
969.73	212.52
970.02	212.60
970.32	212.69
970.61	212.81
970.91	212.24
971.20	211.67
971.49	211.36
971.79	211.48
972.08	210.14
972.38	210.36
972.67	210.12
972.96	210.64
973.26	210.12
973.55	210.69
973.85	210.43
974.14	210.02
974.43	210.40
974.73	210.21
975.02	210.26
975.31	210.12
975.61	210.12
975.90	209.88
976.19	209.55
976.49	209.52
976.78	209.71
977.07	209.57
977.37	210.02
977.66	210.36
977.95	210.05
978.24	210.26
978.54	210.71
978.83	210.57
979.12	210.21
979.42	210.36
979.71	209.81
980.00	209.62
980.29	209.76
980.59	209.31
980.88	209.95
981.17	209.95
981.46	210.12
981.76	209.86
982.05	210.69
982.34	210.88
982.63	210.76
982.93	210.67
983.22	211.31
983.51	211.19
983.80	211.50
984.09	211.95
984.39	211.81
984.68	211.40
984.97	211.45
985.26	211.40
985.55	211.69
985.85	211.29
986.14	211.93
986.43	212.29
986.72	212.12
987.01	211.36
987.30	211.38
987.59	211.26
987.89	211.64
988.18	210.86
988.47	210.60
988.76	210.64
989.05	210.40
989.34	209.93
989.63	210.29
989.92	209.95
990.22	209.50
990.51	209.55
990.80	209.76
991.09	210.10
991.38	210.26
991.67	209.67
991.96	209.57
992.25	209.50
992.54	209.05
992.83	209.12
993.12	209.17
993.41	209.21
993.70	210.12
993.99	210.43
994.28	210.88
994.58	211.31
994.87	211.02
995.16	211.02
995.45	211.24
995.74	210.69
996.03	211.07
996.32	211.52
996.61	211.90
996.90	211.67
997.19	211.64
997.48	211.62
997.77	211.57
998.06	211.76
998.34	211.64
998.63	211.79
998.92	211.98
999.21	212.43
999.50	212.69
999.79	211.64
1000.08	211.57
1000.37	211.45
1000.66	211.33
1000.95	212.10
1001.24	212.29
1001.53	212.36
1001.82	212.24
1002.11	211.69
1002.40	211.74
1002.68	212.24
1002.97	213.79
1003.26	213.45
1003.55	213.19
1003.84	213.57
1004.13	214.29
1004.42	214.17
1004.71	214.36
1004.99	214.19
1005.28	214.64
1005.57	214.24
1005.86	214.38
1006.15	214.00
1006.44	213.90
1006.72	214.00
1007.01	213.45
1007.30	213.43
1007.59	213.19
1007.88	213.24
1008.17	213.52
1008.45	213.05
1008.74	212.31
1009.03	211.17
1009.32	211.00
1009.60	211.02
1009.89	210.74
1010.18	209.90
1010.47	209.93
1010.76	209.64
1011.04	209.57
1011.33	209.52
1011.62	209.88
1011.91	210.05
1012.19	210.43
1012.48	210.19
1012.77	210.07
1013.05	211.10
1013.34	211.26
1013.63	211.10
1013.92	211.55
1014.20	211.38
1014.49	211.45
1014.78	211.33
1015.06	210.62
1015.35	210.74
1015.64	211.02
1015.92	211.26
1016.21	211.45
1016.50	211.50
1016.78	211.90
1017.07	212.19
1017.36	211.76
1017.64	211.38
1017.93	211.24
1018.22	210.88
1018.50	210.93
1018.79	211.02
1019.08	209.90
1019.36	210.02
1019.65	209.98
1019.93	210.26
1020.22	210.33
1020.51	211.52
1020.79	211.19
1021.08	207.00
1021.36	206.50
1021.65	211.50
1021.94	207.50
1022.22	214.50
1022.51	207.00
1022.79	221.50
1023.08	209.00
1023.36	235.50
1023.65	201.00
>>>>>End Processed Spectral Data<<<<<
