SpectraSuite Data File
++++++++++++++++++++++++++++++++++++
Date: Tue Apr 02 18:37:57 EDT 2013
User: group
Dark Spectrum Present: No
Reference Spectrum Present: No
Number of Sampled Component Spectra: 1
Spectrometers: USB2E7196
Integration Time (usec): 580000 (USB2E7196)
Spectra Averaged: 2 (USB2E7196)
Boxcar Smoothing: 10 (USB2E7196)
Correct for Electrical Dark: No (USB2E7196)
Strobe/Lamp Enabled: No (USB2E7196)
Correct for Detector Non-linearity: No (USB2E7196)
Correct for Stray Light: No (USB2E7196)
Number of Pixels in Processed Spectrum: 2048
>>>>>Begin Processed Spectral Data<<<<<
339.09	0.00
339.48	191.50
339.86	195.50
340.24	197.00
340.63	202.00
341.01	233.50
341.39	208.00
341.78	208.00
342.16	213.50
342.54	207.50
342.93	198.05
343.31	207.98
343.69	208.74
344.07	209.21
344.46	209.95
344.84	210.43
345.22	209.07
345.60	209.48
345.99	209.50
346.37	209.19
346.75	209.26
347.13	209.36
347.52	209.57
347.90	210.55
348.28	210.76
348.66	211.40
349.05	210.90
349.43	211.05
349.81	211.19
350.19	211.43
350.57	211.60
350.96	211.69
351.34	211.79
351.72	211.55
352.10	211.81
352.48	211.48
352.87	211.24
353.25	211.26
353.63	210.76
354.01	210.86
354.39	211.14
354.77	210.98
355.15	211.40
355.54	211.24
355.92	210.48
356.30	210.48
356.68	211.57
357.06	211.74
357.44	211.40
357.82	211.40
358.20	212.17
358.58	212.10
358.97	212.36
359.35	212.98
359.73	213.69
360.11	213.57
360.49	214.07
360.87	213.90
361.25	214.36
361.63	215.19
362.01	215.40
362.39	215.45
362.77	215.76
363.15	215.71
363.53	215.74
363.91	215.95
364.29	215.81
364.67	214.10
365.05	214.10
365.43	214.17
365.81	214.45
366.19	214.57
366.57	215.48
366.95	215.43
367.33	214.74
367.71	214.69
368.09	215.17
368.47	215.02
368.85	215.26
369.23	215.81
369.61	215.36
369.99	215.90
370.37	215.93
370.75	216.95
371.13	216.69
371.51	216.43
371.89	216.45
372.27	216.43
372.65	216.57
373.03	216.52
373.41	216.74
373.78	216.76
374.16	215.83
374.54	215.14
374.92	214.95
375.30	215.14
375.68	214.83
376.06	215.00
376.44	215.10
376.82	215.40
377.19	215.14
377.57	214.90
377.95	214.31
378.33	214.19
378.71	213.07
379.09	213.24
379.47	213.76
379.84	213.79
380.22	213.86
380.60	213.76
380.98	213.81
381.36	213.76
381.73	213.31
382.11	213.81
382.49	213.90
382.87	213.76
383.25	213.55
383.62	216.00
384.00	215.67
384.38	215.81
384.76	216.10
385.13	216.83
385.51	216.81
385.89	216.52
386.27	216.81
386.64	217.10
387.02	216.88
387.40	216.67
387.78	216.52
388.15	217.02
388.53	216.69
388.91	216.69
389.29	216.57
389.66	216.83
390.04	216.48
390.42	216.69
390.79	216.79
391.17	216.81
391.55	214.57
391.92	214.60
392.30	214.48
392.68	214.05
393.05	213.74
393.43	214.02
393.81	214.00
394.18	213.50
394.56	213.43
394.94	213.83
395.31	213.69
395.69	214.38
396.06	214.52
396.44	214.81
396.82	214.74
397.19	215.93
397.57	216.10
397.95	216.55
398.32	216.17
398.70	216.48
399.07	217.02
399.45	216.86
399.82	216.64
400.20	216.52
400.58	216.57
400.95	216.02
401.33	216.40
401.70	218.24
402.08	218.50
402.45	218.79
402.83	219.48
403.20	219.76
403.58	219.60
403.95	219.93
404.33	220.33
404.71	220.71
405.08	222.00
405.46	222.05
405.83	222.40
406.21	222.76
406.58	223.29
406.96	223.55
407.33	224.40
407.70	225.26
408.08	227.67
408.45	228.45
408.83	229.64
409.20	229.95
409.58	229.38
409.95	230.71
410.33	231.52
410.70	231.86
411.08	233.17
411.45	234.60
411.82	235.60
412.20	237.21
412.57	239.79
412.95	239.31
413.32	241.45
413.69	243.05
414.07	245.00
414.44	246.98
414.82	249.67
415.19	252.57
415.56	254.95
415.94	256.38
416.31	259.93
416.68	262.88
417.06	266.88
417.43	271.10
417.81	275.17
418.18	279.57
418.55	283.90
418.93	288.55
419.30	293.14
419.67	298.17
420.04	303.67
420.42	308.29
420.79	316.12
421.16	322.62
421.54	330.36
421.91	337.21
422.28	344.52
422.66	351.88
423.03	360.57
423.40	369.10
423.77	377.60
424.15	385.52
424.52	394.50
424.89	404.50
425.26	413.14
425.64	422.07
426.01	431.67
426.38	442.67
426.75	454.02
427.13	465.02
427.50	476.86
427.87	488.43
428.24	500.90
428.61	511.86
428.99	524.90
429.36	537.14
429.73	551.17
430.10	564.57
430.47	578.33
430.85	590.79
431.22	605.36
431.59	622.17
431.96	637.86
432.33	654.76
432.70	670.74
433.08	690.55
433.45	709.07
433.82	728.02
434.19	748.17
434.56	768.17
434.93	786.88
435.30	805.48
435.68	826.62
436.05	847.24
436.42	867.69
436.79	886.21
437.16	907.48
437.53	929.45
437.90	951.19
438.27	972.50
438.64	994.69
439.01	1016.17
439.38	1033.81
439.75	1051.88
440.13	1072.55
440.50	1092.24
440.87	1107.45
441.24	1123.52
441.61	1140.83
441.98	1153.38
442.35	1168.40
442.72	1185.31
443.09	1201.69
443.46	1211.19
443.83	1217.60
444.20	1222.90
444.57	1231.50
444.94	1235.67
445.31	1239.43
445.68	1246.05
446.05	1249.62
446.42	1248.31
446.79	1246.40
447.16	1244.36
447.53	1243.10
447.90	1235.29
448.27	1227.24
448.64	1217.07
449.01	1209.55
449.37	1196.24
449.74	1183.83
450.11	1169.64
450.48	1151.14
450.85	1132.62
451.22	1117.74
451.59	1103.45
451.96	1090.50
452.33	1071.67
452.70	1054.83
453.07	1034.52
453.43	1011.67
453.80	990.79
454.17	971.95
454.54	953.71
454.91	934.24
455.28	915.21
455.65	896.83
456.02	882.26
456.38	867.67
456.75	849.17
457.12	833.12
457.49	817.52
457.86	800.33
458.23	788.31
458.59	774.10
458.96	759.67
459.33	746.79
459.70	733.81
460.07	723.81
460.43	712.05
460.80	702.00
461.17	692.98
461.54	683.02
461.91	673.71
462.27	664.24
462.64	655.81
463.01	647.26
463.38	640.33
463.74	628.55
464.11	620.36
464.48	613.29
464.85	606.31
465.21	600.90
465.58	595.62
465.95	588.02
466.32	582.31
466.68	576.36
467.05	570.50
467.42	564.48
467.78	558.07
468.15	552.64
468.52	547.95
468.88	541.50
469.25	535.98
469.62	531.88
469.98	526.60
470.35	522.60
470.72	518.14
471.08	512.71
471.45	509.62
471.82	506.38
472.18	502.88
472.55	499.86
472.92	495.83
473.28	492.14
473.65	488.76
474.02	485.88
474.38	483.79
474.75	481.71
475.11	479.55
475.48	477.57
475.85	475.36
476.21	473.00
476.58	471.79
476.94	470.57
477.31	469.07
477.67	467.86
478.04	466.43
478.41	465.48
478.77	466.98
479.14	465.52
479.50	464.93
479.87	464.45
480.23	464.43
480.60	464.33
480.96	464.31
481.33	466.02
481.69	465.93
482.06	465.52
482.42	466.26
482.79	466.74
483.15	467.55
483.52	468.88
483.88	469.93
484.25	470.81
484.61	471.62
484.98	472.43
485.34	474.67
485.71	476.86
486.07	478.52
486.44	478.36
486.80	480.71
487.17	482.33
487.53	485.45
487.90	488.19
488.26	491.79
488.62	495.45
488.99	497.95
489.35	501.43
489.72	505.17
490.08	508.52
490.44	512.02
490.81	516.19
491.17	520.40
491.54	525.14
491.90	529.83
492.26	534.79
492.63	539.83
492.99	544.50
493.36	549.76
493.72	555.50
494.08	561.62
494.45	568.19
494.81	574.67
495.17	580.33
495.54	587.07
495.90	593.50
496.26	599.40
496.63	606.10
496.99	613.00
497.35	620.50
497.72	628.36
498.08	635.88
498.44	643.57
498.80	651.43
499.17	659.17
499.53	667.21
499.89	676.62
500.26	685.79
500.62	694.40
500.98	703.71
501.34	713.10
501.71	722.55
502.07	731.05
502.43	740.19
502.79	749.76
503.16	759.24
503.52	769.12
503.88	779.12
504.24	788.88
504.60	799.12
504.97	809.45
505.33	818.60
505.69	829.40
506.05	839.81
506.41	850.21
506.78	860.62
507.14	870.93
507.50	880.95
507.86	891.38
508.22	901.95
508.59	912.00
508.95	921.86
509.31	932.62
509.67	943.67
510.03	953.93
510.39	964.45
510.75	974.45
511.12	983.86
511.48	994.50
511.84	1004.60
512.20	1014.40
512.56	1024.95
512.92	1035.76
513.28	1045.48
513.64	1054.76
514.00	1064.19
514.37	1073.88
514.73	1083.60
515.09	1093.05
515.45	1101.62
515.81	1110.90
516.17	1120.14
516.53	1129.00
516.89	1136.55
517.25	1144.71
517.61	1154.02
517.97	1162.64
518.33	1170.69
518.69	1178.76
519.05	1186.98
519.41	1194.55
519.77	1203.64
520.13	1210.45
520.49	1216.64
520.85	1223.81
521.21	1232.10
521.57	1238.90
521.93	1245.98
522.29	1252.83
522.65	1259.40
523.01	1265.98
523.37	1272.14
523.73	1277.79
524.09	1284.45
524.45	1290.21
524.81	1295.50
525.17	1301.36
525.53	1306.60
525.89	1311.88
526.25	1317.21
526.61	1321.33
526.97	1326.02
527.33	1329.62
527.68	1336.12
528.04	1341.21
528.40	1345.60
528.76	1349.48
529.12	1353.60
529.48	1357.90
529.84	1361.67
530.20	1365.62
530.56	1369.76
530.91	1373.67
531.27	1376.98
531.63	1380.17
531.99	1383.24
532.35	1386.45
532.71	1388.57
533.07	1391.93
533.42	1397.76
533.78	1401.40
534.14	1404.88
534.50	1407.62
534.86	1411.88
535.21	1412.55
535.57	1416.45
535.93	1419.38
536.29	1422.40
536.65	1425.88
537.00	1427.93
537.36	1430.55
537.72	1432.62
538.08	1434.52
538.44	1435.93
538.79	1439.07
539.15	1440.93
539.51	1443.90
539.87	1446.69
540.22	1448.88
540.58	1450.50
540.94	1450.12
541.29	1450.55
541.65	1451.17
542.01	1452.55
542.37	1452.36
542.72	1452.90
543.08	1452.95
543.44	1453.50
543.79	1452.17
544.15	1452.52
544.51	1453.76
544.87	1454.05
545.22	1453.36
545.58	1453.67
545.94	1453.67
546.29	1452.36
546.65	1451.79
547.01	1450.90
547.36	1450.07
547.72	1449.02
548.07	1448.07
548.43	1446.60
548.79	1446.24
549.14	1445.36
549.50	1445.05
549.86	1443.52
550.21	1442.10
550.57	1440.64
550.92	1437.86
551.28	1437.98
551.64	1436.12
551.99	1433.90
552.35	1432.00
552.70	1431.36
553.06	1429.93
553.41	1428.98
553.77	1429.31
554.13	1428.43
554.48	1427.95
554.84	1426.40
555.19	1425.31
555.55	1425.50
555.90	1424.17
556.26	1422.62
556.61	1420.10
556.97	1418.19
557.32	1416.74
557.68	1415.43
558.03	1413.86
558.39	1412.83
558.74	1410.86
559.10	1409.64
559.45	1407.71
559.81	1406.00
560.16	1403.14
560.52	1401.31
560.87	1399.43
561.23	1395.90
561.58	1395.31
561.94	1392.26
562.29	1390.60
562.64	1389.14
563.00	1385.79
563.35	1384.05
563.71	1382.14
564.06	1381.38
564.42	1379.74
564.77	1378.05
565.12	1378.05
565.48	1377.98
565.83	1378.24
566.19	1376.83
566.54	1374.55
566.89	1373.19
567.25	1372.64
567.60	1373.67
567.96	1374.43
568.31	1374.12
568.66	1373.55
569.02	1369.64
569.37	1368.38
569.72	1366.83
570.08	1364.43
570.43	1362.57
570.78	1360.48
571.14	1359.48
571.49	1357.95
571.84	1355.90
572.20	1354.29
572.55	1351.17
572.90	1348.07
573.26	1343.95
573.61	1341.43
573.96	1338.69
574.31	1335.93
574.67	1331.93
575.02	1328.24
575.37	1322.95
575.72	1318.81
576.08	1315.60
576.43	1313.48
576.78	1309.95
577.13	1305.71
577.49	1302.12
577.84	1298.24
578.19	1294.64
578.54	1290.29
578.90	1286.21
579.25	1282.69
579.60	1278.12
579.95	1274.26
580.30	1269.71
580.66	1266.95
581.01	1262.60
581.36	1259.14
581.71	1255.50
582.06	1253.07
582.42	1248.98
582.77	1245.10
583.12	1241.29
583.47	1236.76
583.82	1231.67
584.17	1227.88
584.53	1225.52
584.88	1222.57
585.23	1219.55
585.58	1215.31
585.93	1211.26
586.28	1207.76
586.63	1203.60
586.98	1200.14
587.34	1195.95
587.69	1191.95
588.04	1187.02
588.39	1183.19
588.74	1178.31
589.09	1173.93
589.44	1168.52
589.79	1163.95
590.14	1159.48
590.49	1154.36
590.84	1149.60
591.19	1145.90
591.54	1141.67
591.89	1136.12
592.25	1133.07
592.60	1127.71
592.95	1123.64
593.30	1119.38
593.65	1114.88
594.00	1110.19
594.35	1111.69
594.70	1106.67
595.05	1102.76
595.40	1098.12
595.75	1093.17
596.10	1090.02
596.45	1086.12
596.80	1081.71
597.15	1077.05
597.50	1072.52
597.85	1069.26
598.19	1065.31
598.54	1061.14
598.89	1057.12
599.24	1053.64
599.59	1047.60
599.94	1042.31
600.29	1037.95
600.64	1033.69
600.99	1029.50
601.34	1025.33
601.69	1015.50
602.04	1010.67
602.39	1005.40
602.74	1001.74
603.08	997.55
603.43	993.26
603.78	988.17
604.13	983.50
604.48	979.21
604.83	975.24
605.18	971.00
605.53	966.71
605.87	962.05
606.22	957.07
606.57	952.14
606.92	947.43
607.27	943.90
607.62	939.29
607.96	935.43
608.31	931.24
608.66	927.21
609.01	922.57
609.36	919.88
609.70	916.29
610.05	911.19
610.40	907.38
610.75	902.43
611.10	898.38
611.44	894.52
611.79	890.10
612.14	886.19
612.49	879.95
612.83	875.26
613.18	870.83
613.53	866.55
613.88	861.69
614.22	856.95
614.57	852.48
614.92	848.05
615.27	843.36
615.61	837.76
615.96	833.19
616.31	828.19
616.65	823.74
617.00	818.79
617.35	815.10
617.70	810.55
618.04	806.40
618.39	801.83
618.74	797.55
619.08	793.02
619.43	788.31
619.78	785.00
620.12	781.50
620.47	777.40
620.82	772.19
621.16	768.14
621.51	765.43
621.85	761.33
622.20	757.69
622.55	753.12
622.89	749.64
623.24	745.95
623.59	742.07
623.93	738.00
624.28	734.64
624.62	732.93
624.97	730.24
625.32	726.81
625.66	723.43
626.01	719.88
626.35	716.86
626.70	713.38
627.04	710.17
627.39	706.14
627.73	703.83
628.08	701.43
628.43	698.24
628.77	694.57
629.12	691.48
629.46	688.12
629.81	684.81
630.15	681.21
630.50	677.12
630.84	673.71
631.19	669.90
631.53	665.93
631.88	659.43
632.22	654.83
632.57	651.50
632.91	647.88
633.26	643.86
633.60	639.86
633.95	635.95
634.29	631.86
634.64	628.93
634.98	624.38
635.32	621.50
635.67	618.00
636.01	614.26
636.36	611.02
636.70	608.17
637.05	605.14
637.39	602.62
637.73	599.86
638.08	597.67
638.42	594.62
638.77	592.62
639.11	590.21
639.45	587.52
639.80	583.81
640.14	580.69
640.49	578.26
640.83	575.05
641.17	572.45
641.52	569.57
641.86	566.38
642.20	564.57
642.55	560.90
642.89	557.93
643.23	555.40
643.58	553.17
643.92	549.57
644.26	546.52
644.61	543.64
644.95	540.67
645.29	536.90
645.64	534.69
645.98	531.07
646.32	528.69
646.66	525.95
647.01	522.90
647.35	520.64
647.69	517.64
648.04	515.21
648.38	512.83
648.72	510.64
649.06	507.88
649.41	503.79
649.75	501.29
650.09	499.40
650.43	496.26
650.78	492.64
651.12	489.95
651.46	487.48
651.80	484.83
652.14	482.07
652.49	480.07
652.83	476.81
653.17	474.24
653.51	471.60
653.85	469.02
654.20	466.79
654.54	463.52
654.88	460.86
655.22	459.52
655.56	456.83
655.90	454.31
656.25	452.19
656.59	450.71
656.93	448.79
657.27	446.67
657.61	444.38
657.95	442.71
658.29	440.62
658.64	438.76
658.98	436.19
659.32	434.14
659.66	431.81
660.00	429.95
660.34	428.26
660.68	426.38
661.02	424.31
661.36	422.24
661.70	421.02
662.05	419.62
662.39	417.52
662.73	416.14
663.07	415.43
663.41	413.69
663.75	411.52
664.09	409.62
664.43	407.17
664.77	405.57
665.11	403.21
665.45	401.43
665.79	399.71
666.13	398.17
666.47	396.43
666.81	394.67
667.15	392.90
667.49	391.45
667.83	390.43
668.17	388.40
668.51	387.02
668.85	385.21
669.19	384.24
669.53	381.93
669.87	379.90
670.21	377.64
670.55	375.69
670.89	375.12
671.23	373.60
671.57	372.10
671.91	370.74
672.25	369.55
672.58	368.88
672.92	366.86
673.26	365.64
673.60	364.64
673.94	363.45
674.28	362.29
674.62	361.02
674.96	359.40
675.30	358.69
675.64	357.38
675.97	356.31
676.31	354.19
676.65	352.69
676.99	352.10
677.33	350.60
677.67	349.50
678.01	347.17
678.34	345.62
678.68	344.76
679.02	343.38
679.36	341.98
679.70	339.88
680.04	339.05
680.37	337.83
680.71	336.19
681.05	335.17
681.39	334.12
681.73	332.69
682.06	331.02
682.40	329.69
682.74	328.88
683.08	328.43
683.42	327.10
683.75	326.76
684.09	324.95
684.43	323.83
684.77	322.71
685.10	321.93
685.44	321.17
685.78	320.10
686.12	318.86
686.45	317.93
686.79	316.95
687.13	316.33
687.46	314.93
687.80	314.45
688.14	313.52
688.48	312.55
688.81	311.60
689.15	311.24
689.49	310.17
689.82	308.95
690.16	307.12
690.50	306.43
690.83	304.69
691.17	303.81
691.51	302.98
691.84	302.36
692.18	301.29
692.52	300.29
692.85	299.62
693.19	299.50
693.52	298.55
693.86	297.86
694.20	296.86
694.53	296.50
694.87	295.45
695.21	294.31
695.54	293.38
695.88	292.31
696.21	291.02
696.55	290.19
696.88	289.43
697.22	288.14
697.56	287.64
697.89	286.88
698.23	286.24
698.56	285.48
698.90	284.71
699.23	283.95
699.57	283.38
699.90	282.48
700.24	281.21
700.58	280.83
700.91	280.62
701.25	281.24
701.58	280.88
701.92	280.67
702.25	279.98
702.59	279.19
702.92	278.62
703.26	277.88
703.59	277.29
703.93	278.21
704.26	278.36
704.60	277.60
704.93	277.14
705.26	276.33
705.60	276.14
705.93	274.98
706.27	274.69
706.60	274.50
706.94	274.40
707.27	273.69
707.61	273.07
707.94	271.93
708.27	269.98
708.61	268.83
708.94	268.10
709.28	267.79
709.61	267.05
709.94	266.60
710.28	266.12
710.61	265.55
710.95	263.12
711.28	263.69
711.61	263.10
711.95	263.14
712.28	262.62
712.61	261.86
712.95	262.76
713.28	263.24
713.61	262.24
713.95	261.33
714.28	260.86
714.61	260.07
714.95	259.81
715.28	259.02
715.61	258.76
715.95	258.36
716.28	257.31
716.61	257.60
716.95	256.81
717.28	256.50
717.61	255.93
717.94	255.60
718.28	253.55
718.61	252.98
718.94	252.05
719.27	251.45
719.61	251.05
719.94	249.98
720.27	248.64
720.60	248.10
720.94	247.69
721.27	247.67
721.60	248.02
721.93	247.64
722.27	248.21
722.60	247.95
722.93	247.40
723.26	247.50
723.59	246.67
723.93	246.95
724.26	246.83
724.59	246.67
724.92	246.62
725.25	247.29
725.59	247.02
725.92	246.90
726.25	246.55
726.58	246.31
726.91	245.98
727.24	246.07
727.57	245.98
727.91	245.29
728.24	244.93
728.57	244.19
728.90	243.95
729.23	242.69
729.56	243.24
729.89	242.86
730.22	242.45
730.55	241.86
730.89	241.45
731.22	240.79
731.55	240.31
731.88	240.02
732.21	239.10
732.54	238.93
732.87	238.93
733.20	239.07
733.53	238.83
733.86	238.71
734.19	237.76
734.52	238.00
734.85	239.36
735.18	238.95
735.51	239.33
735.84	239.45
736.17	239.90
736.50	238.52
736.83	240.67
737.16	240.26
737.49	240.17
737.82	239.86
738.15	240.00
738.48	240.00
738.81	239.48
739.14	239.21
739.47	238.67
739.80	238.07
740.13	237.86
740.46	237.19
740.79	236.67
741.12	236.40
741.45	235.90
741.78	234.40
742.11	234.62
742.44	234.17
742.77	234.07
743.10	233.67
743.43	233.31
743.75	230.90
744.08	233.38
744.41	233.17
744.74	232.86
745.07	232.38
745.40	232.40
745.73	233.36
746.06	233.12
746.39	233.26
746.71	233.07
747.04	232.74
747.37	232.76
747.70	233.02
748.03	233.24
748.36	232.95
748.68	232.74
749.01	231.95
749.34	231.79
749.67	231.45
750.00	231.43
750.33	232.90
750.65	233.12
750.98	230.52
751.31	230.45
751.64	230.33
751.97	231.33
752.29	230.95
752.62	229.74
752.95	229.83
753.28	229.57
753.60	229.21
753.93	229.67
754.26	229.57
754.59	228.67
754.91	228.38
755.24	228.24
755.57	227.98
755.90	228.02
756.22	227.60
756.55	227.10
756.88	226.74
757.20	225.43
757.53	224.67
757.86	224.62
758.19	224.71
758.51	224.64
758.84	223.31
759.17	223.17
759.49	222.98
759.82	223.60
760.15	223.88
760.47	223.88
760.80	223.21
761.13	223.43
761.45	223.40
761.78	223.36
762.11	223.24
762.43	223.29
762.76	223.19
763.08	223.48
763.41	223.79
763.74	223.83
764.06	223.71
764.39	224.00
764.71	223.81
765.04	223.31
765.37	223.02
765.69	223.14
766.02	223.02
766.34	223.19
766.67	222.24
767.00	222.31
767.32	223.64
767.65	224.69
767.97	224.31
768.30	224.26
768.62	224.17
768.95	223.95
769.27	223.79
769.60	223.98
769.92	223.36
770.25	223.00
770.57	222.40
770.90	222.05
771.22	221.55
771.55	221.67
771.87	221.81
772.20	221.86
772.52	223.29
772.85	225.93
773.17	225.81
773.50	225.81
773.82	225.29
774.15	223.76
774.47	222.50
774.80	222.40
775.12	222.57
775.45	222.48
775.77	222.45
776.09	222.60
776.42	222.67
776.74	223.24
777.07	222.83
777.39	222.93
777.72	222.95
778.04	223.45
778.36	223.05
778.69	223.10
779.01	223.05
779.33	221.29
779.66	218.50
779.98	218.29
780.31	218.24
780.63	219.12
780.95	219.48
781.28	219.38
781.60	219.19
781.92	219.00
782.25	218.90
782.57	219.00
782.89	218.60
783.22	218.07
783.54	217.67
783.86	217.88
784.19	217.74
784.51	218.24
784.83	217.57
785.16	217.60
785.48	217.40
785.80	217.26
786.12	217.48
786.45	217.57
786.77	217.60
787.09	217.40
787.42	216.48
787.74	216.81
788.06	216.62
788.38	216.50
788.71	216.31
789.03	216.17
789.35	216.38
789.67	216.21
789.99	216.19
790.32	215.81
790.64	216.05
790.96	217.86
791.28	216.90
791.61	216.76
791.93	216.95
792.25	217.10
792.57	218.50
792.89	217.98
793.21	218.19
793.54	218.14
793.86	218.00
794.18	218.19
794.50	217.60
794.82	217.81
795.14	218.21
795.47	218.64
795.79	218.86
796.11	218.19
796.43	218.14
796.75	218.21
797.07	218.38
797.39	218.19
797.71	216.74
798.04	217.07
798.36	217.26
798.68	217.19
799.00	217.40
799.32	216.14
799.64	216.67
799.96	216.40
800.28	216.67
800.60	216.67
800.92	216.81
801.24	216.76
801.56	216.95
801.89	216.79
802.21	216.88
802.53	216.52
802.85	217.12
803.17	217.95
803.49	217.64
803.81	217.36
804.13	217.29
804.45	216.98
804.77	217.24
805.09	217.48
805.41	217.17
805.73	216.62
806.05	216.40
806.37	216.07
806.69	216.05
807.01	215.93
807.33	215.95
807.65	215.10
807.97	215.98
808.28	215.64
808.60	215.57
808.92	215.31
809.24	216.74
809.56	216.48
809.88	215.90
810.20	216.10
810.52	216.57
810.84	216.14
811.16	216.02
811.48	215.50
811.80	216.10
812.12	216.07
812.43	216.26
812.75	216.43
813.07	216.31
813.39	216.52
813.71	216.02
814.03	215.81
814.35	216.10
814.67	215.19
814.98	215.05
815.30	214.79
815.62	214.31
815.94	212.79
816.26	212.76
816.58	212.57
816.89	212.64
817.21	212.26
817.53	212.57
817.85	212.62
818.17	212.83
818.48	212.07
818.80	212.67
819.12	212.60
819.44	212.24
819.76	212.02
820.07	212.05
820.39	212.33
820.71	212.62
821.03	212.67
821.34	212.40
821.66	212.98
821.98	213.24
822.30	213.24
822.61	214.45
822.93	214.43
823.25	214.29
823.57	214.17
823.88	214.48
824.20	214.60
824.52	215.12
824.83	215.17
825.15	214.95
825.47	214.83
825.79	215.14
826.10	215.26
826.42	215.40
826.74	215.38
827.05	215.17
827.37	215.21
827.69	215.00
828.00	215.33
828.32	215.05
828.64	214.71
828.95	215.95
829.27	215.48
829.58	215.55
829.90	215.76
830.22	215.86
830.53	215.40
830.85	215.12
831.17	214.45
831.48	214.45
831.80	214.48
832.11	214.24
832.43	213.95
832.75	213.60
833.06	214.88
833.38	214.24
833.69	214.31
834.01	214.52
834.32	214.48
834.64	214.38
834.96	214.48
835.27	214.50
835.59	213.88
835.90	213.43
836.22	213.00
836.53	212.86
836.85	212.64
837.16	214.79
837.48	214.90
837.79	215.50
838.11	215.52
838.42	215.48
838.74	215.74
839.05	215.67
839.37	215.71
839.68	214.50
840.00	214.48
840.31	214.83
840.63	214.43
840.94	214.36
841.26	214.07
841.57	213.83
841.88	214.33
842.20	213.90
842.51	213.67
842.83	213.79
843.14	215.29
843.46	215.50
843.77	214.55
844.08	214.38
844.40	213.86
844.71	213.76
845.03	213.60
845.34	213.33
845.65	213.12
845.97	213.48
846.28	213.57
846.60	213.81
846.91	213.55
847.22	213.64
847.54	214.10
847.85	214.24
848.16	214.40
848.48	213.90
848.79	214.83
849.10	215.10
849.42	215.36
849.73	213.74
850.04	213.62
850.36	212.64
850.67	213.24
850.98	213.26
851.30	213.33
851.61	213.29
851.92	213.26
852.23	213.86
852.55	213.74
852.86	213.64
853.17	213.76
853.49	213.90
853.80	214.10
854.11	214.21
854.42	214.45
854.74	213.98
855.05	213.95
855.36	212.64
855.67	212.88
855.99	212.86
856.30	215.36
856.61	215.33
856.92	215.40
857.23	215.29
857.55	214.95
857.86	214.86
858.17	215.33
858.48	215.12
858.79	214.95
859.11	215.24
859.42	215.10
859.73	214.90
860.04	215.12
860.35	214.83
860.66	214.19
860.98	213.95
861.29	214.50
861.60	214.43
861.91	215.07
862.22	214.67
862.53	214.33
862.84	211.86
863.16	212.29
863.47	212.02
863.78	211.74
864.09	212.17
864.40	212.29
864.71	212.55
865.02	212.79
865.33	212.36
865.64	212.05
865.95	212.17
866.27	213.55
866.58	213.29
866.89	213.50
867.20	213.60
867.51	213.55
867.82	213.40
868.13	214.43
868.44	213.86
868.75	214.38
869.06	214.60
869.37	214.98
869.68	214.60
869.99	214.95
870.30	215.17
870.61	215.24
870.92	215.14
871.23	214.83
871.54	215.19
871.85	215.50
872.16	215.50
872.47	215.17
872.78	213.93
873.09	214.12
873.40	213.88
873.71	214.14
874.02	214.21
874.33	213.95
874.64	213.14
874.95	213.71
875.26	213.36
875.56	213.48
875.87	212.90
876.18	212.50
876.49	214.52
876.80	214.26
877.11	214.00
877.42	214.00
877.73	213.95
878.04	213.62
878.35	213.74
878.66	214.10
878.96	214.21
879.27	214.07
879.58	213.83
879.89	213.60
880.20	214.10
880.51	213.88
880.82	213.86
881.12	213.98
881.43	213.62
881.74	213.21
882.05	212.74
882.36	213.19
882.67	213.57
882.97	211.24
883.28	211.07
883.59	210.83
883.90	211.02
884.21	211.21
884.51	211.00
884.82	210.60
885.13	210.40
885.44	210.33
885.74	210.45
886.05	210.55
886.36	210.81
886.67	210.10
886.98	211.21
887.28	211.57
887.59	211.67
887.90	211.76
888.20	211.79
888.51	212.45
888.82	212.10
889.13	212.14
889.43	213.98
889.74	214.02
890.05	214.10
890.35	213.71
890.66	213.50
890.97	213.38
891.28	213.36
891.58	213.50
891.89	213.67
892.20	213.62
892.50	213.29
892.81	213.21
893.12	213.26
893.42	212.40
893.73	212.36
894.04	212.38
894.34	212.43
894.65	212.40
894.95	212.21
895.26	212.38
895.57	213.38
895.87	211.64
896.18	212.17
896.48	212.45
896.79	212.69
897.10	213.14
897.40	213.36
897.71	213.76
898.01	213.55
898.32	213.76
898.63	213.52
898.93	213.93
899.24	213.71
899.54	213.48
899.85	213.52
900.15	213.38
900.46	213.10
900.76	213.26
901.07	213.43
901.38	213.52
901.68	213.67
901.99	212.69
902.29	212.64
902.60	212.29
902.90	212.19
903.21	211.83
903.51	211.55
903.82	212.00
904.12	212.00
904.43	212.00
904.73	212.00
905.03	212.50
905.34	214.71
905.64	214.81
905.95	214.81
906.25	214.93
906.56	215.10
906.86	215.33
907.17	215.10
907.47	214.93
907.77	214.43
908.08	214.00
908.38	214.05
908.69	214.19
908.99	214.31
909.30	214.36
909.60	214.60
909.90	214.50
910.21	213.81
910.51	213.57
910.81	213.69
911.12	213.50
911.42	213.19
911.73	210.62
912.03	210.83
912.33	211.38
912.64	211.07
912.94	210.81
913.24	210.40
913.55	210.43
913.85	210.48
914.15	211.00
914.46	211.31
914.76	211.07
915.06	210.93
915.37	210.62
915.67	210.33
915.97	210.24
916.27	209.76
916.58	209.86
916.88	209.62
917.18	209.67
917.49	211.26
917.79	211.17
918.09	211.50
918.39	212.05
918.70	212.02
919.00	212.05
919.30	213.02
919.60	212.98
919.91	212.67
920.21	212.71
920.51	212.02
920.81	211.83
921.12	212.21
921.42	212.07
921.72	212.43
922.02	212.55
922.32	212.98
922.63	213.12
922.93	214.17
923.23	214.19
923.53	213.88
923.83	212.38
924.13	212.45
924.44	212.45
924.74	212.60
925.04	213.12
925.34	212.98
925.64	212.00
925.94	211.93
926.24	213.05
926.55	212.81
926.85	213.33
927.15	213.33
927.45	213.26
927.75	213.40
928.05	213.33
928.35	213.36
928.65	213.48
928.95	213.69
929.26	212.83
929.56	213.45
929.86	213.64
930.16	213.52
930.46	213.43
930.76	213.52
931.06	212.62
931.36	211.76
931.66	212.21
931.96	212.48
932.26	212.69
932.56	211.95
932.86	212.31
933.16	212.17
933.46	212.17
933.76	211.83
934.06	212.45
934.36	213.02
934.66	213.02
934.96	212.71
935.26	212.88
935.56	213.14
935.86	212.62
936.16	212.57
936.46	212.55
936.76	212.40
937.06	211.98
937.36	212.17
937.66	212.45
937.96	212.48
938.26	212.14
938.56	212.14
938.86	212.43
939.16	212.81
939.46	212.95
939.76	213.07
940.06	213.26
940.35	212.60
940.65	211.76
940.95	211.88
941.25	211.45
941.55	211.17
941.85	211.14
942.15	211.60
942.45	211.76
942.75	211.64
943.04	211.90
943.34	212.17
943.64	211.90
943.94	211.50
944.24	211.36
944.54	211.45
944.84	211.38
945.13	211.02
945.43	210.71
945.73	210.76
946.03	210.57
946.33	210.36
946.62	210.10
946.92	210.12
947.22	210.24
947.52	210.48
947.82	210.60
948.11	210.21
948.41	209.60
948.71	209.45
949.01	209.55
949.31	209.29
949.60	209.31
949.90	209.86
950.20	210.21
950.50	210.43
950.79	210.31
951.09	210.62
951.39	210.64
951.69	210.24
951.98	210.50
952.28	210.60
952.58	210.48
952.87	210.64
953.17	210.93
953.47	210.57
953.76	210.45
954.06	210.21
954.36	210.02
954.66	209.98
954.95	210.52
955.25	210.52
955.55	210.88
955.84	210.55
956.14	210.64
956.44	210.36
956.73	209.69
957.03	209.93
957.32	209.98
957.62	209.64
957.92	210.24
958.21	210.10
958.51	212.64
958.81	213.00
959.10	213.36
959.40	213.67
959.69	213.95
959.99	214.40
960.29	214.60
960.58	214.83
960.88	215.86
961.17	215.26
961.47	215.62
961.76	215.40
962.06	215.71
962.36	215.17
962.65	215.24
962.95	215.52
963.24	215.14
963.54	214.88
963.83	215.24
964.13	215.05
964.42	214.50
964.72	212.62
965.01	212.62
965.31	212.31
965.60	211.76
965.90	212.95
966.19	212.43
966.49	212.24
966.78	212.02
967.08	211.76
967.37	212.05
967.67	211.67
967.96	212.17
968.26	212.12
968.55	212.62
968.85	212.55
969.14	212.55
969.43	212.69
969.73	212.69
970.02	212.57
970.32	212.26
970.61	212.21
970.91	211.76
971.20	211.50
971.49	211.40
971.79	211.69
972.08	210.40
972.38	210.52
972.67	210.69
972.96	211.00
973.26	210.45
973.55	211.05
973.85	211.07
974.14	210.69
974.43	210.88
974.73	210.38
975.02	210.45
975.31	210.38
975.61	210.10
975.90	210.10
976.19	209.81
976.49	210.21
976.78	210.50
977.07	210.19
977.37	210.33
977.66	210.67
977.95	210.45
978.24	210.43
978.54	210.90
978.83	210.57
979.12	210.45
979.42	210.36
979.71	209.81
980.00	209.76
980.29	209.95
980.59	209.62
980.88	210.40
981.17	210.21
981.46	210.38
981.76	210.79
982.05	211.45
982.34	211.55
982.63	211.67
982.93	211.83
983.22	212.76
983.51	212.79
983.80	213.14
984.09	213.24
984.39	213.33
984.68	212.86
984.97	213.07
985.26	212.88
985.55	213.31
985.85	212.88
986.14	213.26
986.43	213.40
986.72	213.33
987.01	212.40
987.30	212.64
987.59	212.50
987.89	212.36
988.18	211.79
988.47	211.69
988.76	211.36
989.05	211.14
989.34	210.60
989.63	210.93
989.92	210.50
990.22	210.24
990.51	210.02
990.80	210.48
991.09	210.79
991.38	211.21
991.67	210.86
991.96	210.76
992.25	210.38
992.54	210.00
992.83	210.02
993.12	210.14
993.41	210.24
993.70	211.00
993.99	211.43
994.28	211.50
994.58	211.95
994.87	211.74
995.16	211.48
995.45	211.17
995.74	210.64
996.03	210.83
996.32	211.24
996.61	211.93
996.90	211.43
997.19	211.24
997.48	211.07
997.77	211.05
998.06	211.33
998.34	211.48
998.63	211.50
998.92	211.62
999.21	211.98
999.50	211.98
999.79	211.14
1000.08	211.24
1000.37	211.05
1000.66	210.52
1000.95	210.98
1001.24	211.07
1001.53	211.57
1001.82	211.52
1002.11	211.29
1002.40	211.60
1002.68	211.64
1002.97	213.26
1003.26	213.02
1003.55	212.57
1003.84	212.71
1004.13	213.14
1004.42	213.17
1004.71	213.31
1004.99	213.26
1005.28	213.76
1005.57	213.76
1005.86	213.86
1006.15	213.55
1006.44	213.40
1006.72	214.05
1007.01	213.52
1007.30	213.64
1007.59	213.21
1007.88	213.24
1008.17	213.17
1008.45	212.62
1008.74	211.83
1009.03	210.81
1009.32	210.90
1009.60	211.07
1009.89	210.76
1010.18	210.19
1010.47	210.02
1010.76	209.67
1011.04	209.52
1011.33	209.55
1011.62	209.55
1011.91	209.43
1012.19	209.64
1012.48	209.79
1012.77	209.48
1013.05	210.67
1013.34	210.81
1013.63	210.81
1013.92	210.90
1014.20	210.62
1014.49	210.52
1014.78	210.79
1015.06	210.29
1015.35	210.36
1015.64	210.64
1015.92	211.21
1016.21	211.21
1016.50	211.14
1016.78	211.74
1017.07	211.74
1017.36	210.95
1017.64	210.71
1017.93	211.24
1018.22	210.98
1018.50	211.02
1018.79	211.02
1019.08	210.19
1019.36	210.29
1019.65	210.29
1019.93	211.02
1020.22	211.57
1020.51	212.76
1020.79	212.50
1021.08	210.00
1021.36	210.00
1021.65	210.50
1021.94	212.00
1022.22	213.50
1022.51	209.00
1022.79	224.50
1023.08	214.00
1023.36	234.00
1023.65	205.50
>>>>>End Processed Spectral Data<<<<<
