SpectraSuite Data File
++++++++++++++++++++++++++++++++++++
Date: Tue Apr 02 18:37:31 EDT 2013
User: group
Dark Spectrum Present: No
Reference Spectrum Present: No
Number of Sampled Component Spectra: 1
Spectrometers: USB2E7196
Integration Time (usec): 580000 (USB2E7196)
Spectra Averaged: 2 (USB2E7196)
Boxcar Smoothing: 10 (USB2E7196)
Correct for Electrical Dark: No (USB2E7196)
Strobe/Lamp Enabled: No (USB2E7196)
Correct for Detector Non-linearity: No (USB2E7196)
Correct for Stray Light: No (USB2E7196)
Number of Pixels in Processed Spectrum: 2048
>>>>>Begin Processed Spectral Data<<<<<
339.09	0.00
339.48	191.00
339.86	193.00
340.24	193.00
340.63	197.50
341.01	228.00
341.39	199.50
341.78	203.00
342.16	209.00
342.54	206.00
342.93	196.40
343.31	206.24
343.69	206.79
344.07	207.38
344.46	208.38
344.84	208.93
345.22	207.90
345.60	208.36
345.99	208.67
346.37	208.64
346.75	208.79
347.13	208.88
347.52	209.14
347.90	210.05
348.28	210.14
348.66	210.71
349.05	210.12
349.43	210.36
349.81	210.57
350.19	210.71
350.57	210.90
350.96	211.12
351.34	211.33
351.72	211.95
352.10	212.17
352.48	211.90
352.87	211.95
353.25	212.10
353.63	212.33
354.01	212.69
354.39	213.19
354.77	213.29
355.15	214.02
355.54	213.88
355.92	213.31
356.30	213.33
356.68	214.74
357.06	214.93
357.44	214.74
357.82	214.52
358.20	215.36
358.58	215.38
358.97	215.67
359.35	216.26
359.73	216.45
360.11	216.55
360.49	216.74
360.87	216.79
361.25	217.38
361.63	217.81
362.01	217.79
362.39	217.52
362.77	217.83
363.15	217.64
363.53	217.86
363.91	217.95
364.29	218.02
364.67	216.24
365.05	216.36
365.43	216.62
365.81	216.90
366.19	216.88
366.57	217.71
366.95	217.69
367.33	217.17
367.71	217.14
368.09	217.60
368.47	217.62
368.85	217.57
369.23	217.69
369.61	216.98
369.99	217.45
370.37	217.67
370.75	218.57
371.13	218.17
371.51	217.79
371.89	218.05
372.27	218.43
372.65	218.50
373.03	218.36
373.41	218.07
373.78	218.19
374.16	217.26
374.54	216.38
374.92	216.14
375.30	216.24
375.68	215.71
376.06	215.79
376.44	215.55
376.82	215.60
377.19	215.45
377.57	215.36
377.95	214.69
378.33	214.48
378.71	213.05
379.09	213.43
379.47	213.55
379.84	213.31
380.22	212.86
380.60	212.50
380.98	212.60
381.36	212.74
381.73	212.45
382.11	212.98
382.49	213.17
382.87	212.79
383.25	212.52
383.62	214.95
384.00	214.60
384.38	214.55
384.76	214.76
385.13	215.50
385.51	215.60
385.89	215.29
386.27	215.24
386.64	215.55
387.02	215.24
387.40	215.17
387.78	215.31
388.15	215.57
388.53	215.48
388.91	215.36
389.29	215.07
389.66	215.38
390.04	215.10
390.42	215.38
390.79	215.57
391.17	215.64
391.55	213.52
391.92	213.31
392.30	213.90
392.68	213.81
393.05	213.33
393.43	213.45
393.81	213.76
394.18	213.50
394.56	213.62
394.94	214.05
395.31	213.79
395.69	214.29
396.06	214.29
396.44	214.57
396.82	214.45
397.19	215.45
397.57	215.36
397.95	215.71
398.32	215.31
398.70	215.52
399.07	216.21
399.45	216.00
399.82	216.14
400.20	215.69
400.58	215.64
400.95	215.02
401.33	215.64
401.70	217.12
402.08	217.29
402.45	217.31
402.83	217.93
403.20	218.57
403.58	218.48
403.95	219.14
404.33	219.55
404.71	220.00
405.08	221.33
405.46	221.31
405.83	221.67
406.21	222.07
406.58	222.57
406.96	222.60
407.33	223.48
407.70	224.02
408.08	226.60
408.45	227.57
408.83	228.88
409.20	229.12
409.58	228.64
409.95	230.02
410.33	231.19
410.70	231.43
411.08	232.88
411.45	234.36
411.82	235.26
412.20	237.05
412.57	239.60
412.95	239.26
413.32	241.38
413.69	243.12
414.07	244.95
414.44	246.90
414.82	249.05
415.19	251.67
415.56	254.50
415.94	255.69
416.31	258.76
416.68	262.05
417.06	266.21
417.43	270.33
417.81	274.50
418.18	278.52
418.55	283.07
418.93	287.64
419.30	292.24
419.67	297.71
420.04	303.02
420.42	308.24
420.79	316.33
421.16	322.88
421.54	330.48
421.91	337.98
422.28	345.48
422.66	353.43
423.03	362.71
423.40	370.50
423.77	379.24
424.15	387.86
424.52	396.79
424.89	406.76
425.26	415.55
425.64	424.57
426.01	434.55
426.38	445.24
426.75	455.83
427.13	466.88
427.50	477.88
427.87	489.43
428.24	501.21
428.61	511.81
428.99	525.38
429.36	538.67
429.73	551.76
430.10	565.24
430.47	579.31
430.85	591.76
431.22	606.88
431.59	624.02
431.96	639.57
432.33	656.43
432.70	672.74
433.08	692.52
433.45	710.64
433.82	728.74
434.19	748.52
434.56	768.55
434.93	787.29
435.30	805.60
435.68	827.05
436.05	847.71
436.42	867.60
436.79	886.26
437.16	906.38
437.53	927.93
437.90	950.17
438.27	971.29
438.64	993.88
439.01	1014.60
439.38	1032.07
439.75	1049.76
440.13	1070.38
440.50	1089.33
440.87	1105.10
441.24	1121.71
441.61	1139.86
441.98	1153.50
442.35	1168.26
442.72	1183.98
443.09	1200.81
443.46	1210.17
443.83	1215.95
444.20	1222.86
444.57	1230.45
444.94	1234.21
445.31	1239.02
445.68	1244.64
446.05	1246.79
446.42	1245.33
446.79	1244.19
447.16	1242.14
447.53	1240.95
447.90	1232.88
448.27	1225.17
448.64	1215.07
449.01	1207.50
449.37	1193.81
449.74	1180.93
450.11	1167.05
450.48	1150.02
450.85	1131.93
451.22	1117.29
451.59	1104.07
451.96	1090.12
452.33	1071.50
452.70	1055.19
453.07	1034.60
453.43	1011.76
453.80	992.17
454.17	972.88
454.54	954.31
454.91	934.57
455.28	915.21
455.65	897.88
456.02	883.21
456.38	867.81
456.75	849.29
457.12	834.00
457.49	818.40
457.86	801.98
458.23	789.83
458.59	775.48
458.96	760.76
459.33	747.76
459.70	734.57
460.07	724.93
460.43	713.17
460.80	703.05
461.17	694.52
461.54	684.83
461.91	675.43
462.27	665.52
462.64	656.90
463.01	648.40
463.38	640.48
463.74	628.76
464.11	621.12
464.48	614.26
464.85	606.74
465.21	601.67
465.58	595.81
465.95	587.69
466.32	581.95
466.68	575.55
467.05	569.86
467.42	564.07
467.78	557.69
468.15	552.26
468.52	547.57
468.88	541.19
469.25	535.40
469.62	531.50
469.98	527.21
470.35	523.67
470.72	519.29
471.08	514.02
471.45	510.90
471.82	507.36
472.18	503.38
472.55	500.62
472.92	496.33
473.28	493.07
473.65	490.00
474.02	486.50
474.38	484.43
474.75	481.90
475.11	479.40
475.48	477.69
475.85	475.52
476.21	473.40
476.58	472.00
476.94	470.83
477.31	469.10
477.67	467.62
478.04	466.19
478.41	465.60
478.77	467.02
479.14	465.57
479.50	465.02
479.87	464.36
480.23	463.74
480.60	463.43
480.96	463.38
481.33	464.52
481.69	465.02
482.06	465.10
482.42	465.60
482.79	466.48
483.15	466.93
483.52	468.05
483.88	468.60
484.25	469.19
484.61	470.43
484.98	471.69
485.34	473.83
485.71	475.64
486.07	477.79
486.44	477.45
486.80	479.88
487.17	481.60
487.53	484.86
487.90	488.05
488.26	491.98
488.62	495.64
488.99	498.52
489.35	502.14
489.72	505.86
490.08	509.79
490.44	512.83
490.81	517.17
491.17	521.60
491.54	526.33
491.90	531.57
492.26	536.52
492.63	541.38
492.99	545.98
493.36	551.64
493.72	557.21
494.08	563.17
494.45	569.76
494.81	576.33
495.17	582.71
495.54	589.33
495.90	595.12
496.26	601.71
496.63	608.74
496.99	616.12
497.35	623.86
497.72	631.55
498.08	639.74
498.44	647.26
498.80	655.33
499.17	663.86
499.53	672.10
499.89	680.69
500.26	689.14
500.62	697.64
500.98	706.67
501.34	715.14
501.71	724.83
502.07	733.95
502.43	743.43
502.79	752.52
503.16	761.74
503.52	771.45
503.88	781.21
504.24	790.83
504.60	800.60
504.97	810.67
505.33	820.36
505.69	831.43
506.05	841.62
506.41	851.45
506.78	861.50
507.14	870.79
507.50	880.52
507.86	891.05
508.22	901.81
508.59	911.36
508.95	922.33
509.31	933.52
509.67	944.02
510.03	953.69
510.39	963.31
510.75	973.31
511.12	983.40
511.48	993.40
511.84	1003.57
512.20	1013.40
512.56	1023.29
512.92	1033.62
513.28	1042.64
513.64	1052.62
514.00	1062.40
514.37	1071.86
514.73	1082.33
515.09	1092.98
515.45	1102.14
515.81	1111.02
516.17	1120.86
516.53	1128.60
516.89	1136.02
517.25	1144.24
517.61	1153.05
517.97	1161.43
518.33	1169.38
518.69	1178.10
519.05	1185.79
519.41	1193.36
519.77	1202.19
520.13	1209.12
520.49	1215.48
520.85	1223.38
521.21	1231.29
521.57	1238.74
521.93	1244.98
522.29	1251.79
522.65	1257.12
523.01	1263.57
523.37	1270.31
523.73	1276.48
524.09	1282.74
524.45	1289.12
524.81	1294.07
525.17	1299.88
525.53	1306.02
525.89	1311.52
526.25	1316.36
526.61	1321.26
526.97	1325.69
527.33	1330.05
527.68	1336.52
528.04	1341.45
528.40	1345.31
528.76	1349.10
529.12	1352.48
529.48	1357.88
529.84	1360.81
530.20	1364.86
530.56	1369.60
530.91	1373.14
531.27	1376.24
531.63	1380.29
531.99	1383.12
532.35	1387.07
532.71	1389.83
533.07	1393.69
533.42	1399.48
533.78	1403.05
534.14	1406.50
534.50	1409.79
534.86	1412.64
535.21	1413.50
535.57	1416.93
535.93	1418.81
536.29	1421.76
536.65	1424.74
537.00	1426.83
537.36	1429.74
537.72	1431.95
538.08	1433.74
538.44	1436.02
538.79	1438.12
539.15	1439.81
539.51	1442.38
539.87	1444.33
540.22	1446.62
540.58	1447.69
540.94	1447.31
541.29	1448.02
541.65	1447.81
542.01	1449.52
542.37	1449.38
542.72	1450.45
543.08	1450.52
543.44	1451.64
543.79	1450.95
544.15	1451.60
544.51	1451.76
544.87	1451.79
545.22	1451.81
545.58	1451.93
545.94	1451.10
546.29	1451.43
546.65	1451.07
547.01	1449.31
547.36	1448.55
547.72	1447.79
548.07	1446.71
548.43	1445.40
548.79	1444.31
549.14	1443.67
549.50	1442.12
549.86	1441.12
550.21	1439.86
550.57	1438.64
550.92	1436.79
551.28	1436.45
551.64	1435.38
551.99	1434.21
552.35	1432.40
552.70	1431.10
553.06	1429.07
553.41	1427.93
553.77	1427.17
554.13	1426.05
554.48	1426.02
554.84	1425.60
555.19	1424.36
555.55	1423.98
555.90	1422.90
556.26	1422.17
556.61	1420.98
556.97	1418.07
557.32	1416.67
557.68	1414.62
558.03	1413.36
558.39	1412.69
558.74	1410.74
559.10	1408.64
559.45	1407.45
559.81	1407.17
560.16	1405.12
560.52	1404.36
560.87	1403.21
561.23	1400.31
561.58	1400.55
561.94	1398.67
562.29	1395.79
562.64	1394.71
563.00	1391.79
563.35	1389.31
563.71	1387.43
564.06	1386.36
564.42	1386.43
564.77	1385.05
565.12	1384.19
565.48	1384.93
565.83	1383.95
566.19	1382.95
566.54	1381.43
566.89	1378.71
567.25	1377.07
567.60	1377.57
567.96	1376.79
568.31	1375.52
568.66	1374.36
569.02	1370.38
569.37	1367.88
569.72	1366.52
570.08	1363.38
570.43	1361.90
570.78	1360.71
571.14	1358.31
571.49	1356.24
571.84	1354.05
572.20	1352.60
572.55	1351.33
572.90	1346.76
573.26	1343.93
573.61	1341.00
573.96	1339.12
574.31	1336.52
574.67	1333.71
575.02	1329.83
575.37	1325.57
575.72	1322.17
576.08	1318.93
576.43	1316.43
576.78	1313.17
577.13	1309.90
577.49	1307.45
577.84	1304.33
578.19	1300.67
578.54	1297.60
578.90	1294.64
579.25	1290.71
579.60	1286.12
579.95	1281.29
580.30	1277.55
580.66	1273.38
581.01	1269.93
581.36	1264.67
581.71	1261.19
582.06	1257.67
582.42	1253.88
582.77	1249.10
583.12	1244.79
583.47	1240.26
583.82	1235.67
584.17	1231.45
584.53	1228.26
584.88	1223.74
585.23	1219.67
585.58	1215.31
585.93	1210.10
586.28	1205.36
586.63	1202.10
586.98	1199.45
587.34	1195.90
587.69	1191.07
588.04	1186.83
588.39	1182.05
588.74	1177.10
589.09	1173.24
589.44	1167.67
589.79	1162.93
590.14	1159.26
590.49	1154.29
590.84	1149.74
591.19	1146.14
591.54	1142.60
591.89	1137.31
592.25	1134.45
592.60	1129.36
592.95	1124.98
593.30	1122.02
593.65	1117.31
594.00	1111.69
594.35	1111.98
594.70	1106.45
595.05	1102.57
595.40	1098.45
595.75	1094.67
596.10	1091.40
596.45	1086.67
596.80	1083.31
597.15	1079.31
597.50	1074.69
597.85	1071.93
598.19	1067.57
598.54	1062.95
598.89	1058.00
599.24	1054.24
599.59	1049.00
599.94	1043.90
600.29	1039.83
600.64	1034.88
600.99	1031.26
601.34	1027.52
601.69	1016.88
602.04	1013.00
602.39	1007.76
602.74	1003.60
603.08	998.24
603.43	994.71
603.78	990.00
604.13	984.62
604.48	979.40
604.83	975.14
605.18	970.17
605.53	966.71
605.87	962.02
606.22	957.50
606.57	952.29
606.92	947.90
607.27	944.48
607.62	939.88
607.96	935.71
608.31	931.52
608.66	927.67
609.01	923.67
609.36	919.38
609.70	915.81
610.05	910.86
610.40	906.74
610.75	901.76
611.10	897.86
611.44	893.45
611.79	888.88
612.14	884.98
612.49	879.95
612.83	875.12
613.18	870.45
613.53	866.14
613.88	861.45
614.22	855.86
614.57	850.95
614.92	846.45
615.27	841.69
615.61	836.24
615.96	831.05
616.31	826.67
616.65	822.83
617.00	818.31
617.35	813.83
617.70	809.57
618.04	804.83
618.39	800.21
618.74	796.36
619.08	792.69
619.43	788.43
619.78	784.29
620.12	780.14
620.47	776.36
620.82	772.24
621.16	768.36
621.51	765.95
621.85	761.52
622.20	757.14
622.55	752.83
622.89	749.19
623.24	745.69
623.59	741.81
623.93	738.10
624.28	734.76
624.62	733.60
624.97	731.43
625.32	728.02
625.66	724.14
626.01	719.83
626.35	716.64
626.70	712.79
627.04	709.71
627.39	706.14
627.73	703.10
628.08	700.33
628.43	696.74
628.77	691.76
629.12	689.31
629.46	686.52
629.81	683.45
630.15	679.86
630.50	675.69
630.84	671.83
631.19	667.62
631.53	663.98
631.88	657.81
632.22	652.52
632.57	649.69
632.91	646.24
633.26	643.67
633.60	639.57
633.95	636.21
634.29	632.45
634.64	629.05
634.98	624.90
635.32	621.76
635.67	618.93
636.01	616.21
636.36	612.98
636.70	609.95
637.05	606.95
637.39	604.00
637.73	601.12
638.08	599.05
638.42	596.29
638.77	593.50
639.11	591.24
639.45	588.26
639.80	584.71
640.14	582.36
640.49	579.10
640.83	576.26
641.17	573.31
641.52	570.17
641.86	567.62
642.20	565.90
642.55	561.90
642.89	558.88
643.23	555.81
643.58	553.24
643.92	549.86
644.26	546.74
644.61	544.07
644.95	541.50
645.29	537.57
645.64	535.19
645.98	531.90
646.32	528.71
646.66	525.62
647.01	522.57
647.35	519.45
647.69	517.00
648.04	514.69
648.38	512.43
648.72	510.05
649.06	506.93
649.41	503.86
649.75	501.76
650.09	499.12
650.43	496.17
650.78	492.74
651.12	489.93
651.46	487.31
651.80	484.45
652.14	481.64
652.49	480.14
652.83	477.48
653.17	474.52
653.51	472.02
653.85	469.98
654.20	467.52
654.54	464.88
654.88	462.05
655.22	459.79
655.56	456.60
655.90	454.31
656.25	452.00
656.59	449.24
656.93	446.86
657.27	445.40
657.61	443.55
657.95	442.00
658.29	440.38
658.64	438.55
658.98	436.45
659.32	434.50
659.66	431.98
660.00	429.93
660.34	428.21
660.68	426.40
661.02	424.60
661.36	422.74
661.70	420.88
662.05	419.17
662.39	417.26
662.73	416.55
663.07	415.57
663.41	413.79
663.75	411.76
664.09	410.14
664.43	407.36
664.77	405.55
665.11	403.45
665.45	401.36
665.79	399.88
666.13	398.12
666.47	396.02
666.81	394.62
667.15	392.69
667.49	391.57
667.83	390.76
668.17	388.98
668.51	387.57
668.85	386.62
669.19	385.74
669.53	383.38
669.87	381.00
670.21	378.67
670.55	377.40
670.89	376.95
671.23	375.17
671.57	373.88
671.91	372.79
672.25	371.33
672.58	370.64
672.92	368.48
673.26	367.14
673.60	365.95
673.94	364.50
674.28	363.50
674.62	362.57
674.96	360.38
675.30	359.19
675.64	358.12
675.97	356.45
676.31	354.60
676.65	353.62
676.99	353.31
677.33	351.88
677.67	350.38
678.01	348.10
678.34	346.95
678.68	346.14
679.02	344.48
679.36	343.12
679.70	341.38
680.04	340.52
680.37	339.02
680.71	337.79
681.05	336.88
681.39	335.21
681.73	333.55
682.06	332.57
682.40	331.45
682.74	330.24
683.08	330.14
683.42	328.81
683.75	327.81
684.09	325.79
684.43	324.76
684.77	323.60
685.10	322.74
685.44	321.81
685.78	320.45
686.12	319.43
686.45	318.60
686.79	317.52
687.13	317.10
687.46	316.24
687.80	315.93
688.14	314.29
688.48	313.55
688.81	312.62
689.15	311.93
689.49	310.52
689.82	309.48
690.16	307.12
690.50	306.24
690.83	304.98
691.17	303.64
691.51	302.95
691.84	302.10
692.18	301.21
692.52	299.98
692.85	299.31
693.19	299.40
693.52	298.36
693.86	297.33
694.20	295.98
694.53	295.29
694.87	294.12
695.21	293.10
695.54	292.12
695.88	291.05
696.21	289.83
696.55	289.12
696.88	288.45
697.22	287.88
697.56	287.45
697.89	286.64
698.23	286.71
698.56	285.40
698.90	285.12
699.23	284.31
699.57	284.05
699.90	282.98
700.24	281.14
700.58	280.43
700.91	280.26
701.25	281.14
701.58	281.10
701.92	280.83
702.25	280.40
702.59	279.64
702.92	279.10
703.26	278.50
703.59	278.19
703.93	279.10
704.26	278.55
704.60	278.10
704.93	277.52
705.26	276.76
705.60	276.69
705.93	275.67
706.27	275.57
706.60	275.31
706.94	275.48
707.27	274.95
707.61	274.67
707.94	274.02
708.27	272.12
708.61	270.98
708.94	270.38
709.28	269.93
709.61	269.24
709.94	269.00
710.28	268.33
710.61	267.71
710.95	265.19
711.28	266.38
711.61	265.67
711.95	265.79
712.28	264.76
712.61	264.02
712.95	264.55
713.28	264.83
713.61	263.98
713.95	262.95
714.28	262.74
714.61	262.36
714.95	261.50
715.28	260.52
715.61	259.74
715.95	259.17
716.28	258.52
716.61	258.71
716.95	257.81
717.28	257.26
717.61	256.57
717.94	256.31
718.28	254.12
718.61	253.36
718.94	252.43
719.27	252.29
719.61	252.19
719.94	251.12
720.27	249.67
720.60	249.21
720.94	249.14
721.27	248.88
721.60	248.48
721.93	248.19
722.27	248.95
722.60	249.02
722.93	248.52
723.26	248.45
723.59	247.62
723.93	247.69
724.26	247.69
724.59	247.38
724.92	247.33
725.25	247.62
725.59	247.43
725.92	247.60
726.25	247.21
726.58	246.64
726.91	246.26
727.24	245.98
727.57	245.60
727.91	244.86
728.24	244.55
728.57	244.17
728.90	244.05
729.23	243.00
729.56	243.62
729.89	243.07
730.22	242.62
730.55	242.21
730.89	241.81
731.22	241.33
731.55	241.21
731.88	241.00
732.21	240.33
732.54	240.02
732.87	239.55
733.20	239.29
733.53	239.14
733.86	239.10
734.19	238.67
734.52	238.71
734.85	239.69
735.18	239.36
735.51	239.55
735.84	239.76
736.17	240.00
736.50	238.81
736.83	241.38
737.16	241.33
737.49	241.36
737.82	240.86
738.15	241.07
738.48	240.90
738.81	240.50
739.14	240.00
739.47	239.50
739.80	239.17
740.13	239.14
740.46	238.60
740.79	238.10
741.12	237.98
741.45	237.60
741.78	236.24
742.11	236.60
742.44	236.14
742.77	235.86
743.10	235.21
743.43	234.88
743.75	232.40
744.08	234.86
744.41	234.29
744.74	234.26
745.07	233.52
745.40	233.69
745.73	234.48
746.06	234.57
746.39	234.74
746.71	234.33
747.04	233.86
747.37	233.81
747.70	234.07
748.03	234.14
748.36	234.24
748.68	234.26
749.01	233.31
749.34	232.93
749.67	232.79
750.00	233.07
750.33	234.21
750.65	234.10
750.98	231.38
751.31	231.45
751.64	231.26
751.97	232.36
752.29	231.81
752.62	230.48
752.95	230.31
753.28	229.95
753.60	229.86
753.93	230.19
754.26	230.17
754.59	229.43
754.91	228.88
755.24	228.48
755.57	228.21
755.90	227.98
756.22	227.71
756.55	227.19
756.88	226.69
757.20	225.33
757.53	224.67
757.86	224.38
758.19	224.48
758.51	224.43
758.84	223.21
759.17	222.93
759.49	223.00
759.82	223.71
760.15	223.81
760.47	223.57
760.80	222.95
761.13	223.02
761.45	222.90
761.78	223.00
762.11	222.81
762.43	222.64
762.76	222.62
763.08	222.74
763.41	222.74
763.74	222.52
764.06	222.74
764.39	222.93
764.71	222.95
765.04	222.74
765.37	222.55
765.69	222.40
766.02	222.45
766.34	222.31
766.67	221.55
767.00	221.76
767.32	223.07
767.65	224.21
767.97	224.24
768.30	224.24
768.62	224.00
768.95	223.74
769.27	223.55
769.60	224.05
769.92	223.95
770.25	223.62
770.57	223.33
770.90	223.02
771.22	222.76
771.55	222.88
771.87	222.86
772.20	222.50
772.52	224.26
772.85	226.60
773.17	226.60
773.50	226.50
773.82	226.02
774.15	225.02
774.47	223.76
774.80	223.45
775.12	223.52
775.45	223.62
775.77	223.95
776.09	224.02
776.42	223.57
776.74	223.86
777.07	223.76
777.39	223.81
777.72	223.62
778.04	223.83
778.36	223.17
778.69	223.14
779.01	223.45
779.33	221.62
779.66	219.38
779.98	218.98
780.31	218.88
780.63	219.86
780.95	220.02
781.28	220.14
781.60	220.00
781.92	219.79
782.25	219.45
782.57	219.14
782.89	218.88
783.22	218.83
783.54	218.19
783.86	218.57
784.19	218.52
784.51	219.10
784.83	218.71
785.16	218.95
785.48	218.93
785.80	218.93
786.12	219.24
786.45	218.98
786.77	219.38
787.09	219.17
787.42	218.48
787.74	218.60
788.06	218.57
788.38	218.45
788.71	218.19
789.03	218.48
789.35	218.55
789.67	218.36
789.99	218.38
790.32	218.43
790.64	218.31
790.96	219.74
791.28	218.81
791.61	218.62
791.93	218.50
792.25	218.43
792.57	219.83
792.89	219.14
793.21	219.43
793.54	219.14
793.86	219.05
794.18	219.00
794.50	218.50
794.82	218.50
795.14	218.64
795.47	219.07
795.79	218.83
796.11	218.67
796.43	218.60
796.75	218.62
797.07	218.81
797.39	218.69
797.71	217.43
798.04	217.43
798.36	217.69
798.68	217.86
799.00	218.02
799.32	216.71
799.64	217.12
799.96	217.07
800.28	217.33
800.60	217.24
800.92	217.19
801.24	216.93
801.56	216.83
801.89	216.64
802.21	216.83
802.53	216.69
802.85	217.24
803.17	218.24
803.49	217.90
803.81	217.50
804.13	217.50
804.45	217.24
804.77	217.50
805.09	217.52
805.41	217.19
805.73	216.45
806.05	216.17
806.37	216.02
806.69	215.57
807.01	215.57
807.33	215.76
807.65	215.24
807.97	216.26
808.28	216.21
808.60	216.21
808.92	215.67
809.24	216.88
809.56	216.45
809.88	215.81
810.20	215.83
810.52	216.36
810.84	215.93
811.16	215.81
811.48	215.71
811.80	216.12
812.12	216.12
812.43	216.88
812.75	216.88
813.07	216.60
813.39	216.81
813.71	216.52
814.03	216.38
814.35	216.43
814.67	215.64
814.98	215.31
815.30	215.45
815.62	215.33
815.94	213.86
816.26	213.83
816.58	213.50
816.89	213.71
817.21	213.14
817.53	213.43
817.85	213.43
818.17	213.33
818.48	212.88
818.80	213.26
819.12	212.62
819.44	212.21
819.76	212.10
820.07	212.26
820.39	212.12
820.71	212.14
821.03	212.33
821.34	212.17
821.66	212.69
821.98	212.71
822.30	212.86
822.61	214.12
822.93	213.93
823.25	213.88
823.57	213.69
823.88	214.36
824.20	214.19
824.52	214.50
824.83	214.40
825.15	213.98
825.47	213.90
825.79	214.29
826.10	214.26
826.42	214.38
826.74	214.36
827.05	214.29
827.37	214.43
827.69	214.19
828.00	214.26
828.32	214.19
828.64	213.83
828.95	214.79
829.27	214.33
829.58	214.55
829.90	215.00
830.22	215.19
830.53	214.62
830.85	214.55
831.17	214.12
831.48	214.29
831.80	214.45
832.11	214.19
832.43	213.95
832.75	214.26
833.06	215.50
833.38	214.88
833.69	215.05
834.01	215.12
834.32	215.12
834.64	214.90
834.96	214.95
835.27	215.19
835.59	214.50
835.90	214.07
836.22	213.86
836.53	213.31
836.85	213.02
837.16	215.10
837.48	214.95
837.79	215.62
838.11	215.76
838.42	215.86
838.74	216.19
839.05	215.98
839.37	215.86
839.68	214.38
840.00	214.52
840.31	214.67
840.63	214.52
840.94	214.14
841.26	214.05
841.57	214.19
841.88	214.31
842.20	213.93
842.51	213.71
842.83	213.74
843.14	215.57
843.46	215.69
843.77	214.69
844.08	214.76
844.40	214.14
844.71	213.93
845.03	213.60
845.34	213.48
845.65	213.55
845.97	213.67
846.28	213.76
846.60	213.86
846.91	213.52
847.22	213.38
847.54	213.98
847.85	214.19
848.16	213.57
848.48	212.98
848.79	214.36
849.10	214.69
849.42	214.76
849.73	212.88
850.04	212.71
850.36	211.93
850.67	212.43
850.98	212.60
851.30	212.71
851.61	212.86
851.92	212.88
852.23	213.55
852.55	213.40
852.86	213.76
853.17	213.98
853.49	214.57
853.80	214.88
854.11	215.26
854.42	215.60
854.74	215.43
855.05	215.69
855.36	214.10
855.67	214.10
855.99	214.26
856.30	216.93
856.61	217.02
856.92	216.81
857.23	216.62
857.55	216.24
857.86	216.07
858.17	216.33
858.48	215.83
858.79	215.36
859.11	215.57
859.42	215.26
859.73	214.88
860.04	214.60
860.35	214.26
860.66	213.29
860.98	213.05
861.29	213.33
861.60	213.40
861.91	213.98
862.22	213.69
862.53	213.10
862.84	210.31
863.16	210.83
863.47	210.64
863.78	210.45
864.09	210.67
864.40	210.90
864.71	210.83
865.02	211.24
865.33	210.93
865.64	210.62
865.95	210.71
866.27	212.00
866.58	211.95
866.89	212.19
867.20	212.40
867.51	212.24
867.82	212.33
868.13	212.83
868.44	212.48
868.75	212.90
869.06	213.40
869.37	214.07
869.68	213.17
869.99	213.67
870.30	214.12
870.61	214.05
870.92	213.74
871.23	213.67
871.54	213.86
871.85	214.40
872.16	214.86
872.47	214.55
872.78	213.38
873.09	213.38
873.40	212.90
873.71	213.17
874.02	213.14
874.33	212.88
874.64	212.33
874.95	212.71
875.26	212.50
875.56	212.24
875.87	212.10
876.18	212.38
876.49	214.17
876.80	213.60
877.11	213.50
877.42	213.52
877.73	213.48
878.04	213.12
878.35	213.07
878.66	212.95
878.96	213.07
879.27	213.36
879.58	213.33
879.89	213.52
880.20	213.93
880.51	213.86
880.82	213.95
881.12	214.26
881.43	213.83
881.74	213.48
882.05	213.48
882.36	213.50
882.67	213.71
882.97	211.55
883.28	211.40
883.59	211.38
883.90	211.71
884.21	212.07
884.51	212.02
884.82	211.74
885.13	211.69
885.44	211.60
885.74	211.45
886.05	211.62
886.36	211.60
886.67	210.93
886.98	212.05
887.28	212.21
887.59	212.00
887.90	212.10
888.20	211.93
888.51	212.31
888.82	211.86
889.13	211.81
889.43	213.62
889.74	213.71
890.05	213.76
890.35	213.43
890.66	213.12
890.97	213.00
891.28	212.98
891.58	213.00
891.89	213.14
892.20	212.88
892.50	212.52
892.81	212.43
893.12	212.52
893.42	211.55
893.73	211.71
894.04	211.81
894.34	211.90
894.65	212.00
894.95	211.69
895.26	211.83
895.57	212.79
895.87	210.93
896.18	211.14
896.48	211.17
896.79	211.17
897.10	211.31
897.40	211.36
897.71	211.48
898.01	211.33
898.32	211.74
898.63	211.55
898.93	211.67
899.24	211.76
899.54	211.60
899.85	211.43
900.15	211.19
900.46	211.14
900.76	211.29
901.07	211.21
901.38	211.33
901.68	211.79
901.99	210.83
902.29	210.95
902.60	210.81
902.90	210.81
903.21	210.62
903.51	210.55
903.82	211.19
904.12	211.26
904.43	211.40
904.73	211.05
905.03	211.62
905.34	213.69
905.64	213.52
905.95	213.50
906.25	213.38
906.56	213.38
906.86	213.29
907.17	213.12
907.47	213.21
907.77	212.88
908.08	212.33
908.38	212.36
908.69	212.31
908.99	212.60
909.30	212.71
909.60	213.14
909.90	213.36
910.21	212.71
910.51	212.45
910.81	212.43
911.12	212.50
911.42	212.17
911.73	209.88
912.03	210.14
912.33	210.60
912.64	210.69
912.94	210.50
913.24	210.24
913.55	210.26
913.85	210.10
914.15	210.60
914.46	210.71
914.76	210.62
915.06	210.57
915.37	210.40
915.67	210.14
915.97	210.12
916.27	209.52
916.58	209.62
916.88	209.69
917.18	209.48
917.49	210.90
917.79	211.26
918.09	211.67
918.39	212.00
918.70	211.81
919.00	212.02
919.30	212.90
919.60	213.17
919.91	212.98
920.21	213.10
920.51	212.64
920.81	212.74
921.12	213.00
921.42	212.93
921.72	213.10
922.02	213.48
922.32	213.71
922.63	213.81
922.93	214.81
923.23	214.55
923.53	214.55
923.83	213.26
924.13	213.07
924.44	212.98
924.74	213.50
925.04	214.05
925.34	213.93
925.64	213.17
925.94	213.07
926.24	214.02
926.55	213.93
926.85	214.31
927.15	214.17
927.45	214.05
927.75	214.21
928.05	214.21
928.35	213.79
928.65	214.00
928.95	214.40
929.26	213.60
929.56	214.33
929.86	214.57
930.16	214.36
930.46	214.21
930.76	214.29
931.06	213.29
931.36	212.79
931.66	213.10
931.96	213.21
932.26	213.43
932.56	212.64
932.86	213.00
933.16	212.95
933.46	212.83
933.76	212.62
934.06	213.14
934.36	213.88
934.66	214.02
934.96	213.71
935.26	213.79
935.56	214.05
935.86	213.62
936.16	213.40
936.46	213.24
936.76	213.10
937.06	212.79
937.36	212.90
937.66	213.07
937.96	212.74
938.26	212.45
938.56	212.00
938.86	212.07
939.16	212.40
939.46	212.52
939.76	212.81
940.06	212.79
940.35	212.14
940.65	210.98
940.95	211.21
941.25	210.64
941.55	210.57
941.85	210.19
942.15	210.55
942.45	210.90
942.75	210.95
943.04	211.12
943.34	211.69
943.64	211.50
943.94	210.88
944.24	211.31
944.54	211.57
944.84	211.71
945.13	211.33
945.43	210.88
945.73	210.83
946.03	210.64
946.33	210.52
946.62	210.43
946.92	210.43
947.22	210.50
947.52	210.90
947.82	211.12
948.11	211.07
948.41	210.67
948.71	210.33
949.01	210.50
949.31	210.40
949.60	210.14
949.90	210.43
950.20	210.45
950.50	210.45
950.79	210.19
951.09	210.64
951.39	210.93
951.69	210.83
951.98	211.17
952.28	211.07
952.58	211.02
952.87	210.93
953.17	211.24
953.47	210.88
953.76	210.90
954.06	210.38
954.36	210.10
954.66	209.74
954.95	210.26
955.25	210.40
955.55	210.67
955.84	210.24
956.14	210.38
956.44	210.62
956.73	210.10
957.03	210.40
957.32	210.19
957.62	209.93
957.92	210.29
958.21	209.95
958.51	212.62
958.81	213.07
959.10	213.36
959.40	213.86
959.69	214.21
959.99	214.21
960.29	214.45
960.58	214.50
960.88	215.55
961.17	215.14
961.47	215.29
961.76	215.07
962.06	215.52
962.36	215.33
962.65	215.43
962.95	215.45
963.24	215.17
963.54	215.40
963.83	215.76
964.13	215.60
964.42	215.17
964.72	213.38
965.01	213.33
965.31	213.52
965.60	212.95
965.90	213.81
966.19	213.55
966.49	213.26
966.78	213.36
967.08	212.98
967.37	213.07
967.67	212.76
967.96	213.24
968.26	213.29
968.55	213.48
968.85	213.48
969.14	213.71
969.43	213.74
969.73	213.40
970.02	213.00
970.32	212.93
970.61	212.83
970.91	212.10
971.20	211.64
971.49	211.29
971.79	211.62
972.08	210.40
972.38	210.57
972.67	210.67
972.96	210.93
973.26	210.69
973.55	211.38
973.85	211.19
974.14	210.86
974.43	211.00
974.73	210.69
975.02	210.36
975.31	210.24
975.61	210.02
975.90	209.86
976.19	209.57
976.49	209.52
976.78	209.88
977.07	209.93
977.37	210.10
977.66	210.29
977.95	209.76
978.24	209.90
978.54	210.50
978.83	210.19
979.12	210.07
979.42	210.12
979.71	209.48
980.00	209.64
980.29	209.71
980.59	209.31
980.88	209.88
981.17	209.90
981.46	209.86
981.76	210.05
982.05	210.83
982.34	211.33
982.63	211.45
982.93	211.24
983.22	211.74
983.51	211.83
983.80	212.17
984.09	212.62
984.39	212.57
984.68	212.00
984.97	212.40
985.26	212.26
985.55	212.40
985.85	212.10
986.14	212.17
986.43	212.14
986.72	212.07
987.01	211.45
987.30	211.40
987.59	211.52
987.89	211.64
988.18	210.98
988.47	210.74
988.76	210.60
989.05	210.33
989.34	210.07
989.63	210.45
989.92	210.05
990.22	209.76
990.51	209.45
990.80	209.26
991.09	209.24
991.38	209.29
991.67	208.90
991.96	208.88
992.25	209.00
992.54	208.86
992.83	208.86
993.12	208.71
993.41	209.33
993.70	210.12
993.99	210.33
994.28	210.50
994.58	210.71
994.87	210.74
995.16	210.90
995.45	210.64
995.74	210.19
996.03	210.33
996.32	210.55
996.61	211.40
996.90	211.36
997.19	211.43
997.48	211.45
997.77	211.38
998.06	211.43
998.34	211.33
998.63	211.45
998.92	211.52
999.21	211.90
999.50	211.95
999.79	211.10
1000.08	211.05
1000.37	211.12
1000.66	210.98
1000.95	211.29
1001.24	211.43
1001.53	211.74
1001.82	211.64
1002.11	211.24
1002.40	211.45
1002.68	211.95
1002.97	213.50
1003.26	213.12
1003.55	212.88
1003.84	213.10
1004.13	213.81
1004.42	213.55
1004.71	213.50
1004.99	213.31
1005.28	213.81
1005.57	213.26
1005.86	213.05
1006.15	212.95
1006.44	212.69
1006.72	212.88
1007.01	212.79
1007.30	212.76
1007.59	212.57
1007.88	212.55
1008.17	212.79
1008.45	212.43
1008.74	211.19
1009.03	210.33
1009.32	210.62
1009.60	210.88
1009.89	210.74
1010.18	209.95
1010.47	210.10
1010.76	210.00
1011.04	210.05
1011.33	209.98
1011.62	210.62
1011.91	210.79
1012.19	210.95
1012.48	210.74
1012.77	210.69
1013.05	211.48
1013.34	211.48
1013.63	211.38
1013.92	211.52
1014.20	211.29
1014.49	211.38
1014.78	211.67
1015.06	210.98
1015.35	210.74
1015.64	210.98
1015.92	211.29
1016.21	211.24
1016.50	211.14
1016.78	211.31
1017.07	211.64
1017.36	211.19
1017.64	210.64
1017.93	210.74
1018.22	210.81
1018.50	211.02
1018.79	211.02
1019.08	209.98
1019.36	210.10
1019.65	209.93
1019.93	210.36
1020.22	210.83
1020.51	211.71
1020.79	211.52
1021.08	216.00
1021.36	208.00
1021.65	210.50
1021.94	208.50
1022.22	211.00
1022.51	206.50
1022.79	218.50
1023.08	214.50
1023.36	232.00
1023.65	206.00
>>>>>End Processed Spectral Data<<<<<
