SpectraSuite Data File
++++++++++++++++++++++++++++++++++++
Date: Tue Apr 02 18:44:48 EDT 2013
User: group
Dark Spectrum Present: No
Reference Spectrum Present: No
Number of Sampled Component Spectra: 1
Spectrometers: USB2E7196
Integration Time (usec): 580000 (USB2E7196)
Spectra Averaged: 2 (USB2E7196)
Boxcar Smoothing: 10 (USB2E7196)
Correct for Electrical Dark: No (USB2E7196)
Strobe/Lamp Enabled: No (USB2E7196)
Correct for Detector Non-linearity: No (USB2E7196)
Correct for Stray Light: No (USB2E7196)
Number of Pixels in Processed Spectrum: 2048
>>>>>Begin Processed Spectral Data<<<<<
339.09	0.00
339.48	195.50
339.86	197.00
340.24	196.50
340.63	198.00
341.01	233.00
341.39	202.00
341.78	209.00
342.16	211.00
342.54	203.00
342.93	197.24
343.31	206.95
343.69	207.50
344.07	207.90
344.46	208.57
344.84	208.93
345.22	207.43
345.60	207.76
345.99	208.02
346.37	207.98
346.75	208.14
347.13	208.29
347.52	208.50
347.90	209.17
348.28	209.64
348.66	210.10
349.05	209.62
349.43	210.05
349.81	210.19
350.19	210.26
350.57	210.24
350.96	210.31
351.34	210.55
351.72	210.50
352.10	210.69
352.48	210.57
352.87	210.69
353.25	211.02
353.63	210.98
354.01	211.02
354.39	211.12
354.77	211.24
355.15	211.88
355.54	211.67
355.92	210.88
356.30	210.74
356.68	211.98
357.06	212.10
357.44	211.88
357.82	211.95
358.20	213.00
358.58	213.10
358.97	213.12
359.35	213.55
359.73	214.05
360.11	213.95
360.49	214.14
360.87	214.14
361.25	214.31
361.63	215.12
362.01	215.02
362.39	215.05
362.77	215.19
363.15	215.14
363.53	215.31
363.91	215.74
364.29	216.14
364.67	214.43
365.05	214.52
365.43	214.90
365.81	215.40
366.19	215.67
366.57	216.55
366.95	216.60
367.33	216.21
367.71	216.43
368.09	217.19
368.47	217.31
368.85	217.57
369.23	218.21
369.61	217.62
369.99	218.40
370.37	218.57
370.75	219.60
371.13	219.29
371.51	219.14
371.89	219.43
372.27	219.31
372.65	219.38
373.03	219.52
373.41	219.14
373.78	218.86
374.16	218.05
374.54	217.55
374.92	217.48
375.30	217.40
375.68	216.88
376.06	216.90
376.44	216.71
376.82	216.76
377.19	216.55
377.57	216.33
377.95	215.43
378.33	215.19
378.71	214.17
379.09	214.36
379.47	214.55
379.84	214.21
380.22	213.90
380.60	213.48
380.98	213.19
381.36	213.21
381.73	212.83
382.11	212.95
382.49	212.88
382.87	212.69
383.25	213.00
383.62	215.36
384.00	214.45
384.38	214.52
384.76	214.79
385.13	215.57
385.51	215.60
385.89	215.55
386.27	215.81
386.64	215.98
387.02	215.50
387.40	215.40
387.78	215.50
388.15	215.52
388.53	215.69
388.91	215.86
389.29	215.74
389.66	216.33
390.04	216.07
390.42	216.29
390.79	216.26
391.17	215.95
391.55	213.71
391.92	214.00
392.30	214.21
392.68	213.86
393.05	213.55
393.43	213.64
393.81	213.60
394.18	213.38
394.56	213.17
394.94	213.86
395.31	213.57
395.69	214.17
396.06	214.36
396.44	214.43
396.82	214.40
397.19	215.43
397.57	214.86
397.95	215.10
398.32	214.48
398.70	214.62
399.07	215.12
399.45	214.93
399.82	214.90
400.20	214.50
400.58	214.14
400.95	213.31
401.33	213.79
401.70	215.38
402.08	215.36
402.45	215.64
402.83	216.07
403.20	216.36
403.58	215.93
403.95	216.67
404.33	217.00
404.71	217.29
405.08	218.50
405.46	219.02
405.83	219.45
406.21	219.98
406.58	220.43
406.96	220.67
407.33	221.45
407.70	222.24
408.08	224.43
408.45	225.67
408.83	226.64
409.20	226.79
409.58	226.00
409.95	227.14
410.33	227.79
410.70	228.12
411.08	229.36
411.45	230.55
411.82	231.14
412.20	232.76
412.57	235.21
412.95	234.64
413.32	236.29
413.69	237.74
414.07	239.26
414.44	241.14
414.82	243.05
415.19	245.33
415.56	247.55
415.94	248.81
416.31	251.64
416.68	254.29
417.06	258.00
417.43	261.76
417.81	265.19
418.18	269.26
418.55	273.07
418.93	276.98
419.30	281.29
419.67	285.93
420.04	290.45
420.42	294.60
420.79	301.95
421.16	307.79
421.54	314.55
421.91	320.79
422.28	326.93
422.66	333.43
423.03	341.52
423.40	348.38
423.77	355.45
424.15	362.29
424.52	370.33
424.89	378.57
425.26	386.19
425.64	393.45
426.01	401.62
426.38	410.55
426.75	420.21
427.13	429.33
427.50	438.79
427.87	448.55
428.24	458.21
428.61	466.62
428.99	477.60
429.36	488.00
429.73	499.55
430.10	510.83
430.47	522.50
430.85	532.88
431.22	545.33
431.59	559.86
431.96	572.79
432.33	586.64
432.70	600.33
433.08	616.50
433.45	631.81
433.82	646.90
434.19	663.95
434.56	680.60
434.93	696.07
435.30	712.29
435.68	730.38
436.05	747.33
436.42	763.95
436.79	779.69
437.16	797.33
437.53	814.98
437.90	832.36
438.27	849.93
438.64	868.10
439.01	885.19
439.38	899.29
439.75	914.12
440.13	930.71
440.50	945.93
440.87	958.26
441.24	971.69
441.61	986.14
441.98	996.52
442.35	1008.64
442.72	1022.02
443.09	1035.45
443.46	1042.45
443.83	1048.24
444.20	1052.93
444.57	1058.81
444.94	1061.76
445.31	1064.95
445.68	1071.12
446.05	1072.60
446.42	1071.14
446.79	1069.86
447.16	1068.14
447.53	1067.26
447.90	1061.62
448.27	1055.90
448.64	1047.62
449.01	1041.50
449.37	1030.93
449.74	1020.12
450.11	1008.93
450.48	993.95
450.85	977.95
451.22	965.40
451.59	952.79
451.96	941.29
452.33	926.19
452.70	911.43
453.07	894.71
453.43	875.29
453.80	859.12
454.17	843.05
454.54	827.88
454.91	811.57
455.28	795.10
455.65	779.40
456.02	767.60
456.38	754.83
456.75	739.64
457.12	725.95
457.49	713.50
457.86	699.07
458.23	688.98
458.59	677.02
458.96	665.24
459.33	655.43
459.70	645.24
460.07	636.45
460.43	627.29
460.80	618.55
461.17	611.31
461.54	603.33
461.91	595.57
462.27	587.48
462.64	580.52
463.01	573.10
463.38	566.76
463.74	555.90
464.11	549.74
464.48	543.86
464.85	537.83
465.21	533.07
465.58	528.07
465.95	521.62
466.32	516.83
466.68	511.43
467.05	506.12
467.42	500.90
467.78	495.69
468.15	490.71
468.52	487.29
468.88	481.83
469.25	477.07
469.62	474.36
469.98	470.07
470.35	466.62
470.72	463.29
471.08	459.07
471.45	456.60
471.82	453.55
472.18	450.12
472.55	447.50
472.92	443.90
473.28	440.93
473.65	438.05
474.02	435.29
474.38	433.48
474.75	431.50
475.11	429.26
475.48	427.57
475.85	425.81
476.21	423.83
476.58	422.69
476.94	421.45
477.31	419.36
477.67	418.24
478.04	417.00
478.41	416.00
478.77	417.10
479.14	416.14
479.50	415.36
479.87	415.05
480.23	414.69
480.60	414.02
480.96	413.88
481.33	414.76
481.69	414.86
482.06	414.90
482.42	415.26
482.79	416.00
483.15	416.67
483.52	417.69
483.88	417.74
484.25	417.81
484.61	418.67
484.98	419.57
485.34	421.10
485.71	422.67
486.07	424.29
486.44	423.95
486.80	425.60
487.17	427.31
487.53	429.67
487.90	432.00
488.26	435.26
488.62	437.64
488.99	439.21
489.35	441.36
489.72	443.88
490.08	446.48
490.44	448.88
490.81	452.02
491.17	454.79
491.54	458.60
491.90	462.33
492.26	465.48
492.63	469.55
492.99	472.69
493.36	476.64
493.72	481.07
494.08	485.29
494.45	489.74
494.81	494.33
495.17	498.71
495.54	503.52
495.90	507.76
496.26	512.95
496.63	519.19
496.99	524.55
497.35	530.26
497.72	536.21
498.08	542.55
498.44	548.76
498.80	555.62
499.17	561.79
499.53	567.88
499.89	575.21
500.26	581.60
500.62	588.64
500.98	596.10
501.34	602.55
501.71	610.02
502.07	617.38
502.43	624.86
502.79	631.55
503.16	638.71
503.52	646.19
503.88	653.29
504.24	660.38
504.60	667.98
504.97	675.64
505.33	683.50
505.69	691.62
506.05	699.07
506.41	706.00
506.78	713.86
507.14	721.62
507.50	729.17
507.86	737.07
508.22	745.02
508.59	751.71
508.95	759.76
509.31	767.83
509.67	775.07
510.03	782.29
510.39	790.10
510.75	798.02
511.12	805.90
511.48	814.17
511.84	821.62
512.20	829.67
512.56	837.76
512.92	845.10
513.28	852.55
513.64	860.02
514.00	867.43
514.37	874.29
514.73	881.88
515.09	889.24
515.45	896.29
515.81	902.88
516.17	909.19
516.53	915.36
516.89	921.31
517.25	927.98
517.61	934.88
517.97	941.48
518.33	947.57
518.69	953.67
519.05	959.79
519.41	965.38
519.77	972.40
520.13	977.19
520.49	982.86
520.85	988.48
521.21	994.48
521.57	1000.60
521.93	1005.74
522.29	1010.93
522.65	1015.64
523.01	1021.14
523.37	1026.88
523.73	1032.38
524.09	1037.60
524.45	1042.90
524.81	1047.38
525.17	1052.55
525.53	1057.40
525.89	1061.90
526.25	1066.90
526.61	1070.95
526.97	1075.29
527.33	1079.45
527.68	1085.69
528.04	1089.48
528.40	1093.07
528.76	1097.07
529.12	1100.50
529.48	1105.95
529.84	1110.10
530.20	1114.71
530.56	1118.43
530.91	1122.57
531.27	1127.43
531.63	1131.81
531.99	1135.52
532.35	1139.19
532.71	1141.95
533.07	1145.98
533.42	1153.07
533.78	1157.07
534.14	1161.00
534.50	1165.45
534.86	1168.95
535.21	1171.67
535.57	1176.19
535.93	1180.02
536.29	1184.55
536.65	1189.40
537.00	1192.74
537.36	1196.45
537.72	1199.10
538.08	1202.81
538.44	1205.50
538.79	1208.79
539.15	1211.48
539.51	1215.55
539.87	1219.90
540.22	1224.29
540.58	1228.05
540.94	1229.10
541.29	1232.52
541.65	1234.79
542.01	1237.62
542.37	1240.33
542.72	1242.36
543.08	1244.19
543.44	1247.12
543.79	1247.86
544.15	1250.57
544.51	1253.83
544.87	1257.62
545.22	1261.60
545.58	1263.90
545.94	1266.76
546.29	1269.43
546.65	1272.57
547.01	1274.19
547.36	1276.31
547.72	1278.31
548.07	1280.93
548.43	1282.79
548.79	1283.83
549.14	1287.45
549.50	1291.02
549.86	1293.40
550.21	1295.88
550.57	1300.12
550.92	1302.19
551.28	1305.38
551.64	1307.74
551.99	1310.02
552.35	1312.24
552.70	1313.88
553.06	1317.45
553.41	1320.71
553.77	1325.43
554.13	1329.48
554.48	1333.67
554.84	1337.93
555.19	1341.90
555.55	1347.26
555.90	1351.10
556.26	1355.86
556.61	1359.67
556.97	1362.31
557.32	1366.05
557.68	1369.67
558.03	1372.81
558.39	1377.02
558.74	1382.14
559.10	1386.55
559.45	1390.48
559.81	1394.24
560.16	1399.19
560.52	1403.33
560.87	1408.31
561.23	1410.60
561.58	1416.74
561.94	1420.76
562.29	1424.33
562.64	1429.07
563.00	1431.62
563.35	1435.57
563.71	1440.52
564.06	1445.86
564.42	1451.67
564.77	1458.05
565.12	1465.10
565.48	1472.40
565.83	1479.43
566.19	1485.02
566.54	1490.19
566.89	1495.64
567.25	1501.40
567.60	1508.69
567.96	1516.00
568.31	1522.69
568.66	1529.95
569.02	1534.02
569.37	1539.71
569.72	1546.02
570.08	1551.67
570.43	1556.98
570.78	1563.83
571.14	1569.38
571.49	1573.86
571.84	1579.60
572.20	1584.33
572.55	1589.26
572.90	1592.26
573.26	1595.90
573.61	1599.36
573.96	1604.40
574.31	1609.52
574.67	1614.38
575.02	1617.33
575.37	1619.31
575.72	1621.90
576.08	1625.67
576.43	1629.19
576.78	1632.45
577.13	1636.43
577.49	1639.55
577.84	1643.83
578.19	1646.98
578.54	1651.57
578.90	1656.67
579.25	1659.17
579.60	1661.33
579.95	1664.38
580.30	1668.31
580.66	1672.02
581.01	1676.86
581.36	1679.40
581.71	1682.81
582.06	1687.07
582.42	1691.14
582.77	1694.45
583.12	1698.10
583.47	1700.43
583.82	1703.43
584.17	1707.81
584.53	1711.05
584.88	1715.10
585.23	1719.05
585.58	1721.93
585.93	1723.64
586.28	1725.24
586.63	1728.52
586.98	1732.21
587.34	1735.52
587.69	1737.93
588.04	1739.98
588.39	1741.83
588.74	1744.05
589.09	1745.50
589.44	1745.69
589.79	1748.07
590.14	1751.00
590.49	1752.07
590.84	1753.64
591.19	1756.12
591.54	1756.93
591.89	1757.90
592.25	1761.33
592.60	1761.76
592.95	1763.14
593.30	1765.57
593.65	1765.93
594.00	1766.29
594.35	1773.76
594.70	1773.69
595.05	1774.81
595.40	1776.21
595.75	1777.67
596.10	1779.19
596.45	1780.55
596.80	1782.45
597.15	1782.38
597.50	1782.88
597.85	1785.14
598.19	1784.98
598.54	1784.74
598.89	1785.05
599.24	1786.36
599.59	1784.45
599.94	1784.40
600.29	1784.79
600.64	1783.90
600.99	1785.07
601.34	1786.00
601.69	1779.74
602.04	1779.36
602.39	1778.14
602.74	1778.26
603.08	1776.60
603.43	1777.62
603.78	1777.36
604.13	1776.38
604.48	1775.00
604.83	1774.02
605.18	1772.55
605.53	1772.69
605.87	1771.26
606.22	1771.02
606.57	1769.31
606.92	1768.00
607.27	1767.43
607.62	1766.21
607.96	1765.74
608.31	1765.10
608.66	1763.88
609.01	1762.50
609.36	1761.55
609.70	1760.64
610.05	1757.93
610.40	1756.69
610.75	1752.60
611.10	1750.88
611.44	1748.69
611.79	1746.86
612.14	1744.71
612.49	1741.24
612.83	1739.19
613.18	1737.07
613.53	1734.19
613.88	1731.02
614.22	1727.24
614.57	1723.33
614.92	1720.10
615.27	1716.48
615.61	1711.90
615.96	1708.36
616.31	1704.74
616.65	1703.24
617.00	1701.19
617.35	1699.14
617.70	1696.64
618.04	1693.98
618.39	1689.60
618.74	1686.02
619.08	1682.24
619.43	1679.19
619.78	1676.57
620.12	1673.02
620.47	1669.69
620.82	1665.02
621.16	1660.57
621.51	1658.21
621.85	1654.02
622.20	1649.93
622.55	1644.95
622.89	1641.55
623.24	1637.93
623.59	1634.00
623.93	1628.83
624.28	1623.48
624.62	1620.62
624.97	1616.88
625.32	1612.95
625.66	1609.33
626.01	1605.62
626.35	1602.12
626.70	1597.48
627.04	1594.40
627.39	1589.57
627.73	1586.24
628.08	1583.50
628.43	1580.88
628.77	1576.55
629.12	1573.60
629.46	1569.95
629.81	1566.45
630.15	1561.90
630.50	1557.29
630.84	1552.88
631.19	1547.48
631.53	1544.00
631.88	1537.02
632.22	1530.88
632.57	1526.83
632.91	1522.07
633.26	1517.48
633.60	1512.71
633.95	1507.50
634.29	1500.79
634.64	1496.98
634.98	1491.60
635.32	1486.90
635.67	1483.19
636.01	1478.86
636.36	1473.98
636.70	1469.74
637.05	1465.95
637.39	1461.83
637.73	1457.95
638.08	1454.12
638.42	1450.50
638.77	1445.81
639.11	1442.00
639.45	1437.67
639.80	1432.48
640.14	1427.93
640.49	1423.19
640.83	1417.69
641.17	1413.07
641.52	1408.83
641.86	1403.81
642.20	1399.93
642.55	1394.19
642.89	1387.79
643.23	1381.81
643.58	1377.52
643.92	1371.57
644.26	1365.43
644.61	1360.83
644.95	1354.12
645.29	1347.45
645.64	1342.02
645.98	1336.26
646.32	1330.29
646.66	1324.17
647.01	1317.74
647.35	1312.26
647.69	1305.98
648.04	1301.10
648.38	1295.95
648.72	1290.55
649.06	1284.62
649.41	1277.71
649.75	1272.14
650.09	1265.26
650.43	1259.76
650.78	1252.74
651.12	1246.62
651.46	1240.19
651.80	1233.62
652.14	1228.40
652.49	1223.21
652.83	1216.60
653.17	1209.79
653.51	1203.81
653.85	1198.02
654.20	1191.83
654.54	1184.71
654.88	1178.48
655.22	1172.43
655.56	1166.12
655.90	1158.83
656.25	1152.48
656.59	1146.12
656.93	1139.33
657.27	1135.00
657.61	1128.02
657.95	1122.50
658.29	1116.31
658.64	1110.55
658.98	1103.29
659.32	1095.74
659.66	1089.19
660.00	1083.10
660.34	1077.10
660.68	1071.10
661.02	1064.71
661.36	1058.88
661.70	1052.45
662.05	1045.93
662.39	1039.33
662.73	1033.26
663.07	1029.17
663.41	1023.10
663.75	1017.07
664.09	1011.43
664.43	1004.71
664.77	999.36
665.11	992.50
665.45	986.17
665.79	980.62
666.13	975.29
666.47	970.43
666.81	964.33
667.15	958.33
667.49	953.29
667.83	947.74
668.17	942.07
668.51	936.40
668.85	932.00
669.19	928.17
669.53	922.38
669.87	916.19
670.21	909.81
670.55	903.83
670.89	899.48
671.23	894.17
671.57	888.12
671.91	882.43
672.25	876.62
672.58	872.33
672.92	865.98
673.26	860.79
673.60	855.55
673.94	850.62
674.28	846.00
674.62	840.45
674.96	835.14
675.30	830.33
675.64	825.24
675.97	820.10
676.31	813.69
676.65	808.50
676.99	804.60
677.33	799.17
677.67	794.74
678.01	788.52
678.34	783.43
678.68	779.10
679.02	773.29
679.36	768.36
679.70	762.71
680.04	758.31
680.37	753.12
680.71	748.17
681.05	743.36
681.39	737.95
681.73	733.40
682.06	728.02
682.40	723.38
682.74	718.74
683.08	714.52
683.42	709.57
683.75	705.26
684.09	699.60
684.43	695.05
684.77	690.05
685.10	685.19
685.44	680.60
685.78	675.79
686.12	672.21
686.45	667.55
686.79	662.88
687.13	658.79
687.46	654.29
687.80	650.24
688.14	645.95
688.48	642.12
688.81	636.71
689.15	632.81
689.49	628.19
689.82	623.71
690.16	617.98
690.50	614.02
690.83	608.95
691.17	604.45
691.51	600.17
691.84	596.57
692.18	592.86
692.52	589.07
692.85	585.33
693.19	582.02
693.52	578.40
693.86	574.29
694.20	570.07
694.53	566.31
694.87	561.83
695.21	557.50
695.54	553.02
695.88	549.17
696.21	545.12
696.55	541.45
696.88	537.55
697.22	534.60
697.56	531.24
697.89	527.95
698.23	525.14
698.56	521.12
698.90	517.43
699.23	513.81
699.57	510.07
699.90	506.26
700.24	502.17
700.58	498.67
700.91	495.81
701.25	494.24
701.58	491.64
701.92	489.14
702.25	486.12
702.59	483.00
702.92	479.79
703.26	476.67
703.59	473.69
703.93	472.69
704.26	469.31
704.60	466.17
704.93	463.40
705.26	459.95
705.60	457.93
705.93	454.88
706.27	452.55
706.60	450.19
706.94	448.31
707.27	445.14
707.61	442.62
707.94	439.64
708.27	435.00
708.61	431.21
708.94	428.14
709.28	425.64
709.61	423.02
709.94	420.86
710.28	418.79
710.61	415.95
710.95	411.36
711.28	410.29
711.61	407.69
711.95	405.62
712.28	403.33
712.61	400.50
712.95	398.93
713.28	397.19
713.61	394.33
713.95	391.36
714.28	389.74
714.61	387.31
714.95	384.98
715.28	382.88
715.61	381.12
715.95	379.12
716.28	376.86
716.61	375.14
716.95	372.79
717.28	370.45
717.61	368.67
717.94	366.93
718.28	363.40
718.61	361.36
718.94	359.31
719.27	357.24
719.61	355.67
719.94	353.10
720.27	350.14
720.60	348.19
720.94	346.24
721.27	344.38
721.60	342.98
721.93	341.50
722.27	340.57
722.60	339.12
722.93	337.24
723.26	335.76
723.59	333.71
723.93	332.40
724.26	330.95
724.59	329.40
724.92	328.36
725.25	327.93
725.59	326.88
725.92	325.86
726.25	324.90
726.58	323.86
726.91	322.71
727.24	321.74
727.57	320.52
727.91	319.40
728.24	318.31
728.57	316.90
728.90	315.83
729.23	314.00
729.56	313.62
729.89	312.55
730.22	311.10
730.55	310.24
730.89	309.33
731.22	308.12
731.55	307.02
731.88	306.00
732.21	304.12
732.54	302.95
732.87	301.69
733.20	300.60
733.53	299.31
733.86	298.50
734.19	297.33
734.52	297.02
734.85	297.43
735.18	296.24
735.51	296.14
735.84	295.52
736.17	295.24
736.50	293.36
736.83	295.00
737.16	294.24
737.49	293.33
737.82	292.29
738.15	291.93
738.48	291.19
738.81	289.83
739.14	289.29
739.47	288.29
739.80	287.36
740.13	286.79
740.46	285.93
740.79	284.86
741.12	283.93
741.45	282.55
741.78	280.55
742.11	280.21
742.44	278.69
742.77	278.05
743.10	276.74
743.43	276.21
743.75	273.14
744.08	275.14
744.41	274.31
744.74	273.60
745.07	272.21
745.40	271.88
745.73	272.38
746.06	271.43
746.39	271.17
746.71	270.50
747.04	269.38
747.37	268.81
747.70	268.40
748.03	267.93
748.36	267.71
748.68	267.14
749.01	266.12
749.34	265.64
749.67	265.12
750.00	264.98
750.33	265.62
750.65	265.05
750.98	261.93
751.31	261.38
751.64	261.02
751.97	261.83
752.29	261.10
752.62	259.33
752.95	258.88
753.28	257.90
753.60	257.00
753.93	257.31
754.26	256.40
754.59	255.12
754.91	254.07
755.24	253.21
755.57	252.52
755.90	251.79
756.22	251.38
756.55	250.36
756.88	249.26
757.20	247.38
757.53	246.52
757.86	246.07
758.19	245.83
758.51	245.40
758.84	243.60
759.17	242.69
759.49	242.74
759.82	243.36
760.15	242.98
760.47	242.60
760.80	241.43
761.13	241.52
761.45	241.12
761.78	240.93
762.11	240.57
762.43	240.17
762.76	239.81
763.08	239.52
763.41	239.45
763.74	239.52
764.06	239.45
764.39	239.12
764.71	238.67
765.04	237.88
765.37	237.38
765.69	237.02
766.02	236.81
766.34	236.00
766.67	235.00
767.00	235.50
767.32	236.26
767.65	237.26
767.97	236.83
768.30	236.86
768.62	236.90
768.95	236.64
769.27	236.29
769.60	236.31
769.92	235.62
770.25	234.93
770.57	234.07
770.90	233.50
771.22	233.17
771.55	233.10
771.87	233.17
772.20	232.88
772.52	234.43
772.85	236.74
773.17	236.62
773.50	236.21
773.82	235.50
774.15	234.50
774.47	233.05
774.80	232.62
775.12	232.50
775.45	232.05
775.77	231.86
776.09	231.90
776.42	231.93
776.74	232.52
777.07	232.19
777.39	232.33
777.72	232.14
778.04	232.12
778.36	231.86
778.69	231.50
779.01	231.26
779.33	229.43
779.66	226.95
779.98	227.00
780.31	226.62
780.63	227.36
780.95	227.52
781.28	227.29
781.60	227.05
781.92	226.88
782.25	226.69
782.57	226.57
782.89	226.14
783.22	225.50
783.54	224.93
783.86	225.26
784.19	224.81
784.51	225.38
784.83	225.02
785.16	224.67
785.48	224.48
785.80	224.45
786.12	224.69
786.45	224.62
786.77	224.14
787.09	223.90
787.42	222.79
787.74	222.71
788.06	222.62
788.38	222.31
788.71	221.81
789.03	221.90
789.35	221.98
789.67	221.74
789.99	221.93
790.32	221.48
790.64	221.45
790.96	223.07
791.28	222.29
791.61	222.26
791.93	222.40
792.25	222.67
792.57	224.12
792.89	223.43
793.21	223.38
793.54	223.36
793.86	223.45
794.18	223.52
794.50	222.88
794.82	222.93
795.14	223.45
795.47	223.76
795.79	223.67
796.11	223.31
796.43	223.17
796.75	222.90
797.07	223.02
797.39	222.81
797.71	221.21
798.04	221.26
798.36	221.21
798.68	221.00
799.00	220.98
799.32	219.83
799.64	220.21
799.96	220.21
800.28	220.57
800.60	220.19
800.92	220.26
801.24	220.33
801.56	220.21
801.89	219.86
802.21	219.95
802.53	219.55
802.85	219.64
803.17	220.55
803.49	220.26
803.81	220.00
804.13	219.83
804.45	219.67
804.77	219.81
805.09	219.74
805.41	219.57
805.73	218.93
806.05	218.19
806.37	218.10
806.69	217.79
807.01	217.71
807.33	218.02
807.65	217.26
807.97	218.00
808.28	217.83
808.60	218.02
808.92	217.83
809.24	219.29
809.56	219.19
809.88	218.21
810.20	218.17
810.52	218.57
810.84	218.55
811.16	218.29
811.48	218.12
811.80	218.83
812.12	218.76
812.43	219.31
812.75	219.48
813.07	219.07
813.39	219.29
813.71	218.88
814.03	218.52
814.35	218.74
814.67	218.05
814.98	217.93
815.30	217.52
815.62	217.14
815.94	215.60
816.26	215.43
816.58	215.40
816.89	215.67
817.21	215.17
817.53	215.17
817.85	215.36
818.17	215.14
818.48	214.26
818.80	214.57
819.12	214.10
819.44	213.69
819.76	213.60
820.07	213.36
820.39	213.36
820.71	213.45
821.03	213.36
821.34	213.26
821.66	213.67
821.98	214.10
822.30	214.02
822.61	215.14
822.93	214.98
823.25	215.02
823.57	214.79
823.88	215.33
824.20	215.31
824.52	215.55
824.83	215.38
825.15	215.31
825.47	215.43
825.79	215.69
826.10	215.83
826.42	215.79
826.74	216.24
827.05	216.17
827.37	216.17
827.69	215.88
828.00	216.00
828.32	216.02
828.64	215.48
828.95	216.71
829.27	216.29
829.58	216.10
829.90	216.31
830.22	216.52
830.53	215.98
830.85	215.69
831.17	215.19
831.48	215.17
831.80	215.38
832.11	214.93
832.43	214.57
832.75	214.55
833.06	215.81
833.38	214.93
833.69	214.90
834.01	214.86
834.32	215.10
834.64	214.69
834.96	214.79
835.27	214.93
835.59	214.12
835.90	213.76
836.22	214.00
836.53	213.36
836.85	213.14
837.16	214.95
837.48	214.95
837.79	215.71
838.11	216.10
838.42	216.10
838.74	216.50
839.05	216.29
839.37	216.14
839.68	214.79
840.00	214.83
840.31	215.00
840.63	215.24
840.94	214.90
841.26	214.95
841.57	214.62
841.88	214.60
842.20	214.36
842.51	214.14
842.83	214.00
843.14	215.93
843.46	215.81
843.77	215.02
844.08	214.95
844.40	214.17
844.71	213.76
845.03	213.50
845.34	213.36
845.65	213.29
845.97	213.31
846.28	213.55
846.60	213.74
846.91	213.43
847.22	213.24
847.54	213.71
847.85	213.64
848.16	213.57
848.48	213.38
848.79	214.24
849.10	214.52
849.42	214.69
849.73	212.90
850.04	213.17
850.36	212.38
850.67	212.76
850.98	212.93
851.30	213.17
851.61	213.14
851.92	213.17
852.23	214.14
852.55	214.36
852.86	214.43
853.17	214.33
853.49	214.76
853.80	214.81
854.11	215.24
854.42	215.60
854.74	215.29
855.05	215.26
855.36	214.21
855.67	214.14
855.99	214.07
856.30	216.60
856.61	216.21
856.92	216.21
857.23	216.26
857.55	216.29
857.86	216.26
858.17	216.62
858.48	216.07
858.79	215.45
859.11	215.74
859.42	215.52
859.73	215.50
860.04	215.40
860.35	215.21
860.66	214.45
860.98	214.45
861.29	214.74
861.60	214.69
861.91	214.95
862.22	214.71
862.53	214.31
862.84	211.74
863.16	212.67
863.47	212.33
863.78	211.95
864.09	212.14
864.40	212.19
864.71	211.88
865.02	212.24
865.33	212.17
865.64	211.79
865.95	211.67
866.27	213.14
866.58	212.90
866.89	213.17
867.20	213.17
867.51	212.76
867.82	212.50
868.13	213.07
868.44	212.88
868.75	213.31
869.06	213.76
869.37	213.95
869.68	212.71
869.99	213.00
870.30	213.07
870.61	212.95
870.92	212.62
871.23	212.67
871.54	212.88
871.85	213.36
872.16	213.67
872.47	213.79
872.78	212.52
873.09	212.67
873.40	212.45
873.71	212.64
874.02	212.64
874.33	212.64
874.64	212.31
874.95	212.67
875.26	212.12
875.56	211.81
875.87	211.88
876.18	212.10
876.49	214.10
876.80	213.93
877.11	213.74
877.42	213.81
877.73	214.00
878.04	213.69
878.35	213.48
878.66	213.48
878.96	213.38
879.27	213.29
879.58	213.17
879.89	212.98
880.20	213.55
880.51	213.71
880.82	213.95
881.12	213.83
881.43	213.48
881.74	213.26
882.05	213.52
882.36	213.52
882.67	213.79
882.97	211.67
883.28	211.88
883.59	211.86
883.90	212.07
884.21	212.17
884.51	212.12
884.82	211.81
885.13	211.64
885.44	211.57
885.74	211.69
886.05	211.69
886.36	211.98
886.67	211.12
886.98	212.07
887.28	212.17
887.59	212.33
887.90	212.29
888.20	212.26
888.51	212.36
888.82	212.05
889.13	212.24
889.43	213.98
889.74	213.69
890.05	213.57
890.35	213.50
890.66	213.24
890.97	213.24
891.28	213.10
891.58	213.24
891.89	213.31
892.20	213.05
892.50	212.98
892.81	212.60
893.12	212.60
893.42	211.71
893.73	211.62
894.04	211.69
894.34	211.74
894.65	211.76
894.95	211.60
895.26	212.00
895.57	212.98
895.87	211.07
896.18	211.45
896.48	211.71
896.79	211.81
897.10	212.21
897.40	212.19
897.71	212.74
898.01	212.62
898.32	212.90
898.63	212.88
898.93	213.02
899.24	213.48
899.54	213.43
899.85	213.19
900.15	213.12
900.46	213.29
900.76	213.50
901.07	213.52
901.38	213.43
901.68	213.36
901.99	212.43
902.29	212.36
902.60	212.05
902.90	211.69
903.21	211.55
903.51	211.10
903.82	211.57
904.12	211.29
904.43	211.10
904.73	211.14
905.03	211.36
905.34	212.98
905.64	212.45
905.95	212.62
906.25	212.62
906.56	212.60
906.86	212.31
907.17	212.24
907.47	212.57
907.77	212.60
908.08	212.24
908.38	212.05
908.69	212.31
908.99	212.83
909.30	213.17
909.60	213.17
909.90	213.50
910.21	212.86
910.51	212.64
910.81	213.07
911.12	212.86
911.42	212.88
911.73	211.02
912.03	211.31
912.33	211.67
912.64	211.88
912.94	211.69
913.24	211.45
913.55	211.12
913.85	210.60
914.15	210.95
914.46	211.12
914.76	211.02
915.06	211.10
915.37	210.57
915.67	210.40
915.97	210.31
916.27	210.10
916.58	210.05
916.88	210.21
917.18	210.00
917.49	211.57
917.79	211.19
918.09	211.50
918.39	212.02
918.70	211.71
919.00	211.48
919.30	212.60
919.60	212.40
919.91	212.36
920.21	212.76
920.51	212.19
920.81	212.17
921.12	212.60
921.42	212.45
921.72	212.60
922.02	212.74
922.32	213.05
922.63	212.98
922.93	214.26
923.23	214.14
923.53	213.88
923.83	212.21
924.13	212.33
924.44	212.26
924.74	212.52
925.04	213.07
925.34	213.14
925.64	212.17
925.94	212.17
926.24	213.52
926.55	213.21
926.85	213.60
927.15	213.69
927.45	213.74
927.75	213.71
928.05	213.95
928.35	213.76
928.65	213.90
928.95	213.90
929.26	212.98
929.56	213.29
929.86	213.48
930.16	213.45
930.46	213.48
930.76	213.62
931.06	212.83
931.36	212.33
931.66	212.79
931.96	213.00
932.26	213.38
932.56	212.57
932.86	212.86
933.16	212.81
933.46	212.55
933.76	212.05
934.06	212.45
934.36	213.12
934.66	213.07
934.96	212.90
935.26	213.24
935.56	213.60
935.86	213.21
936.16	212.81
936.46	212.93
936.76	212.69
937.06	212.40
937.36	212.45
937.66	212.52
937.96	212.17
938.26	211.74
938.56	211.55
938.86	211.52
939.16	211.79
939.46	212.05
939.76	212.12
940.06	212.21
940.35	211.67
940.65	210.52
940.95	210.57
941.25	210.05
941.55	209.62
941.85	209.52
942.15	210.24
942.45	211.05
942.75	210.81
943.04	211.12
943.34	211.38
943.64	211.26
943.94	211.00
944.24	211.02
944.54	211.19
944.84	211.31
945.13	211.02
945.43	210.69
945.73	210.55
946.03	210.67
946.33	210.43
946.62	210.55
946.92	210.69
947.22	211.12
947.52	211.60
947.82	211.62
948.11	211.19
948.41	210.60
948.71	209.90
949.01	210.17
949.31	209.86
949.60	209.86
949.90	209.95
950.20	209.88
950.50	210.07
950.79	209.98
951.09	210.07
951.39	210.00
951.69	210.00
951.98	210.33
952.28	210.29
952.58	210.45
952.87	210.45
953.17	210.60
953.47	210.14
953.76	209.88
954.06	209.79
954.36	209.45
954.66	209.45
954.95	209.90
955.25	209.64
955.55	209.95
955.84	209.55
956.14	209.81
956.44	210.05
956.73	209.52
957.03	209.55
957.32	209.38
957.62	209.31
957.92	209.79
958.21	209.67
958.51	212.31
958.81	212.57
959.10	212.71
959.40	213.07
959.69	213.29
959.99	213.67
960.29	213.60
960.58	213.90
960.88	214.62
961.17	214.52
961.47	214.86
961.76	214.62
962.06	215.10
962.36	214.86
962.65	214.93
962.95	215.02
963.24	214.81
963.54	215.10
963.83	215.40
964.13	215.00
964.42	214.36
964.72	212.43
965.01	212.31
965.31	212.31
965.60	211.95
965.90	213.21
966.19	212.71
966.49	212.98
966.78	212.98
967.08	212.93
967.37	212.98
967.67	212.90
967.96	213.50
968.26	213.38
968.55	213.93
968.85	213.74
969.14	213.86
969.43	214.14
969.73	213.90
970.02	213.69
970.32	213.40
970.61	213.45
970.91	212.71
971.20	212.45
971.49	212.21
971.79	212.31
972.08	210.76
972.38	210.76
972.67	210.60
972.96	210.90
973.26	210.14
973.55	210.81
973.85	210.67
974.14	210.45
974.43	210.74
974.73	210.12
975.02	210.17
975.31	210.19
975.61	210.07
975.90	209.71
976.19	209.67
976.49	210.19
976.78	210.36
977.07	210.55
977.37	210.64
977.66	210.62
977.95	210.43
978.24	210.36
978.54	210.98
978.83	210.79
979.12	210.64
979.42	210.88
979.71	210.31
980.00	210.29
980.29	210.29
980.59	209.69
980.88	210.17
981.17	210.10
981.46	209.98
981.76	210.02
982.05	210.83
982.34	211.00
982.63	210.98
982.93	210.98
983.22	211.48
983.51	211.64
983.80	211.90
984.09	212.14
984.39	212.24
984.68	211.83
984.97	212.14
985.26	211.67
985.55	211.67
985.85	211.14
986.14	211.43
986.43	211.62
986.72	211.64
987.01	211.02
987.30	211.17
987.59	210.95
987.89	211.00
988.18	210.36
988.47	210.14
988.76	209.95
989.05	209.81
989.34	209.33
989.63	209.71
989.92	209.67
990.22	209.36
990.51	209.36
990.80	209.43
991.09	209.33
991.38	209.90
991.67	209.71
991.96	209.60
992.25	209.79
992.54	209.31
992.83	209.19
993.12	209.36
993.41	209.40
993.70	210.36
993.99	210.64
994.28	210.95
994.58	211.10
994.87	210.76
995.16	210.69
995.45	210.62
995.74	209.71
996.03	209.90
996.32	210.45
996.61	211.00
996.90	210.76
997.19	210.98
997.48	210.83
997.77	210.79
998.06	211.02
998.34	210.60
998.63	210.79
998.92	211.12
999.21	211.29
999.50	211.33
999.79	210.83
1000.08	210.71
1000.37	210.81
1000.66	210.55
1000.95	211.02
1001.24	211.17
1001.53	211.43
1001.82	211.74
1002.11	211.14
1002.40	211.12
1002.68	211.40
1002.97	213.00
1003.26	212.50
1003.55	212.24
1003.84	212.48
1004.13	213.24
1004.42	213.10
1004.71	212.86
1004.99	212.81
1005.28	213.07
1005.57	212.83
1005.86	212.64
1006.15	212.62
1006.44	212.33
1006.72	212.60
1007.01	212.43
1007.30	212.52
1007.59	212.31
1007.88	212.14
1008.17	212.33
1008.45	211.95
1008.74	211.29
1009.03	210.24
1009.32	210.33
1009.60	210.43
1009.89	210.36
1010.18	209.52
1010.47	209.62
1010.76	209.74
1011.04	209.62
1011.33	209.69
1011.62	210.19
1011.91	210.24
1012.19	210.36
1012.48	210.29
1012.77	210.19
1013.05	211.12
1013.34	211.21
1013.63	211.00
1013.92	211.33
1014.20	211.14
1014.49	211.21
1014.78	211.24
1015.06	210.45
1015.35	210.64
1015.64	210.86
1015.92	211.02
1016.21	211.31
1016.50	211.24
1016.78	211.29
1017.07	211.24
1017.36	210.95
1017.64	210.26
1017.93	210.21
1018.22	209.93
1018.50	209.88
1018.79	209.81
1019.08	208.95
1019.36	208.93
1019.65	208.81
1019.93	209.26
1020.22	209.86
1020.51	210.86
1020.79	210.52
1021.08	207.50
1021.36	206.00
1021.65	207.00
1021.94	212.00
1022.22	211.50
1022.51	205.00
1022.79	221.00
1023.08	216.00
1023.36	233.50
1023.65	202.00
>>>>>End Processed Spectral Data<<<<<
