SpectraSuite Data File
++++++++++++++++++++++++++++++++++++
Date: Tue Apr 02 18:46:58 EDT 2013
User: group
Dark Spectrum Present: No
Reference Spectrum Present: No
Number of Sampled Component Spectra: 1
Spectrometers: USB2E7196
Integration Time (usec): 580000 (USB2E7196)
Spectra Averaged: 2 (USB2E7196)
Boxcar Smoothing: 10 (USB2E7196)
Correct for Electrical Dark: No (USB2E7196)
Strobe/Lamp Enabled: No (USB2E7196)
Correct for Detector Non-linearity: No (USB2E7196)
Correct for Stray Light: No (USB2E7196)
Number of Pixels in Processed Spectrum: 2048
>>>>>Begin Processed Spectral Data<<<<<
339.09	0.00
339.48	195.00
339.86	197.00
340.24	197.50
340.63	202.50
341.01	227.00
341.39	202.00
341.78	210.50
342.16	211.50
342.54	209.50
342.93	199.67
343.31	209.50
343.69	210.17
344.07	210.62
344.46	211.24
344.84	211.57
345.22	210.81
345.60	211.19
345.99	211.17
346.37	211.14
346.75	211.12
347.13	210.90
347.52	211.12
347.90	211.48
348.28	211.48
348.66	211.81
349.05	211.12
349.43	211.21
349.81	211.38
350.19	211.14
350.57	210.93
350.96	211.26
351.34	211.62
351.72	211.67
352.10	211.83
352.48	211.67
352.87	211.62
353.25	211.52
353.63	211.52
354.01	211.40
354.39	211.21
354.77	211.19
355.15	211.76
355.54	211.38
355.92	210.90
356.30	210.67
356.68	211.64
357.06	211.74
357.44	211.17
357.82	210.98
358.20	212.10
358.58	212.14
358.97	212.19
359.35	212.60
359.73	212.95
360.11	212.93
360.49	213.19
360.87	213.07
361.25	213.12
361.63	213.74
362.01	214.00
362.39	214.10
362.77	214.33
363.15	214.24
363.53	214.26
363.91	214.29
364.29	214.48
364.67	212.83
365.05	212.95
365.43	213.48
365.81	213.69
366.19	213.74
366.57	214.64
366.95	214.76
367.33	214.12
367.71	213.90
368.09	214.29
368.47	214.40
368.85	214.36
369.23	214.90
369.61	214.14
369.99	214.98
370.37	215.24
370.75	216.21
371.13	215.69
371.51	215.40
371.89	215.81
372.27	215.90
372.65	216.07
373.03	215.98
373.41	215.95
373.78	215.93
374.16	214.98
374.54	214.33
374.92	214.02
375.30	214.05
375.68	213.95
376.06	213.81
376.44	213.67
376.82	213.93
377.19	213.69
377.57	213.83
377.95	212.83
378.33	212.76
378.71	211.52
379.09	211.93
379.47	212.29
379.84	211.88
380.22	211.86
380.60	211.60
380.98	211.55
381.36	211.50
381.73	211.38
382.11	211.93
382.49	211.93
382.87	211.60
383.25	211.62
383.62	213.83
384.00	213.52
384.38	213.36
384.76	213.81
385.13	214.71
385.51	214.76
385.89	214.60
386.27	214.81
386.64	215.07
387.02	214.95
387.40	214.86
387.78	215.24
388.15	215.21
388.53	215.12
388.91	215.02
389.29	214.74
389.66	214.86
390.04	214.57
390.42	214.98
390.79	215.38
391.17	215.62
391.55	213.43
391.92	213.60
392.30	213.93
392.68	213.48
393.05	213.38
393.43	213.57
393.81	213.74
394.18	213.43
394.56	213.71
394.94	214.31
395.31	214.10
395.69	214.52
396.06	214.86
396.44	214.90
396.82	214.69
397.19	215.79
397.57	215.50
397.95	215.98
398.32	215.31
398.70	215.55
399.07	215.95
399.45	215.93
399.82	215.74
400.20	215.33
400.58	215.38
400.95	214.40
401.33	214.43
401.70	216.21
402.08	216.33
402.45	216.31
402.83	216.62
403.20	216.95
403.58	216.86
403.95	217.29
404.33	217.95
404.71	218.45
405.08	219.55
405.46	220.07
405.83	220.31
406.21	221.07
406.58	221.52
406.96	221.60
407.33	222.29
407.70	223.14
408.08	225.64
408.45	226.50
408.83	227.71
409.20	228.26
409.58	227.81
409.95	228.79
410.33	229.62
410.70	229.76
411.08	230.95
411.45	232.07
411.82	232.71
412.20	234.38
412.57	236.83
412.95	236.64
413.32	238.67
413.69	239.98
414.07	241.62
414.44	243.19
414.82	245.19
415.19	247.55
415.56	249.93
415.94	251.19
416.31	254.24
416.68	256.95
417.06	260.33
417.43	263.86
417.81	267.36
418.18	271.02
418.55	275.12
418.93	278.88
419.30	282.95
419.67	287.67
420.04	291.64
420.42	296.02
420.79	303.02
421.16	308.10
421.54	314.83
421.91	321.00
422.28	327.36
422.66	334.21
423.03	341.74
423.40	348.93
423.77	355.98
424.15	362.79
424.52	370.52
424.89	378.81
425.26	385.98
425.64	393.55
426.01	401.98
426.38	410.45
426.75	419.48
427.13	428.83
427.50	438.33
427.87	448.48
428.24	458.05
428.61	466.40
428.99	477.71
429.36	488.05
429.73	498.95
430.10	510.17
430.47	521.48
430.85	532.38
431.22	544.50
431.59	559.26
431.96	571.86
432.33	586.21
432.70	599.90
433.08	615.40
433.45	630.43
433.82	645.17
434.19	662.33
434.56	679.76
434.93	695.57
435.30	711.38
435.68	728.60
436.05	745.83
436.42	762.60
436.79	778.36
437.16	795.67
437.53	813.60
437.90	831.36
438.27	849.05
438.64	866.90
439.01	884.05
439.38	896.93
439.75	912.05
440.13	927.93
440.50	943.26
440.87	956.21
441.24	970.00
441.61	984.26
441.98	995.05
442.35	1006.38
442.72	1018.29
443.09	1032.05
443.46	1039.50
443.83	1045.02
444.20	1049.71
444.57	1055.36
444.94	1059.05
445.31	1062.57
445.68	1068.62
446.05	1069.69
446.42	1068.52
446.79	1067.00
447.16	1065.67
447.53	1064.17
447.90	1058.62
448.27	1052.17
448.64	1044.00
449.01	1037.81
449.37	1027.21
449.74	1016.50
450.11	1005.67
450.48	992.02
450.85	975.33
451.22	963.17
451.59	950.90
451.96	939.93
452.33	924.79
452.70	910.26
453.07	892.93
453.43	873.55
453.80	857.00
454.17	841.07
454.54	825.74
454.91	809.60
455.28	793.71
455.65	778.60
456.02	767.00
456.38	754.48
456.75	738.95
457.12	725.74
457.49	713.21
457.86	698.79
458.23	688.50
458.59	677.40
458.96	665.69
459.33	655.26
459.70	644.45
460.07	636.02
460.43	626.43
460.80	618.50
461.17	610.60
461.54	602.88
461.91	594.86
462.27	586.64
462.64	579.55
463.01	572.50
463.38	565.81
463.74	556.00
464.11	549.12
464.48	543.55
464.85	537.64
465.21	532.81
465.58	527.81
465.95	521.12
466.32	516.17
466.68	510.98
467.05	506.36
467.42	501.48
467.78	496.26
468.15	491.52
468.52	487.60
468.88	482.10
469.25	477.38
469.62	474.26
469.98	470.55
470.35	467.31
470.72	463.83
471.08	459.43
471.45	456.29
471.82	453.71
472.18	449.88
472.55	447.00
472.92	443.52
473.28	440.76
473.65	438.33
474.02	435.79
474.38	434.07
474.75	431.90
475.11	429.60
475.48	428.10
475.85	426.02
476.21	423.81
476.58	423.07
476.94	421.88
477.31	420.55
477.67	419.10
478.04	418.05
478.41	416.95
478.77	418.02
479.14	416.64
479.50	416.14
479.87	415.81
480.23	415.67
480.60	414.79
480.96	414.71
481.33	415.21
481.69	415.07
482.06	414.76
482.42	414.98
482.79	415.40
483.15	415.55
483.52	416.95
483.88	417.50
484.25	417.67
484.61	418.74
484.98	419.05
485.34	420.69
485.71	422.29
486.07	424.02
486.44	423.86
486.80	425.79
487.17	427.10
487.53	429.76
487.90	431.71
488.26	434.95
488.62	437.64
488.99	439.55
489.35	442.14
489.72	444.71
490.08	447.21
490.44	450.29
490.81	453.83
491.17	456.10
491.54	460.00
491.90	463.74
492.26	467.14
492.63	471.33
492.99	475.12
493.36	479.14
493.72	483.24
494.08	487.26
494.45	492.45
494.81	497.36
495.17	501.64
495.54	506.95
495.90	511.74
496.26	516.62
496.63	522.26
496.99	527.67
497.35	533.48
497.72	539.67
498.08	545.21
498.44	551.50
498.80	558.48
499.17	564.21
499.53	569.95
499.89	576.86
500.26	583.79
500.62	590.45
500.98	597.64
501.34	604.86
501.71	612.60
502.07	619.17
502.43	626.55
502.79	633.71
503.16	640.43
503.52	647.76
503.88	654.64
504.24	662.14
504.60	669.60
504.97	677.19
505.33	685.02
505.69	693.69
506.05	701.24
506.41	708.60
506.78	716.74
507.14	724.95
507.50	732.93
507.86	740.67
508.22	748.48
508.59	755.83
508.95	763.83
509.31	771.95
509.67	779.88
510.03	787.38
510.39	795.17
510.75	803.14
511.12	810.74
511.48	819.29
511.84	826.60
512.20	834.79
512.56	842.55
512.92	850.29
513.28	857.88
513.64	865.19
514.00	873.21
514.37	880.40
514.73	887.67
515.09	894.67
515.45	901.05
515.81	908.10
516.17	914.55
516.53	920.45
516.89	926.36
517.25	933.21
517.61	940.24
517.97	946.62
518.33	953.33
518.69	959.69
519.05	966.55
519.41	972.55
519.77	979.29
520.13	985.17
520.49	989.83
520.85	995.43
521.21	1001.88
521.57	1006.88
521.93	1012.24
522.29	1018.14
522.65	1022.79
523.01	1028.95
523.37	1034.00
523.73	1039.60
524.09	1044.55
524.45	1049.57
524.81	1054.05
525.17	1058.74
525.53	1063.64
525.89	1068.05
526.25	1072.83
526.61	1076.19
526.97	1080.29
527.33	1084.17
527.68	1089.83
528.04	1095.02
528.40	1099.05
528.76	1102.76
529.12	1107.12
529.48	1111.69
529.84	1115.38
530.20	1120.55
530.56	1125.02
530.91	1130.38
531.27	1134.88
531.63	1139.88
531.99	1143.14
532.35	1146.64
532.71	1150.19
533.07	1154.57
533.42	1160.88
533.78	1164.74
534.14	1169.12
534.50	1173.67
534.86	1178.10
535.21	1180.26
535.57	1184.60
535.93	1187.74
536.29	1191.83
536.65	1196.14
537.00	1199.48
537.36	1202.67
537.72	1206.07
538.08	1209.50
538.44	1212.21
538.79	1215.69
539.15	1217.95
539.51	1222.38
539.87	1226.62
540.22	1230.50
540.58	1233.38
540.94	1234.81
541.29	1238.12
541.65	1240.24
542.01	1243.19
542.37	1245.10
542.72	1247.79
543.08	1249.17
543.44	1252.07
543.79	1253.55
544.15	1255.93
544.51	1259.14
544.87	1262.40
545.22	1264.74
545.58	1266.93
545.94	1268.81
546.29	1271.21
546.65	1274.43
547.01	1276.33
547.36	1278.81
547.72	1280.57
548.07	1282.93
548.43	1285.02
548.79	1287.24
549.14	1290.74
549.50	1293.52
549.86	1295.93
550.21	1299.19
550.57	1302.29
550.92	1304.76
551.28	1308.29
551.64	1310.81
551.99	1313.67
552.35	1316.36
552.70	1319.05
553.06	1322.76
553.41	1325.64
553.77	1329.71
554.13	1333.10
554.48	1337.76
554.84	1341.64
555.19	1345.57
555.55	1350.43
555.90	1353.67
556.26	1357.48
556.61	1360.88
556.97	1363.98
557.32	1367.57
557.68	1370.93
558.03	1375.05
558.39	1379.31
558.74	1382.64
559.10	1386.62
559.45	1390.05
559.81	1394.71
560.16	1398.48
560.52	1401.79
560.87	1406.74
561.23	1410.02
561.58	1415.81
561.94	1418.95
562.29	1422.14
562.64	1427.14
563.00	1430.43
563.35	1435.45
563.71	1440.31
564.06	1444.52
564.42	1449.38
564.77	1455.45
565.12	1461.62
565.48	1468.62
565.83	1474.67
566.19	1480.14
566.54	1485.55
566.89	1491.19
567.25	1496.36
567.60	1503.64
567.96	1511.76
568.31	1518.50
568.66	1524.52
569.02	1528.40
569.37	1533.14
569.72	1538.76
570.08	1543.43
570.43	1548.67
570.78	1554.12
571.14	1559.93
571.49	1566.12
571.84	1572.52
572.20	1576.36
572.55	1581.19
572.90	1583.60
573.26	1587.40
573.61	1592.90
573.96	1597.50
574.31	1601.40
574.67	1605.36
575.02	1608.93
575.37	1610.12
575.72	1613.10
576.08	1617.52
576.43	1622.17
576.78	1627.10
577.13	1631.21
577.49	1635.50
577.84	1640.05
578.19	1643.88
578.54	1647.48
578.90	1651.17
579.25	1653.71
579.60	1657.38
579.95	1660.19
580.30	1664.74
580.66	1668.60
581.01	1670.98
581.36	1674.07
581.71	1677.40
582.06	1682.62
582.42	1686.45
582.77	1689.98
583.12	1694.00
583.47	1696.76
583.82	1699.79
584.17	1703.45
584.53	1707.64
584.88	1710.69
585.23	1713.67
585.58	1716.48
585.93	1718.95
586.28	1721.83
586.63	1725.71
586.98	1729.26
587.34	1733.62
587.69	1736.40
588.04	1739.55
588.39	1743.19
588.74	1746.17
589.09	1750.19
589.44	1750.48
589.79	1752.33
590.14	1755.19
590.49	1756.43
590.84	1757.55
591.19	1759.69
591.54	1761.31
591.89	1761.62
592.25	1764.76
592.60	1766.48
592.95	1768.05
593.30	1770.10
593.65	1771.24
594.00	1771.29
594.35	1777.76
594.70	1777.33
595.05	1778.43
595.40	1778.98
595.75	1779.00
596.10	1780.36
596.45	1781.10
596.80	1783.21
597.15	1783.86
597.50	1784.55
597.85	1786.38
598.19	1787.26
598.54	1787.76
598.89	1788.36
599.24	1790.69
599.59	1789.98
599.94	1789.98
600.29	1789.93
600.64	1789.36
600.99	1790.02
601.34	1791.55
601.69	1786.57
602.04	1786.95
602.39	1787.14
602.74	1787.40
603.08	1787.76
603.43	1788.10
603.78	1787.50
604.13	1786.40
604.48	1786.76
604.83	1785.40
605.18	1784.21
605.53	1784.36
605.87	1783.55
606.22	1782.95
606.57	1781.10
606.92	1779.62
607.27	1778.33
607.62	1778.52
607.96	1778.40
608.31	1777.38
608.66	1776.05
609.01	1774.43
609.36	1773.31
609.70	1771.21
610.05	1769.05
610.40	1767.40
610.75	1764.05
611.10	1762.43
611.44	1759.98
611.79	1758.21
612.14	1757.21
612.49	1753.86
612.83	1751.88
613.18	1748.81
613.53	1745.64
613.88	1742.19
614.22	1739.43
614.57	1737.02
614.92	1733.10
615.27	1729.48
615.61	1725.24
615.96	1721.83
616.31	1719.31
616.65	1717.07
617.00	1715.60
617.35	1713.52
617.70	1710.69
618.04	1708.05
618.39	1705.00
618.74	1702.55
619.08	1697.90
619.43	1694.62
619.78	1692.52
620.12	1688.21
620.47	1685.43
620.82	1681.38
621.16	1677.90
621.51	1675.62
621.85	1671.52
622.20	1668.12
622.55	1664.36
622.89	1661.55
623.24	1658.29
623.59	1654.02
623.93	1649.67
624.28	1644.86
624.62	1641.95
624.97	1638.50
625.32	1634.55
625.66	1630.36
626.01	1626.52
626.35	1623.76
626.70	1619.50
627.04	1615.76
627.39	1611.71
627.73	1608.64
628.08	1605.98
628.43	1602.31
628.77	1597.57
629.12	1594.31
629.46	1590.95
629.81	1587.26
630.15	1582.21
630.50	1577.26
630.84	1572.83
631.19	1567.14
631.53	1562.67
631.88	1555.74
632.22	1550.17
632.57	1545.88
632.91	1540.05
633.26	1535.48
633.60	1529.81
633.95	1523.76
634.29	1518.10
634.64	1514.31
634.98	1508.71
635.32	1504.90
635.67	1501.71
636.01	1497.36
636.36	1492.26
636.70	1488.52
637.05	1483.19
637.39	1479.71
637.73	1475.24
638.08	1471.57
638.42	1468.07
638.77	1463.45
639.11	1459.69
639.45	1454.90
639.80	1449.62
640.14	1445.83
640.49	1440.24
640.83	1435.02
641.17	1431.95
641.52	1427.86
641.86	1422.48
642.20	1417.93
642.55	1411.69
642.89	1406.69
643.23	1401.55
643.58	1397.26
643.92	1390.95
644.26	1385.64
644.61	1381.00
644.95	1375.29
645.29	1368.81
645.64	1363.33
645.98	1357.81
646.32	1352.83
646.66	1346.86
647.01	1341.64
647.35	1336.88
647.69	1331.24
648.04	1326.14
648.38	1320.02
648.72	1313.74
649.06	1308.74
649.41	1302.36
649.75	1296.74
650.09	1290.19
650.43	1283.21
650.78	1276.60
651.12	1269.98
651.46	1264.17
651.80	1257.45
652.14	1252.00
652.49	1246.90
652.83	1240.86
653.17	1233.95
653.51	1227.07
653.85	1222.12
654.20	1215.76
654.54	1207.76
654.88	1202.33
655.22	1196.81
655.56	1190.88
655.90	1185.26
656.25	1178.90
656.59	1173.31
656.93	1166.98
657.27	1161.74
657.61	1156.19
657.95	1150.40
658.29	1144.19
658.64	1138.71
658.98	1132.79
659.32	1125.98
659.66	1119.60
660.00	1113.14
660.34	1107.19
660.68	1101.40
661.02	1095.00
661.36	1089.31
661.70	1084.50
662.05	1077.98
662.39	1071.48
662.73	1065.74
663.07	1060.60
663.41	1054.12
663.75	1047.74
664.09	1042.10
664.43	1034.55
664.77	1029.21
665.11	1023.10
665.45	1017.88
665.79	1011.95
666.13	1005.24
666.47	1000.10
666.81	993.88
667.15	988.00
667.49	983.33
667.83	978.07
668.17	972.14
668.51	966.64
668.85	961.64
669.19	957.52
669.53	951.76
669.87	946.19
670.21	939.93
670.55	933.98
670.89	929.21
671.23	923.83
671.57	918.90
671.91	913.86
672.25	908.71
672.58	903.86
672.92	898.48
673.26	893.57
673.60	888.81
673.94	883.38
674.28	879.12
674.62	874.50
674.96	868.93
675.30	864.31
675.64	858.98
675.97	853.52
676.31	848.12
676.65	842.86
676.99	838.93
677.33	833.62
677.67	829.33
678.01	824.02
678.34	819.74
678.68	815.36
679.02	809.67
679.36	804.31
679.70	799.36
680.04	794.38
680.37	789.95
680.71	784.29
681.05	780.21
681.39	775.10
681.73	769.83
682.06	765.29
682.40	760.79
682.74	756.67
683.08	752.36
683.42	746.67
683.75	742.55
684.09	736.67
684.43	731.79
684.77	726.38
685.10	721.24
685.44	715.71
685.78	710.31
686.12	705.98
686.45	701.29
686.79	695.83
687.13	691.83
687.46	686.67
687.80	682.88
688.14	678.33
688.48	673.55
688.81	668.95
689.15	664.64
689.49	659.31
689.82	654.76
690.16	649.07
690.50	644.79
690.83	639.69
691.17	634.81
691.51	630.69
691.84	626.93
692.18	623.07
692.52	618.98
692.85	615.29
693.19	611.43
693.52	607.17
693.86	603.29
694.20	598.52
694.53	594.67
694.87	589.88
695.21	585.14
695.54	581.14
695.88	576.02
696.21	571.21
696.55	567.74
696.88	563.33
697.22	559.71
697.56	556.14
697.89	552.12
698.23	548.76
698.56	544.50
698.90	540.69
699.23	536.24
699.57	532.38
699.90	528.57
700.24	524.24
700.58	520.83
700.91	517.36
701.25	515.21
701.58	512.31
701.92	509.50
702.25	506.64
702.59	502.98
702.92	500.19
703.26	497.40
703.59	494.19
703.93	492.83
704.26	489.98
704.60	486.62
704.93	483.98
705.26	480.93
705.60	478.60
705.93	475.24
706.27	473.19
706.60	470.33
706.94	467.95
707.27	465.43
707.61	462.69
707.94	459.62
708.27	455.29
708.61	451.64
708.94	448.86
709.28	446.36
709.61	443.86
709.94	441.38
710.28	438.60
710.61	435.95
710.95	431.71
711.28	430.79
711.61	428.57
711.95	426.17
712.28	423.48
712.61	420.62
712.95	419.26
713.28	417.57
713.61	415.29
713.95	412.29
714.28	409.69
714.61	407.29
714.95	405.07
715.28	402.67
715.61	400.57
715.95	398.05
716.28	395.38
716.61	393.43
716.95	390.76
717.28	388.74
717.61	386.40
717.94	384.07
718.28	379.90
718.61	378.00
718.94	375.71
719.27	373.21
719.61	371.31
719.94	368.50
720.27	365.12
720.60	362.79
720.94	360.74
721.27	359.05
721.60	357.45
721.93	355.83
722.27	354.98
722.60	353.12
722.93	351.17
723.26	349.71
723.59	347.57
723.93	346.48
724.26	344.95
724.59	343.31
724.92	342.10
725.25	341.52
725.59	339.88
725.92	339.00
726.25	338.12
726.58	336.81
726.91	335.36
727.24	334.71
727.57	333.38
727.91	332.14
728.24	330.83
728.57	329.21
728.90	327.76
729.23	326.00
729.56	325.98
729.89	324.98
730.22	323.55
730.55	322.14
730.89	320.81
731.22	319.43
731.55	318.19
731.88	316.60
732.21	314.57
732.54	313.02
732.87	311.64
733.20	310.67
733.53	309.64
733.86	308.62
734.19	306.95
734.52	306.48
734.85	306.81
735.18	305.55
735.51	305.02
735.84	304.45
736.17	303.93
736.50	301.67
736.83	302.98
737.16	302.14
737.49	301.33
737.82	300.14
738.15	299.36
738.48	298.57
738.81	297.98
739.14	297.00
739.47	295.90
739.80	294.88
740.13	293.74
740.46	292.64
740.79	291.81
741.12	291.24
741.45	289.81
741.78	287.50
742.11	287.19
742.44	286.05
742.77	285.26
743.10	283.88
743.43	283.05
743.75	280.26
744.08	282.02
744.41	281.17
744.74	280.33
745.07	279.29
745.40	278.76
745.73	278.93
746.06	278.26
746.39	277.90
746.71	276.88
747.04	276.17
747.37	275.36
747.70	274.76
748.03	273.83
748.36	273.31
748.68	272.81
749.01	271.57
749.34	270.71
749.67	269.81
750.00	269.71
750.33	270.64
750.65	269.95
750.98	266.69
751.31	266.14
751.64	265.67
751.97	266.43
752.29	265.67
752.62	263.81
752.95	263.40
753.28	262.57
753.60	262.14
753.93	262.10
754.26	261.36
754.59	260.31
754.91	259.57
755.24	259.14
755.57	258.50
755.90	257.86
756.22	257.26
756.55	256.55
756.88	255.21
757.20	253.36
757.53	252.02
757.86	251.45
758.19	251.12
758.51	250.74
758.84	248.76
759.17	248.07
759.49	247.79
759.82	248.05
760.15	247.67
760.47	247.10
760.80	245.93
761.13	245.98
761.45	245.52
761.78	244.93
762.11	244.36
762.43	243.79
762.76	243.19
763.08	243.00
763.41	242.86
763.74	242.64
764.06	242.17
764.39	242.14
764.71	241.90
765.04	241.50
765.37	240.76
765.69	240.52
766.02	240.17
766.34	239.83
766.67	238.71
767.00	238.98
767.32	239.60
767.65	240.45
767.97	239.86
768.30	239.69
768.62	239.60
768.95	239.17
769.27	238.81
769.60	239.00
769.92	238.43
770.25	237.74
770.57	237.33
770.90	237.02
771.22	236.38
771.55	236.05
771.87	235.90
772.20	235.76
772.52	237.19
772.85	239.52
773.17	239.19
773.50	238.71
773.82	238.24
774.15	237.40
774.47	235.86
774.80	235.52
775.12	235.55
775.45	235.71
775.77	235.50
776.09	235.38
776.42	235.21
776.74	235.81
777.07	235.45
777.39	235.19
777.72	234.67
778.04	234.74
778.36	234.50
778.69	234.33
779.01	234.31
779.33	232.24
779.66	229.74
779.98	229.50
780.31	229.55
780.63	230.02
780.95	230.10
781.28	230.05
781.60	229.55
781.92	229.17
782.25	228.40
782.57	228.26
782.89	228.07
783.22	227.60
783.54	226.76
783.86	227.05
784.19	226.93
784.51	227.67
784.83	227.50
785.16	227.12
785.48	226.88
785.80	226.55
786.12	226.81
786.45	226.40
786.77	226.26
787.09	225.95
787.42	225.02
787.74	224.76
788.06	224.55
788.38	224.69
788.71	224.40
789.03	224.50
789.35	224.74
789.67	224.24
789.99	224.17
790.32	223.79
790.64	223.76
790.96	225.14
791.28	224.21
791.61	224.02
791.93	224.12
792.25	223.93
792.57	225.43
792.89	224.86
793.21	225.21
793.54	225.00
793.86	224.76
794.18	224.69
794.50	224.38
794.82	224.38
795.14	224.60
795.47	224.88
795.79	224.98
796.11	224.36
796.43	224.31
796.75	224.43
797.07	224.29
797.39	223.98
797.71	222.76
798.04	222.88
798.36	222.83
798.68	222.81
799.00	222.86
799.32	221.67
799.64	221.93
799.96	221.69
800.28	221.93
800.60	221.86
800.92	221.93
801.24	221.67
801.56	221.69
801.89	221.21
802.21	221.45
802.53	220.71
802.85	221.12
803.17	222.14
803.49	221.62
803.81	221.67
804.13	221.43
804.45	220.81
804.77	220.90
805.09	220.83
805.41	220.57
805.73	220.19
806.05	219.62
806.37	219.62
806.69	219.12
807.01	218.88
807.33	218.93
807.65	218.33
807.97	219.00
808.28	218.74
808.60	218.74
808.92	218.31
809.24	219.93
809.56	219.67
809.88	218.86
810.20	218.88
810.52	219.12
810.84	218.88
811.16	218.79
811.48	218.52
811.80	219.12
812.12	218.83
812.43	219.12
812.75	219.33
813.07	219.02
813.39	219.40
813.71	218.93
814.03	218.90
814.35	218.98
814.67	218.17
814.98	217.93
815.30	217.81
815.62	217.31
815.94	215.71
816.26	215.36
816.58	214.86
816.89	214.98
817.21	214.60
817.53	214.67
817.85	214.57
818.17	214.50
818.48	213.95
818.80	214.31
819.12	214.19
819.44	213.67
819.76	213.48
820.07	213.40
820.39	213.67
820.71	213.36
821.03	213.38
821.34	213.40
821.66	213.95
821.98	214.07
822.30	214.00
822.61	215.38
822.93	215.67
823.25	215.83
823.57	215.64
823.88	215.95
824.20	215.90
824.52	216.29
824.83	216.19
825.15	215.86
825.47	215.69
825.79	215.38
826.10	215.40
826.42	215.21
826.74	215.33
827.05	215.29
827.37	215.76
827.69	215.69
828.00	215.76
828.32	215.43
828.64	215.12
828.95	216.21
829.27	215.69
829.58	215.60
829.90	215.98
830.22	216.12
830.53	215.45
830.85	215.07
831.17	214.57
831.48	214.55
831.80	214.71
832.11	214.79
832.43	214.79
832.75	214.86
833.06	216.19
833.38	215.50
833.69	215.52
834.01	215.38
834.32	215.40
834.64	215.33
834.96	215.29
835.27	215.45
835.59	214.71
835.90	214.21
836.22	214.21
836.53	213.64
836.85	213.57
837.16	215.83
837.48	216.17
837.79	216.98
838.11	217.36
838.42	217.31
838.74	217.50
839.05	217.43
839.37	217.19
839.68	215.90
840.00	215.95
840.31	216.12
840.63	215.88
840.94	215.48
841.26	215.17
841.57	215.21
841.88	215.48
842.20	215.19
842.51	214.90
842.83	214.67
843.14	216.55
843.46	216.50
843.77	215.31
844.08	215.05
844.40	214.45
844.71	214.17
845.03	214.00
845.34	213.81
845.65	213.69
845.97	213.74
846.28	214.00
846.60	213.95
846.91	213.64
847.22	213.67
847.54	214.05
847.85	214.19
848.16	214.05
848.48	213.67
848.79	214.79
849.10	215.07
849.42	215.33
849.73	213.43
850.04	213.31
850.36	212.81
850.67	213.26
850.98	213.14
851.30	213.10
851.61	213.10
851.92	213.05
852.23	213.69
852.55	213.90
852.86	213.95
853.17	214.38
853.49	214.62
853.80	215.19
854.11	215.52
854.42	215.86
854.74	215.76
855.05	215.74
855.36	214.48
855.67	214.64
855.99	214.71
856.30	217.33
856.61	217.17
856.92	216.98
857.23	216.71
857.55	216.62
857.86	216.60
858.17	217.00
858.48	216.74
858.79	216.40
859.11	216.57
859.42	216.26
859.73	215.95
860.04	215.93
860.35	215.10
860.66	214.55
860.98	214.33
861.29	214.67
861.60	214.52
861.91	215.00
862.22	214.33
862.53	213.74
862.84	211.17
863.16	211.76
863.47	211.50
863.78	211.50
864.09	211.64
864.40	211.86
864.71	211.69
865.02	211.81
865.33	211.29
865.64	211.07
865.95	211.17
866.27	212.33
866.58	211.98
866.89	212.50
867.20	212.26
867.51	211.74
867.82	211.43
868.13	212.19
868.44	211.71
868.75	212.38
869.06	212.62
869.37	212.98
869.68	212.40
869.99	212.79
870.30	212.93
870.61	213.14
870.92	212.55
871.23	212.43
871.54	212.81
871.85	213.50
872.16	213.57
872.47	213.31
872.78	212.07
873.09	212.57
873.40	212.26
873.71	212.52
874.02	212.90
874.33	212.69
874.64	212.12
874.95	212.67
875.26	212.17
875.56	212.12
875.87	211.98
876.18	211.95
876.49	213.86
876.80	213.67
877.11	213.38
877.42	213.50
877.73	213.57
878.04	213.14
878.35	213.12
878.66	212.93
878.96	213.00
879.27	213.12
879.58	213.12
879.89	213.10
880.20	213.69
880.51	213.69
880.82	213.81
881.12	213.81
881.43	213.14
881.74	212.90
882.05	212.74
882.36	212.88
882.67	213.00
882.97	210.93
883.28	210.83
883.59	210.60
883.90	210.98
884.21	211.19
884.51	211.12
884.82	210.86
885.13	211.19
885.44	211.07
885.74	211.05
886.05	210.76
886.36	210.90
886.67	210.19
886.98	211.26
887.28	211.52
887.59	211.57
887.90	211.64
888.20	211.74
888.51	212.38
888.82	212.02
889.13	212.33
889.43	213.90
889.74	213.79
890.05	213.98
890.35	213.71
890.66	213.33
890.97	213.33
891.28	213.24
891.58	213.14
891.89	213.24
892.20	213.07
892.50	212.86
892.81	212.57
893.12	212.48
893.42	211.40
893.73	211.38
894.04	211.40
894.34	211.64
894.65	211.64
894.95	211.29
895.26	211.57
895.57	212.38
895.87	210.62
896.18	211.00
896.48	211.10
896.79	211.31
897.10	211.86
897.40	211.95
897.71	211.95
898.01	211.83
898.32	212.21
898.63	212.43
898.93	212.43
899.24	212.36
899.54	212.45
899.85	212.29
900.15	212.26
900.46	212.24
900.76	212.55
901.07	212.50
901.38	212.38
901.68	212.48
901.99	211.40
902.29	211.57
902.60	211.38
902.90	211.14
903.21	211.17
903.51	210.95
903.82	211.21
904.12	211.43
904.43	211.52
904.73	211.55
905.03	211.50
905.34	213.81
905.64	213.79
905.95	213.62
906.25	213.69
906.56	213.52
906.86	213.45
907.17	213.14
907.47	213.38
907.77	213.31
908.08	212.90
908.38	213.00
908.69	213.07
908.99	213.40
909.30	213.60
909.60	213.50
909.90	213.43
910.21	213.00
910.51	212.71
910.81	212.69
911.12	212.57
911.42	212.60
911.73	210.38
912.03	210.69
912.33	211.05
912.64	211.10
912.94	210.95
913.24	210.98
913.55	211.05
913.85	210.83
914.15	211.14
914.46	211.24
914.76	211.12
915.06	211.10
915.37	210.69
915.67	210.50
915.97	210.50
916.27	210.17
916.58	210.29
916.88	210.14
917.18	210.21
917.49	211.64
917.79	211.64
918.09	211.83
918.39	212.33
918.70	212.17
919.00	212.26
919.30	213.43
919.60	213.12
919.91	212.86
920.21	212.88
920.51	212.43
920.81	212.71
921.12	213.14
921.42	213.07
921.72	213.31
922.02	213.67
922.32	213.88
922.63	214.19
922.93	215.19
923.23	215.55
923.53	215.26
923.83	213.81
924.13	213.88
924.44	213.90
924.74	214.10
925.04	214.67
925.34	214.60
925.64	213.57
925.94	213.45
926.24	214.62
926.55	214.55
926.85	215.00
927.15	214.74
927.45	214.33
927.75	214.38
928.05	214.50
928.35	214.40
928.65	214.67
928.95	214.55
929.26	213.76
929.56	214.07
929.86	214.48
930.16	214.26
930.46	214.26
930.76	214.38
931.06	213.17
931.36	212.62
931.66	212.93
931.96	213.26
932.26	213.55
932.56	212.62
932.86	212.67
933.16	212.60
933.46	212.40
933.76	212.50
934.06	213.05
934.36	213.74
934.66	213.48
934.96	213.24
935.26	213.40
935.56	213.43
935.86	212.74
936.16	212.14
936.46	212.00
936.76	211.76
937.06	211.40
937.36	211.74
937.66	211.83
937.96	211.71
938.26	211.33
938.56	211.43
938.86	211.62
939.16	212.07
939.46	212.38
939.76	212.67
940.06	212.52
940.35	212.00
940.65	210.81
940.95	211.00
941.25	210.52
941.55	209.98
941.85	209.95
942.15	210.57
942.45	211.45
942.75	211.33
943.04	211.57
943.34	211.93
943.64	212.07
943.94	211.93
944.24	211.93
944.54	212.00
944.84	211.76
945.13	211.26
945.43	211.05
945.73	211.00
946.03	210.79
946.33	210.40
946.62	210.17
946.92	210.38
947.22	210.40
947.52	210.71
947.82	211.21
948.11	211.00
948.41	210.55
948.71	209.62
949.01	209.83
949.31	209.50
949.60	209.36
949.90	209.31
950.20	209.40
950.50	209.52
950.79	209.31
951.09	209.50
951.39	209.67
951.69	209.36
951.98	209.55
952.28	209.57
952.58	209.90
952.87	209.83
953.17	209.93
953.47	209.76
953.76	209.67
954.06	209.31
954.36	209.07
954.66	209.00
954.95	209.83
955.25	210.33
955.55	210.60
955.84	210.31
956.14	210.60
956.44	210.55
956.73	210.10
957.03	210.31
957.32	210.36
957.62	210.38
957.92	210.81
958.21	210.67
958.51	213.10
958.81	213.36
959.10	213.83
959.40	214.45
959.69	214.64
959.99	214.93
960.29	215.07
960.58	215.14
960.88	215.98
961.17	215.50
961.47	215.55
961.76	215.36
962.06	215.79
962.36	215.45
962.65	215.60
962.95	215.93
963.24	215.90
963.54	216.02
963.83	216.05
964.13	216.00
964.42	215.21
964.72	213.43
965.01	213.50
965.31	213.24
965.60	212.60
965.90	213.93
966.19	213.52
966.49	213.64
966.78	213.71
967.08	213.43
967.37	213.74
967.67	213.29
967.96	213.50
968.26	213.33
968.55	213.81
968.85	213.43
969.14	213.36
969.43	213.24
969.73	213.02
970.02	212.93
970.32	212.86
970.61	213.17
970.91	212.81
971.20	212.57
971.49	212.40
971.79	212.67
972.08	211.29
972.38	211.50
972.67	211.36
972.96	211.40
973.26	211.10
973.55	211.76
973.85	211.88
974.14	211.86
974.43	212.24
974.73	211.62
975.02	211.57
975.31	211.60
975.61	211.67
975.90	211.57
976.19	211.43
976.49	211.69
976.78	211.74
977.07	211.40
977.37	211.45
977.66	211.67
977.95	211.43
978.24	211.38
978.54	211.55
978.83	211.45
979.12	211.55
979.42	211.45
979.71	210.74
980.00	210.57
980.29	210.67
980.59	209.90
980.88	210.74
981.17	210.83
981.46	210.83
981.76	210.71
982.05	211.33
982.34	211.40
982.63	211.24
982.93	211.29
983.22	211.83
983.51	211.71
983.80	212.10
984.09	212.24
984.39	212.26
984.68	212.19
984.97	212.31
985.26	212.31
985.55	212.71
985.85	212.38
986.14	212.69
986.43	212.95
986.72	213.24
987.01	212.36
987.30	212.33
987.59	212.14
987.89	212.21
988.18	211.52
988.47	211.38
988.76	210.95
989.05	211.02
989.34	211.00
989.63	211.52
989.92	211.12
990.22	210.71
990.51	210.62
990.80	210.45
991.09	210.43
991.38	210.62
991.67	210.10
991.96	210.07
992.25	210.14
992.54	209.69
992.83	209.48
993.12	209.93
993.41	210.40
993.70	211.14
993.99	211.52
994.28	211.90
994.58	212.38
994.87	212.43
995.16	212.14
995.45	212.05
995.74	211.29
996.03	211.38
996.32	211.90
996.61	212.52
996.90	212.45
997.19	212.40
997.48	212.19
997.77	212.07
998.06	212.19
998.34	211.86
998.63	211.90
998.92	212.12
999.21	212.05
999.50	211.98
999.79	211.24
1000.08	211.24
1000.37	211.26
1000.66	211.07
1000.95	211.79
1001.24	211.71
1001.53	211.55
1001.82	211.69
1002.11	211.40
1002.40	211.57
1002.68	211.79
1002.97	213.10
1003.26	213.02
1003.55	212.60
1003.84	212.79
1004.13	213.45
1004.42	213.38
1004.71	213.43
1004.99	213.45
1005.28	214.10
1005.57	214.00
1005.86	213.81
1006.15	213.71
1006.44	213.40
1006.72	213.64
1007.01	213.12
1007.30	213.43
1007.59	213.52
1007.88	213.36
1008.17	213.50
1008.45	213.10
1008.74	212.31
1009.03	211.52
1009.32	211.43
1009.60	211.79
1009.89	211.74
1010.18	210.83
1010.47	210.67
1010.76	210.67
1011.04	210.64
1011.33	210.40
1011.62	210.60
1011.91	210.88
1012.19	210.86
1012.48	210.86
1012.77	210.71
1013.05	211.50
1013.34	211.29
1013.63	210.98
1013.92	211.19
1014.20	211.02
1014.49	211.21
1014.78	211.57
1015.06	210.83
1015.35	210.90
1015.64	211.19
1015.92	211.50
1016.21	211.74
1016.50	212.00
1016.78	212.19
1017.07	212.07
1017.36	211.69
1017.64	211.24
1017.93	211.48
1018.22	211.43
1018.50	211.40
1018.79	211.38
1019.08	210.74
1019.36	210.83
1019.65	210.62
1019.93	211.29
1020.22	211.86
1020.51	212.67
1020.79	212.33
1021.08	211.50
1021.36	207.00
1021.65	212.50
1021.94	213.00
1022.22	209.00
1022.51	203.00
1022.79	222.50
1023.08	218.00
1023.36	233.00
1023.65	208.50
>>>>>End Processed Spectral Data<<<<<
