SpectraSuite Data File
++++++++++++++++++++++++++++++++++++
Date: Tue Apr 02 18:46:53 EDT 2013
User: group
Dark Spectrum Present: No
Reference Spectrum Present: No
Number of Sampled Component Spectra: 1
Spectrometers: USB2E7196
Integration Time (usec): 580000 (USB2E7196)
Spectra Averaged: 2 (USB2E7196)
Boxcar Smoothing: 10 (USB2E7196)
Correct for Electrical Dark: No (USB2E7196)
Strobe/Lamp Enabled: No (USB2E7196)
Correct for Detector Non-linearity: No (USB2E7196)
Correct for Stray Light: No (USB2E7196)
Number of Pixels in Processed Spectrum: 2048
>>>>>Begin Processed Spectral Data<<<<<
339.09	0.00
339.48	191.00
339.86	195.00
340.24	197.50
340.63	199.50
341.01	233.00
341.39	202.50
341.78	205.50
342.16	211.00
342.54	209.50
342.93	198.48
343.31	208.36
343.69	209.07
344.07	209.55
344.46	210.24
344.84	210.90
345.22	209.67
345.60	210.29
345.99	210.90
346.37	210.93
346.75	210.93
347.13	211.00
347.52	211.19
347.90	212.07
348.28	211.98
348.66	212.50
349.05	211.62
349.43	211.81
349.81	212.21
350.19	212.48
350.57	212.55
350.96	212.79
351.34	213.10
351.72	213.33
352.10	213.50
352.48	213.50
352.87	213.31
353.25	213.21
353.63	213.07
354.01	212.60
354.39	212.57
354.77	212.62
355.15	213.29
355.54	212.90
355.92	212.12
356.30	212.26
356.68	213.17
357.06	213.38
357.44	213.12
357.82	212.57
358.20	213.36
358.58	213.24
358.97	213.21
359.35	213.19
359.73	213.48
360.11	213.45
360.49	213.29
360.87	213.38
361.25	213.71
361.63	214.33
362.01	214.40
362.39	214.26
362.77	214.38
363.15	214.14
363.53	214.38
363.91	214.55
364.29	214.33
364.67	212.29
365.05	212.50
365.43	212.79
365.81	213.26
366.19	213.40
366.57	213.74
366.95	213.60
367.33	213.40
367.71	213.29
368.09	213.67
368.47	213.81
368.85	213.64
369.23	214.10
369.61	212.98
369.99	213.71
370.37	214.07
370.75	215.00
371.13	214.48
371.51	214.19
371.89	214.33
372.27	214.55
372.65	215.05
373.03	214.93
373.41	214.83
373.78	214.55
374.16	213.55
374.54	213.29
374.92	213.07
375.30	213.10
375.68	212.69
376.06	212.76
376.44	212.38
376.82	212.55
377.19	212.19
377.57	212.40
377.95	211.64
378.33	211.48
378.71	210.29
379.09	210.71
379.47	210.81
379.84	210.40
380.22	210.10
380.60	209.69
380.98	209.74
381.36	209.88
381.73	209.71
382.11	210.17
382.49	210.43
382.87	210.31
383.25	210.33
383.62	212.83
384.00	212.55
384.38	212.83
384.76	213.19
385.13	214.12
385.51	214.17
385.89	214.00
386.27	214.02
386.64	214.19
387.02	213.95
387.40	213.98
387.78	214.40
388.15	214.64
388.53	214.64
388.91	214.67
389.29	214.50
389.66	214.93
390.04	214.57
390.42	215.05
390.79	215.33
391.17	215.38
391.55	213.26
391.92	213.33
392.30	213.60
392.68	213.14
393.05	213.31
393.43	213.52
393.81	213.81
394.18	213.81
394.56	213.83
394.94	214.26
395.31	214.02
395.69	214.67
396.06	215.14
396.44	215.45
396.82	215.29
397.19	216.21
397.57	216.02
397.95	216.26
398.32	215.52
398.70	215.74
399.07	216.21
399.45	216.00
399.82	215.88
400.20	215.60
400.58	215.81
400.95	214.79
401.33	215.17
401.70	216.52
402.08	216.50
402.45	216.76
402.83	217.33
403.20	217.67
403.58	217.40
403.95	217.69
404.33	218.07
404.71	218.31
405.08	219.57
405.46	219.79
405.83	220.14
406.21	220.33
406.58	220.76
406.96	220.69
407.33	221.45
407.70	222.31
408.08	224.55
408.45	225.29
408.83	226.57
409.20	226.95
409.58	226.57
409.95	227.79
410.33	228.81
410.70	229.19
411.08	230.60
411.45	231.88
411.82	232.52
412.20	233.76
412.57	236.24
412.95	235.43
413.32	237.26
413.69	238.67
414.07	240.67
414.44	242.48
414.82	244.98
415.19	247.05
415.56	249.26
415.94	250.62
416.31	253.38
416.68	255.88
417.06	259.29
417.43	262.48
417.81	265.76
418.18	269.40
418.55	273.19
418.93	276.93
419.30	280.81
419.67	285.52
420.04	290.21
420.42	294.45
420.79	302.07
421.16	307.95
421.54	315.14
421.91	320.95
422.28	326.93
422.66	332.98
423.03	341.24
423.40	348.02
423.77	355.17
424.15	362.12
424.52	369.67
424.89	378.00
425.26	385.83
425.64	393.29
426.01	401.24
426.38	409.83
426.75	419.43
427.13	428.69
427.50	438.12
427.87	447.74
428.24	457.71
428.61	465.33
428.99	476.21
429.36	486.29
429.73	497.52
430.10	508.69
430.47	520.50
430.85	530.60
431.22	543.50
431.59	558.29
431.96	571.19
432.33	585.17
432.70	598.74
433.08	614.79
433.45	629.64
433.82	645.05
434.19	662.50
434.56	678.79
434.93	694.12
435.30	710.05
435.68	727.64
436.05	744.93
436.42	762.45
436.79	778.43
437.16	795.88
437.53	813.90
437.90	831.67
438.27	849.95
438.64	868.14
439.01	884.79
439.38	898.45
439.75	913.21
440.13	929.50
440.50	945.17
440.87	957.40
441.24	971.10
441.61	985.95
441.98	996.57
442.35	1008.14
442.72	1021.55
443.09	1034.98
443.46	1042.19
443.83	1047.21
444.20	1051.88
444.57	1057.17
444.94	1059.76
445.31	1063.36
445.68	1069.12
446.05	1070.00
446.42	1069.21
446.79	1068.02
447.16	1066.07
447.53	1065.05
447.90	1058.79
448.27	1052.43
448.64	1044.05
449.01	1037.76
449.37	1026.33
449.74	1015.38
450.11	1005.05
450.48	989.79
450.85	974.24
451.22	962.24
451.59	950.24
451.96	938.45
452.33	923.38
452.70	909.10
453.07	891.83
453.43	872.62
453.80	856.38
454.17	840.31
454.54	825.02
454.91	808.74
455.28	792.19
455.65	777.90
456.02	766.52
456.38	754.05
456.75	738.79
457.12	725.62
457.49	712.36
457.86	698.02
458.23	689.05
458.59	676.86
458.96	665.12
459.33	654.86
459.70	644.93
460.07	636.33
460.43	627.10
460.80	618.98
461.17	611.86
461.54	603.62
461.91	595.67
462.27	587.29
462.64	580.21
463.01	573.48
463.38	567.10
463.74	556.29
464.11	549.67
464.48	544.36
464.85	537.88
465.21	533.79
465.58	528.71
465.95	521.74
466.32	517.24
466.68	511.74
467.05	506.38
467.42	501.19
467.78	496.38
468.15	491.86
468.52	487.60
468.88	481.76
469.25	476.83
469.62	473.31
469.98	469.50
470.35	466.24
470.72	462.43
471.08	457.26
471.45	454.48
471.82	452.31
472.18	448.55
472.55	446.52
472.92	442.76
473.28	440.05
473.65	437.17
474.02	434.21
474.38	432.31
474.75	430.69
475.11	428.29
475.48	426.60
475.85	425.05
476.21	423.26
476.58	421.93
476.94	421.02
477.31	419.57
477.67	418.29
478.04	417.14
478.41	416.83
478.77	418.83
479.14	417.86
479.50	417.00
479.87	416.38
480.23	415.76
480.60	415.50
480.96	415.14
481.33	415.74
481.69	416.26
482.06	416.36
482.42	416.55
482.79	417.05
483.15	417.14
483.52	417.90
483.88	418.21
484.25	418.83
484.61	419.71
484.98	420.24
485.34	422.02
485.71	423.86
486.07	424.90
486.44	424.29
486.80	425.95
487.17	426.90
487.53	429.26
487.90	431.40
488.26	434.38
488.62	436.86
488.99	438.81
489.35	441.12
489.72	443.69
490.08	446.17
490.44	448.71
490.81	452.05
491.17	454.76
491.54	458.69
491.90	462.17
492.26	465.74
492.63	469.93
492.99	473.55
493.36	477.12
493.72	481.90
494.08	486.10
494.45	490.88
494.81	496.36
495.17	500.71
495.54	506.29
495.90	510.67
496.26	516.07
496.63	521.71
496.99	527.29
497.35	533.21
497.72	539.38
498.08	545.60
498.44	552.19
498.80	558.38
499.17	564.38
499.53	570.74
499.89	577.17
500.26	583.95
500.62	590.14
500.98	597.12
501.34	603.93
501.71	611.64
502.07	618.57
502.43	625.36
502.79	632.88
503.16	639.50
503.52	646.76
503.88	653.64
504.24	661.52
504.60	668.81
504.97	676.40
505.33	683.88
505.69	692.31
506.05	699.64
506.41	707.79
506.78	715.55
507.14	723.21
507.50	731.45
507.86	739.24
508.22	747.79
508.59	755.36
508.95	762.88
509.31	771.57
509.67	779.07
510.03	786.55
510.39	794.36
510.75	801.88
511.12	809.40
511.48	817.43
511.84	824.52
512.20	832.19
512.56	839.88
512.92	847.83
513.28	855.45
513.64	862.45
514.00	869.57
514.37	877.07
514.73	885.00
515.09	892.50
515.45	899.38
515.81	906.10
516.17	913.21
516.53	919.55
516.89	924.79
517.25	932.10
517.61	939.43
517.97	945.67
518.33	952.29
518.69	959.57
519.05	965.76
519.41	972.21
519.77	979.81
520.13	985.12
520.49	989.90
520.85	995.17
521.21	1002.07
521.57	1008.43
521.93	1013.79
522.29	1018.88
522.65	1023.64
523.01	1029.29
523.37	1034.10
523.73	1039.17
524.09	1044.31
524.45	1049.52
524.81	1053.67
525.17	1058.62
525.53	1063.98
525.89	1068.76
526.25	1073.14
526.61	1077.86
526.97	1081.62
527.33	1085.29
527.68	1091.62
528.04	1096.17
528.40	1099.86
528.76	1104.02
529.12	1107.33
529.48	1111.69
529.84	1115.31
530.20	1119.31
530.56	1123.40
530.91	1128.36
531.27	1132.31
531.63	1136.76
531.99	1140.71
532.35	1145.45
532.71	1149.12
533.07	1153.50
533.42	1159.45
533.78	1163.05
534.14	1166.83
534.50	1171.36
534.86	1175.57
535.21	1178.31
535.57	1182.60
535.93	1185.95
536.29	1190.07
536.65	1194.24
537.00	1198.00
537.36	1202.55
537.72	1205.69
538.08	1209.55
538.44	1211.93
538.79	1216.29
539.15	1219.40
539.51	1222.95
539.87	1226.02
540.22	1229.10
540.58	1231.43
540.94	1233.52
541.29	1237.45
541.65	1239.60
542.01	1242.45
542.37	1245.17
542.72	1246.69
543.08	1249.07
543.44	1252.52
543.79	1252.93
544.15	1255.69
544.51	1258.93
544.87	1261.88
545.22	1264.43
545.58	1266.67
545.94	1269.52
546.29	1271.88
546.65	1274.57
547.01	1276.57
547.36	1278.86
547.72	1281.69
548.07	1284.48
548.43	1285.76
548.79	1286.62
549.14	1289.55
549.50	1292.60
549.86	1294.14
550.21	1297.52
550.57	1300.71
550.92	1303.79
551.28	1308.19
551.64	1310.74
551.99	1313.14
552.35	1314.71
552.70	1318.19
553.06	1321.76
553.41	1325.55
553.77	1329.60
554.13	1333.10
554.48	1337.79
554.84	1342.26
555.19	1345.95
555.55	1351.19
555.90	1355.29
556.26	1359.24
556.61	1363.79
556.97	1367.10
557.32	1370.67
557.68	1374.69
558.03	1377.93
558.39	1381.21
558.74	1384.76
559.10	1388.62
559.45	1392.57
559.81	1397.19
560.16	1401.45
560.52	1405.19
560.87	1409.76
561.23	1412.45
561.58	1417.74
561.94	1420.50
562.29	1423.74
562.64	1428.90
563.00	1432.02
563.35	1436.02
563.71	1441.17
564.06	1445.38
564.42	1450.43
564.77	1456.88
565.12	1462.50
565.48	1470.19
565.83	1475.76
566.19	1481.52
566.54	1486.86
566.89	1492.50
567.25	1498.29
567.60	1504.62
567.96	1512.14
568.31	1518.45
568.66	1524.95
569.02	1529.90
569.37	1535.71
569.72	1542.07
570.08	1546.71
570.43	1552.31
570.78	1558.48
571.14	1564.19
571.49	1569.02
571.84	1574.45
572.20	1578.33
572.55	1583.07
572.90	1585.43
573.26	1590.24
573.61	1593.83
573.96	1598.74
574.31	1602.36
574.67	1606.86
575.02	1609.83
575.37	1612.62
575.72	1615.40
576.08	1619.05
576.43	1622.55
576.78	1626.45
577.13	1630.24
577.49	1633.81
577.84	1637.40
578.19	1640.86
578.54	1645.60
578.90	1650.52
579.25	1653.55
579.60	1656.67
579.95	1659.52
580.30	1663.74
580.66	1667.74
581.01	1671.90
581.36	1674.90
581.71	1678.62
582.06	1682.74
582.42	1686.90
582.77	1688.95
583.12	1691.90
583.47	1695.19
583.82	1697.83
584.17	1701.31
584.53	1704.64
584.88	1708.50
585.23	1712.17
585.58	1715.14
585.93	1716.86
586.28	1719.36
586.63	1722.83
586.98	1726.79
587.34	1731.50
587.69	1734.00
588.04	1736.98
588.39	1740.02
588.74	1741.88
589.09	1744.40
589.44	1745.36
589.79	1748.21
590.14	1751.50
590.49	1753.45
590.84	1755.05
591.19	1758.48
591.54	1760.64
591.89	1761.93
592.25	1765.12
592.60	1765.57
592.95	1767.45
593.30	1769.36
593.65	1770.24
594.00	1770.93
594.35	1778.02
594.70	1777.38
595.05	1779.88
595.40	1780.55
595.75	1780.98
596.10	1783.43
596.45	1784.93
596.80	1786.55
597.15	1786.88
597.50	1787.26
597.85	1789.05
598.19	1789.38
598.54	1789.48
598.89	1789.36
599.24	1790.71
599.59	1789.45
599.94	1789.86
600.29	1789.98
600.64	1790.98
600.99	1791.48
601.34	1791.55
601.69	1785.00
602.04	1784.40
602.39	1783.76
602.74	1783.93
603.08	1783.26
603.43	1784.14
603.78	1783.81
604.13	1784.12
604.48	1784.19
604.83	1784.40
605.18	1783.71
605.53	1783.88
605.87	1782.29
606.22	1782.64
606.57	1781.10
606.92	1779.40
607.27	1778.90
607.62	1778.98
607.96	1778.10
608.31	1777.76
608.66	1777.12
609.01	1776.60
609.36	1776.86
609.70	1774.95
610.05	1772.05
610.40	1771.05
610.75	1767.10
611.10	1764.98
611.44	1761.76
611.79	1759.07
612.14	1756.19
612.49	1753.69
612.83	1750.95
613.18	1749.05
613.53	1745.55
613.88	1742.52
614.22	1740.05
614.57	1736.00
614.92	1731.48
615.27	1727.12
615.61	1722.31
615.96	1718.83
616.31	1715.69
616.65	1712.21
617.00	1710.12
617.35	1708.10
617.70	1705.38
618.04	1703.55
618.39	1700.38
618.74	1697.40
619.08	1694.02
619.43	1691.36
619.78	1687.40
620.12	1684.33
620.47	1680.86
620.82	1676.86
621.16	1673.07
621.51	1670.33
621.85	1666.81
622.20	1664.55
622.55	1660.52
622.89	1659.17
623.24	1656.43
623.59	1652.38
623.93	1649.05
624.28	1644.45
624.62	1642.24
624.97	1639.00
625.32	1633.98
625.66	1629.50
626.01	1625.52
626.35	1621.62
626.70	1617.24
627.04	1614.36
627.39	1610.36
627.73	1607.64
628.08	1605.17
628.43	1601.48
628.77	1596.93
629.12	1594.83
629.46	1590.62
629.81	1587.21
630.15	1581.31
630.50	1576.36
630.84	1571.55
631.19	1566.60
631.53	1562.43
631.88	1555.14
632.22	1549.14
632.57	1545.62
632.91	1541.19
633.26	1536.36
633.60	1531.31
633.95	1525.90
634.29	1520.76
634.64	1516.67
634.98	1511.21
635.32	1507.14
635.67	1503.55
636.01	1499.10
636.36	1493.62
636.70	1489.33
637.05	1484.83
637.39	1481.02
637.73	1476.36
638.08	1472.64
638.42	1467.64
638.77	1462.69
639.11	1458.98
639.45	1454.48
639.80	1449.60
640.14	1445.19
640.49	1439.98
640.83	1434.86
641.17	1430.43
641.52	1425.45
641.86	1419.60
642.20	1414.95
642.55	1408.81
642.89	1402.60
643.23	1397.74
643.58	1392.31
643.92	1386.14
644.26	1381.12
644.61	1375.55
644.95	1370.50
645.29	1364.83
645.64	1360.07
645.98	1354.24
646.32	1349.38
646.66	1343.17
647.01	1337.26
647.35	1331.71
647.69	1326.93
648.04	1322.60
648.38	1317.19
648.72	1311.40
649.06	1305.67
649.41	1298.60
649.75	1292.29
650.09	1285.95
650.43	1279.29
650.78	1273.05
651.12	1266.69
651.46	1259.76
651.80	1254.14
652.14	1248.26
652.49	1242.38
652.83	1236.19
653.17	1229.81
653.51	1222.98
653.85	1217.36
654.20	1210.83
654.54	1204.26
654.88	1198.05
655.22	1192.33
655.56	1185.76
655.90	1179.60
656.25	1173.45
656.59	1167.86
656.93	1162.33
657.27	1157.64
657.61	1150.95
657.95	1145.71
658.29	1139.81
658.64	1134.69
658.98	1127.48
659.32	1120.31
659.66	1113.31
660.00	1106.95
660.34	1100.76
660.68	1094.93
661.02	1089.07
661.36	1083.33
661.70	1076.83
662.05	1070.95
662.39	1064.57
662.73	1059.71
663.07	1054.33
663.41	1048.60
663.75	1042.86
664.09	1036.14
664.43	1029.67
664.77	1024.55
665.11	1018.14
665.45	1012.43
665.79	1006.33
666.13	1000.95
666.47	995.76
666.81	990.95
667.15	985.55
667.49	980.45
667.83	975.38
668.17	969.79
668.51	964.69
668.85	960.43
669.19	955.79
669.53	949.86
669.87	943.05
670.21	937.19
670.55	931.17
670.89	926.12
671.23	921.93
671.57	916.33
671.91	911.17
672.25	906.45
672.58	901.90
672.92	896.48
673.26	891.71
673.60	886.76
673.94	881.00
674.28	876.36
674.62	871.93
674.96	866.83
675.30	861.36
675.64	855.62
675.97	850.36
676.31	844.67
676.65	839.31
676.99	836.40
677.33	831.45
677.67	827.50
678.01	822.48
678.34	817.52
678.68	813.02
679.02	807.93
679.36	802.79
679.70	797.64
680.04	793.05
680.37	787.93
680.71	782.43
681.05	778.36
681.39	773.52
681.73	768.31
682.06	763.05
682.40	759.40
682.74	755.52
683.08	751.45
683.42	746.21
683.75	742.14
684.09	736.07
684.43	731.26
684.77	726.48
685.10	721.93
685.44	717.29
685.78	712.69
686.12	708.10
686.45	703.45
686.79	698.26
687.13	694.05
687.46	689.14
687.80	685.86
688.14	681.21
688.48	676.43
688.81	672.36
689.15	668.45
689.49	663.67
689.82	658.74
690.16	652.95
690.50	648.52
690.83	643.43
691.17	638.26
691.51	634.12
691.84	629.69
692.18	625.36
692.52	621.07
692.85	617.07
693.19	613.48
693.52	609.07
693.86	604.50
694.20	599.71
694.53	595.90
694.87	591.05
695.21	586.86
695.54	582.29
695.88	577.00
696.21	572.10
696.55	567.62
696.88	563.19
697.22	559.62
697.56	556.29
697.89	552.55
698.23	549.52
698.56	545.02
698.90	541.50
699.23	537.14
699.57	533.02
699.90	528.81
700.24	524.71
700.58	521.10
700.91	518.74
701.25	517.00
701.58	514.45
701.92	511.43
702.25	507.90
702.59	504.48
702.92	501.83
703.26	499.00
703.59	495.98
703.93	495.10
704.26	492.64
704.60	489.55
704.93	485.83
705.26	482.31
705.60	479.95
705.93	476.14
706.27	473.71
706.60	471.00
706.94	469.21
707.27	466.00
707.61	463.14
707.94	459.88
708.27	455.14
708.61	451.43
708.94	448.26
709.28	445.55
709.61	443.02
709.94	440.05
710.28	437.38
710.61	434.76
710.95	430.26
711.28	428.38
711.61	425.60
711.95	424.14
712.28	421.86
712.61	419.36
712.95	418.29
713.28	416.74
713.61	414.14
713.95	410.90
714.28	408.74
714.61	406.38
714.95	403.90
715.28	401.86
715.61	399.38
715.95	397.48
716.28	395.02
716.61	393.07
716.95	391.02
717.28	388.60
717.61	386.45
717.94	383.74
718.28	380.33
718.61	378.31
718.94	375.79
719.27	373.79
719.61	371.67
719.94	369.10
720.27	365.83
720.60	363.52
720.94	361.60
721.27	359.86
721.60	358.48
721.93	356.79
722.27	355.60
722.60	354.29
722.93	352.31
723.26	351.07
723.59	349.00
723.93	347.50
724.26	346.02
724.59	343.98
724.92	343.26
725.25	342.26
725.59	340.62
725.92	339.50
726.25	337.76
726.58	336.26
726.91	334.86
727.24	334.10
727.57	333.07
727.91	331.43
728.24	330.14
728.57	328.12
728.90	326.90
729.23	324.95
729.56	324.52
729.89	323.14
730.22	321.60
730.55	320.52
730.89	319.07
731.22	317.83
731.55	316.62
731.88	315.24
732.21	313.55
732.54	312.40
732.87	311.05
733.20	310.31
733.53	309.31
733.86	308.21
734.19	306.81
734.52	305.64
734.85	305.95
735.18	304.52
735.51	304.33
735.84	303.26
736.17	302.69
736.50	300.62
736.83	301.95
737.16	301.07
737.49	300.26
737.82	299.52
738.15	298.86
738.48	298.14
738.81	296.95
739.14	296.05
739.47	294.98
739.80	294.05
740.13	293.19
740.46	292.00
740.79	290.90
741.12	289.90
741.45	288.86
741.78	286.95
742.11	286.95
742.44	285.74
742.77	285.29
743.10	284.36
743.43	283.31
743.75	280.43
744.08	282.17
744.41	281.02
744.74	280.10
745.07	278.93
745.40	278.50
745.73	278.67
746.06	277.86
746.39	277.45
746.71	276.38
747.04	275.43
747.37	274.71
747.70	274.43
748.03	273.67
748.36	273.38
748.68	272.50
749.01	271.24
749.34	270.74
749.67	269.83
750.00	269.10
750.33	269.88
750.65	269.45
750.98	266.21
751.31	265.88
751.64	265.02
751.97	265.26
752.29	264.64
752.62	262.95
752.95	262.19
753.28	261.26
753.60	260.71
753.93	260.81
754.26	260.38
754.59	258.93
754.91	258.17
755.24	257.43
755.57	256.79
755.90	256.05
756.22	255.05
756.55	254.40
756.88	253.62
757.20	252.00
757.53	250.90
757.86	250.19
758.19	249.52
758.51	249.38
758.84	248.14
759.17	247.38
759.49	247.12
759.82	247.60
760.15	247.14
760.47	246.74
760.80	245.55
761.13	245.60
761.45	245.26
761.78	245.12
762.11	244.60
762.43	244.33
762.76	243.93
763.08	243.90
763.41	243.88
763.74	243.60
764.06	243.14
764.39	242.95
764.71	242.90
765.04	242.43
765.37	241.67
765.69	241.02
766.02	240.57
766.34	240.12
766.67	239.17
767.00	239.43
767.32	240.14
767.65	241.19
767.97	240.50
768.30	240.10
768.62	239.62
768.95	239.43
769.27	239.00
769.60	239.14
769.92	238.36
770.25	237.43
770.57	236.79
770.90	236.48
771.22	235.93
771.55	235.62
771.87	235.43
772.20	235.17
772.52	236.69
772.85	239.10
773.17	239.02
773.50	238.55
773.82	238.07
774.15	236.69
774.47	235.10
774.80	234.69
775.12	234.81
775.45	234.79
775.77	234.36
776.09	234.48
776.42	234.17
776.74	234.76
777.07	234.48
777.39	234.38
777.72	233.95
778.04	234.10
778.36	233.69
778.69	233.81
779.01	233.86
779.33	232.00
779.66	229.50
779.98	229.36
780.31	229.38
780.63	230.00
780.95	230.67
781.28	230.57
781.60	230.10
781.92	230.00
782.25	229.67
782.57	229.62
782.89	228.88
783.22	228.45
783.54	227.88
783.86	227.90
784.19	227.76
784.51	228.50
784.83	227.83
785.16	227.60
785.48	227.43
785.80	227.12
786.12	227.31
786.45	226.95
786.77	226.90
787.09	226.45
787.42	225.52
787.74	225.00
788.06	224.88
788.38	224.79
788.71	224.40
789.03	224.29
789.35	224.45
789.67	224.48
789.99	224.43
790.32	224.10
790.64	224.33
790.96	226.10
791.28	225.00
791.61	225.02
791.93	224.88
792.25	224.55
792.57	226.24
792.89	225.69
793.21	225.90
793.54	225.60
793.86	225.67
794.18	225.69
794.50	225.40
794.82	225.33
795.14	225.57
795.47	225.76
795.79	225.71
796.11	224.95
796.43	224.71
796.75	224.83
797.07	225.02
797.39	224.71
797.71	222.88
798.04	223.05
798.36	223.31
798.68	223.19
799.00	223.19
799.32	221.76
799.64	222.02
799.96	221.83
800.28	222.05
800.60	221.83
800.92	221.60
801.24	221.24
801.56	221.40
801.89	221.12
802.21	221.07
802.53	220.69
802.85	221.02
803.17	221.86
803.49	221.24
803.81	221.00
804.13	220.64
804.45	220.60
804.77	220.50
805.09	220.38
805.41	220.36
805.73	220.07
806.05	219.45
806.37	219.17
806.69	219.00
807.01	218.69
807.33	218.71
807.65	218.10
807.97	219.10
808.28	218.55
808.60	218.40
808.92	218.02
809.24	219.24
809.56	218.93
809.88	218.21
810.20	218.38
810.52	218.64
810.84	218.52
811.16	218.17
811.48	218.19
811.80	218.76
812.12	218.90
812.43	219.07
812.75	219.43
813.07	219.31
813.39	219.33
813.71	218.95
814.03	218.79
814.35	218.76
814.67	217.95
814.98	217.98
815.30	218.12
815.62	217.95
815.94	216.24
816.26	216.33
816.58	215.88
816.89	216.19
817.21	215.62
817.53	215.62
817.85	215.67
818.17	215.52
818.48	214.81
818.80	215.00
819.12	214.83
819.44	214.45
819.76	214.14
820.07	214.00
820.39	214.17
820.71	214.31
821.03	214.43
821.34	214.31
821.66	214.55
821.98	214.74
822.30	214.67
822.61	216.17
822.93	216.12
823.25	216.19
823.57	215.86
823.88	216.02
824.20	215.95
824.52	216.14
824.83	216.10
825.15	215.64
825.47	215.60
825.79	215.60
826.10	215.43
826.42	215.17
826.74	215.52
827.05	215.45
827.37	215.62
827.69	215.36
828.00	215.45
828.32	215.26
828.64	214.83
828.95	215.98
829.27	215.43
829.58	215.31
829.90	215.74
830.22	216.00
830.53	215.74
830.85	215.50
831.17	215.21
831.48	214.95
831.80	215.14
832.11	214.74
832.43	214.62
832.75	214.64
833.06	216.12
833.38	215.38
833.69	215.29
834.01	215.24
834.32	215.36
834.64	215.02
834.96	215.00
835.27	215.12
835.59	214.33
835.90	213.90
836.22	213.95
836.53	213.50
836.85	213.17
837.16	215.24
837.48	215.40
837.79	216.00
838.11	216.24
838.42	216.12
838.74	216.60
839.05	216.38
839.37	216.29
839.68	215.12
840.00	215.24
840.31	215.55
840.63	215.33
840.94	215.14
841.26	215.14
841.57	215.36
841.88	215.55
842.20	215.14
842.51	214.90
842.83	214.81
843.14	216.64
843.46	216.67
843.77	215.50
844.08	215.50
844.40	214.76
844.71	214.62
845.03	214.64
845.34	214.21
845.65	214.12
845.97	213.95
846.28	213.88
846.60	213.86
846.91	213.33
847.22	213.19
847.54	213.62
847.85	213.50
848.16	213.29
848.48	212.90
848.79	213.90
849.10	214.33
849.42	214.26
849.73	212.31
850.04	212.38
850.36	211.57
850.67	211.67
850.98	211.86
851.30	212.10
851.61	212.05
851.92	212.21
852.23	212.86
852.55	213.36
852.86	213.48
853.17	213.64
853.49	214.29
853.80	214.90
854.11	215.14
854.42	215.57
854.74	215.40
855.05	215.64
855.36	214.43
855.67	214.29
855.99	214.57
856.30	217.17
856.61	217.10
856.92	217.24
857.23	217.21
857.55	216.95
857.86	216.74
858.17	216.98
858.48	216.64
858.79	216.33
859.11	216.48
859.42	216.40
859.73	216.29
860.04	215.95
860.35	215.24
860.66	214.60
860.98	214.33
861.29	214.38
861.60	214.33
861.91	214.81
862.22	214.60
862.53	214.26
862.84	211.67
863.16	212.02
863.47	211.69
863.78	211.74
864.09	211.98
864.40	212.07
864.71	212.14
865.02	212.52
865.33	212.33
865.64	211.86
865.95	211.81
866.27	213.05
866.58	212.95
866.89	213.21
867.20	213.14
867.51	212.81
867.82	212.79
868.13	213.19
868.44	212.86
868.75	213.29
869.06	213.33
869.37	213.86
869.68	213.26
869.99	213.60
870.30	213.83
870.61	214.10
870.92	213.86
871.23	213.76
871.54	213.76
871.85	214.12
872.16	214.36
872.47	214.21
872.78	213.05
873.09	213.21
873.40	212.88
873.71	213.14
874.02	213.43
874.33	213.33
874.64	212.90
874.95	213.43
875.26	212.83
875.56	212.79
875.87	212.69
876.18	212.62
876.49	214.69
876.80	214.19
877.11	213.67
877.42	213.76
877.73	213.76
878.04	213.48
878.35	213.45
878.66	213.43
878.96	213.64
879.27	213.50
879.58	213.48
879.89	213.57
880.20	214.02
880.51	214.00
880.82	213.79
881.12	213.90
881.43	213.29
881.74	213.26
882.05	213.33
882.36	213.21
882.67	213.48
882.97	210.93
883.28	210.88
883.59	211.00
883.90	211.38
884.21	211.69
884.51	211.57
884.82	211.24
885.13	211.19
885.44	211.00
885.74	211.10
886.05	211.10
886.36	211.17
886.67	210.57
886.98	211.50
887.28	211.90
887.59	211.95
887.90	212.14
888.20	212.19
888.51	212.76
888.82	212.36
889.13	212.40
889.43	214.36
889.74	214.24
890.05	213.95
890.35	213.67
890.66	213.31
890.97	213.36
891.28	213.19
891.58	213.31
891.89	213.48
892.20	213.43
892.50	213.24
892.81	213.10
893.12	213.26
893.42	212.29
893.73	212.50
894.04	212.43
894.34	212.64
894.65	212.57
894.95	211.74
895.26	212.17
895.57	213.14
895.87	211.33
896.18	211.71
896.48	212.12
896.79	212.00
897.10	212.14
897.40	212.31
897.71	212.86
898.01	212.55
898.32	212.55
898.63	212.43
898.93	212.36
899.24	212.45
899.54	212.29
899.85	212.43
900.15	212.10
900.46	211.93
900.76	212.10
901.07	212.17
901.38	212.43
901.68	212.79
901.99	211.55
902.29	211.76
902.60	211.74
902.90	211.45
903.21	211.50
903.51	211.36
903.82	211.67
904.12	211.71
904.43	212.02
904.73	212.07
905.03	211.98
905.34	214.00
905.64	213.81
905.95	213.67
906.25	213.69
906.56	213.79
906.86	213.83
907.17	213.60
907.47	213.45
907.77	213.29
908.08	212.43
908.38	212.74
908.69	212.88
908.99	213.26
909.30	213.57
909.60	213.57
909.90	213.81
910.21	213.26
910.51	212.64
910.81	212.62
911.12	212.67
911.42	212.71
911.73	210.55
912.03	210.88
912.33	211.31
912.64	211.21
912.94	210.86
913.24	210.48
913.55	210.24
913.85	210.17
914.15	210.69
914.46	211.10
914.76	210.64
915.06	210.40
915.37	210.02
915.67	209.57
915.97	209.45
916.27	208.90
916.58	208.83
916.88	208.98
917.18	209.00
917.49	210.60
917.79	210.62
918.09	211.02
918.39	211.45
918.70	211.19
919.00	211.29
919.30	212.40
919.60	212.31
919.91	212.17
920.21	212.57
920.51	211.95
920.81	211.74
921.12	212.43
921.42	212.36
921.72	212.57
922.02	212.86
922.32	213.19
922.63	213.21
922.93	214.52
923.23	214.50
923.53	214.10
923.83	212.40
924.13	212.57
924.44	212.79
924.74	213.02
925.04	213.67
925.34	213.62
925.64	212.64
925.94	212.95
926.24	214.12
926.55	213.93
926.85	214.31
927.15	214.38
927.45	214.24
927.75	214.36
928.05	214.02
928.35	214.21
928.65	214.52
928.95	214.69
929.26	213.74
929.56	214.36
929.86	214.79
930.16	214.81
930.46	214.50
930.76	214.21
931.06	213.38
931.36	212.79
931.66	212.90
931.96	213.29
932.26	213.43
932.56	212.76
932.86	213.00
933.16	213.02
933.46	212.88
933.76	212.57
934.06	213.14
934.36	214.31
934.66	214.02
934.96	213.86
935.26	214.10
935.56	214.40
935.86	213.60
936.16	213.40
936.46	213.21
936.76	213.57
937.06	213.48
937.36	213.64
937.66	213.88
937.96	213.81
938.26	213.21
938.56	212.93
938.86	212.90
939.16	213.10
939.46	213.10
939.76	213.26
940.06	213.38
940.35	212.62
940.65	211.52
940.95	211.57
941.25	211.02
941.55	210.69
941.85	210.45
942.15	211.12
942.45	211.40
942.75	211.38
943.04	211.12
943.34	211.45
943.64	211.17
943.94	210.81
944.24	210.74
944.54	211.17
944.84	211.33
945.13	211.14
945.43	210.98
945.73	211.00
946.03	210.55
946.33	210.19
946.62	210.05
946.92	209.76
947.22	210.10
947.52	210.17
947.82	210.67
948.11	210.57
948.41	210.17
948.71	209.74
949.01	209.95
949.31	209.76
949.60	209.62
949.90	209.95
950.20	209.69
950.50	209.69
950.79	209.19
951.09	209.40
951.39	209.45
951.69	209.12
951.98	209.45
952.28	209.88
952.58	209.74
952.87	210.07
953.17	210.67
953.47	210.17
953.76	210.10
954.06	209.69
954.36	209.36
954.66	209.33
954.95	210.05
955.25	210.29
955.55	210.67
955.84	210.26
956.14	210.48
956.44	210.71
956.73	210.50
957.03	211.02
957.32	210.79
957.62	210.57
957.92	211.12
958.21	210.76
958.51	213.21
958.81	213.81
959.10	213.98
959.40	214.12
959.69	214.38
959.99	214.74
960.29	214.62
960.58	214.67
960.88	215.43
961.17	214.98
961.47	215.26
961.76	214.88
962.06	215.52
962.36	215.14
962.65	215.38
962.95	215.33
963.24	214.93
963.54	215.14
963.83	215.43
964.13	215.38
964.42	215.07
964.72	213.10
965.01	213.07
965.31	212.74
965.60	212.36
965.90	213.64
966.19	213.02
966.49	213.07
966.78	213.00
967.08	212.57
967.37	212.64
967.67	212.19
967.96	212.67
968.26	212.55
968.55	212.90
968.85	212.76
969.14	212.98
969.43	212.98
969.73	212.98
970.02	212.83
970.32	212.57
970.61	212.48
970.91	212.00
971.20	211.57
971.49	211.36
971.79	211.71
972.08	210.19
972.38	210.71
972.67	210.64
972.96	211.07
973.26	210.71
973.55	211.45
973.85	211.19
974.14	211.21
974.43	211.12
974.73	210.81
975.02	210.76
975.31	210.88
975.61	210.93
975.90	210.69
976.19	210.60
976.49	210.69
976.78	211.05
977.07	211.29
977.37	211.62
977.66	212.24
977.95	211.86
978.24	212.12
978.54	212.31
978.83	212.24
979.12	212.00
979.42	212.19
979.71	211.48
980.00	211.64
980.29	211.67
980.59	211.36
980.88	211.69
981.17	211.50
981.46	211.38
981.76	211.50
982.05	212.10
982.34	212.19
982.63	212.02
982.93	212.21
983.22	212.67
983.51	212.62
983.80	212.62
984.09	212.67
984.39	212.62
984.68	212.48
984.97	212.74
985.26	212.43
985.55	212.71
985.85	212.52
986.14	212.86
986.43	213.07
986.72	213.00
987.01	212.48
987.30	212.48
987.59	212.19
987.89	212.24
988.18	211.50
988.47	211.38
988.76	211.50
989.05	210.93
989.34	210.45
989.63	210.98
989.92	210.52
990.22	210.31
990.51	210.10
990.80	209.98
991.09	209.98
991.38	210.38
991.67	209.79
991.96	209.69
992.25	209.52
992.54	208.90
992.83	209.02
993.12	208.88
993.41	209.36
993.70	210.21
993.99	210.57
994.28	210.83
994.58	211.10
994.87	210.76
995.16	211.05
995.45	210.81
995.74	209.98
996.03	210.45
996.32	210.98
996.61	211.45
996.90	211.26
997.19	211.38
997.48	211.38
997.77	211.26
998.06	211.31
998.34	211.00
998.63	211.26
998.92	211.17
999.21	211.60
999.50	211.52
999.79	211.00
1000.08	210.81
1000.37	210.90
1000.66	210.36
1000.95	210.81
1001.24	210.67
1001.53	210.98
1001.82	211.17
1002.11	210.69
1002.40	210.76
1002.68	211.00
1002.97	212.71
1003.26	212.21
1003.55	212.02
1003.84	212.17
1004.13	212.93
1004.42	212.81
1004.71	212.52
1004.99	212.62
1005.28	213.00
1005.57	212.90
1005.86	212.71
1006.15	212.57
1006.44	212.29
1006.72	212.74
1007.01	212.50
1007.30	212.64
1007.59	212.50
1007.88	212.40
1008.17	212.50
1008.45	212.10
1008.74	211.76
1009.03	210.57
1009.32	210.81
1009.60	210.69
1009.89	210.79
1010.18	209.86
1010.47	209.95
1010.76	210.17
1011.04	209.90
1011.33	210.07
1011.62	210.12
1011.91	210.12
1012.19	210.33
1012.48	210.52
1012.77	210.50
1013.05	211.31
1013.34	211.17
1013.63	211.00
1013.92	211.12
1014.20	211.10
1014.49	211.14
1014.78	211.12
1015.06	210.67
1015.35	210.48
1015.64	211.05
1015.92	211.45
1016.21	211.50
1016.50	211.48
1016.78	211.69
1017.07	212.14
1017.36	211.62
1017.64	211.38
1017.93	211.60
1018.22	211.29
1018.50	211.07
1018.79	211.14
1019.08	210.19
1019.36	210.26
1019.65	210.36
1019.93	210.93
1020.22	211.21
1020.51	212.19
1020.79	211.86
1021.08	207.50
1021.36	206.00
1021.65	213.00
1021.94	208.00
1022.22	208.50
1022.51	211.00
1022.79	222.00
1023.08	214.50
1023.36	233.00
1023.65	205.50
>>>>>End Processed Spectral Data<<<<<
