SpectraSuite Data File
++++++++++++++++++++++++++++++++++++
Date: Tue Apr 02 18:40:08 EDT 2013
User: group
Dark Spectrum Present: No
Reference Spectrum Present: No
Number of Sampled Component Spectra: 1
Spectrometers: USB2E7196
Integration Time (usec): 580000 (USB2E7196)
Spectra Averaged: 2 (USB2E7196)
Boxcar Smoothing: 10 (USB2E7196)
Correct for Electrical Dark: No (USB2E7196)
Strobe/Lamp Enabled: No (USB2E7196)
Correct for Detector Non-linearity: No (USB2E7196)
Correct for Stray Light: No (USB2E7196)
Number of Pixels in Processed Spectrum: 2048
>>>>>Begin Processed Spectral Data<<<<<
339.09	0.00
339.48	195.50
339.86	195.00
340.24	196.50
340.63	198.50
341.01	232.50
341.39	202.00
341.78	208.00
342.16	212.50
342.54	206.50
342.93	199.17
343.31	209.02
343.69	209.64
344.07	210.21
344.46	210.86
344.84	211.26
345.22	210.10
345.60	210.55
345.99	210.55
346.37	210.40
346.75	210.50
347.13	210.67
347.52	210.52
347.90	211.02
348.28	211.12
348.66	211.43
349.05	210.90
349.43	211.19
349.81	211.19
350.19	211.12
350.57	211.24
350.96	211.43
351.34	211.74
351.72	211.83
352.10	211.64
352.48	211.62
352.87	211.67
353.25	211.76
353.63	211.48
354.01	211.60
354.39	211.64
354.77	211.90
355.15	212.67
355.54	212.52
355.92	212.12
356.30	212.12
356.68	213.43
357.06	213.14
357.44	212.83
357.82	212.81
358.20	214.05
358.58	213.98
358.97	213.88
359.35	214.36
359.73	214.69
360.11	215.00
360.49	215.05
360.87	215.02
361.25	215.21
361.63	216.17
362.01	216.31
362.39	216.12
362.77	216.33
363.15	215.98
363.53	216.14
363.91	216.14
364.29	216.17
364.67	214.40
365.05	214.55
365.43	214.64
365.81	214.71
366.19	214.48
366.57	215.17
366.95	215.12
367.33	214.43
367.71	214.33
368.09	214.74
368.47	214.57
368.85	214.40
369.23	214.76
369.61	213.88
369.99	214.43
370.37	214.76
370.75	215.52
371.13	215.05
371.51	214.50
371.89	214.86
372.27	214.86
372.65	214.93
373.03	215.00
373.41	214.79
373.78	214.69
374.16	213.79
374.54	213.29
374.92	213.05
375.30	213.07
375.68	212.76
376.06	212.81
376.44	212.98
376.82	213.36
377.19	213.21
377.57	213.19
377.95	212.48
378.33	212.31
378.71	211.05
379.09	211.55
379.47	212.07
379.84	211.55
380.22	211.52
380.60	211.26
380.98	211.17
381.36	211.33
381.73	211.10
382.11	211.45
382.49	211.50
382.87	211.48
383.25	211.62
383.62	213.90
384.00	213.69
384.38	213.79
384.76	214.36
385.13	215.33
385.51	215.45
385.89	215.48
386.27	215.60
386.64	216.02
387.02	215.83
387.40	215.60
387.78	215.74
388.15	215.86
388.53	215.69
388.91	215.93
389.29	215.88
389.66	216.31
390.04	216.07
390.42	216.40
390.79	216.57
391.17	216.43
391.55	214.29
391.92	214.12
392.30	214.45
392.68	213.88
393.05	213.71
393.43	213.71
393.81	214.10
394.18	213.83
394.56	213.90
394.94	214.31
395.31	214.33
395.69	215.17
396.06	215.48
396.44	215.88
396.82	215.69
397.19	216.62
397.57	216.31
397.95	217.00
398.32	216.33
398.70	216.57
399.07	217.33
399.45	217.12
399.82	217.07
400.20	216.50
400.58	216.62
400.95	215.57
401.33	216.19
401.70	217.45
402.08	217.90
402.45	217.83
402.83	218.26
403.20	218.33
403.58	218.12
403.95	218.52
404.33	218.71
404.71	219.17
405.08	220.36
405.46	220.76
405.83	220.86
406.21	221.31
406.58	221.57
406.96	221.62
407.33	222.45
407.70	223.43
408.08	225.76
408.45	226.57
408.83	227.74
409.20	228.05
409.58	227.43
409.95	228.50
410.33	229.50
410.70	229.79
411.08	231.24
411.45	232.40
411.82	233.26
412.20	235.10
412.57	237.64
412.95	237.57
413.32	239.48
413.69	240.98
414.07	243.07
414.44	244.98
414.82	246.90
415.19	249.52
415.56	251.83
415.94	253.05
416.31	256.07
416.68	258.71
417.06	262.19
417.43	266.00
417.81	269.62
418.18	273.60
418.55	277.69
418.93	281.79
419.30	286.40
419.67	291.12
420.04	295.64
420.42	300.14
420.79	307.43
421.16	313.29
421.54	320.62
421.91	327.00
422.28	333.81
422.66	341.43
423.03	349.48
423.40	356.71
423.77	364.60
424.15	372.17
424.52	380.60
424.89	389.76
425.26	398.00
425.64	406.69
426.01	415.40
426.38	424.79
426.75	434.98
427.13	444.57
427.50	455.14
427.87	465.93
428.24	476.40
428.61	485.33
428.99	497.62
429.36	508.90
429.73	520.88
430.10	532.95
430.47	545.55
430.85	557.07
431.22	570.55
431.59	586.29
431.96	599.98
432.33	615.50
432.70	630.12
433.08	647.55
433.45	663.69
433.82	680.19
434.19	698.86
434.56	716.81
434.93	734.07
435.30	751.02
435.68	770.24
436.05	788.86
436.42	808.00
436.79	824.86
437.16	844.02
437.53	863.33
437.90	882.81
438.27	901.31
438.64	920.93
439.01	939.29
439.38	954.74
439.75	970.33
440.13	988.67
440.50	1005.50
440.87	1018.98
441.24	1032.79
441.61	1048.79
441.98	1059.98
442.35	1073.10
442.72	1087.38
443.09	1101.40
443.46	1109.74
443.83	1115.93
444.20	1120.62
444.57	1126.57
444.94	1129.07
445.31	1132.98
445.68	1139.17
446.05	1140.86
446.42	1139.43
446.79	1138.36
447.16	1135.67
447.53	1134.98
447.90	1127.57
448.27	1120.86
448.64	1111.69
449.01	1105.93
449.37	1093.83
449.74	1082.26
450.11	1069.76
450.48	1053.17
450.85	1036.60
451.22	1022.76
451.59	1009.79
451.96	997.05
452.33	980.69
452.70	965.57
453.07	946.62
453.43	925.29
453.80	907.93
454.17	890.55
454.54	873.86
454.91	857.05
455.28	839.62
455.65	823.76
456.02	811.19
456.38	797.81
456.75	780.29
457.12	765.79
457.49	752.05
457.86	736.69
458.23	726.05
458.59	713.69
458.96	701.12
459.33	689.26
459.70	678.17
460.07	669.45
460.43	659.07
460.80	650.79
461.17	643.07
461.54	633.55
461.91	624.81
462.27	616.10
462.64	608.38
463.01	600.81
463.38	593.60
463.74	582.10
464.11	574.81
464.48	568.79
464.85	562.45
465.21	557.48
465.58	552.57
465.95	545.57
466.32	540.00
466.68	533.88
467.05	528.60
467.42	522.98
467.78	517.07
468.15	511.64
468.52	507.02
468.88	500.55
469.25	495.81
469.62	492.62
469.98	488.31
470.35	484.33
470.72	480.29
471.08	475.31
471.45	472.45
471.82	469.45
472.18	465.57
472.55	462.43
472.92	458.79
473.28	455.45
473.65	452.57
474.02	449.60
474.38	447.50
474.75	445.40
475.11	443.17
475.48	441.43
475.85	439.90
476.21	437.86
476.58	436.64
476.94	435.79
477.31	434.50
477.67	433.07
478.04	431.71
478.41	430.90
478.77	432.31
479.14	431.05
479.50	430.12
479.87	429.81
480.23	429.64
480.60	429.19
480.96	428.88
481.33	429.48
481.69	429.67
482.06	429.62
482.42	429.71
482.79	430.17
483.15	430.48
483.52	431.19
483.88	431.93
484.25	432.55
484.61	433.29
484.98	433.83
485.34	435.60
485.71	437.36
486.07	438.69
486.44	438.64
486.80	440.95
487.17	442.79
487.53	445.43
487.90	447.62
488.26	450.76
488.62	453.86
488.99	455.98
489.35	458.64
489.72	462.02
490.08	464.79
490.44	467.69
490.81	471.14
491.17	474.79
491.54	478.33
491.90	482.55
492.26	486.33
492.63	490.52
492.99	494.38
493.36	498.88
493.72	503.93
494.08	508.43
494.45	513.02
494.81	518.33
495.17	523.26
495.54	529.07
495.90	533.79
496.26	538.81
496.63	544.48
496.99	550.12
497.35	555.55
497.72	562.33
498.08	568.67
498.44	575.64
498.80	582.36
499.17	589.07
499.53	596.00
499.89	603.69
500.26	611.12
500.62	618.29
500.98	626.10
501.34	633.33
501.71	641.74
502.07	649.62
502.43	656.79
502.79	664.19
503.16	671.50
503.52	679.76
503.88	687.62
504.24	695.60
504.60	704.07
504.97	712.81
505.33	720.83
505.69	729.83
506.05	738.05
506.41	746.81
506.78	755.71
507.14	763.52
507.50	771.98
507.86	781.38
508.22	790.76
508.59	798.62
508.95	807.45
509.31	816.88
509.67	825.71
510.03	834.67
510.39	843.64
510.75	852.81
511.12	860.62
511.48	869.48
511.84	878.52
512.20	887.40
512.56	896.05
512.92	904.83
513.28	913.40
513.64	921.62
514.00	929.60
514.37	937.29
514.73	945.76
515.09	953.95
515.45	960.74
515.81	967.88
516.17	975.81
516.53	983.21
516.89	989.62
517.25	996.60
517.61	1004.38
517.97	1011.76
518.33	1018.81
518.69	1027.05
519.05	1035.00
519.41	1042.10
519.77	1049.57
520.13	1056.21
520.49	1062.64
520.85	1069.33
521.21	1076.64
521.57	1083.21
521.93	1090.24
522.29	1096.86
522.65	1102.57
523.01	1110.10
523.37	1115.90
523.73	1121.98
524.09	1127.95
524.45	1133.64
524.81	1140.43
525.17	1146.40
525.53	1152.38
525.89	1158.31
526.25	1164.31
526.61	1169.17
526.97	1174.43
527.33	1179.69
527.68	1186.76
528.04	1192.76
528.40	1197.62
528.76	1202.05
529.12	1207.43
529.48	1213.17
529.84	1218.14
530.20	1224.29
530.56	1228.98
530.91	1235.36
531.27	1241.69
531.63	1247.07
531.99	1251.95
532.35	1256.64
532.71	1261.33
533.07	1266.26
533.42	1273.17
533.78	1277.88
534.14	1283.76
534.50	1288.86
534.86	1295.10
535.21	1298.83
535.57	1304.26
535.93	1309.71
536.29	1316.62
536.65	1322.40
537.00	1326.52
537.36	1331.95
537.72	1336.43
538.08	1340.90
538.44	1345.00
538.79	1349.10
539.15	1353.86
539.51	1359.02
539.87	1363.29
540.22	1367.86
540.58	1372.29
540.94	1375.33
541.29	1379.17
541.65	1381.40
542.01	1386.21
542.37	1388.69
542.72	1392.12
543.08	1394.88
543.44	1398.93
543.79	1401.29
544.15	1404.71
544.51	1409.31
544.87	1413.62
545.22	1416.88
545.58	1420.10
545.94	1424.40
546.29	1427.62
546.65	1431.48
547.01	1435.55
547.36	1439.19
547.72	1442.95
548.07	1447.38
548.43	1449.79
548.79	1453.76
549.14	1457.83
549.50	1460.83
549.86	1464.07
550.21	1468.05
550.57	1472.00
550.92	1474.21
551.28	1478.48
551.64	1482.05
551.99	1485.90
552.35	1488.17
552.70	1492.48
553.06	1497.64
553.41	1500.90
553.77	1505.62
554.13	1510.05
554.48	1514.05
554.84	1519.62
555.19	1524.29
555.55	1529.45
555.90	1534.02
556.26	1538.43
556.61	1543.21
556.97	1547.40
557.32	1552.48
557.68	1556.69
558.03	1561.17
558.39	1566.55
558.74	1570.62
559.10	1574.93
559.45	1579.48
559.81	1585.05
560.16	1588.67
560.52	1592.55
560.87	1597.52
561.23	1602.05
561.58	1607.64
561.94	1612.24
562.29	1615.10
562.64	1619.90
563.00	1622.98
563.35	1628.05
563.71	1633.07
564.06	1638.45
564.42	1643.36
564.77	1648.67
565.12	1654.86
565.48	1661.81
565.83	1667.93
566.19	1673.83
566.54	1679.48
566.89	1683.86
567.25	1689.48
567.60	1696.21
567.96	1703.38
568.31	1709.76
568.66	1715.40
569.02	1717.79
569.37	1721.57
569.72	1726.98
570.08	1730.79
570.43	1734.79
570.78	1739.81
571.14	1744.24
571.49	1747.83
571.84	1752.71
572.20	1755.52
572.55	1758.48
572.90	1759.90
573.26	1762.48
573.61	1764.83
573.96	1767.64
574.31	1770.86
574.67	1773.95
575.02	1776.31
575.37	1777.14
575.72	1778.10
576.08	1779.83
576.43	1783.76
576.78	1786.57
577.13	1789.26
577.49	1791.43
577.84	1794.52
578.19	1796.26
578.54	1799.00
578.90	1801.79
579.25	1803.21
579.60	1805.12
579.95	1806.21
580.30	1808.83
580.66	1811.02
581.01	1812.83
581.36	1813.45
581.71	1814.95
582.06	1816.57
582.42	1818.02
582.77	1819.02
583.12	1820.83
583.47	1821.90
583.82	1821.69
584.17	1822.57
584.53	1823.43
584.88	1823.88
585.23	1824.57
585.58	1824.88
585.93	1823.69
586.28	1824.67
586.63	1824.69
586.98	1825.90
587.34	1826.79
587.69	1825.90
588.04	1825.60
588.39	1825.38
588.74	1825.52
589.09	1825.88
589.44	1824.26
589.79	1823.79
590.14	1823.02
590.49	1821.21
590.84	1820.14
591.19	1819.67
591.54	1818.88
591.89	1817.50
592.25	1819.17
592.60	1817.31
592.95	1816.71
593.30	1816.36
593.65	1814.14
594.00	1812.62
594.35	1816.33
594.70	1814.76
595.05	1813.76
595.40	1811.38
595.75	1809.55
596.10	1808.67
596.45	1806.12
596.80	1805.10
597.15	1803.26
597.50	1801.45
597.85	1801.57
598.19	1800.21
598.54	1798.48
598.89	1797.33
599.24	1796.00
599.59	1791.69
599.94	1789.95
600.29	1788.05
600.64	1786.48
600.99	1784.14
601.34	1783.17
601.69	1776.62
602.04	1773.69
602.39	1771.26
602.74	1770.26
603.08	1767.60
603.43	1765.88
603.78	1763.81
604.13	1760.90
604.48	1758.07
604.83	1756.00
605.18	1751.79
605.53	1748.45
605.87	1745.31
606.22	1742.10
606.57	1738.81
606.92	1736.02
607.27	1733.17
607.62	1730.57
607.96	1726.86
608.31	1724.79
608.66	1721.50
609.01	1716.48
609.36	1714.02
609.70	1710.60
610.05	1706.40
610.40	1703.12
610.75	1698.26
611.10	1694.45
611.44	1690.36
611.79	1685.60
612.14	1680.36
612.49	1675.31
612.83	1670.86
613.18	1665.79
613.53	1660.45
613.88	1654.19
614.22	1649.79
614.57	1644.19
614.92	1636.98
615.27	1631.57
615.61	1625.10
615.96	1618.55
616.31	1613.57
616.65	1608.88
617.00	1603.88
617.35	1598.57
617.70	1593.40
618.04	1588.02
618.39	1581.67
618.74	1575.38
619.08	1569.45
619.43	1564.48
619.78	1559.19
620.12	1554.45
620.47	1549.10
620.82	1543.05
621.16	1537.67
621.51	1532.95
621.85	1527.00
622.20	1522.50
622.55	1516.40
622.89	1510.81
623.24	1505.71
623.59	1500.14
623.93	1494.29
624.28	1488.83
624.62	1485.24
624.97	1480.55
625.32	1474.76
625.66	1469.76
626.01	1465.10
626.35	1460.88
626.70	1456.45
627.04	1452.00
627.39	1445.60
627.73	1441.81
628.08	1437.57
628.43	1432.86
628.77	1426.52
629.12	1422.29
629.46	1416.67
629.81	1412.00
630.15	1406.10
630.50	1400.62
630.84	1394.38
631.19	1387.76
631.53	1380.93
631.88	1372.69
632.22	1365.12
632.57	1359.81
632.91	1353.74
633.26	1347.57
633.60	1340.98
633.95	1333.69
634.29	1326.81
634.64	1320.90
634.98	1313.60
635.32	1307.40
635.67	1301.26
636.01	1295.00
636.36	1288.12
636.70	1283.38
637.05	1276.76
637.39	1271.14
637.73	1266.00
638.08	1260.90
638.42	1254.93
638.77	1249.64
639.11	1243.36
639.45	1237.71
639.80	1231.07
640.14	1225.60
640.49	1219.00
640.83	1212.38
641.17	1206.45
641.52	1200.79
641.86	1194.52
642.20	1189.55
642.55	1182.57
642.89	1176.76
643.23	1170.45
643.58	1165.64
643.92	1156.79
644.26	1149.86
644.61	1144.19
644.95	1137.00
645.29	1129.95
645.64	1124.14
645.98	1117.71
646.32	1111.48
646.66	1103.98
647.01	1097.00
647.35	1090.05
647.69	1084.12
648.04	1079.12
648.38	1073.45
648.72	1066.86
649.06	1060.24
649.41	1052.69
649.75	1045.69
650.09	1038.69
650.43	1031.55
650.78	1023.86
651.12	1018.29
651.46	1012.57
651.80	1004.55
652.14	998.10
652.49	992.38
652.83	985.60
653.17	978.95
653.51	972.69
653.85	967.55
654.20	961.21
654.54	953.71
654.88	946.45
655.22	939.60
655.56	932.36
655.90	925.67
656.25	919.26
656.59	913.19
656.93	907.98
657.27	902.71
657.61	896.60
657.95	890.67
658.29	884.52
658.64	878.29
658.98	872.64
659.32	865.98
659.66	859.64
660.00	853.86
660.34	847.93
660.68	841.48
661.02	835.33
661.36	829.55
661.70	824.67
662.05	819.88
662.39	814.07
662.73	809.74
663.07	805.38
663.41	799.95
663.75	794.17
664.09	788.12
664.43	781.90
664.77	776.57
665.11	770.86
665.45	765.71
665.79	760.98
666.13	755.62
666.47	750.43
666.81	745.69
667.15	740.10
667.49	734.90
667.83	730.93
668.17	725.86
668.51	720.98
668.85	716.48
669.19	712.00
669.53	706.60
669.87	700.38
670.21	694.86
670.55	690.07
670.89	686.36
671.23	682.02
671.57	677.43
671.91	673.14
672.25	669.21
672.58	665.57
672.92	660.10
673.26	656.05
673.60	651.71
673.94	646.95
674.28	642.26
674.62	638.50
674.96	633.88
675.30	629.90
675.64	625.69
675.97	621.26
676.31	616.38
676.65	612.00
676.99	608.79
677.33	604.36
677.67	600.95
678.01	596.00
678.34	591.95
678.68	588.24
679.02	583.76
679.36	579.21
679.70	574.40
680.04	570.71
680.37	566.55
680.71	562.79
681.05	559.05
681.39	555.98
681.73	551.64
682.06	547.57
682.40	543.79
682.74	540.14
683.08	536.57
683.42	532.88
683.75	529.57
684.09	525.02
684.43	521.43
684.77	517.02
685.10	513.57
685.44	510.14
685.78	506.38
686.12	503.40
686.45	499.90
686.79	496.07
687.13	493.50
687.46	490.43
687.80	487.67
688.14	484.12
688.48	480.81
688.81	477.43
689.15	474.76
689.49	471.36
689.82	468.10
690.16	464.74
690.50	461.67
690.83	458.60
691.17	455.43
691.51	452.21
691.84	449.60
692.18	446.24
692.52	442.86
692.85	440.36
693.19	437.76
693.52	434.76
693.86	431.90
694.20	428.64
694.53	425.83
694.87	422.48
695.21	419.26
695.54	416.48
695.88	413.67
696.21	410.36
696.55	407.93
696.88	405.95
697.22	403.19
697.56	401.29
697.89	398.38
698.23	396.71
698.56	394.52
698.90	392.24
699.23	390.07
699.57	387.93
699.90	384.95
700.24	382.26
700.58	380.14
700.91	378.38
701.25	377.79
701.58	376.40
701.92	374.93
702.25	372.95
702.59	370.83
702.92	368.86
703.26	367.00
703.59	365.05
703.93	364.29
704.26	362.57
704.60	360.36
704.93	358.81
705.26	356.48
705.60	355.29
705.93	353.38
706.27	352.17
706.60	351.14
706.94	350.62
707.27	348.83
707.61	347.45
707.94	345.76
708.27	342.74
708.61	340.17
708.94	338.31
709.28	337.05
709.61	335.26
709.94	333.93
710.28	332.57
710.61	330.69
710.95	327.24
711.28	327.02
711.61	325.45
711.95	324.48
712.28	323.12
712.61	321.36
712.95	320.79
713.28	320.21
713.61	318.52
713.95	316.21
714.28	315.29
714.61	313.79
714.95	312.50
715.28	310.74
715.61	309.69
715.95	308.36
716.28	307.14
716.61	306.33
716.95	305.26
717.28	304.05
717.61	303.17
717.94	302.64
718.28	300.05
718.61	299.00
718.94	297.43
719.27	296.29
719.61	295.21
719.94	293.52
720.27	291.36
720.60	290.19
720.94	289.38
721.27	288.07
721.60	287.48
721.93	286.71
722.27	286.55
722.60	286.02
722.93	284.98
723.26	284.10
723.59	283.00
723.93	282.31
724.26	281.90
724.59	280.95
724.92	280.17
725.25	280.14
725.59	279.40
725.92	279.10
726.25	278.33
726.58	277.93
726.91	277.31
727.24	276.76
727.57	275.83
727.91	274.81
728.24	274.40
728.57	273.36
728.90	272.74
729.23	271.52
729.56	271.62
729.89	270.98
730.22	270.21
730.55	269.31
730.89	268.67
731.22	267.88
731.55	267.17
731.88	266.60
732.21	265.62
732.54	264.74
732.87	264.02
733.20	263.43
733.53	262.57
733.86	262.10
734.19	261.17
734.52	260.93
734.85	262.05
735.18	261.19
735.51	261.36
735.84	260.64
736.17	260.74
736.50	259.12
736.83	261.14
737.16	260.45
737.49	260.33
737.82	259.76
738.15	259.07
738.48	258.69
738.81	258.05
739.14	257.52
739.47	256.88
739.80	256.29
740.13	256.26
740.46	255.40
740.79	254.83
741.12	254.55
741.45	253.93
741.78	252.43
742.11	252.55
742.44	251.69
742.77	251.76
743.10	250.83
743.43	250.38
743.75	247.64
744.08	250.10
744.41	249.33
744.74	248.57
745.07	247.93
745.40	247.71
745.73	248.07
746.06	247.64
746.39	247.81
746.71	247.33
747.04	246.57
747.37	246.10
747.70	245.86
748.03	245.88
748.36	246.07
748.68	245.52
749.01	244.55
749.34	244.10
749.67	243.45
750.00	243.36
750.33	244.52
750.65	244.24
750.98	241.40
751.31	241.38
751.64	241.24
751.97	242.21
752.29	241.69
752.62	240.48
752.95	239.90
753.28	239.10
753.60	238.74
753.93	238.95
754.26	238.90
754.59	238.19
754.91	237.17
755.24	236.33
755.57	235.86
755.90	235.64
756.22	235.19
756.55	234.64
756.88	234.05
757.20	232.60
757.53	232.00
757.86	231.71
758.19	231.60
758.51	231.43
758.84	230.07
759.17	229.62
759.49	229.52
759.82	230.60
760.15	230.83
760.47	230.48
760.80	229.71
761.13	229.93
761.45	229.79
761.78	229.81
762.11	229.74
762.43	229.64
762.76	229.43
763.08	229.67
763.41	229.81
763.74	229.81
764.06	229.57
764.39	229.67
764.71	229.24
765.04	228.81
765.37	228.64
765.69	228.64
766.02	228.62
766.34	228.31
766.67	227.21
767.00	227.14
767.32	228.19
767.65	229.24
767.97	228.98
768.30	228.71
768.62	228.57
768.95	228.36
769.27	228.21
769.60	228.48
769.92	228.00
770.25	227.57
770.57	227.17
770.90	227.00
771.22	226.45
771.55	226.71
771.87	226.69
772.20	226.07
772.52	227.50
772.85	229.93
773.17	229.67
773.50	229.33
773.82	229.02
774.15	227.88
774.47	226.60
774.80	226.38
775.12	226.45
775.45	226.50
775.77	226.60
776.09	226.62
776.42	226.45
776.74	227.14
777.07	227.07
777.39	227.21
777.72	226.83
778.04	227.05
778.36	226.36
778.69	226.40
779.01	226.79
779.33	224.93
779.66	222.48
779.98	222.48
780.31	222.52
780.63	223.38
780.95	223.64
781.28	223.52
781.60	223.19
781.92	223.24
782.25	222.98
782.57	222.60
782.89	222.29
783.22	222.17
783.54	221.43
783.86	221.45
784.19	221.10
784.51	221.93
784.83	221.55
785.16	221.64
785.48	221.33
785.80	221.36
786.12	221.55
786.45	221.45
786.77	221.60
787.09	221.36
787.42	220.33
787.74	220.31
788.06	220.21
788.38	219.90
788.71	219.45
789.03	219.45
789.35	219.64
789.67	219.38
789.99	219.40
790.32	219.10
790.64	219.33
790.96	221.00
791.28	219.95
791.61	219.79
791.93	219.90
792.25	219.79
792.57	220.98
792.89	220.50
793.21	220.50
793.54	220.26
793.86	220.24
794.18	220.36
794.50	220.00
794.82	219.83
795.14	220.50
795.47	220.86
795.79	220.90
796.11	220.64
796.43	220.43
796.75	220.29
797.07	220.31
797.39	220.05
797.71	218.50
798.04	218.60
798.36	218.71
798.68	218.55
799.00	218.81
799.32	217.50
799.64	218.07
799.96	218.00
800.28	218.52
800.60	218.45
800.92	218.57
801.24	218.33
801.56	218.45
801.89	218.14
802.21	218.19
802.53	217.81
802.85	218.07
803.17	219.14
803.49	218.83
803.81	218.81
804.13	218.74
804.45	218.50
804.77	218.64
805.09	218.67
805.41	218.62
805.73	218.14
806.05	217.79
806.37	217.38
806.69	217.38
807.01	216.95
807.33	217.00
807.65	216.17
807.97	217.24
808.28	217.14
808.60	216.81
808.92	216.67
809.24	218.24
809.56	217.93
809.88	217.17
810.20	217.21
810.52	217.57
810.84	217.12
811.16	216.95
811.48	217.05
811.80	217.69
812.12	217.67
812.43	217.93
812.75	218.31
813.07	218.21
813.39	218.33
813.71	218.21
814.03	218.07
814.35	218.50
814.67	217.62
814.98	217.57
815.30	217.83
815.62	217.24
815.94	215.76
816.26	215.69
816.58	215.43
816.89	215.60
817.21	215.02
817.53	215.12
817.85	215.21
818.17	214.86
818.48	214.19
818.80	214.50
819.12	214.40
819.44	213.90
819.76	213.76
820.07	213.55
820.39	213.33
820.71	213.33
821.03	213.21
821.34	213.14
821.66	213.45
821.98	213.71
822.30	213.88
822.61	215.10
822.93	215.05
823.25	214.79
823.57	214.69
823.88	215.14
824.20	215.26
824.52	215.76
824.83	215.81
825.15	215.62
825.47	215.62
825.79	215.83
826.10	215.81
826.42	215.69
826.74	216.14
827.05	216.17
827.37	216.21
827.69	216.19
828.00	216.17
828.32	215.86
828.64	215.48
828.95	216.55
829.27	215.90
829.58	215.86
829.90	216.38
830.22	216.33
830.53	215.86
830.85	215.69
831.17	214.98
831.48	214.88
831.80	215.05
832.11	214.71
832.43	214.29
832.75	214.40
833.06	215.62
833.38	214.90
833.69	215.02
834.01	215.29
834.32	215.10
834.64	215.10
834.96	215.38
835.27	215.12
835.59	214.40
835.90	214.02
836.22	213.98
836.53	213.69
836.85	213.57
837.16	215.45
837.48	215.57
837.79	216.17
838.11	216.29
838.42	216.17
838.74	216.60
839.05	216.48
839.37	216.21
839.68	214.93
840.00	214.71
840.31	214.81
840.63	214.55
840.94	214.50
841.26	214.24
841.57	214.19
841.88	214.50
842.20	214.43
842.51	213.90
842.83	213.93
843.14	215.88
843.46	216.05
843.77	214.93
844.08	214.79
844.40	214.17
844.71	213.95
845.03	213.69
845.34	213.45
845.65	213.60
845.97	213.64
846.28	213.86
846.60	214.10
846.91	213.74
847.22	213.52
847.54	213.71
847.85	213.74
848.16	213.43
848.48	213.05
848.79	213.48
849.10	214.14
849.42	214.19
849.73	212.02
850.04	211.88
850.36	211.07
850.67	211.45
850.98	211.57
851.30	211.90
851.61	211.93
851.92	211.79
852.23	212.33
852.55	212.50
852.86	212.52
853.17	212.57
853.49	213.10
853.80	213.60
854.11	213.95
854.42	214.31
854.74	214.26
855.05	214.33
855.36	213.33
855.67	213.43
855.99	213.64
856.30	216.14
856.61	216.17
856.92	216.60
857.23	216.55
857.55	216.43
857.86	216.26
858.17	216.60
858.48	216.45
858.79	215.88
859.11	215.95
859.42	215.67
859.73	215.36
860.04	215.17
860.35	214.62
860.66	213.95
860.98	213.79
861.29	214.19
861.60	214.02
861.91	214.74
862.22	214.33
862.53	213.86
862.84	211.50
863.16	212.00
863.47	211.55
863.78	211.29
864.09	211.36
864.40	211.43
864.71	211.45
865.02	211.69
865.33	211.45
865.64	211.24
865.95	211.33
866.27	212.98
866.58	212.74
866.89	213.07
867.20	213.05
867.51	212.67
867.82	212.33
868.13	213.19
868.44	212.64
868.75	212.86
869.06	213.17
869.37	213.40
869.68	212.62
869.99	213.00
870.30	213.00
870.61	213.14
870.92	212.67
871.23	212.38
871.54	212.62
871.85	213.12
872.16	213.36
872.47	213.17
872.78	211.81
873.09	212.07
873.40	211.64
873.71	211.88
874.02	211.95
874.33	211.62
874.64	211.14
874.95	211.55
875.26	211.14
875.56	210.79
875.87	210.67
876.18	210.74
876.49	212.76
876.80	212.74
877.11	212.45
877.42	212.76
877.73	213.00
878.04	212.52
878.35	212.79
878.66	212.83
878.96	212.83
879.27	212.76
879.58	212.57
879.89	212.52
880.20	213.05
880.51	213.17
880.82	213.43
881.12	213.21
881.43	212.81
881.74	212.67
882.05	212.98
882.36	213.17
882.67	213.24
882.97	210.83
883.28	210.60
883.59	210.62
883.90	210.83
884.21	210.86
884.51	210.67
884.82	209.95
885.13	209.83
885.44	209.64
885.74	209.83
886.05	209.60
886.36	209.74
886.67	209.10
886.98	210.05
887.28	210.14
887.59	210.17
887.90	210.12
888.20	210.17
888.51	210.45
888.82	210.17
889.13	210.21
889.43	212.05
889.74	212.07
890.05	212.07
890.35	211.88
890.66	212.12
890.97	212.17
891.28	212.24
891.58	212.55
891.89	212.83
892.20	212.33
892.50	212.50
892.81	212.31
893.12	212.31
893.42	211.38
893.73	211.38
894.04	211.64
894.34	211.79
894.65	211.83
894.95	211.50
895.26	211.50
895.57	212.83
895.87	210.95
896.18	211.26
896.48	211.29
896.79	211.36
897.10	211.33
897.40	211.48
897.71	211.67
898.01	211.21
898.32	211.52
898.63	211.67
898.93	211.81
899.24	212.02
899.54	211.83
899.85	211.62
900.15	211.71
900.46	211.74
900.76	212.12
901.07	212.02
901.38	211.98
901.68	212.29
901.99	210.83
902.29	211.00
902.60	210.95
902.90	210.81
903.21	210.64
903.51	210.38
903.82	210.86
904.12	210.93
904.43	211.21
904.73	211.12
905.03	211.24
905.34	213.19
905.64	213.00
905.95	213.21
906.25	213.31
906.56	213.24
906.86	213.21
907.17	213.12
907.47	213.12
907.77	212.98
908.08	212.38
908.38	212.67
908.69	212.79
908.99	213.17
909.30	213.33
909.60	213.43
909.90	213.48
910.21	212.93
910.51	212.62
910.81	212.76
911.12	212.93
911.42	212.93
911.73	210.74
912.03	211.02
912.33	211.21
912.64	211.31
912.94	211.14
913.24	210.79
913.55	210.48
913.85	210.48
914.15	210.88
914.46	211.12
914.76	211.21
915.06	211.19
915.37	210.67
915.67	210.64
915.97	210.67
916.27	210.33
916.58	210.43
916.88	210.26
917.18	209.83
917.49	210.98
917.79	211.00
918.09	211.12
918.39	211.67
918.70	211.83
919.00	211.57
919.30	212.33
919.60	212.12
919.91	211.98
920.21	212.29
920.51	211.71
920.81	211.79
921.12	211.76
921.42	211.69
921.72	211.95
922.02	211.86
922.32	212.10
922.63	212.43
922.93	213.38
923.23	213.60
923.53	213.55
923.83	212.21
924.13	212.24
924.44	212.36
924.74	212.50
925.04	212.76
925.34	212.95
925.64	212.21
925.94	212.55
926.24	213.62
926.55	213.21
926.85	213.67
927.15	213.76
927.45	213.69
927.75	213.67
928.05	213.43
928.35	213.50
928.65	213.93
928.95	213.90
929.26	213.07
929.56	213.62
929.86	213.95
930.16	213.83
930.46	213.76
930.76	213.90
931.06	213.02
931.36	212.64
931.66	212.83
931.96	213.17
932.26	213.00
932.56	212.14
932.86	212.48
933.16	212.26
933.46	212.00
933.76	211.74
934.06	212.40
934.36	213.45
934.66	213.33
934.96	213.02
935.26	213.29
935.56	213.64
935.86	212.98
936.16	212.62
936.46	212.48
936.76	212.29
937.06	211.90
937.36	212.17
937.66	212.10
937.96	212.07
938.26	211.60
938.56	211.64
938.86	211.93
939.16	212.26
939.46	212.60
939.76	212.55
940.06	212.48
940.35	211.76
940.65	210.62
940.95	210.69
941.25	210.17
941.55	209.74
941.85	209.57
942.15	210.29
942.45	210.93
942.75	211.07
943.04	211.33
943.34	211.74
943.64	211.36
943.94	210.93
944.24	211.02
944.54	211.21
944.84	211.36
945.13	211.12
945.43	210.86
945.73	210.86
946.03	210.81
946.33	210.71
946.62	210.64
946.92	210.74
947.22	211.05
947.52	211.17
947.82	211.55
948.11	211.48
948.41	210.95
948.71	210.38
949.01	210.29
949.31	209.98
949.60	209.79
949.90	210.12
950.20	210.29
950.50	210.26
950.79	210.10
951.09	210.26
951.39	210.21
951.69	210.17
951.98	210.40
952.28	210.64
952.58	210.71
952.87	210.76
953.17	211.02
953.47	210.79
953.76	210.93
954.06	210.67
954.36	210.43
954.66	210.26
954.95	210.76
955.25	211.07
955.55	211.43
955.84	211.19
956.14	211.67
956.44	211.79
956.73	211.45
957.03	211.67
957.32	211.48
957.62	211.38
957.92	211.50
958.21	211.24
958.51	214.02
958.81	214.50
959.10	214.71
959.40	215.17
959.69	215.31
959.99	215.52
960.29	215.50
960.58	215.31
960.88	216.21
961.17	216.00
961.47	216.00
961.76	215.79
962.06	216.40
962.36	215.95
962.65	215.95
962.95	216.10
963.24	215.86
963.54	216.07
963.83	216.24
964.13	216.24
964.42	215.74
964.72	213.48
965.01	213.40
965.31	213.21
965.60	212.43
965.90	213.50
966.19	213.07
966.49	213.05
966.78	213.17
967.08	212.98
967.37	213.00
967.67	212.62
967.96	213.02
968.26	212.81
968.55	213.05
968.85	213.21
969.14	213.02
969.43	213.12
969.73	212.81
970.02	212.50
970.32	212.29
970.61	212.36
970.91	211.74
971.20	211.26
971.49	211.14
971.79	211.33
972.08	210.05
972.38	210.21
972.67	210.07
972.96	210.14
973.26	209.52
973.55	210.29
973.85	210.29
974.14	210.31
974.43	210.38
974.73	210.02
975.02	209.69
975.31	209.76
975.61	209.88
975.90	209.62
976.19	209.57
976.49	209.83
976.78	210.31
977.07	210.31
977.37	210.62
977.66	210.86
977.95	210.83
978.24	211.10
978.54	211.71
978.83	211.48
979.12	211.36
979.42	211.40
979.71	210.86
980.00	211.05
980.29	210.79
980.59	210.48
980.88	211.02
981.17	211.12
981.46	211.24
981.76	211.00
982.05	211.98
982.34	212.29
982.63	212.14
982.93	211.90
983.22	212.48
983.51	212.55
983.80	212.74
984.09	212.93
984.39	212.76
984.68	212.31
984.97	212.60
985.26	212.45
985.55	212.57
985.85	212.10
986.14	212.33
986.43	212.52
986.72	212.29
987.01	211.48
987.30	211.43
987.59	211.40
987.89	211.69
988.18	211.12
988.47	210.74
988.76	210.81
989.05	210.55
989.34	210.12
989.63	210.52
989.92	210.12
990.22	209.88
990.51	209.76
990.80	209.55
991.09	209.81
991.38	210.10
991.67	210.05
991.96	209.81
992.25	209.79
992.54	209.52
992.83	209.43
993.12	209.57
993.41	209.98
993.70	210.64
993.99	210.93
994.28	211.19
994.58	211.57
994.87	211.21
995.16	211.38
995.45	211.19
995.74	210.52
996.03	211.10
996.32	211.55
996.61	212.02
996.90	211.95
997.19	211.79
997.48	211.90
997.77	211.71
998.06	212.07
998.34	211.67
998.63	211.76
998.92	212.05
999.21	212.33
999.50	212.43
999.79	211.50
1000.08	211.43
1000.37	211.26
1000.66	211.19
1000.95	211.60
1001.24	211.71
1001.53	212.24
1001.82	212.24
1002.11	211.60
1002.40	211.74
1002.68	212.14
1002.97	213.81
1003.26	213.55
1003.55	213.17
1003.84	213.26
1004.13	213.95
1004.42	213.98
1004.71	213.81
1004.99	213.71
1005.28	214.17
1005.57	213.79
1005.86	213.79
1006.15	213.50
1006.44	213.21
1006.72	213.40
1007.01	213.21
1007.30	212.86
1007.59	212.57
1007.88	212.48
1008.17	212.69
1008.45	212.12
1008.74	211.14
1009.03	210.12
1009.32	210.12
1009.60	210.26
1009.89	210.19
1010.18	209.07
1010.47	209.12
1010.76	209.19
1011.04	209.12
1011.33	209.62
1011.62	209.81
1011.91	209.95
1012.19	209.93
1012.48	210.00
1012.77	209.86
1013.05	210.67
1013.34	210.95
1013.63	210.95
1013.92	211.14
1014.20	211.02
1014.49	211.02
1014.78	211.45
1015.06	210.60
1015.35	210.62
1015.64	210.88
1015.92	211.12
1016.21	211.50
1016.50	211.40
1016.78	211.50
1017.07	211.76
1017.36	211.00
1017.64	210.79
1017.93	211.26
1018.22	211.17
1018.50	211.26
1018.79	211.12
1019.08	210.24
1019.36	210.38
1019.65	210.14
1019.93	210.50
1020.22	210.74
1020.51	211.76
1020.79	211.43
1021.08	207.50
1021.36	210.00
1021.65	208.50
1021.94	209.00
1022.22	213.50
1022.51	207.00
1022.79	216.50
1023.08	212.50
1023.36	232.00
1023.65	206.00
>>>>>End Processed Spectral Data<<<<<
