SpectraSuite Data File
++++++++++++++++++++++++++++++++++++
Date: Tue Apr 02 18:37:48 EDT 2013
User: group
Dark Spectrum Present: No
Reference Spectrum Present: No
Number of Sampled Component Spectra: 1
Spectrometers: USB2E7196
Integration Time (usec): 580000 (USB2E7196)
Spectra Averaged: 2 (USB2E7196)
Boxcar Smoothing: 10 (USB2E7196)
Correct for Electrical Dark: No (USB2E7196)
Strobe/Lamp Enabled: No (USB2E7196)
Correct for Detector Non-linearity: No (USB2E7196)
Correct for Stray Light: No (USB2E7196)
Number of Pixels in Processed Spectrum: 2048
>>>>>Begin Processed Spectral Data<<<<<
339.09	0.00
339.48	195.50
339.86	193.50
340.24	194.00
340.63	200.50
341.01	225.00
341.39	202.00
341.78	206.00
342.16	204.50
342.54	208.50
342.93	197.26
343.31	207.26
343.69	207.71
344.07	208.38
344.46	209.21
344.84	209.81
345.22	208.88
345.60	209.36
345.99	209.64
346.37	209.93
346.75	209.93
347.13	210.12
347.52	210.36
347.90	211.00
348.28	211.19
348.66	211.55
349.05	210.81
349.43	210.86
349.81	211.31
350.19	211.76
350.57	211.98
350.96	212.40
351.34	212.45
351.72	212.71
352.10	212.86
352.48	212.86
352.87	212.38
353.25	212.64
353.63	212.50
354.01	212.19
354.39	212.10
354.77	211.98
355.15	212.31
355.54	212.14
355.92	211.57
356.30	211.52
356.68	212.83
357.06	213.10
357.44	212.71
357.82	212.57
358.20	213.43
358.58	213.43
358.97	213.36
359.35	213.71
359.73	213.93
360.11	213.90
360.49	213.98
360.87	214.29
361.25	214.52
361.63	215.07
362.01	215.52
362.39	215.71
362.77	216.10
363.15	215.88
363.53	215.83
363.91	216.02
364.29	215.93
364.67	214.02
365.05	214.10
365.43	214.36
365.81	214.88
366.19	214.76
366.57	215.29
366.95	215.10
367.33	214.50
367.71	214.50
368.09	214.90
368.47	214.90
368.85	214.98
369.23	215.45
369.61	214.74
369.99	215.50
370.37	215.69
370.75	216.57
371.13	216.26
371.51	215.93
371.89	216.02
372.27	216.14
372.65	216.52
373.03	216.55
373.41	216.52
373.78	216.05
374.16	215.05
374.54	214.48
374.92	214.26
375.30	214.50
375.68	214.14
376.06	214.17
376.44	214.05
376.82	214.19
377.19	213.74
377.57	213.86
377.95	213.00
378.33	212.83
378.71	211.79
379.09	211.93
379.47	212.45
379.84	212.00
380.22	211.79
380.60	211.36
380.98	211.40
381.36	211.19
381.73	210.98
382.11	211.38
382.49	211.52
382.87	211.45
383.25	211.50
383.62	213.88
384.00	213.38
384.38	213.43
384.76	213.83
385.13	214.83
385.51	214.93
385.89	214.67
386.27	214.76
386.64	214.88
387.02	214.86
387.40	214.64
387.78	215.10
388.15	215.64
388.53	215.50
388.91	215.36
389.29	215.26
389.66	215.60
390.04	215.48
390.42	216.14
390.79	216.55
391.17	216.29
391.55	214.05
391.92	214.38
392.30	214.55
392.68	214.21
393.05	214.00
393.43	214.26
393.81	214.57
394.18	214.31
394.56	214.48
394.94	215.02
395.31	214.71
395.69	215.21
396.06	215.14
396.44	215.33
396.82	215.19
397.19	216.40
397.57	216.17
397.95	216.31
398.32	215.62
398.70	215.79
399.07	216.69
399.45	216.93
399.82	216.90
400.20	216.88
400.58	216.79
400.95	216.00
401.33	216.36
401.70	218.02
402.08	217.98
402.45	218.02
402.83	218.48
403.20	218.71
403.58	218.69
403.95	219.21
404.33	220.00
404.71	220.55
405.08	221.83
405.46	222.31
405.83	223.05
406.21	223.31
406.58	223.69
406.96	223.83
407.33	224.43
407.70	225.33
408.08	227.48
408.45	228.48
408.83	229.88
409.20	230.33
409.58	229.64
409.95	231.19
410.33	232.10
410.70	232.43
411.08	234.14
411.45	235.29
411.82	236.33
412.20	237.86
412.57	240.33
412.95	240.05
413.32	241.98
413.69	243.33
414.07	245.43
414.44	247.57
414.82	249.79
415.19	252.45
415.56	254.90
415.94	256.21
416.31	259.29
416.68	262.14
417.06	266.02
417.43	270.12
417.81	273.71
418.18	278.24
418.55	283.00
418.93	287.52
419.30	292.57
419.67	297.83
420.04	303.00
420.42	308.19
420.79	316.26
421.16	323.00
421.54	331.33
421.91	338.33
422.28	345.71
422.66	353.48
423.03	362.38
423.40	370.17
423.77	378.74
424.15	387.19
424.52	395.88
424.89	405.86
425.26	414.98
425.64	424.36
426.01	433.90
426.38	443.71
426.75	454.43
427.13	465.57
427.50	476.79
427.87	488.57
428.24	500.69
428.61	510.95
428.99	523.93
429.36	535.98
429.73	549.43
430.10	563.12
430.47	577.17
430.85	590.24
431.22	605.10
431.59	622.55
431.96	637.98
432.33	655.36
432.70	671.62
433.08	690.79
433.45	709.00
433.82	727.40
434.19	748.05
434.56	768.60
434.93	786.95
435.30	805.69
435.68	827.05
436.05	847.40
436.42	867.62
436.79	886.64
437.16	907.95
437.53	930.31
437.90	951.98
438.27	973.81
438.64	996.17
439.01	1016.88
439.38	1034.00
439.75	1051.83
440.13	1071.69
440.50	1090.88
440.87	1107.07
441.24	1122.76
441.61	1141.19
441.98	1154.88
442.35	1169.98
442.72	1186.45
443.09	1202.88
443.46	1212.00
443.83	1218.50
444.20	1224.67
444.57	1232.19
444.94	1236.40
445.31	1239.90
445.68	1245.98
446.05	1247.43
446.42	1245.60
446.79	1244.67
447.16	1242.69
447.53	1242.36
447.90	1235.76
448.27	1228.69
448.64	1218.26
449.01	1211.79
449.37	1198.38
449.74	1185.33
450.11	1171.00
450.48	1153.33
450.85	1134.88
451.22	1120.14
451.59	1106.31
451.96	1092.57
452.33	1074.52
452.70	1057.36
453.07	1037.05
453.43	1014.45
453.80	995.33
454.17	976.83
454.54	958.12
454.91	938.86
455.28	918.93
455.65	900.71
456.02	885.67
456.38	870.33
456.75	851.67
457.12	835.38
457.49	820.00
457.86	803.40
458.23	790.95
458.59	776.79
458.96	762.12
459.33	749.24
459.70	737.00
460.07	726.79
460.43	715.02
460.80	704.83
461.17	695.62
461.54	685.24
461.91	675.05
462.27	665.02
462.64	656.38
463.01	647.76
463.38	639.81
463.74	627.62
464.11	619.62
464.48	612.64
464.85	605.26
465.21	599.83
465.58	593.86
465.95	586.60
466.32	580.60
466.68	575.14
467.05	569.07
467.42	562.81
467.78	556.31
468.15	550.86
468.52	546.33
468.88	539.74
469.25	534.43
469.62	530.95
469.98	526.62
470.35	522.95
470.72	518.45
471.08	513.38
471.45	510.81
471.82	507.67
472.18	503.62
472.55	500.69
472.92	496.57
473.28	493.45
473.65	489.90
474.02	487.10
474.38	484.81
474.75	482.48
475.11	479.60
475.48	477.74
475.85	475.45
476.21	473.79
476.58	472.43
476.94	471.02
477.31	469.17
477.67	467.76
478.04	466.12
478.41	465.90
478.77	467.17
479.14	465.81
479.50	465.45
479.87	465.26
480.23	464.83
480.60	464.60
480.96	464.24
481.33	465.02
481.69	464.98
482.06	465.05
482.42	465.55
482.79	466.52
483.15	467.33
483.52	468.48
483.88	468.90
484.25	470.10
484.61	471.45
484.98	472.21
485.34	474.62
485.71	477.00
486.07	478.14
486.44	478.07
486.80	479.95
487.17	481.74
487.53	484.38
487.90	487.38
488.26	490.88
488.62	494.43
488.99	497.05
489.35	500.71
489.72	503.36
490.08	507.00
490.44	510.93
490.81	515.12
491.17	518.67
491.54	523.14
491.90	527.98
492.26	532.67
492.63	538.17
492.99	542.52
493.36	547.64
493.72	553.50
494.08	559.10
494.45	565.24
494.81	572.12
495.17	577.95
495.54	584.86
495.90	590.90
496.26	597.43
496.63	604.81
496.99	611.90
497.35	619.62
497.72	627.62
498.08	635.21
498.44	643.17
498.80	652.52
499.17	661.10
499.53	669.48
499.89	678.45
500.26	687.40
500.62	696.95
500.98	705.98
501.34	715.02
501.71	725.31
502.07	734.31
502.43	742.29
502.79	752.40
503.16	761.76
503.52	771.33
503.88	780.76
504.24	790.69
504.60	800.43
504.97	810.86
505.33	820.62
505.69	831.95
506.05	841.79
506.41	851.14
506.78	861.14
507.14	871.48
507.50	881.31
507.86	891.88
508.22	901.76
508.59	911.50
508.95	922.31
509.31	932.86
509.67	943.52
510.03	954.40
510.39	964.05
510.75	974.21
511.12	984.12
511.48	994.24
511.84	1004.19
512.20	1015.05
512.56	1025.67
512.92	1036.50
513.28	1045.90
513.64	1055.71
514.00	1065.07
514.37	1074.45
514.73	1083.52
515.09	1093.43
515.45	1101.88
515.81	1110.83
516.17	1120.10
516.53	1128.43
516.89	1136.12
517.25	1144.48
517.61	1153.00
517.97	1161.45
518.33	1169.00
518.69	1177.95
519.05	1186.05
519.41	1193.71
519.77	1202.33
520.13	1209.45
520.49	1215.71
520.85	1221.95
521.21	1230.10
521.57	1238.26
521.93	1244.88
522.29	1251.52
522.65	1257.64
523.01	1264.60
523.37	1271.17
523.73	1278.02
524.09	1284.00
524.45	1289.71
524.81	1295.64
525.17	1301.81
525.53	1306.95
525.89	1312.57
526.25	1317.52
526.61	1322.95
526.97	1327.48
527.33	1331.48
527.68	1337.76
528.04	1342.29
528.40	1347.40
528.76	1351.26
529.12	1355.29
529.48	1361.45
529.84	1365.62
530.20	1369.74
530.56	1373.60
530.91	1377.43
531.27	1379.98
531.63	1383.36
531.99	1387.02
532.35	1390.24
532.71	1392.95
533.07	1397.60
533.42	1403.24
533.78	1406.86
534.14	1410.38
534.50	1413.19
534.86	1416.48
535.21	1417.64
535.57	1421.21
535.93	1423.50
536.29	1427.07
536.65	1429.43
537.00	1430.60
537.36	1432.69
537.72	1434.50
538.08	1437.60
538.44	1438.95
538.79	1441.52
539.15	1443.02
539.51	1445.45
539.87	1446.88
540.22	1448.95
540.58	1450.29
540.94	1449.83
541.29	1450.93
541.65	1450.55
542.01	1452.79
542.37	1452.64
542.72	1452.71
543.08	1452.12
543.44	1452.93
543.79	1450.62
544.15	1450.88
544.51	1451.33
544.87	1451.60
545.22	1451.74
545.58	1450.71
545.94	1451.26
546.29	1451.95
546.65	1451.57
547.01	1449.81
547.36	1448.83
547.72	1447.95
548.07	1446.40
548.43	1445.48
548.79	1443.98
549.14	1443.76
549.50	1442.36
549.86	1440.74
550.21	1439.76
550.57	1439.45
550.92	1437.83
551.28	1437.71
551.64	1436.33
551.99	1434.21
552.35	1433.26
552.70	1431.86
553.06	1430.57
553.41	1428.69
553.77	1428.52
554.13	1427.07
554.48	1427.10
554.84	1426.71
555.19	1425.21
555.55	1425.48
555.90	1423.86
556.26	1422.36
556.61	1420.21
556.97	1417.93
557.32	1417.02
557.68	1415.36
558.03	1413.64
558.39	1412.10
558.74	1410.71
559.10	1408.69
559.45	1407.95
559.81	1406.05
560.16	1404.12
560.52	1402.10
560.87	1400.50
561.23	1396.10
561.58	1397.43
561.94	1394.71
562.29	1393.10
562.64	1391.12
563.00	1387.71
563.35	1386.50
563.71	1385.10
564.06	1384.45
564.42	1383.21
564.77	1381.90
565.12	1381.62
565.48	1381.48
565.83	1380.50
566.19	1379.76
566.54	1378.67
566.89	1376.38
567.25	1375.71
567.60	1375.48
567.96	1375.95
568.31	1375.83
568.66	1375.43
569.02	1371.81
569.37	1370.62
569.72	1368.76
570.08	1367.64
570.43	1365.48
570.78	1364.00
571.14	1362.88
571.49	1359.81
571.84	1357.83
572.20	1355.21
572.55	1352.60
572.90	1348.38
573.26	1345.57
573.61	1342.31
573.96	1340.50
574.31	1337.95
574.67	1334.71
575.02	1331.38
575.37	1327.07
575.72	1322.81
576.08	1319.81
576.43	1316.67
576.78	1312.62
577.13	1308.95
577.49	1304.95
577.84	1302.21
578.19	1297.55
578.54	1293.98
578.90	1291.60
579.25	1288.07
579.60	1284.07
579.95	1279.38
580.30	1275.45
580.66	1272.00
581.01	1268.12
581.36	1263.38
581.71	1259.05
582.06	1256.00
582.42	1251.90
582.77	1246.76
583.12	1243.64
583.47	1238.79
583.82	1234.24
584.17	1231.24
584.53	1228.12
584.88	1224.36
585.23	1220.83
585.58	1216.36
585.93	1211.38
586.28	1207.02
586.63	1203.17
586.98	1200.02
587.34	1196.88
587.69	1193.07
588.04	1188.33
588.39	1184.00
588.74	1179.36
589.09	1175.93
589.44	1170.52
589.79	1166.05
590.14	1162.40
590.49	1156.50
590.84	1151.74
591.19	1147.36
591.54	1142.38
591.89	1136.71
592.25	1133.64
592.60	1128.00
592.95	1124.55
593.30	1120.43
593.65	1115.67
594.00	1110.14
594.35	1111.02
594.70	1105.88
595.05	1102.17
595.40	1098.05
595.75	1093.86
596.10	1090.14
596.45	1085.10
596.80	1080.64
597.15	1076.17
597.50	1071.31
597.85	1068.43
598.19	1064.57
598.54	1060.45
598.89	1056.48
599.24	1052.88
599.59	1047.17
599.94	1043.50
600.29	1039.24
600.64	1034.60
600.99	1030.69
601.34	1027.24
601.69	1017.31
602.04	1013.17
602.39	1008.19
602.74	1003.62
603.08	998.81
603.43	994.86
603.78	990.88
604.13	985.98
604.48	981.60
604.83	978.14
605.18	972.81
605.53	967.98
605.87	963.55
606.22	958.64
606.57	954.24
606.92	949.79
607.27	945.43
607.62	940.79
607.96	936.71
608.31	931.88
608.66	927.48
609.01	922.86
609.36	918.79
609.70	914.81
610.05	910.40
610.40	906.50
610.75	901.64
611.10	897.17
611.44	893.24
611.79	888.48
612.14	883.69
612.49	879.19
612.83	874.86
613.18	870.00
613.53	865.86
613.88	861.05
614.22	856.50
614.57	851.98
614.92	846.88
615.27	842.07
615.61	837.31
615.96	832.19
616.31	827.45
616.65	823.43
617.00	818.57
617.35	814.31
617.70	809.45
618.04	805.19
618.39	800.86
618.74	796.93
619.08	792.79
619.43	787.90
619.78	783.43
620.12	779.69
620.47	775.98
620.82	771.40
621.16	767.62
621.51	765.17
621.85	760.67
622.20	756.74
622.55	752.95
622.89	749.81
623.24	746.67
623.59	742.74
623.93	738.36
624.28	734.83
624.62	733.62
624.97	732.14
625.32	727.86
625.66	724.05
626.01	719.74
626.35	716.86
626.70	713.57
627.04	711.00
627.39	707.45
627.73	704.88
628.08	702.29
628.43	698.57
628.77	693.45
629.12	690.31
629.46	687.98
629.81	684.38
630.15	680.29
630.50	676.48
630.84	673.55
631.19	670.14
631.53	666.60
631.88	659.81
632.22	654.14
632.57	651.48
632.91	647.45
633.26	644.45
633.60	640.40
633.95	637.21
634.29	632.88
634.64	629.52
634.98	625.12
635.32	621.98
635.67	619.29
636.01	616.10
636.36	612.60
636.70	609.24
637.05	606.33
637.39	603.76
637.73	601.12
638.08	598.24
638.42	595.02
638.77	592.55
639.11	590.43
639.45	587.64
639.80	584.07
640.14	581.81
640.49	578.62
640.83	575.33
641.17	572.19
641.52	569.45
641.86	566.52
642.20	564.40
642.55	560.02
642.89	556.52
643.23	554.17
643.58	552.07
643.92	548.45
644.26	545.21
644.61	542.40
644.95	539.33
645.29	535.83
645.64	533.26
645.98	529.90
646.32	527.33
646.66	524.17
647.01	521.05
647.35	518.31
647.69	515.83
648.04	513.88
648.38	511.71
648.72	509.57
649.06	506.45
649.41	503.26
649.75	500.98
650.09	499.02
650.43	496.21
650.78	493.05
651.12	490.81
651.46	488.45
651.80	485.71
652.14	483.24
652.49	481.45
652.83	478.60
653.17	476.21
653.51	473.33
653.85	471.14
654.20	469.24
654.54	466.71
654.88	464.02
655.22	462.33
655.56	459.24
655.90	456.29
656.25	454.19
656.59	452.02
656.93	450.07
657.27	448.05
657.61	445.69
657.95	444.05
658.29	441.55
658.64	439.45
658.98	437.02
659.32	434.74
659.66	432.48
660.00	430.57
660.34	428.43
660.68	426.31
661.02	424.76
661.36	422.62
661.70	420.60
662.05	418.76
662.39	416.69
662.73	416.29
663.07	415.81
663.41	414.31
663.75	412.14
664.09	410.81
664.43	408.21
664.77	406.48
665.11	404.10
665.45	402.57
665.79	401.24
666.13	399.60
666.47	397.81
666.81	395.93
667.15	393.90
667.49	392.74
667.83	391.90
668.17	389.98
668.51	388.43
668.85	387.26
669.19	386.33
669.53	383.60
669.87	380.86
670.21	378.55
670.55	376.98
670.89	376.17
671.23	374.26
671.57	373.12
671.91	371.86
672.25	370.79
672.58	369.90
672.92	367.57
673.26	366.21
673.60	365.21
673.94	363.86
674.28	362.88
674.62	361.36
674.96	359.60
675.30	358.55
675.64	356.95
675.97	355.52
676.31	353.93
676.65	353.02
676.99	352.48
677.33	350.74
677.67	349.40
678.01	347.43
678.34	346.52
678.68	345.55
679.02	343.76
679.36	342.38
679.70	340.62
680.04	339.90
680.37	338.55
680.71	337.00
681.05	335.95
681.39	334.71
681.73	333.36
682.06	332.21
682.40	330.86
682.74	330.33
683.08	330.02
683.42	328.64
683.75	327.90
684.09	326.19
684.43	325.50
684.77	324.14
685.10	323.24
685.44	322.02
685.78	320.48
686.12	319.83
686.45	318.88
686.79	317.69
687.13	316.74
687.46	315.71
687.80	315.17
688.14	313.98
688.48	313.26
688.81	312.62
689.15	311.90
689.49	310.79
689.82	309.74
690.16	307.88
690.50	306.83
690.83	305.45
691.17	304.07
691.51	302.98
691.84	302.57
692.18	301.57
692.52	300.55
692.85	300.00
693.19	299.62
693.52	298.36
693.86	297.60
694.20	296.88
694.53	296.19
694.87	294.95
695.21	293.93
695.54	293.12
695.88	291.88
696.21	290.33
696.55	289.67
696.88	288.76
697.22	287.88
697.56	287.43
697.89	286.60
698.23	286.79
698.56	286.02
698.90	285.48
699.23	284.71
699.57	284.07
699.90	283.07
700.24	281.71
700.58	281.50
700.91	280.88
701.25	281.67
701.58	281.62
701.92	281.29
702.25	280.93
702.59	280.02
702.92	279.31
703.26	279.17
703.59	278.60
703.93	279.55
704.26	279.26
704.60	278.71
704.93	278.05
705.26	276.76
705.60	276.74
705.93	275.52
706.27	275.40
706.60	275.26
706.94	275.48
707.27	274.93
707.61	274.60
707.94	274.02
708.27	271.90
708.61	270.40
708.94	269.71
709.28	269.07
709.61	268.29
709.94	267.95
710.28	267.24
710.61	266.52
710.95	264.33
711.28	264.98
711.61	264.12
711.95	264.05
712.28	263.45
712.61	262.67
712.95	263.14
713.28	263.40
713.61	262.62
713.95	261.40
714.28	261.07
714.61	260.10
714.95	259.62
715.28	258.79
715.61	258.38
715.95	258.21
716.28	257.81
716.61	257.69
716.95	256.95
717.28	256.60
717.61	256.07
717.94	255.43
718.28	253.31
718.61	252.57
718.94	251.81
719.27	251.81
719.61	251.12
719.94	250.24
720.27	249.05
720.60	248.21
720.94	247.90
721.27	247.29
721.60	247.19
721.93	246.67
722.27	247.21
722.60	247.21
722.93	246.38
723.26	246.14
723.59	245.74
723.93	245.69
724.26	245.24
724.59	244.90
724.92	244.88
725.25	245.36
725.59	245.45
725.92	245.38
726.25	244.81
726.58	244.69
726.91	244.36
727.24	244.02
727.57	243.69
727.91	242.90
728.24	243.00
728.57	242.33
728.90	242.48
729.23	241.52
729.56	242.19
729.89	242.05
730.22	241.69
730.55	241.29
730.89	241.02
731.22	240.83
731.55	240.60
731.88	240.43
732.21	239.52
732.54	239.19
732.87	238.86
733.20	238.71
733.53	238.45
733.86	238.14
734.19	237.50
734.52	237.83
734.85	239.19
735.18	238.55
735.51	239.07
735.84	238.79
736.17	239.07
736.50	237.86
736.83	239.93
737.16	239.76
737.49	239.71
737.82	239.21
738.15	239.36
738.48	239.10
738.81	238.62
739.14	238.48
739.47	238.00
739.80	237.52
740.13	237.45
740.46	236.93
740.79	236.62
741.12	236.81
741.45	236.29
741.78	235.00
742.11	235.24
742.44	234.64
742.77	234.67
743.10	234.29
743.43	233.83
743.75	231.60
744.08	233.95
744.41	233.60
744.74	233.48
745.07	232.67
745.40	232.88
745.73	233.62
746.06	233.60
746.39	233.64
746.71	233.33
747.04	232.79
747.37	232.57
747.70	232.67
748.03	232.31
748.36	232.50
748.68	232.26
749.01	231.52
749.34	231.19
749.67	231.00
750.00	231.00
750.33	232.55
750.65	232.52
750.98	229.81
751.31	229.57
751.64	229.48
751.97	230.62
752.29	230.29
752.62	229.17
752.95	228.79
753.28	228.60
753.60	228.57
753.93	229.24
754.26	229.43
754.59	228.67
754.91	228.36
755.24	228.12
755.57	228.02
755.90	228.19
756.22	228.10
756.55	227.50
756.88	227.07
757.20	225.29
757.53	224.74
757.86	224.60
758.19	224.64
758.51	224.67
758.84	223.31
759.17	223.05
759.49	223.17
759.82	224.12
760.15	223.95
760.47	224.05
760.80	223.26
761.13	223.31
761.45	223.21
761.78	223.40
762.11	223.17
762.43	222.98
762.76	222.90
763.08	223.07
763.41	223.52
763.74	223.40
764.06	223.76
764.39	223.86
764.71	223.67
765.04	223.26
765.37	222.98
765.69	223.21
766.02	223.38
766.34	223.05
766.67	222.26
767.00	222.71
767.32	223.55
767.65	224.88
767.97	224.62
768.30	224.79
768.62	224.48
768.95	224.31
769.27	224.36
769.60	224.55
769.92	224.14
770.25	223.67
770.57	223.33
770.90	222.88
771.22	222.29
771.55	222.33
771.87	222.81
772.20	222.55
772.52	224.14
772.85	226.33
773.17	226.55
773.50	226.57
773.82	226.12
774.15	225.19
774.47	223.71
774.80	223.62
775.12	223.52
775.45	223.57
775.77	223.45
776.09	223.40
776.42	223.24
776.74	223.81
777.07	223.69
777.39	223.62
777.72	223.48
778.04	223.81
778.36	223.55
778.69	223.38
779.01	223.52
779.33	221.74
779.66	219.21
779.98	218.88
780.31	218.76
780.63	219.67
780.95	220.07
781.28	220.14
781.60	220.14
781.92	220.17
782.25	220.00
782.57	220.17
782.89	219.64
783.22	219.50
783.54	218.90
783.86	219.10
784.19	219.07
784.51	219.52
784.83	219.31
785.16	219.29
785.48	219.24
785.80	219.26
786.12	219.36
786.45	219.43
786.77	219.57
787.09	219.36
787.42	218.52
787.74	218.33
788.06	218.31
788.38	218.12
788.71	217.62
789.03	217.79
789.35	217.81
789.67	217.62
789.99	217.64
790.32	217.45
790.64	217.36
790.96	218.98
791.28	218.36
791.61	218.29
791.93	218.26
792.25	217.90
792.57	219.26
792.89	218.74
793.21	218.83
793.54	218.76
793.86	218.55
794.18	218.64
794.50	218.38
794.82	218.29
795.14	218.33
795.47	218.93
795.79	218.95
796.11	218.40
796.43	218.67
796.75	218.55
797.07	218.67
797.39	218.67
797.71	217.05
798.04	217.21
798.36	217.24
798.68	217.36
799.00	217.64
799.32	216.45
799.64	216.86
799.96	216.76
800.28	216.93
800.60	216.95
800.92	217.14
801.24	216.90
801.56	217.00
801.89	216.95
802.21	217.10
802.53	216.52
802.85	217.31
803.17	218.21
803.49	217.90
803.81	217.71
804.13	217.50
804.45	217.50
804.77	217.62
805.09	217.62
805.41	217.24
805.73	217.10
806.05	216.95
806.37	216.74
806.69	216.43
807.01	216.55
807.33	216.50
807.65	215.76
807.97	216.71
808.28	216.60
808.60	216.64
808.92	216.05
809.24	217.33
809.56	216.79
809.88	215.98
810.20	215.98
810.52	216.60
810.84	216.24
811.16	215.79
811.48	215.81
811.80	216.62
812.12	216.57
812.43	216.55
812.75	216.62
813.07	216.60
813.39	217.05
813.71	216.50
814.03	216.24
814.35	216.26
814.67	215.60
814.98	215.38
815.30	215.36
815.62	215.38
815.94	214.17
816.26	214.24
816.58	213.81
816.89	214.14
817.21	213.40
817.53	213.83
817.85	214.14
818.17	214.10
818.48	213.26
818.80	213.81
819.12	213.52
819.44	212.90
819.76	212.55
820.07	212.33
820.39	212.33
820.71	212.48
821.03	212.40
821.34	212.26
821.66	212.79
821.98	213.17
822.30	212.76
822.61	214.26
822.93	214.12
823.25	214.17
823.57	213.71
823.88	214.19
824.20	214.10
824.52	214.38
824.83	214.14
825.15	214.02
825.47	213.83
825.79	214.10
826.10	214.24
826.42	214.29
826.74	214.62
827.05	214.38
827.37	214.74
827.69	214.64
828.00	214.62
828.32	214.48
828.64	214.00
828.95	215.29
829.27	214.52
829.58	214.36
829.90	214.93
830.22	215.36
830.53	214.88
830.85	214.40
831.17	214.00
831.48	213.88
831.80	213.81
832.11	213.60
832.43	213.57
832.75	213.57
833.06	214.79
833.38	214.12
833.69	214.14
834.01	214.24
834.32	214.21
834.64	214.26
834.96	214.14
835.27	214.17
835.59	213.81
835.90	213.38
836.22	213.62
836.53	212.95
836.85	212.62
837.16	214.76
837.48	214.93
837.79	215.55
838.11	215.57
838.42	215.62
838.74	216.14
839.05	215.81
839.37	215.81
839.68	214.52
840.00	214.50
840.31	214.83
840.63	214.64
840.94	214.64
841.26	214.12
841.57	214.10
841.88	214.29
842.20	213.71
842.51	213.43
842.83	213.38
843.14	215.26
843.46	215.43
843.77	214.21
844.08	214.21
844.40	213.76
844.71	213.76
845.03	213.69
845.34	213.40
845.65	213.38
845.97	213.24
846.28	213.55
846.60	213.69
846.91	213.40
847.22	213.29
847.54	213.76
847.85	214.00
848.16	213.76
848.48	213.31
848.79	214.17
849.10	214.31
849.42	214.38
849.73	212.64
850.04	212.62
850.36	211.79
850.67	212.21
850.98	212.19
851.30	212.36
851.61	212.26
851.92	212.29
852.23	213.12
852.55	213.38
852.86	213.31
853.17	213.40
853.49	214.07
853.80	214.40
854.11	214.52
854.42	214.88
854.74	214.76
855.05	214.71
855.36	213.74
855.67	214.17
855.99	214.50
856.30	216.79
856.61	216.69
856.92	216.76
857.23	216.86
857.55	216.57
857.86	216.71
858.17	217.07
858.48	216.69
858.79	216.21
859.11	216.26
859.42	216.05
859.73	215.86
860.04	215.64
860.35	214.98
860.66	214.33
860.98	214.31
861.29	214.55
861.60	214.50
861.91	214.76
862.22	214.21
862.53	213.55
862.84	211.14
863.16	211.50
863.47	211.31
863.78	210.74
864.09	210.74
864.40	210.86
864.71	210.67
865.02	210.95
865.33	210.83
865.64	210.64
865.95	210.62
866.27	212.00
866.58	211.62
866.89	212.07
867.20	212.07
867.51	211.57
867.82	211.52
868.13	212.29
868.44	211.88
868.75	212.29
869.06	212.45
869.37	212.69
869.68	212.07
869.99	212.40
870.30	212.83
870.61	213.33
870.92	212.86
871.23	212.86
871.54	213.21
871.85	213.55
872.16	213.74
872.47	213.67
872.78	212.57
873.09	212.95
873.40	212.81
873.71	213.00
874.02	213.10
874.33	212.76
874.64	212.12
874.95	212.71
875.26	212.26
875.56	212.14
875.87	212.07
876.18	211.98
876.49	213.98
876.80	213.69
877.11	213.26
877.42	213.50
877.73	213.50
878.04	212.90
878.35	213.10
878.66	212.93
878.96	212.98
879.27	212.67
879.58	212.45
879.89	212.29
880.20	212.74
880.51	212.83
880.82	213.17
881.12	213.45
881.43	213.02
881.74	212.86
882.05	212.88
882.36	213.05
882.67	213.55
882.97	211.29
883.28	211.21
883.59	211.02
883.90	211.10
884.21	211.45
884.51	211.33
884.82	210.90
885.13	211.14
885.44	211.31
885.74	211.17
886.05	211.19
886.36	211.36
886.67	210.71
886.98	211.79
887.28	211.90
887.59	211.76
887.90	211.88
888.20	211.83
888.51	212.24
888.82	211.93
889.13	212.02
889.43	213.79
889.74	213.60
890.05	213.64
890.35	213.40
890.66	213.12
890.97	213.10
891.28	212.64
891.58	212.40
891.89	212.38
892.20	212.38
892.50	212.21
892.81	211.83
893.12	211.95
893.42	210.81
893.73	210.86
894.04	211.00
894.34	211.10
894.65	211.36
894.95	211.02
895.26	211.19
895.57	212.02
895.87	210.12
896.18	210.38
896.48	210.69
896.79	210.69
897.10	210.86
897.40	211.07
897.71	211.55
898.01	211.55
898.32	211.71
898.63	211.64
898.93	211.71
899.24	211.86
899.54	211.76
899.85	212.00
900.15	211.88
900.46	211.86
900.76	212.00
901.07	211.86
901.38	211.86
901.68	212.00
901.99	211.10
902.29	211.24
902.60	211.10
902.90	210.83
903.21	210.81
903.51	210.57
903.82	211.12
904.12	211.12
904.43	211.40
904.73	211.52
905.03	211.76
905.34	213.88
905.64	214.05
905.95	214.24
906.25	213.88
906.56	213.76
906.86	213.69
907.17	213.57
907.47	213.40
907.77	213.36
908.08	213.05
908.38	213.19
908.69	213.17
908.99	213.55
909.30	213.62
909.60	213.52
909.90	213.74
910.21	213.10
910.51	212.83
910.81	212.81
911.12	212.76
911.42	212.90
911.73	210.57
912.03	210.50
912.33	210.60
912.64	210.74
912.94	210.74
913.24	210.50
913.55	210.36
913.85	210.50
914.15	210.86
914.46	211.10
914.76	210.88
915.06	210.76
915.37	210.60
915.67	210.55
915.97	210.86
916.27	210.50
916.58	210.55
916.88	210.74
917.18	210.60
917.49	211.79
917.79	211.57
918.09	211.95
918.39	212.57
918.70	212.33
919.00	212.07
919.30	213.19
919.60	213.05
919.91	212.76
920.21	212.98
920.51	212.69
920.81	212.52
921.12	212.74
921.42	212.93
921.72	212.95
922.02	213.00
922.32	213.19
922.63	213.33
922.93	214.29
923.23	214.12
923.53	213.81
923.83	212.52
924.13	212.83
924.44	212.90
924.74	213.26
925.04	213.71
925.34	213.93
925.64	212.95
925.94	213.10
926.24	214.10
926.55	213.81
926.85	214.00
927.15	214.10
927.45	214.02
927.75	213.79
928.05	213.64
928.35	213.50
928.65	213.74
928.95	213.98
929.26	213.21
929.56	213.52
929.86	213.93
930.16	213.90
930.46	213.64
930.76	213.43
931.06	212.33
931.36	211.90
931.66	212.10
931.96	212.17
932.26	212.19
932.56	211.57
932.86	211.74
933.16	211.50
933.46	211.48
933.76	211.02
934.06	211.64
934.36	212.40
934.66	212.48
934.96	212.24
935.26	212.31
935.56	212.38
935.86	212.02
936.16	212.02
936.46	211.67
936.76	211.52
937.06	211.26
937.36	211.38
937.66	211.50
937.96	211.55
938.26	211.38
938.56	211.19
938.86	211.24
939.16	211.74
939.46	212.24
939.76	212.55
940.06	212.81
940.35	212.38
940.65	211.36
940.95	211.55
941.25	211.00
941.55	210.50
941.85	210.67
942.15	211.29
942.45	211.64
942.75	211.81
943.04	212.14
943.34	212.64
943.64	212.43
943.94	212.12
944.24	212.36
944.54	212.40
944.84	212.50
945.13	212.40
945.43	211.98
945.73	211.64
946.03	211.12
946.33	210.98
946.62	210.83
946.92	210.74
947.22	210.95
947.52	211.21
947.82	211.67
948.11	211.31
948.41	210.71
948.71	210.02
949.01	210.02
949.31	209.64
949.60	209.48
949.90	209.76
950.20	209.83
950.50	209.60
950.79	209.45
951.09	209.71
951.39	209.57
951.69	209.31
951.98	209.86
952.28	210.14
952.58	209.98
952.87	210.14
953.17	210.57
953.47	210.21
953.76	210.10
954.06	209.62
954.36	209.31
954.66	209.29
954.95	209.81
955.25	210.07
955.55	210.64
955.84	210.52
956.14	210.71
956.44	210.93
956.73	210.60
957.03	210.79
957.32	210.79
957.62	210.64
957.92	211.07
958.21	210.74
958.51	213.05
958.81	213.26
959.10	213.29
959.40	213.86
959.69	213.98
959.99	214.26
960.29	214.38
960.58	214.55
960.88	215.38
961.17	215.21
961.47	215.24
961.76	214.88
962.06	215.12
962.36	215.07
962.65	215.07
962.95	215.33
963.24	215.21
963.54	215.33
963.83	215.57
964.13	215.45
964.42	214.90
964.72	213.33
965.01	213.43
965.31	213.40
965.60	212.90
965.90	214.10
966.19	213.64
966.49	213.76
966.78	213.76
967.08	213.50
967.37	213.52
967.67	213.21
967.96	213.40
968.26	213.40
968.55	213.69
968.85	213.64
969.14	213.50
969.43	213.33
969.73	213.07
970.02	212.95
970.32	212.93
970.61	213.12
970.91	212.38
971.20	212.10
971.49	211.83
971.79	212.00
972.08	210.52
972.38	210.76
972.67	210.86
972.96	211.38
973.26	211.00
973.55	211.64
973.85	211.62
974.14	211.62
974.43	211.71
974.73	211.21
975.02	211.10
975.31	211.07
975.61	211.21
975.90	211.17
976.19	210.93
976.49	210.95
976.78	211.05
977.07	210.81
977.37	210.76
977.66	210.98
977.95	210.71
978.24	210.74
978.54	210.98
978.83	210.69
979.12	210.07
979.42	210.00
979.71	209.69
980.00	209.62
980.29	209.52
980.59	209.00
980.88	209.50
981.17	209.45
981.46	209.45
981.76	209.14
982.05	209.74
982.34	210.00
982.63	210.14
982.93	210.02
983.22	210.83
983.51	211.14
983.80	211.50
984.09	211.90
984.39	211.93
984.68	211.81
984.97	211.98
985.26	212.29
985.55	212.45
985.85	211.83
986.14	212.14
986.43	212.29
986.72	212.19
987.01	211.71
987.30	211.55
987.59	211.38
987.89	211.55
988.18	210.88
988.47	210.71
988.76	210.55
989.05	210.31
989.34	210.00
989.63	210.38
989.92	210.02
990.22	209.62
990.51	209.74
990.80	209.71
991.09	209.64
991.38	209.86
991.67	209.71
991.96	209.62
992.25	209.69
992.54	209.38
992.83	209.60
993.12	209.55
993.41	209.90
993.70	210.81
993.99	211.36
994.28	211.64
994.58	211.88
994.87	211.81
995.16	211.83
995.45	211.50
995.74	210.98
996.03	211.07
996.32	211.33
996.61	211.79
996.90	211.71
997.19	211.74
997.48	211.55
997.77	211.29
998.06	211.55
998.34	211.52
998.63	211.60
998.92	211.88
999.21	211.90
999.50	212.12
999.79	211.33
1000.08	211.14
1000.37	211.24
1000.66	211.05
1000.95	211.36
1001.24	211.50
1001.53	211.64
1001.82	211.52
1002.11	211.12
1002.40	211.45
1002.68	211.69
1002.97	212.81
1003.26	212.60
1003.55	212.48
1003.84	212.69
1004.13	213.29
1004.42	213.12
1004.71	213.19
1004.99	212.83
1005.28	213.43
1005.57	213.19
1005.86	213.19
1006.15	213.12
1006.44	213.10
1006.72	213.43
1007.01	213.21
1007.30	213.21
1007.59	213.12
1007.88	212.93
1008.17	213.21
1008.45	212.48
1008.74	211.81
1009.03	211.02
1009.32	211.19
1009.60	211.02
1009.89	210.90
1010.18	209.79
1010.47	209.52
1010.76	209.38
1011.04	209.43
1011.33	211.00
1011.62	211.24
1011.91	211.14
1012.19	211.00
1012.48	210.81
1012.77	210.76
1013.05	211.29
1013.34	211.29
1013.63	211.26
1013.92	211.67
1014.20	211.40
1014.49	211.69
1014.78	211.88
1015.06	211.19
1015.35	211.00
1015.64	211.19
1015.92	211.60
1016.21	212.10
1016.50	212.26
1016.78	212.52
1017.07	212.69
1017.36	210.90
1017.64	210.60
1017.93	210.74
1018.22	210.74
1018.50	210.69
1018.79	210.43
1019.08	210.00
1019.36	210.14
1019.65	210.10
1019.93	210.36
1020.22	210.88
1020.51	212.05
1020.79	211.64
1021.08	209.50
1021.36	208.00
1021.65	207.50
1021.94	213.50
1022.22	211.00
1022.51	209.50
1022.79	216.00
1023.08	215.00
1023.36	237.50
1023.65	203.50
>>>>>End Processed Spectral Data<<<<<
