SpectraSuite Data File
++++++++++++++++++++++++++++++++++++
Date: Tue Apr 02 18:43:47 EDT 2013
User: group
Dark Spectrum Present: No
Reference Spectrum Present: No
Number of Sampled Component Spectra: 1
Spectrometers: USB2E7196
Integration Time (usec): 580000 (USB2E7196)
Spectra Averaged: 2 (USB2E7196)
Boxcar Smoothing: 10 (USB2E7196)
Correct for Electrical Dark: No (USB2E7196)
Strobe/Lamp Enabled: No (USB2E7196)
Correct for Detector Non-linearity: No (USB2E7196)
Correct for Stray Light: No (USB2E7196)
Number of Pixels in Processed Spectrum: 2048
>>>>>Begin Processed Spectral Data<<<<<
339.09	0.00
339.48	193.00
339.86	190.50
340.24	196.50
340.63	198.50
341.01	229.00
341.39	202.00
341.78	203.00
342.16	211.50
342.54	205.00
342.93	198.05
343.31	207.71
343.69	208.33
344.07	209.10
344.46	209.95
344.84	210.62
345.22	209.76
345.60	210.19
345.99	210.60
346.37	210.55
346.75	210.69
347.13	210.79
347.52	210.98
347.90	211.57
348.28	211.71
348.66	212.24
349.05	211.88
349.43	212.10
349.81	212.24
350.19	212.26
350.57	212.52
350.96	212.57
351.34	212.95
351.72	213.19
352.10	213.36
352.48	213.31
352.87	213.19
353.25	212.83
353.63	212.69
354.01	212.76
354.39	212.95
354.77	213.00
355.15	213.57
355.54	213.29
355.92	212.76
356.30	212.74
356.68	214.02
357.06	214.21
357.44	214.07
357.82	213.86
358.20	214.90
358.58	214.88
358.97	215.02
359.35	215.45
359.73	215.71
360.11	215.81
360.49	215.76
360.87	215.88
361.25	216.36
361.63	217.26
362.01	217.26
362.39	217.10
362.77	217.38
363.15	217.12
363.53	217.21
363.91	217.33
364.29	217.02
364.67	215.00
365.05	214.88
365.43	214.98
365.81	215.07
366.19	215.02
366.57	215.55
366.95	215.33
367.33	214.98
367.71	214.90
368.09	215.31
368.47	215.36
368.85	215.38
369.23	215.86
369.61	214.88
369.99	215.52
370.37	215.93
370.75	216.81
371.13	216.60
371.51	216.21
371.89	216.31
372.27	216.81
372.65	216.98
373.03	217.12
373.41	216.98
373.78	217.07
374.16	216.26
374.54	215.76
374.92	215.57
375.30	215.40
375.68	215.05
376.06	214.88
376.44	214.81
376.82	214.86
377.19	215.00
377.57	215.02
377.95	214.00
378.33	213.57
378.71	212.19
379.09	212.38
379.47	212.55
379.84	212.45
380.22	212.00
380.60	211.76
380.98	211.40
381.36	211.36
381.73	210.88
382.11	211.21
382.49	211.10
382.87	210.98
383.25	211.12
383.62	213.45
384.00	213.21
384.38	213.29
384.76	213.48
385.13	213.93
385.51	213.98
385.89	214.07
386.27	214.14
386.64	214.67
387.02	214.60
387.40	214.55
387.78	214.55
388.15	214.81
388.53	214.64
388.91	214.83
389.29	214.79
389.66	215.45
390.04	215.19
390.42	215.69
390.79	215.95
391.17	216.14
391.55	214.21
391.92	214.19
392.30	214.40
392.68	214.05
393.05	213.83
393.43	214.05
393.81	214.29
394.18	214.19
394.56	214.17
394.94	214.48
395.31	214.36
395.69	215.19
396.06	215.36
396.44	215.62
396.82	215.48
397.19	216.69
397.57	216.33
397.95	216.69
398.32	216.12
398.70	216.26
399.07	216.62
399.45	216.45
399.82	216.45
400.20	216.26
400.58	216.40
400.95	215.74
401.33	216.17
401.70	217.48
402.08	217.67
402.45	217.90
402.83	218.43
403.20	218.79
403.58	218.64
403.95	219.02
404.33	219.45
404.71	220.07
405.08	221.33
405.46	221.67
405.83	221.81
406.21	222.21
406.58	222.45
406.96	222.48
407.33	222.98
407.70	223.76
408.08	225.71
408.45	226.57
408.83	227.45
409.20	227.88
409.58	227.67
409.95	228.62
410.33	229.57
410.70	229.90
411.08	231.43
411.45	232.36
411.82	233.17
412.20	234.64
412.57	236.69
412.95	236.00
413.32	237.98
413.69	239.29
414.07	240.86
414.44	242.88
414.82	245.14
415.19	247.67
415.56	249.95
415.94	251.29
416.31	254.00
416.68	256.83
417.06	260.02
417.43	263.62
417.81	267.33
418.18	270.98
418.55	274.88
418.93	278.38
419.30	282.50
419.67	287.00
420.04	291.38
420.42	295.62
420.79	302.69
421.16	307.98
421.54	315.19
421.91	321.62
422.28	327.76
422.66	334.26
423.03	342.21
423.40	348.90
423.77	356.07
424.15	362.98
424.52	370.71
424.89	379.14
425.26	386.43
425.64	393.86
426.01	402.14
426.38	410.74
426.75	420.21
427.13	429.52
427.50	438.55
427.87	448.67
428.24	458.38
428.61	467.26
428.99	478.76
429.36	488.74
429.73	499.81
430.10	511.48
430.47	522.93
430.85	532.93
431.22	544.93
431.59	560.05
431.96	573.38
432.33	587.60
432.70	601.02
433.08	617.74
433.45	632.64
433.82	647.50
434.19	664.45
434.56	681.19
434.93	696.71
435.30	713.12
435.68	731.02
436.05	748.40
436.42	765.07
436.79	780.50
437.16	797.43
437.53	815.62
437.90	833.43
438.27	851.31
438.64	869.36
439.01	886.74
439.38	900.31
439.75	915.21
440.13	931.24
440.50	947.48
440.87	959.52
441.24	972.86
441.61	987.81
441.98	998.43
442.35	1010.69
442.72	1023.81
443.09	1037.10
443.46	1044.26
443.83	1049.74
444.20	1054.52
444.57	1060.86
444.94	1064.36
445.31	1067.64
445.68	1072.67
446.05	1074.05
446.42	1073.29
446.79	1072.05
447.16	1070.21
447.53	1068.26
447.90	1062.57
448.27	1055.90
448.64	1047.52
449.01	1041.38
449.37	1030.14
449.74	1019.43
450.11	1008.10
450.48	993.36
450.85	977.60
451.22	965.02
451.59	952.93
451.96	941.48
452.33	925.88
452.70	911.62
453.07	894.50
453.43	875.60
453.80	859.43
454.17	843.60
454.54	828.02
454.91	811.71
455.28	796.29
455.65	781.12
456.02	769.12
456.38	756.14
456.75	741.14
457.12	727.81
457.49	714.88
457.86	700.48
458.23	690.21
458.59	678.67
458.96	666.26
459.33	655.67
459.70	645.10
460.07	636.71
460.43	626.90
460.80	618.43
461.17	610.79
461.54	602.10
461.91	593.98
462.27	586.43
462.64	579.57
463.01	572.02
463.38	565.90
463.74	555.67
464.11	549.19
464.48	543.48
464.85	537.17
465.21	532.83
465.58	527.69
465.95	521.64
466.32	516.74
466.68	511.83
467.05	506.95
467.42	501.69
467.78	496.14
468.15	491.74
468.52	488.29
468.88	482.81
469.25	478.17
469.62	474.95
469.98	470.88
470.35	467.00
470.72	463.21
471.08	458.33
471.45	455.71
471.82	453.31
472.18	449.64
472.55	447.50
472.92	444.12
473.28	441.67
473.65	438.33
474.02	435.67
474.38	434.10
474.75	432.17
475.11	430.00
475.48	428.50
475.85	426.69
476.21	424.62
476.58	423.36
476.94	422.50
477.31	420.95
477.67	419.76
478.04	418.79
478.41	418.24
478.77	419.52
479.14	418.10
479.50	417.67
479.87	417.29
480.23	416.76
480.60	416.14
480.96	415.50
481.33	416.71
481.69	416.69
482.06	416.50
482.42	416.76
482.79	417.36
483.15	417.57
483.52	418.69
483.88	418.48
484.25	418.83
484.61	419.55
484.98	420.19
485.34	421.76
485.71	423.26
486.07	424.45
486.44	423.67
486.80	425.50
487.17	426.43
487.53	428.79
487.90	431.26
488.26	434.60
488.62	437.69
488.99	439.36
489.35	442.10
489.72	444.57
490.08	447.05
490.44	449.36
490.81	452.95
491.17	455.43
491.54	459.52
491.90	462.95
492.26	466.52
492.63	470.67
492.99	473.98
493.36	478.02
493.72	482.79
494.08	487.88
494.45	492.86
494.81	498.05
495.17	502.48
495.54	507.74
495.90	511.29
496.26	515.86
496.63	521.07
496.99	526.12
497.35	531.86
497.72	537.79
498.08	543.88
498.44	549.52
498.80	556.38
499.17	562.21
499.53	568.86
499.89	575.71
500.26	582.29
500.62	588.81
500.98	596.14
501.34	602.95
501.71	610.33
502.07	616.36
502.43	623.36
502.79	630.19
503.16	636.60
503.52	644.55
503.88	652.02
504.24	659.38
504.60	667.19
504.97	675.05
505.33	682.76
505.69	691.17
506.05	699.12
506.41	707.26
506.78	715.02
507.14	722.52
507.50	730.00
507.86	737.62
508.22	746.12
508.59	752.86
508.95	760.40
509.31	769.00
509.67	777.55
510.03	785.10
510.39	792.88
510.75	800.79
511.12	808.17
511.48	815.57
511.84	822.79
512.20	830.10
512.56	837.21
512.92	845.21
513.28	852.36
513.64	859.81
514.00	866.52
514.37	873.90
514.73	881.86
515.09	889.71
515.45	896.19
515.81	902.64
516.17	910.10
516.53	916.45
516.89	921.38
517.25	928.00
517.61	935.55
517.97	941.95
518.33	947.95
518.69	954.52
519.05	960.86
519.41	967.55
519.77	975.57
520.13	981.52
520.49	986.43
520.85	992.29
521.21	999.12
521.57	1004.86
521.93	1009.90
522.29	1014.93
522.65	1018.86
523.01	1025.17
523.37	1030.05
523.73	1035.17
524.09	1040.69
524.45	1045.95
524.81	1050.33
525.17	1055.14
525.53	1059.62
525.89	1064.40
526.25	1069.64
526.61	1074.10
526.97	1078.67
527.33	1081.93
527.68	1088.55
528.04	1093.10
528.40	1097.31
528.76	1100.93
529.12	1105.45
529.48	1110.81
529.84	1115.43
530.20	1120.57
530.56	1124.93
530.91	1130.29
531.27	1134.26
531.63	1138.43
531.99	1143.07
532.35	1147.40
532.71	1150.24
533.07	1155.38
533.42	1161.57
533.78	1165.76
534.14	1170.10
534.50	1173.67
534.86	1178.31
535.21	1180.55
535.57	1185.40
535.93	1188.62
536.29	1192.57
536.65	1196.69
537.00	1199.57
537.36	1203.24
537.72	1207.07
538.08	1210.21
538.44	1212.33
538.79	1216.24
539.15	1218.98
539.51	1221.93
539.87	1226.14
540.22	1230.07
540.58	1233.24
540.94	1235.17
541.29	1238.02
541.65	1240.33
542.01	1244.76
542.37	1246.43
542.72	1248.38
543.08	1250.07
543.44	1253.38
543.79	1255.31
544.15	1257.95
544.51	1262.05
544.87	1264.76
545.22	1267.31
545.58	1270.36
545.94	1273.17
546.29	1275.67
546.65	1278.57
547.01	1281.02
547.36	1283.00
547.72	1284.79
548.07	1287.05
548.43	1289.40
548.79	1291.52
549.14	1294.55
549.50	1296.52
549.86	1299.57
550.21	1302.62
550.57	1305.29
550.92	1308.43
551.28	1311.79
551.64	1314.19
551.99	1316.26
552.35	1318.98
552.70	1321.36
553.06	1324.52
553.41	1328.29
553.77	1332.45
554.13	1336.90
554.48	1341.17
554.84	1345.36
555.19	1349.57
555.55	1354.79
555.90	1357.76
556.26	1361.45
556.61	1365.50
556.97	1368.36
557.32	1371.60
557.68	1375.90
558.03	1379.55
558.39	1382.86
558.74	1386.45
559.10	1390.26
559.45	1394.62
559.81	1398.45
560.16	1402.21
560.52	1406.12
560.87	1411.02
561.23	1414.12
561.58	1419.36
561.94	1423.05
562.29	1426.74
562.64	1431.52
563.00	1435.36
563.35	1439.93
563.71	1444.90
564.06	1449.74
564.42	1455.69
564.77	1461.98
565.12	1467.45
565.48	1475.71
565.83	1482.19
566.19	1487.60
566.54	1493.43
566.89	1498.19
567.25	1505.29
567.60	1513.29
567.96	1521.88
568.31	1528.29
568.66	1535.17
569.02	1539.29
569.37	1544.71
569.72	1550.52
570.08	1556.29
570.43	1561.05
570.78	1567.40
571.14	1573.29
571.49	1578.93
571.84	1584.21
572.20	1588.95
572.55	1594.29
572.90	1596.81
573.26	1600.48
573.61	1604.79
573.96	1609.57
574.31	1613.74
574.67	1617.10
575.02	1618.74
575.37	1620.29
575.72	1622.71
576.08	1626.40
576.43	1630.00
576.78	1633.57
577.13	1637.29
577.49	1641.02
577.84	1645.60
578.19	1648.48
578.54	1652.00
578.90	1655.21
579.25	1658.29
579.60	1660.76
579.95	1662.69
580.30	1666.29
580.66	1670.64
581.01	1674.21
581.36	1677.19
581.71	1681.00
582.06	1685.36
582.42	1690.36
582.77	1692.48
583.12	1695.52
583.47	1698.21
583.82	1701.71
584.17	1705.05
584.53	1708.83
584.88	1711.10
585.23	1713.88
585.58	1716.69
585.93	1718.64
586.28	1721.67
586.63	1725.14
586.98	1729.17
587.34	1733.55
587.69	1736.07
588.04	1737.55
588.39	1740.40
588.74	1741.86
589.09	1744.76
589.44	1744.40
589.79	1746.26
590.14	1749.10
590.49	1750.74
590.84	1752.00
591.19	1754.24
591.54	1755.62
591.89	1755.48
592.25	1759.62
592.60	1759.60
592.95	1761.36
593.30	1763.64
593.65	1764.40
594.00	1764.40
594.35	1770.83
594.70	1769.86
595.05	1771.00
595.40	1772.64
595.75	1773.31
596.10	1774.79
596.45	1775.67
596.80	1777.88
597.15	1778.86
597.50	1779.31
597.85	1781.71
598.19	1783.00
598.54	1782.36
598.89	1783.07
599.24	1784.45
599.59	1782.07
599.94	1782.62
600.29	1783.40
600.64	1783.12
600.99	1783.45
601.34	1784.29
601.69	1778.24
602.04	1779.24
602.39	1778.43
602.74	1777.81
603.08	1777.21
603.43	1777.26
603.78	1775.83
604.13	1775.14
604.48	1774.40
604.83	1774.10
605.18	1773.79
605.53	1773.24
605.87	1772.74
606.22	1772.02
606.57	1770.62
606.92	1769.98
607.27	1769.90
607.62	1769.31
607.96	1768.98
608.31	1768.10
608.66	1766.88
609.01	1765.55
609.36	1763.60
609.70	1762.05
610.05	1760.14
610.40	1758.40
610.75	1756.81
611.10	1755.17
611.44	1752.07
611.79	1749.33
612.14	1747.55
612.49	1742.88
612.83	1739.81
613.18	1736.21
613.53	1732.48
613.88	1729.33
614.22	1726.02
614.57	1721.98
614.92	1717.48
615.27	1713.14
615.61	1709.45
615.96	1705.81
616.31	1702.21
616.65	1700.31
617.00	1698.21
617.35	1695.17
617.70	1691.88
618.04	1687.55
618.39	1683.57
618.74	1681.14
619.08	1677.21
619.43	1672.69
619.78	1669.98
620.12	1667.05
620.47	1663.83
620.82	1659.98
621.16	1655.81
621.51	1652.83
621.85	1648.64
622.20	1644.38
622.55	1640.88
622.89	1636.86
623.24	1633.45
623.59	1629.57
623.93	1624.88
624.28	1620.02
624.62	1617.62
624.97	1614.83
625.32	1609.86
625.66	1606.52
626.01	1601.21
626.35	1598.14
626.70	1594.43
627.04	1591.29
627.39	1586.74
627.73	1584.79
628.08	1581.24
628.43	1578.02
628.77	1574.05
629.12	1571.40
629.46	1568.57
629.81	1564.36
630.15	1560.33
630.50	1555.40
630.84	1550.40
631.19	1545.14
631.53	1540.45
631.88	1533.36
632.22	1526.19
632.57	1523.52
632.91	1517.67
633.26	1513.90
633.60	1508.00
633.95	1502.60
634.29	1497.33
634.64	1492.67
634.98	1485.67
635.32	1482.50
635.67	1478.64
636.01	1473.60
636.36	1467.31
636.70	1462.79
637.05	1457.55
637.39	1452.43
637.73	1447.79
638.08	1443.67
638.42	1438.79
638.77	1434.57
639.11	1430.45
639.45	1426.95
639.80	1421.71
640.14	1417.86
640.49	1412.57
640.83	1407.67
641.17	1403.55
641.52	1397.45
641.86	1391.45
642.20	1388.29
642.55	1381.29
642.89	1374.93
643.23	1369.17
643.58	1364.98
643.92	1358.07
644.26	1352.52
644.61	1346.90
644.95	1340.95
645.29	1334.81
645.64	1330.76
645.98	1324.93
646.32	1319.52
646.66	1312.79
647.01	1306.00
647.35	1299.74
647.69	1293.48
648.04	1288.86
648.38	1283.00
648.72	1277.40
649.06	1272.24
649.41	1265.12
649.75	1259.60
650.09	1253.83
650.43	1247.90
650.78	1241.24
651.12	1235.38
651.46	1228.81
651.80	1222.60
652.14	1216.21
652.49	1209.95
652.83	1202.43
653.17	1195.31
653.51	1188.02
653.85	1182.67
654.20	1176.24
654.54	1169.31
654.88	1162.88
655.22	1156.05
655.56	1148.74
655.90	1141.95
656.25	1134.81
656.59	1128.45
656.93	1121.88
657.27	1115.83
657.61	1108.57
657.95	1102.24
658.29	1095.48
658.64	1089.90
658.98	1083.50
659.32	1077.05
659.66	1071.29
660.00	1064.95
660.34	1059.00
660.68	1053.12
661.02	1046.14
661.36	1039.83
661.70	1034.07
662.05	1027.60
662.39	1020.86
662.73	1015.79
663.07	1010.86
663.41	1005.14
663.75	998.31
664.09	992.71
664.43	986.05
664.77	980.12
665.11	973.67
665.45	968.21
665.79	962.10
666.13	956.19
666.47	950.98
666.81	944.40
667.15	938.55
667.49	933.07
667.83	928.24
668.17	923.19
668.51	917.98
668.85	912.64
669.19	908.60
669.53	902.33
669.87	895.55
670.21	889.24
670.55	883.74
670.89	879.29
671.23	873.48
671.57	867.74
671.91	862.79
672.25	857.38
672.58	852.60
672.92	847.07
673.26	841.76
673.60	835.93
673.94	831.10
674.28	826.31
674.62	820.81
674.96	814.67
675.30	809.21
675.64	803.64
675.97	798.55
676.31	792.55
676.65	787.90
676.99	783.52
677.33	777.95
677.67	773.10
678.01	767.76
678.34	762.83
678.68	758.83
679.02	753.60
679.36	749.12
679.70	743.69
680.04	738.67
680.37	733.67
680.71	728.69
681.05	723.81
681.39	718.55
681.73	714.48
682.06	709.79
682.40	705.07
682.74	701.31
683.08	697.02
683.42	692.14
683.75	687.74
684.09	682.64
684.43	678.26
684.77	672.98
685.10	668.02
685.44	663.86
685.78	659.14
686.12	654.71
686.45	649.45
686.79	644.69
687.13	640.93
687.46	636.29
687.80	632.26
688.14	628.10
688.48	624.21
688.81	619.29
689.15	615.40
689.49	610.98
689.82	606.40
690.16	601.50
690.50	597.02
690.83	593.10
691.17	588.52
691.51	584.55
691.84	580.45
692.18	576.17
692.52	571.64
692.85	567.43
693.19	564.57
693.52	561.00
693.86	556.67
694.20	552.43
694.53	548.83
694.87	544.81
695.21	540.95
695.54	536.98
695.88	532.40
696.21	527.88
696.55	524.29
696.88	520.31
697.22	516.57
697.56	513.98
697.89	509.74
698.23	506.81
698.56	503.24
698.90	500.17
699.23	496.64
699.57	493.50
699.90	489.76
700.24	485.67
700.58	482.60
700.91	480.45
701.25	478.83
701.58	476.43
701.92	473.86
702.25	470.48
702.59	467.07
702.92	464.76
703.26	462.52
703.59	459.45
703.93	458.67
704.26	456.14
704.60	452.88
704.93	450.21
705.26	447.40
705.60	445.10
705.93	441.74
706.27	439.79
706.60	437.50
706.94	435.98
707.27	433.07
707.61	430.43
707.94	427.36
708.27	422.74
708.61	419.45
708.94	416.81
709.28	414.45
709.61	412.00
709.94	409.60
710.28	406.50
710.61	404.10
710.95	399.98
711.28	399.07
711.61	397.07
711.95	395.19
712.28	392.67
712.61	389.90
712.95	388.69
713.28	387.17
713.61	384.50
713.95	381.79
714.28	379.88
714.61	377.67
714.95	375.38
715.28	373.26
715.61	371.19
715.95	369.17
716.28	367.00
716.61	365.52
716.95	363.29
717.28	361.69
717.61	360.02
717.94	357.79
718.28	354.05
718.61	352.00
718.94	349.83
719.27	348.00
719.61	346.29
719.94	344.24
720.27	341.48
720.60	339.62
720.94	337.76
721.27	336.29
721.60	335.02
721.93	333.62
722.27	333.10
722.60	331.98
722.93	330.17
723.26	329.19
723.59	327.38
723.93	326.50
724.26	325.60
724.59	324.19
724.92	323.24
725.25	323.00
725.59	321.83
725.92	320.90
726.25	319.86
726.58	318.98
726.91	317.67
727.24	316.93
727.57	315.93
727.91	314.71
728.24	313.67
728.57	312.17
728.90	311.26
729.23	309.67
729.56	309.48
729.89	308.48
730.22	306.83
730.55	305.79
730.89	304.38
731.22	303.12
731.55	301.88
731.88	300.98
732.21	299.52
732.54	298.29
732.87	297.40
733.20	296.40
733.53	295.19
733.86	294.26
734.19	292.79
734.52	291.93
734.85	292.48
735.18	291.21
735.51	291.12
735.84	290.36
736.17	290.10
736.50	287.95
736.83	289.71
737.16	289.33
737.49	288.55
737.82	287.74
738.15	287.12
738.48	286.29
738.81	284.95
739.14	283.83
739.47	283.02
739.80	282.19
740.13	281.43
740.46	280.52
740.79	279.26
741.12	278.76
741.45	278.14
741.78	276.24
742.11	276.07
742.44	274.76
742.77	274.17
743.10	272.79
743.43	271.95
743.75	268.79
744.08	270.57
744.41	269.74
744.74	269.19
745.07	268.21
745.40	267.76
745.73	268.24
746.06	267.88
746.39	267.24
746.71	266.45
747.04	265.52
747.37	264.95
747.70	265.07
748.03	264.33
748.36	263.88
748.68	262.98
749.01	261.71
749.34	261.33
749.67	260.86
750.00	260.81
750.33	261.98
750.65	261.81
750.98	258.64
751.31	258.14
751.64	257.40
751.97	258.05
752.29	257.55
752.62	256.17
752.95	255.48
753.28	254.74
753.60	254.02
753.93	254.33
754.26	254.19
754.59	253.10
754.91	252.45
755.24	251.60
755.57	251.40
755.90	250.74
756.22	250.12
756.55	249.07
756.88	248.14
757.20	246.14
757.53	244.90
757.86	244.21
758.19	244.07
758.51	243.71
758.84	242.00
759.17	241.62
759.49	241.33
759.82	241.90
760.15	241.79
760.47	241.33
760.80	240.19
761.13	239.98
761.45	239.48
761.78	239.12
762.11	239.00
762.43	238.43
762.76	238.14
763.08	238.12
763.41	238.02
763.74	237.67
764.06	237.38
764.39	237.21
764.71	237.17
765.04	236.60
765.37	236.07
765.69	236.02
766.02	235.31
766.34	234.71
766.67	233.40
767.00	233.62
767.32	234.50
767.65	235.74
767.97	235.19
768.30	235.17
768.62	234.93
768.95	234.48
769.27	234.36
769.60	234.57
769.92	233.93
770.25	233.48
770.57	233.00
770.90	233.00
771.22	232.76
771.55	232.69
771.87	232.69
772.20	232.43
772.52	233.74
772.85	236.12
773.17	235.93
773.50	235.67
773.82	235.10
774.15	233.83
774.47	232.33
774.80	231.98
775.12	231.83
775.45	231.69
775.77	231.33
776.09	231.00
776.42	230.76
776.74	231.21
777.07	230.93
777.39	230.81
777.72	230.48
778.04	230.48
778.36	230.07
778.69	229.81
779.01	229.93
779.33	227.98
779.66	225.52
779.98	225.31
780.31	225.38
780.63	226.17
780.95	226.48
781.28	226.31
781.60	225.88
781.92	225.67
782.25	225.50
782.57	225.26
782.89	224.90
783.22	224.74
783.54	224.19
783.86	224.40
784.19	224.19
784.51	224.60
784.83	224.50
785.16	224.52
785.48	224.36
785.80	224.40
786.12	224.55
786.45	224.45
786.77	224.55
787.09	224.07
787.42	223.12
787.74	223.05
788.06	223.00
788.38	223.05
788.71	222.93
789.03	222.93
789.35	223.14
789.67	222.90
789.99	222.90
790.32	222.33
790.64	222.12
790.96	223.74
791.28	222.90
791.61	222.52
791.93	222.29
792.25	222.24
792.57	223.50
792.89	223.07
793.21	223.12
793.54	222.86
793.86	222.98
794.18	223.05
794.50	222.62
794.82	222.57
795.14	222.69
795.47	223.00
795.79	222.88
796.11	222.52
796.43	222.62
796.75	222.60
797.07	222.83
797.39	222.62
797.71	221.05
798.04	221.24
798.36	221.31
798.68	221.14
799.00	221.17
799.32	219.69
799.64	220.17
799.96	219.93
800.28	220.12
800.60	219.90
800.92	219.76
801.24	219.60
801.56	219.31
801.89	219.21
802.21	219.21
802.53	218.90
802.85	219.48
803.17	220.21
803.49	219.71
803.81	219.43
804.13	219.69
804.45	219.52
804.77	219.60
805.09	219.55
805.41	219.36
805.73	219.00
806.05	218.90
806.37	218.52
806.69	218.24
807.01	218.10
807.33	218.26
807.65	217.62
807.97	218.21
808.28	218.29
808.60	218.14
808.92	217.88
809.24	219.17
809.56	218.71
809.88	218.07
810.20	218.05
810.52	218.67
810.84	218.19
811.16	217.83
811.48	217.60
811.80	218.33
812.12	218.50
812.43	218.74
812.75	218.88
813.07	218.69
813.39	218.95
813.71	218.67
814.03	218.50
814.35	218.60
814.67	217.98
814.98	217.71
815.30	217.74
815.62	217.36
815.94	216.00
816.26	216.00
816.58	215.52
816.89	215.79
817.21	215.00
817.53	215.10
817.85	215.40
818.17	215.26
818.48	214.36
818.80	214.67
819.12	214.36
819.44	213.79
819.76	213.62
820.07	213.79
820.39	213.95
820.71	213.93
821.03	214.02
821.34	213.79
821.66	214.36
821.98	214.38
822.30	214.14
822.61	215.45
822.93	215.17
823.25	215.10
823.57	214.62
823.88	215.07
824.20	215.07
824.52	215.43
824.83	215.38
825.15	215.26
825.47	215.21
825.79	215.26
826.10	215.33
826.42	215.43
826.74	215.71
827.05	215.38
827.37	215.64
827.69	215.52
828.00	215.71
828.32	215.45
828.64	215.31
828.95	216.67
829.27	216.05
829.58	216.10
829.90	216.71
830.22	217.12
830.53	216.52
830.85	216.33
831.17	215.57
831.48	215.45
831.80	215.60
832.11	215.40
832.43	215.50
832.75	215.55
833.06	216.52
833.38	215.60
833.69	215.64
834.01	215.43
834.32	215.38
834.64	215.29
834.96	215.36
835.27	215.29
835.59	214.67
835.90	214.00
836.22	213.88
836.53	213.24
836.85	213.07
837.16	215.38
837.48	215.55
837.79	216.36
838.11	216.48
838.42	216.45
838.74	216.76
839.05	216.60
839.37	216.69
839.68	215.60
840.00	215.64
840.31	215.98
840.63	215.88
840.94	215.79
841.26	215.52
841.57	215.38
841.88	215.71
842.20	215.24
842.51	215.12
842.83	215.43
843.14	217.38
843.46	217.38
843.77	216.36
844.08	216.02
844.40	215.43
844.71	215.48
845.03	215.29
845.34	214.90
845.65	214.60
845.97	214.40
846.28	214.69
846.60	214.67
846.91	214.38
847.22	214.33
847.54	214.83
847.85	214.98
848.16	214.95
848.48	214.62
848.79	215.29
849.10	215.55
849.42	215.48
849.73	213.67
850.04	213.69
850.36	212.81
850.67	213.19
850.98	213.26
851.30	213.55
851.61	213.52
851.92	213.40
852.23	214.29
852.55	214.62
852.86	214.64
853.17	214.93
853.49	215.33
853.80	215.93
854.11	215.95
854.42	216.14
854.74	215.71
855.05	215.64
855.36	214.74
855.67	214.98
855.99	215.12
856.30	217.50
856.61	217.29
856.92	217.29
857.23	217.29
857.55	217.02
857.86	216.74
858.17	217.00
858.48	216.67
858.79	216.14
859.11	215.98
859.42	215.69
859.73	215.45
860.04	215.14
860.35	214.33
860.66	213.71
860.98	213.71
861.29	214.12
861.60	213.81
861.91	214.19
862.22	213.88
862.53	213.57
862.84	211.10
863.16	211.62
863.47	211.33
863.78	211.14
864.09	211.33
864.40	211.43
864.71	211.45
865.02	211.88
865.33	211.57
865.64	211.40
865.95	211.26
866.27	212.52
866.58	212.64
866.89	213.12
867.20	213.00
867.51	212.79
867.82	212.67
868.13	213.43
868.44	213.10
868.75	213.52
869.06	213.50
869.37	213.86
869.68	213.40
869.99	213.81
870.30	213.90
870.61	214.24
870.92	213.98
871.23	213.69
871.54	213.86
871.85	214.45
872.16	214.60
872.47	214.55
872.78	213.19
873.09	213.38
873.40	212.95
873.71	213.31
874.02	213.52
874.33	213.19
874.64	212.95
874.95	213.45
875.26	212.88
875.56	213.00
875.87	212.76
876.18	212.64
876.49	214.67
876.80	214.64
877.11	214.19
877.42	214.40
877.73	214.40
878.04	214.31
878.35	214.17
878.66	214.19
878.96	214.26
879.27	214.36
879.58	213.93
879.89	213.74
880.20	214.05
880.51	213.83
880.82	213.95
881.12	213.83
881.43	213.24
881.74	213.12
882.05	212.74
882.36	212.90
882.67	212.93
882.97	210.69
883.28	210.38
883.59	210.10
883.90	210.19
884.21	210.50
884.51	210.36
884.82	210.07
885.13	210.05
885.44	209.79
885.74	209.98
886.05	210.12
886.36	210.43
886.67	209.79
886.98	210.57
887.28	211.02
887.59	210.88
887.90	211.07
888.20	210.86
888.51	211.48
888.82	211.21
889.13	211.50
889.43	213.12
889.74	213.07
890.05	213.10
890.35	212.88
890.66	212.71
890.97	212.62
891.28	212.64
891.58	212.62
891.89	212.76
892.20	212.26
892.50	211.95
892.81	211.71
893.12	211.71
893.42	211.00
893.73	211.00
894.04	211.17
894.34	211.40
894.65	211.60
894.95	211.36
895.26	211.55
895.57	212.55
895.87	210.67
896.18	211.31
896.48	211.60
896.79	211.50
897.10	211.55
897.40	211.86
897.71	212.02
898.01	211.95
898.32	212.14
898.63	212.17
898.93	212.36
899.24	212.45
899.54	212.62
899.85	212.67
900.15	212.52
900.46	212.43
900.76	212.55
901.07	212.40
901.38	212.17
901.68	212.26
901.99	211.05
902.29	211.21
902.60	210.88
902.90	210.88
903.21	210.88
903.51	210.83
903.82	211.21
904.12	211.02
904.43	211.10
904.73	211.21
905.03	211.40
905.34	213.36
905.64	213.21
905.95	213.12
906.25	212.86
906.56	212.64
906.86	212.90
907.17	212.69
907.47	212.71
907.77	212.71
908.08	212.36
908.38	212.62
908.69	212.81
908.99	213.10
909.30	213.12
909.60	213.12
909.90	213.14
910.21	212.33
910.51	212.31
910.81	212.48
911.12	212.40
911.42	212.55
911.73	210.45
912.03	210.55
912.33	210.88
912.64	210.90
912.94	210.98
913.24	210.24
913.55	210.00
913.85	209.90
914.15	210.29
914.46	210.36
914.76	209.88
915.06	209.74
915.37	209.38
915.67	208.98
915.97	209.00
916.27	208.62
916.58	208.90
916.88	208.52
917.18	208.50
917.49	209.93
917.79	209.76
918.09	209.98
918.39	210.57
918.70	210.40
919.00	210.50
919.30	211.36
919.60	211.79
919.91	211.57
920.21	211.95
920.51	211.38
920.81	211.21
921.12	211.69
921.42	211.60
921.72	211.90
922.02	212.19
922.32	212.40
922.63	212.60
922.93	213.29
923.23	213.48
923.53	213.12
923.83	211.69
924.13	212.02
924.44	211.93
924.74	212.26
925.04	212.81
925.34	212.64
925.64	211.71
925.94	211.55
926.24	212.88
926.55	212.67
926.85	213.07
927.15	213.40
927.45	213.31
927.75	213.26
928.05	213.10
928.35	213.00
928.65	213.33
928.95	213.45
929.26	212.71
929.56	213.14
929.86	213.64
930.16	213.29
930.46	212.95
930.76	213.21
931.06	211.98
931.36	211.36
931.66	211.71
931.96	211.90
932.26	211.98
932.56	211.12
932.86	211.48
933.16	211.52
933.46	211.31
933.76	211.02
934.06	211.62
934.36	212.26
934.66	212.38
934.96	211.93
935.26	211.95
935.56	212.29
935.86	211.60
936.16	211.21
936.46	211.38
936.76	211.38
937.06	211.00
937.36	211.24
937.66	211.45
937.96	211.48
938.26	211.00
938.56	210.98
938.86	211.00
939.16	211.24
939.46	211.40
939.76	211.52
940.06	211.40
940.35	210.90
940.65	209.79
940.95	209.74
941.25	209.33
941.55	209.21
941.85	209.07
942.15	209.88
942.45	210.38
942.75	210.36
943.04	210.43
943.34	211.05
943.64	211.17
943.94	210.83
944.24	210.88
944.54	211.17
944.84	211.14
945.13	210.90
945.43	210.43
945.73	210.24
946.03	210.10
946.33	210.19
946.62	210.02
946.92	210.07
947.22	210.26
947.52	210.43
947.82	210.62
948.11	210.38
948.41	209.98
948.71	209.60
949.01	209.67
949.31	209.52
949.60	209.26
949.90	209.29
950.20	209.31
950.50	209.31
950.79	209.02
951.09	209.31
951.39	209.19
951.69	209.14
951.98	209.64
952.28	209.88
952.58	209.88
952.87	210.00
953.17	210.45
953.47	210.26
953.76	210.55
954.06	210.21
954.36	209.83
954.66	209.79
954.95	210.02
955.25	210.21
955.55	210.26
955.84	209.86
956.14	210.10
956.44	210.14
956.73	209.55
957.03	209.93
957.32	209.79
957.62	209.83
957.92	210.17
958.21	209.81
958.51	211.76
958.81	211.98
959.10	212.10
959.40	212.50
959.69	212.57
959.99	212.81
960.29	212.90
960.58	213.10
960.88	213.74
961.17	213.45
961.47	213.52
961.76	213.43
962.06	214.26
962.36	214.12
962.65	214.07
962.95	214.40
963.24	214.24
963.54	214.52
963.83	214.90
964.13	214.74
964.42	214.31
964.72	212.76
965.01	212.83
965.31	212.76
965.60	212.21
965.90	213.55
966.19	213.00
966.49	213.24
966.78	213.12
967.08	212.98
967.37	213.00
967.67	212.76
967.96	213.24
968.26	212.74
968.55	212.95
968.85	213.21
969.14	213.19
969.43	213.02
969.73	212.57
970.02	212.07
970.32	211.98
970.61	212.07
970.91	211.52
971.20	211.19
971.49	211.07
971.79	211.33
972.08	209.88
972.38	210.05
972.67	209.76
972.96	210.14
973.26	209.81
973.55	210.43
973.85	210.33
974.14	209.98
974.43	210.21
974.73	209.98
975.02	209.74
975.31	209.71
975.61	209.81
975.90	209.69
976.19	209.74
976.49	209.81
976.78	209.98
977.07	210.12
977.37	210.26
977.66	210.60
977.95	210.17
978.24	210.29
978.54	210.74
978.83	210.52
979.12	210.36
979.42	210.24
979.71	209.95
980.00	209.81
980.29	210.12
980.59	209.52
980.88	209.98
981.17	209.98
981.46	210.17
981.76	210.05
982.05	210.71
982.34	210.69
982.63	210.69
982.93	210.60
983.22	211.05
983.51	210.83
983.80	211.05
984.09	211.52
984.39	211.76
984.68	211.40
984.97	211.67
985.26	211.48
985.55	211.67
985.85	211.26
986.14	211.74
986.43	211.90
986.72	212.14
987.01	211.60
987.30	211.36
987.59	211.02
987.89	211.33
988.18	210.81
988.47	210.83
988.76	210.74
989.05	210.62
989.34	210.36
989.63	211.00
989.92	210.52
990.22	210.24
990.51	210.05
990.80	210.14
991.09	210.14
991.38	210.43
991.67	210.33
991.96	210.17
992.25	210.21
992.54	209.83
992.83	209.69
993.12	209.45
993.41	210.14
993.70	211.29
993.99	211.62
994.28	211.95
994.58	212.21
994.87	212.21
995.16	211.98
995.45	211.79
995.74	211.29
996.03	211.69
996.32	212.12
996.61	212.36
996.90	212.29
997.19	212.48
997.48	212.62
997.77	212.50
998.06	212.76
998.34	212.52
998.63	212.57
998.92	212.64
999.21	213.12
999.50	212.93
999.79	212.12
1000.08	211.95
1000.37	211.95
1000.66	211.86
1000.95	212.21
1001.24	212.33
1001.53	212.60
1001.82	212.38
1002.11	212.00
1002.40	211.74
1002.68	212.14
1002.97	213.57
1003.26	213.19
1003.55	212.76
1003.84	212.79
1004.13	213.26
1004.42	213.31
1004.71	213.21
1004.99	213.17
1005.28	213.67
1005.57	213.67
1005.86	213.52
1006.15	213.43
1006.44	212.88
1006.72	212.95
1007.01	212.67
1007.30	212.81
1007.59	212.43
1007.88	212.52
1008.17	212.55
1008.45	212.43
1008.74	211.79
1009.03	210.67
1009.32	210.83
1009.60	210.98
1009.89	210.83
1010.18	210.10
1010.47	209.93
1010.76	210.05
1011.04	210.02
1011.33	209.95
1011.62	210.05
1011.91	210.14
1012.19	210.10
1012.48	210.36
1012.77	210.55
1013.05	211.48
1013.34	211.48
1013.63	211.38
1013.92	211.45
1014.20	211.14
1014.49	211.26
1014.78	211.19
1015.06	210.48
1015.35	210.57
1015.64	210.76
1015.92	211.26
1016.21	211.60
1016.50	211.74
1016.78	211.83
1017.07	212.00
1017.36	211.52
1017.64	211.26
1017.93	211.29
1018.22	211.33
1018.50	211.45
1018.79	211.36
1019.08	210.52
1019.36	210.67
1019.65	210.67
1019.93	211.33
1020.22	211.79
1020.51	212.83
1020.79	212.74
1021.08	211.50
1021.36	211.00
1021.65	213.50
1021.94	213.00
1022.22	211.00
1022.51	207.50
1022.79	221.00
1023.08	213.00
1023.36	236.50
1023.65	205.50
>>>>>End Processed Spectral Data<<<<<
