SpectraSuite Data File
++++++++++++++++++++++++++++++++++++
Date: Tue Apr 02 18:45:05 EDT 2013
User: group
Dark Spectrum Present: No
Reference Spectrum Present: No
Number of Sampled Component Spectra: 1
Spectrometers: USB2E7196
Integration Time (usec): 580000 (USB2E7196)
Spectra Averaged: 2 (USB2E7196)
Boxcar Smoothing: 10 (USB2E7196)
Correct for Electrical Dark: No (USB2E7196)
Strobe/Lamp Enabled: No (USB2E7196)
Correct for Detector Non-linearity: No (USB2E7196)
Correct for Stray Light: No (USB2E7196)
Number of Pixels in Processed Spectrum: 2048
>>>>>Begin Processed Spectral Data<<<<<
339.09	0.00
339.48	194.00
339.86	192.50
340.24	198.50
340.63	197.50
341.01	232.00
341.39	200.50
341.78	205.00
342.16	209.50
342.54	208.50
342.93	198.12
343.31	208.19
343.69	208.98
344.07	209.76
344.46	210.17
344.84	210.76
345.22	209.69
345.60	210.29
345.99	210.62
346.37	210.67
346.75	210.79
347.13	210.79
347.52	211.24
347.90	211.93
348.28	211.79
348.66	212.29
349.05	211.95
349.43	212.43
349.81	212.50
350.19	212.50
350.57	212.43
350.96	212.43
351.34	212.36
351.72	212.38
352.10	212.26
352.48	212.45
352.87	212.55
353.25	212.62
353.63	212.60
354.01	212.57
354.39	212.69
354.77	212.64
355.15	213.62
355.54	213.38
355.92	212.98
356.30	213.02
356.68	214.26
357.06	214.29
357.44	213.93
357.82	213.86
358.20	214.76
358.58	214.79
358.97	214.79
359.35	215.14
359.73	215.55
360.11	215.71
360.49	215.71
360.87	215.83
361.25	216.05
361.63	216.71
362.01	216.76
362.39	216.81
362.77	217.21
363.15	216.57
363.53	216.81
363.91	216.83
364.29	216.79
364.67	214.69
365.05	214.45
365.43	214.69
365.81	215.29
366.19	215.50
366.57	216.21
366.95	216.31
367.33	216.02
367.71	215.83
368.09	216.21
368.47	216.14
368.85	215.90
369.23	216.29
369.61	215.43
369.99	216.07
370.37	216.26
370.75	216.95
371.13	216.74
371.51	216.17
371.89	216.40
372.27	216.64
372.65	217.17
373.03	217.33
373.41	217.14
373.78	216.69
374.16	215.60
374.54	215.10
374.92	214.95
375.30	214.90
375.68	214.57
376.06	214.60
376.44	214.67
376.82	214.76
377.19	214.36
377.57	214.43
377.95	213.71
378.33	213.55
378.71	212.29
379.09	212.67
379.47	213.10
379.84	213.00
380.22	212.86
380.60	212.36
380.98	212.38
381.36	212.17
381.73	211.93
382.11	212.40
382.49	212.40
382.87	212.07
383.25	212.02
383.62	214.31
384.00	214.17
384.38	214.29
384.76	214.64
385.13	215.60
385.51	215.60
385.89	215.52
386.27	215.55
386.64	216.00
387.02	215.76
387.40	215.64
387.78	215.55
388.15	215.74
388.53	215.95
388.91	215.69
389.29	215.67
389.66	216.05
390.04	215.74
390.42	216.19
390.79	216.43
391.17	216.38
391.55	214.50
391.92	214.29
392.30	214.29
392.68	213.83
393.05	213.67
393.43	213.57
393.81	213.55
394.18	213.26
394.56	213.14
394.94	213.55
395.31	213.14
395.69	213.88
396.06	213.95
396.44	214.14
396.82	214.19
397.19	215.26
397.57	215.21
397.95	215.31
398.32	214.52
398.70	214.88
399.07	215.36
399.45	215.07
399.82	215.10
400.20	215.07
400.58	215.17
400.95	214.45
401.33	214.95
401.70	216.52
402.08	216.74
402.45	216.83
402.83	217.33
403.20	217.57
403.58	217.36
403.95	217.69
404.33	218.12
404.71	218.38
405.08	219.48
405.46	219.62
405.83	220.31
406.21	220.62
406.58	220.88
406.96	221.31
407.33	222.14
407.70	223.02
408.08	225.00
408.45	226.07
408.83	227.17
409.20	227.71
409.58	227.19
409.95	228.36
410.33	229.36
410.70	229.45
411.08	231.17
411.45	232.10
411.82	232.93
412.20	234.24
412.57	236.71
412.95	236.48
413.32	238.24
413.69	239.55
414.07	241.38
414.44	243.12
414.82	245.07
415.19	247.31
415.56	249.36
415.94	250.79
416.31	253.31
416.68	256.07
417.06	259.12
417.43	262.67
417.81	266.00
418.18	269.52
418.55	273.17
418.93	276.79
419.30	281.26
419.67	285.81
420.04	290.29
420.42	294.19
420.79	301.33
421.16	307.29
421.54	314.36
421.91	320.69
422.28	326.79
422.66	333.45
423.03	341.10
423.40	348.36
423.77	355.21
424.15	362.45
424.52	369.90
424.89	378.50
425.26	385.98
425.64	393.62
426.01	402.12
426.38	410.62
426.75	420.17
427.13	428.88
427.50	438.21
427.87	448.21
428.24	458.50
428.61	466.86
428.99	477.90
429.36	488.40
429.73	499.36
430.10	511.14
430.47	522.64
430.85	532.98
431.22	544.76
431.59	559.71
431.96	572.19
432.33	586.60
432.70	600.24
433.08	616.40
433.45	631.76
433.82	646.57
434.19	663.67
434.56	680.12
434.93	696.14
435.30	712.12
435.68	729.31
436.05	746.00
436.42	762.74
436.79	778.17
437.16	795.26
437.53	813.07
437.90	830.40
438.27	847.57
438.64	865.93
439.01	883.81
439.38	897.90
439.75	912.86
440.13	929.50
440.50	945.29
440.87	957.86
441.24	970.98
441.61	985.26
441.98	995.93
442.35	1007.95
442.72	1021.14
443.09	1034.57
443.46	1042.60
443.83	1048.50
444.20	1053.57
444.57	1059.12
444.94	1062.07
445.31	1065.12
445.68	1071.07
446.05	1073.00
446.42	1071.07
446.79	1069.40
447.16	1066.81
447.53	1066.24
447.90	1059.45
448.27	1052.88
448.64	1044.00
449.01	1037.79
449.37	1027.12
449.74	1017.02
450.11	1005.71
450.48	990.79
450.85	974.86
451.22	961.88
451.59	949.81
451.96	937.52
452.33	922.52
452.70	908.24
453.07	892.45
453.43	872.74
453.80	856.33
454.17	841.19
454.54	825.52
454.91	809.67
455.28	793.29
455.65	779.14
456.02	767.76
456.38	755.57
456.75	739.86
457.12	726.98
457.49	713.60
457.86	699.55
458.23	689.29
458.59	677.62
458.96	665.79
459.33	654.62
459.70	644.71
460.07	636.29
460.43	627.02
460.80	617.86
461.17	610.67
461.54	602.48
461.91	594.74
462.27	586.93
462.64	580.02
463.01	572.62
463.38	565.17
463.74	554.64
464.11	548.12
464.48	542.95
464.85	536.69
465.21	532.67
465.58	527.64
465.95	521.45
466.32	516.55
466.68	511.24
467.05	506.55
467.42	501.45
467.78	496.26
468.15	491.26
468.52	487.79
468.88	482.31
469.25	477.48
469.62	473.88
469.98	469.95
470.35	466.26
470.72	462.40
471.08	458.21
471.45	455.36
471.82	452.57
472.18	448.90
472.55	446.38
472.92	442.74
473.28	440.14
473.65	437.17
474.02	434.62
474.38	432.67
474.75	430.93
475.11	428.71
475.48	426.79
475.85	424.93
476.21	422.57
476.58	420.88
476.94	419.81
477.31	418.62
477.67	416.95
478.04	415.90
478.41	415.57
478.77	416.74
479.14	415.55
479.50	414.76
479.87	414.24
480.23	413.57
480.60	413.24
480.96	412.62
481.33	413.36
481.69	413.45
482.06	413.76
482.42	414.02
482.79	414.43
483.15	414.74
483.52	415.64
483.88	416.33
484.25	417.05
484.61	418.19
484.98	418.55
485.34	420.45
485.71	422.19
486.07	422.90
486.44	422.48
486.80	423.95
487.17	425.40
487.53	427.79
487.90	430.29
488.26	433.29
488.62	435.93
488.99	437.86
489.35	440.60
489.72	443.00
490.08	445.55
490.44	448.26
490.81	451.79
491.17	454.57
491.54	457.74
491.90	461.79
492.26	465.31
492.63	469.43
492.99	472.76
493.36	476.55
493.72	481.36
494.08	486.00
494.45	491.21
494.81	496.38
495.17	500.71
495.54	505.52
495.90	509.71
496.26	515.24
496.63	520.67
496.99	526.05
497.35	531.98
497.72	537.76
498.08	543.76
498.44	549.98
498.80	556.86
499.17	563.48
499.53	569.71
499.89	576.88
500.26	583.26
500.62	590.29
500.98	597.24
501.34	604.07
501.71	611.21
502.07	618.05
502.43	624.95
502.79	632.17
503.16	639.43
503.52	646.64
503.88	653.36
504.24	660.74
504.60	668.52
504.97	675.88
505.33	683.33
505.69	692.02
506.05	699.90
506.41	707.38
506.78	714.81
507.14	722.17
507.50	729.74
507.86	738.48
508.22	745.79
508.59	753.48
508.95	761.57
509.31	770.05
509.67	777.19
510.03	784.98
510.39	792.88
510.75	800.76
511.12	808.62
511.48	816.14
511.84	823.98
512.20	831.38
512.56	839.60
512.92	847.21
513.28	853.86
513.64	860.60
514.00	867.38
514.37	874.48
514.73	881.67
515.09	889.00
515.45	895.19
515.81	902.43
516.17	909.55
516.53	915.55
516.89	920.98
517.25	928.10
517.61	934.98
517.97	940.60
518.33	946.79
518.69	953.10
519.05	960.10
519.41	965.90
519.77	972.86
520.13	978.33
520.49	984.19
520.85	989.90
521.21	996.95
521.57	1002.74
521.93	1008.48
522.29	1014.21
522.65	1018.38
523.01	1023.52
523.37	1028.74
523.73	1033.98
524.09	1039.10
524.45	1044.36
524.81	1049.10
525.17	1053.14
525.53	1058.45
525.89	1063.33
526.25	1068.31
526.61	1071.74
526.97	1075.64
527.33	1079.38
527.68	1085.05
528.04	1089.31
528.40	1094.02
528.76	1097.07
529.12	1101.24
529.48	1105.88
529.84	1109.90
530.20	1114.45
530.56	1118.95
530.91	1123.76
531.27	1127.48
531.63	1131.83
531.99	1135.90
532.35	1139.93
532.71	1144.60
533.07	1149.29
533.42	1154.71
533.78	1158.36
534.14	1164.17
534.50	1168.62
534.86	1172.67
535.21	1175.24
535.57	1179.69
535.93	1182.88
536.29	1187.62
536.65	1192.50
537.00	1194.83
537.36	1198.24
537.72	1202.33
538.08	1205.86
538.44	1208.40
538.79	1211.60
539.15	1214.14
539.51	1217.71
539.87	1221.43
540.22	1224.98
540.58	1228.29
540.94	1229.98
541.29	1233.43
541.65	1235.38
542.01	1238.88
542.37	1241.71
542.72	1244.02
543.08	1245.14
543.44	1247.21
543.79	1248.24
544.15	1250.76
544.51	1254.17
544.87	1257.26
545.22	1259.57
545.58	1262.38
545.94	1264.90
546.29	1267.52
546.65	1270.52
547.01	1273.00
547.36	1275.19
547.72	1277.00
548.07	1279.43
548.43	1281.40
548.79	1283.62
549.14	1286.02
549.50	1289.05
549.86	1291.21
550.21	1293.48
550.57	1297.60
550.92	1300.55
551.28	1304.88
551.64	1307.31
551.99	1310.76
552.35	1313.86
552.70	1317.05
553.06	1320.40
553.41	1323.31
553.77	1328.10
554.13	1332.12
554.48	1336.45
554.84	1340.74
555.19	1344.48
555.55	1349.14
555.90	1353.10
556.26	1356.45
556.61	1359.81
556.97	1362.14
557.32	1365.33
557.68	1369.43
558.03	1373.21
558.39	1377.48
558.74	1380.86
559.10	1385.19
559.45	1388.64
559.81	1392.98
560.16	1396.71
560.52	1400.38
560.87	1405.07
561.23	1407.62
561.58	1412.57
561.94	1415.60
562.29	1420.00
562.64	1425.10
563.00	1428.40
563.35	1433.57
563.71	1438.48
564.06	1443.71
564.42	1449.86
564.77	1456.29
565.12	1462.50
565.48	1469.93
565.83	1475.93
566.19	1481.12
566.54	1486.31
566.89	1492.93
567.25	1498.90
567.60	1506.07
567.96	1513.55
568.31	1520.24
568.66	1527.69
569.02	1532.76
569.37	1538.17
569.72	1544.10
570.08	1549.45
570.43	1554.86
570.78	1560.86
571.14	1566.95
571.49	1572.21
571.84	1576.67
572.20	1581.02
572.55	1586.05
572.90	1588.38
573.26	1592.36
573.61	1597.50
573.96	1601.95
574.31	1605.67
574.67	1608.60
575.02	1611.60
575.37	1614.48
575.72	1618.12
576.08	1621.74
576.43	1624.69
576.78	1629.19
577.13	1632.31
577.49	1636.17
577.84	1640.24
578.19	1643.29
578.54	1647.98
578.90	1652.79
579.25	1656.57
579.60	1659.14
579.95	1662.57
580.30	1666.67
580.66	1670.48
581.01	1673.67
581.36	1677.50
581.71	1681.12
582.06	1686.29
582.42	1690.02
582.77	1692.12
583.12	1695.07
583.47	1697.55
583.82	1701.86
584.17	1705.02
584.53	1707.93
584.88	1710.52
585.23	1713.83
585.58	1716.67
585.93	1718.26
586.28	1720.74
586.63	1724.48
586.98	1728.33
587.34	1731.60
587.69	1734.21
588.04	1737.36
588.39	1739.86
588.74	1740.14
589.09	1742.38
589.44	1742.88
589.79	1744.43
590.14	1747.17
590.49	1748.67
590.84	1750.64
591.19	1751.95
591.54	1753.43
591.89	1754.76
592.25	1758.55
592.60	1759.76
592.95	1760.43
593.30	1762.19
593.65	1762.17
594.00	1762.21
594.35	1769.12
594.70	1768.71
595.05	1769.86
595.40	1769.83
595.75	1771.00
596.10	1773.62
596.45	1774.40
596.80	1775.76
597.15	1776.38
597.50	1776.88
597.85	1778.21
598.19	1778.33
598.54	1779.00
598.89	1779.57
599.24	1780.93
599.59	1778.69
599.94	1778.21
600.29	1778.79
600.64	1778.31
600.99	1779.45
601.34	1779.17
601.69	1773.33
602.04	1773.21
602.39	1773.14
602.74	1773.69
603.08	1772.24
603.43	1771.76
603.78	1771.36
604.13	1770.52
604.48	1770.12
604.83	1770.36
605.18	1769.79
605.53	1770.19
605.87	1769.67
606.22	1769.19
606.57	1767.74
606.92	1767.10
607.27	1766.64
607.62	1766.36
607.96	1765.81
608.31	1765.24
608.66	1765.67
609.01	1764.24
609.36	1763.83
609.70	1761.93
610.05	1760.17
610.40	1759.31
610.75	1757.36
611.10	1756.07
611.44	1754.45
611.79	1751.90
612.14	1749.79
612.49	1746.69
612.83	1742.31
613.18	1739.05
613.53	1735.69
613.88	1732.10
614.22	1729.12
614.57	1725.31
614.92	1721.43
615.27	1718.00
615.61	1713.26
615.96	1708.81
616.31	1705.14
616.65	1701.86
617.00	1698.50
617.35	1695.48
617.70	1691.79
618.04	1688.93
618.39	1684.62
618.74	1681.14
619.08	1677.14
619.43	1673.67
619.78	1670.29
620.12	1668.07
620.47	1664.55
620.82	1660.81
621.16	1657.14
621.51	1654.57
621.85	1651.00
622.20	1647.10
622.55	1642.33
622.89	1638.93
623.24	1636.05
623.59	1632.43
623.93	1628.05
624.28	1623.90
624.62	1621.60
624.97	1619.14
625.32	1613.90
625.66	1610.26
626.01	1606.43
626.35	1603.64
626.70	1599.10
627.04	1595.76
627.39	1592.38
627.73	1589.93
628.08	1586.57
628.43	1582.83
628.77	1577.79
629.12	1574.21
629.46	1571.12
629.81	1567.86
630.15	1563.07
630.50	1557.83
630.84	1553.74
631.19	1549.24
631.53	1544.90
631.88	1538.29
632.22	1531.64
632.57	1528.14
632.91	1522.95
633.26	1518.48
633.60	1513.14
633.95	1507.60
634.29	1501.95
634.64	1496.88
634.98	1491.24
635.32	1487.74
635.67	1483.67
636.01	1480.00
636.36	1474.76
636.70	1470.31
637.05	1465.74
637.39	1462.21
637.73	1458.52
638.08	1454.19
638.42	1450.40
638.77	1446.67
639.11	1442.60
639.45	1438.12
639.80	1433.02
640.14	1428.83
640.49	1423.67
640.83	1418.64
641.17	1415.21
641.52	1410.74
641.86	1405.48
642.20	1401.21
642.55	1395.10
642.89	1389.86
643.23	1384.55
643.58	1380.93
643.92	1374.00
644.26	1368.48
644.61	1363.29
644.95	1357.24
645.29	1351.31
645.64	1345.74
645.98	1339.79
646.32	1334.52
646.66	1329.07
647.01	1323.33
647.35	1318.10
647.69	1312.67
648.04	1308.29
648.38	1301.69
648.72	1295.88
649.06	1289.57
649.41	1283.31
649.75	1277.07
650.09	1271.43
650.43	1264.40
650.78	1257.36
651.12	1252.14
651.46	1245.76
651.80	1239.36
652.14	1233.52
652.49	1227.69
652.83	1220.93
653.17	1213.90
653.51	1206.38
653.85	1200.95
654.20	1195.31
654.54	1187.60
654.88	1180.38
655.22	1174.05
655.56	1167.90
655.90	1161.64
656.25	1155.52
656.59	1148.60
656.93	1142.67
657.27	1136.71
657.61	1130.05
657.95	1123.93
658.29	1117.45
658.64	1111.95
658.98	1105.12
659.32	1098.29
659.66	1091.50
660.00	1085.02
660.34	1079.52
660.68	1073.52
661.02	1067.00
661.36	1060.05
661.70	1054.67
662.05	1049.10
662.39	1042.74
662.73	1036.79
663.07	1032.00
663.41	1026.02
663.75	1020.67
664.09	1014.79
664.43	1008.02
664.77	1003.19
665.11	997.07
665.45	991.57
665.79	986.33
666.13	980.55
666.47	974.71
666.81	969.57
667.15	964.26
667.49	959.00
667.83	954.05
668.17	948.10
668.51	942.60
668.85	937.48
669.19	933.21
669.53	927.00
669.87	921.17
670.21	914.67
670.55	908.90
670.89	903.86
671.23	898.26
671.57	893.31
671.91	887.74
672.25	882.24
672.58	877.19
672.92	871.07
673.26	865.74
673.60	860.60
673.94	855.17
674.28	850.02
674.62	845.21
674.96	839.83
675.30	835.38
675.64	830.52
675.97	825.48
676.31	819.05
676.65	814.14
676.99	810.40
677.33	805.05
677.67	800.95
678.01	795.02
678.34	789.83
678.68	785.17
679.02	779.76
679.36	774.88
679.70	769.43
680.04	764.45
680.37	759.48
680.71	754.74
681.05	749.95
681.39	744.67
681.73	739.26
682.06	734.33
682.40	729.69
682.74	725.26
683.08	721.40
683.42	716.60
683.75	711.86
684.09	706.07
684.43	701.74
684.77	696.48
685.10	692.05
685.44	687.48
685.78	682.45
686.12	678.07
686.45	673.52
686.79	669.05
687.13	665.29
687.46	661.21
687.80	657.26
688.14	653.00
688.48	649.21
688.81	644.90
689.15	641.14
689.49	635.86
689.82	631.43
690.16	625.33
690.50	621.36
690.83	616.86
691.17	612.26
691.51	607.76
691.84	603.81
692.18	599.60
692.52	595.90
692.85	591.98
693.19	589.10
693.52	584.83
693.86	580.12
694.20	575.40
694.53	571.10
694.87	566.52
695.21	562.26
695.54	558.69
695.88	554.26
696.21	549.50
696.55	546.07
696.88	541.86
697.22	538.67
697.56	535.31
697.89	531.74
698.23	528.50
698.56	524.71
698.90	520.88
699.23	517.07
699.57	512.88
699.90	509.05
700.24	504.14
700.58	500.93
700.91	498.50
701.25	496.76
701.58	494.29
701.92	491.57
702.25	488.62
702.59	484.81
702.92	481.45
703.26	478.71
703.59	475.43
703.93	474.10
704.26	471.10
704.60	468.07
704.93	465.02
705.26	461.86
705.60	459.36
705.93	456.12
706.27	453.83
706.60	451.64
706.94	449.62
707.27	446.79
707.61	444.05
707.94	441.12
708.27	436.88
708.61	433.52
708.94	430.52
709.28	428.14
709.61	425.26
709.94	422.83
710.28	420.19
710.61	418.07
710.95	414.05
711.28	412.76
711.61	410.17
711.95	408.62
712.28	406.19
712.61	403.71
712.95	402.50
713.28	401.14
713.61	398.76
713.95	395.74
714.28	394.07
714.61	391.67
714.95	389.52
715.28	387.02
715.61	384.83
715.95	382.81
716.28	380.02
716.61	378.74
716.95	376.76
717.28	374.60
717.61	372.07
717.94	370.00
718.28	366.71
718.61	364.71
718.94	362.21
719.27	360.31
719.61	358.43
719.94	356.14
720.27	352.71
720.60	350.45
720.94	348.98
721.27	347.19
721.60	346.07
721.93	344.29
722.27	343.24
722.60	341.90
722.93	340.19
723.26	339.07
723.59	336.86
723.93	335.64
724.26	334.69
724.59	333.57
724.92	331.98
725.25	331.19
725.59	329.86
725.92	328.55
726.25	327.43
726.58	326.55
726.91	325.12
727.24	324.12
727.57	322.74
727.91	320.98
728.24	319.90
728.57	318.55
728.90	317.55
729.23	315.90
729.56	315.55
729.89	314.36
730.22	312.79
730.55	311.33
730.89	309.93
731.22	308.55
731.55	307.36
731.88	306.69
732.21	305.40
732.54	303.83
732.87	302.86
733.20	301.90
733.53	300.83
733.86	300.07
734.19	299.00
734.52	298.57
734.85	299.12
735.18	297.86
735.51	297.31
735.84	296.67
736.17	296.12
736.50	294.05
736.83	295.62
737.16	295.02
737.49	294.50
737.82	293.74
738.15	293.02
738.48	292.19
738.81	290.93
739.14	289.81
739.47	289.02
739.80	287.83
740.13	287.00
740.46	285.79
740.79	284.48
741.12	283.57
741.45	282.52
741.78	280.55
742.11	280.33
742.44	279.21
742.77	278.38
743.10	277.40
743.43	276.40
743.75	273.40
744.08	275.17
744.41	274.36
744.74	273.33
745.07	272.29
745.40	271.95
745.73	272.40
746.06	271.74
746.39	271.38
746.71	271.05
747.04	270.00
747.37	269.05
747.70	268.76
748.03	268.29
748.36	267.76
748.68	266.88
749.01	265.52
749.34	264.76
749.67	264.19
750.00	264.12
750.33	265.60
750.65	265.26
750.98	262.21
751.31	261.71
751.64	261.43
751.97	262.00
752.29	261.14
752.62	259.40
752.95	258.79
753.28	257.90
753.60	257.19
753.93	257.14
754.26	256.62
754.59	255.57
754.91	254.81
755.24	254.31
755.57	253.95
755.90	253.43
756.22	252.55
756.55	251.67
756.88	250.57
757.20	248.29
757.53	247.10
757.86	246.71
758.19	246.33
758.51	245.48
758.84	244.12
759.17	243.45
759.49	243.31
759.82	243.55
760.15	243.38
760.47	242.79
760.80	242.00
761.13	242.52
761.45	242.29
761.78	242.21
762.11	241.67
762.43	241.12
762.76	240.71
763.08	240.67
763.41	240.43
763.74	240.17
764.06	240.05
764.39	239.93
764.71	239.40
765.04	238.95
765.37	238.86
765.69	238.43
766.02	238.12
766.34	237.93
766.67	237.12
767.00	237.00
767.32	237.90
767.65	238.76
767.97	237.88
768.30	237.55
768.62	236.95
768.95	236.50
769.27	236.24
769.60	236.36
769.92	236.07
770.25	235.48
770.57	234.74
770.90	234.40
771.22	234.00
771.55	233.74
771.87	233.62
772.20	233.21
772.52	234.67
772.85	236.98
773.17	236.64
773.50	236.33
773.82	235.86
774.15	234.43
774.47	232.93
774.80	232.48
775.12	232.40
775.45	232.36
775.77	232.21
776.09	232.07
776.42	232.07
776.74	232.10
777.07	232.14
777.39	232.14
777.72	231.79
778.04	231.83
778.36	231.38
778.69	231.12
779.01	231.21
779.33	229.24
779.66	226.64
779.98	226.21
780.31	226.10
780.63	226.83
780.95	227.36
781.28	227.24
781.60	227.12
781.92	226.81
782.25	226.24
782.57	226.19
782.89	226.02
783.22	225.60
783.54	225.02
783.86	225.02
784.19	224.88
784.51	225.36
784.83	224.79
785.16	224.79
785.48	224.69
785.80	224.55
786.12	224.52
786.45	224.36
786.77	224.43
787.09	224.19
787.42	223.31
787.74	223.05
788.06	223.12
788.38	222.93
788.71	222.74
789.03	222.90
789.35	223.17
789.67	222.95
789.99	222.88
790.32	222.69
790.64	222.79
790.96	224.26
791.28	223.43
791.61	223.45
791.93	223.52
792.25	223.26
792.57	224.57
792.89	224.33
793.21	224.36
793.54	224.24
793.86	223.93
794.18	223.86
794.50	223.52
794.82	223.38
795.14	223.83
795.47	224.17
795.79	224.29
796.11	223.64
796.43	223.62
796.75	223.55
797.07	223.62
797.39	223.40
797.71	222.02
798.04	222.10
798.36	222.31
798.68	221.98
799.00	222.12
799.32	220.60
799.64	220.83
799.96	220.64
800.28	220.86
800.60	220.81
800.92	221.07
801.24	221.17
801.56	221.26
801.89	220.90
802.21	220.95
802.53	220.62
802.85	221.07
803.17	221.86
803.49	221.29
803.81	221.05
804.13	220.74
804.45	220.50
804.77	220.52
805.09	220.48
805.41	220.40
805.73	220.12
806.05	219.90
806.37	219.50
806.69	219.26
807.01	218.90
807.33	219.07
807.65	218.19
807.97	218.81
808.28	218.57
808.60	218.21
808.92	217.76
809.24	219.12
809.56	218.79
809.88	218.02
810.20	218.36
810.52	218.83
810.84	218.40
811.16	218.24
811.48	218.07
811.80	218.62
812.12	218.55
812.43	218.88
812.75	219.19
813.07	219.10
813.39	219.40
813.71	219.19
814.03	218.81
814.35	218.83
814.67	217.88
814.98	217.69
815.30	217.83
815.62	217.38
815.94	215.88
816.26	215.79
816.58	215.17
816.89	215.24
817.21	214.69
817.53	214.74
817.85	214.74
818.17	214.90
818.48	214.05
818.80	214.50
819.12	214.17
819.44	213.57
819.76	213.38
820.07	213.36
820.39	213.33
820.71	213.50
821.03	213.57
821.34	213.52
821.66	213.81
821.98	214.19
822.30	214.31
822.61	215.62
822.93	215.36
823.25	215.43
823.57	215.10
823.88	215.62
824.20	215.86
824.52	216.07
824.83	215.64
825.15	215.33
825.47	215.26
825.79	215.40
826.10	215.48
826.42	215.45
826.74	215.81
827.05	215.74
827.37	215.90
827.69	215.67
828.00	215.79
828.32	215.50
828.64	215.24
828.95	216.21
829.27	215.48
829.58	215.71
829.90	216.24
830.22	216.33
830.53	215.55
830.85	215.40
831.17	215.02
831.48	215.10
831.80	215.43
832.11	215.31
832.43	215.12
832.75	215.26
833.06	216.45
833.38	215.60
833.69	215.48
834.01	215.36
834.32	215.40
834.64	215.12
834.96	215.33
835.27	214.95
835.59	214.43
835.90	214.02
836.22	213.93
836.53	213.17
836.85	212.86
837.16	215.31
837.48	215.36
837.79	215.88
838.11	216.14
838.42	216.00
838.74	216.26
839.05	215.90
839.37	215.71
839.68	214.50
840.00	214.55
840.31	214.98
840.63	214.90
840.94	214.90
841.26	214.88
841.57	214.71
841.88	215.07
842.20	214.69
842.51	214.67
842.83	214.62
843.14	216.81
843.46	217.12
843.77	215.83
844.08	215.62
844.40	215.31
844.71	214.93
845.03	214.64
845.34	214.33
845.65	214.55
845.97	214.67
846.28	214.81
846.60	214.95
846.91	214.45
847.22	214.26
847.54	214.57
847.85	214.52
848.16	214.48
848.48	213.93
848.79	214.88
849.10	215.00
849.42	215.10
849.73	213.12
850.04	213.10
850.36	212.33
850.67	212.76
850.98	212.64
851.30	212.86
851.61	212.81
851.92	212.90
852.23	213.48
852.55	213.62
852.86	213.57
853.17	213.57
853.49	214.24
853.80	214.88
854.11	214.93
854.42	215.38
854.74	215.21
855.05	215.33
855.36	214.24
855.67	214.40
855.99	214.29
856.30	216.83
856.61	216.60
856.92	216.74
857.23	216.83
857.55	216.74
857.86	216.60
858.17	217.17
858.48	216.69
858.79	216.24
859.11	216.38
859.42	216.26
859.73	216.36
860.04	216.19
860.35	215.55
860.66	215.00
860.98	214.90
861.29	215.24
861.60	215.29
861.91	215.88
862.22	215.17
862.53	214.93
862.84	212.38
863.16	212.88
863.47	212.38
863.78	212.10
864.09	212.02
864.40	212.36
864.71	212.24
865.02	212.52
865.33	212.05
865.64	211.64
865.95	211.64
866.27	212.62
866.58	212.38
866.89	212.50
867.20	212.52
867.51	211.83
867.82	211.69
868.13	212.38
868.44	211.62
868.75	212.36
869.06	212.52
869.37	212.98
869.68	212.38
869.99	212.71
870.30	212.86
870.61	213.38
870.92	213.12
871.23	213.00
871.54	213.10
871.85	213.67
872.16	213.98
872.47	214.00
872.78	212.81
873.09	212.90
873.40	212.90
873.71	213.00
874.02	213.17
874.33	213.10
874.64	212.69
874.95	213.33
875.26	212.76
875.56	212.79
875.87	212.57
876.18	212.64
876.49	214.74
876.80	214.45
877.11	213.71
877.42	213.71
877.73	213.62
878.04	213.52
878.35	213.79
878.66	213.71
878.96	213.60
879.27	213.67
879.58	213.71
879.89	213.36
880.20	214.14
880.51	214.26
880.82	214.17
881.12	214.07
881.43	213.50
881.74	213.12
882.05	213.17
882.36	213.19
882.67	213.29
882.97	211.19
883.28	211.07
883.59	211.12
883.90	211.48
884.21	211.71
884.51	211.38
884.82	210.81
885.13	210.83
885.44	210.88
885.74	210.69
886.05	210.26
886.36	210.64
886.67	209.83
886.98	210.79
887.28	211.00
887.59	211.02
887.90	211.05
888.20	211.31
888.51	211.43
888.82	211.21
889.13	211.48
889.43	212.98
889.74	212.88
890.05	213.10
890.35	212.79
890.66	212.50
890.97	212.45
891.28	212.57
891.58	212.45
891.89	212.43
892.20	212.36
892.50	212.45
892.81	212.31
893.12	212.40
893.42	211.71
893.73	211.67
894.04	211.50
894.34	211.76
894.65	211.79
894.95	211.57
895.26	211.67
895.57	212.62
895.87	210.79
896.18	211.10
896.48	211.21
896.79	211.19
897.10	211.60
897.40	211.69
897.71	211.79
898.01	211.76
898.32	211.90
898.63	211.90
898.93	212.14
899.24	211.93
899.54	211.76
899.85	211.48
900.15	211.31
900.46	211.38
900.76	211.60
901.07	211.29
901.38	211.40
901.68	211.57
901.99	210.40
902.29	210.93
902.60	210.98
902.90	210.60
903.21	210.52
903.51	210.29
903.82	210.74
904.12	210.81
904.43	210.86
904.73	210.95
905.03	211.24
905.34	213.02
905.64	213.31
905.95	213.19
906.25	213.29
906.56	213.45
906.86	213.57
907.17	213.38
907.47	213.74
907.77	213.52
908.08	212.95
908.38	213.12
908.69	212.98
908.99	213.19
909.30	213.57
909.60	213.62
909.90	213.71
910.21	213.26
910.51	212.86
910.81	212.83
911.12	212.69
911.42	212.67
911.73	210.74
912.03	210.83
912.33	211.52
912.64	211.48
912.94	211.21
913.24	210.93
913.55	210.81
913.85	210.69
914.15	211.26
914.46	211.69
914.76	211.50
915.06	211.36
915.37	211.10
915.67	211.05
915.97	211.12
916.27	210.69
916.58	210.69
916.88	210.64
917.18	210.60
917.49	211.95
917.79	211.79
918.09	212.05
918.39	212.40
918.70	212.21
919.00	212.31
919.30	213.38
919.60	213.29
919.91	213.05
920.21	213.17
920.51	212.67
920.81	212.71
921.12	212.93
921.42	212.90
921.72	212.95
922.02	212.83
922.32	213.24
922.63	213.60
922.93	214.88
923.23	215.02
923.53	214.74
923.83	213.69
924.13	213.98
924.44	213.95
924.74	214.24
925.04	214.45
925.34	214.33
925.64	213.43
925.94	213.64
926.24	215.14
926.55	215.10
926.85	215.21
927.15	215.12
927.45	215.33
927.75	215.29
928.05	215.43
928.35	215.33
928.65	215.43
928.95	215.55
929.26	214.50
929.56	214.76
929.86	215.26
930.16	215.02
930.46	215.02
930.76	214.95
931.06	214.00
931.36	213.64
931.66	214.05
931.96	214.26
932.26	214.12
932.56	212.86
932.86	212.76
933.16	212.76
933.46	212.67
933.76	212.24
934.06	212.69
934.36	213.14
934.66	213.21
934.96	212.83
935.26	212.88
935.56	213.19
935.86	213.00
936.16	212.88
936.46	212.79
936.76	212.38
937.06	212.38
937.36	212.79
937.66	212.93
937.96	212.64
938.26	212.33
938.56	212.31
938.86	212.67
939.16	213.29
939.46	213.29
939.76	213.33
940.06	213.29
940.35	212.86
940.65	211.90
940.95	212.10
941.25	211.71
941.55	211.26
941.85	211.29
942.15	211.67
942.45	211.88
942.75	211.67
943.04	211.81
943.34	212.10
943.64	211.76
943.94	211.29
944.24	211.52
944.54	211.69
944.84	211.64
945.13	211.40
945.43	211.12
945.73	211.48
946.03	211.26
946.33	211.05
946.62	210.90
946.92	210.86
947.22	210.90
947.52	211.12
947.82	211.55
948.11	211.24
948.41	210.57
948.71	210.00
949.01	210.17
949.31	210.24
949.60	209.83
949.90	210.33
950.20	210.24
950.50	210.48
950.79	210.07
951.09	210.43
951.39	210.21
951.69	209.74
951.98	209.93
952.28	210.19
952.58	210.26
952.87	210.33
953.17	210.71
953.47	210.57
953.76	210.43
954.06	210.07
954.36	209.81
954.66	210.19
954.95	210.93
955.25	210.88
955.55	210.71
955.84	210.76
956.14	210.81
956.44	211.00
956.73	210.33
957.03	210.60
957.32	210.60
957.62	210.57
957.92	211.10
958.21	210.69
958.51	213.12
958.81	213.38
959.10	213.69
959.40	214.19
959.69	214.19
959.99	214.52
960.29	214.50
960.58	214.60
960.88	215.17
961.17	214.86
961.47	215.05
961.76	215.17
962.06	215.17
962.36	214.71
962.65	214.86
962.95	214.95
963.24	214.67
963.54	214.69
963.83	214.95
964.13	214.81
964.42	214.26
964.72	212.40
965.01	212.21
965.31	212.10
965.60	211.40
965.90	212.60
966.19	212.31
966.49	212.64
966.78	212.57
967.08	212.50
967.37	212.43
967.67	212.17
967.96	212.40
968.26	212.76
968.55	213.07
968.85	212.79
969.14	212.83
969.43	212.95
969.73	212.83
970.02	212.62
970.32	212.33
970.61	212.38
970.91	212.05
971.20	212.07
971.49	211.88
971.79	212.26
972.08	210.69
972.38	210.88
972.67	210.55
972.96	210.81
973.26	210.40
973.55	210.81
973.85	210.81
974.14	210.64
974.43	210.33
974.73	210.05
975.02	210.05
975.31	209.95
975.61	209.93
975.90	209.79
976.19	209.79
976.49	210.36
976.78	210.67
977.07	210.45
977.37	210.64
977.66	210.69
977.95	210.29
978.24	210.55
978.54	210.90
978.83	210.83
979.12	210.67
979.42	210.52
979.71	210.33
980.00	210.31
980.29	210.26
980.59	210.14
980.88	210.64
981.17	210.79
981.46	211.00
981.76	210.90
982.05	211.52
982.34	211.31
982.63	211.14
982.93	211.14
983.22	211.83
983.51	211.76
983.80	212.00
984.09	212.33
984.39	212.38
984.68	212.02
984.97	212.33
985.26	212.17
985.55	212.55
985.85	212.02
986.14	212.43
986.43	212.83
986.72	212.64
987.01	212.24
987.30	212.07
987.59	211.81
987.89	212.02
988.18	211.24
988.47	211.26
988.76	211.17
989.05	210.88
989.34	210.50
989.63	210.95
989.92	210.55
990.22	210.36
990.51	210.24
990.80	209.98
991.09	210.05
991.38	210.40
991.67	210.05
991.96	210.02
992.25	210.00
992.54	209.64
992.83	209.83
993.12	209.71
993.41	210.29
993.70	211.33
993.99	211.67
994.28	211.95
994.58	212.29
994.87	212.00
995.16	212.29
995.45	212.02
995.74	211.19
996.03	211.69
996.32	212.10
996.61	212.71
996.90	212.67
997.19	212.38
997.48	212.21
997.77	211.88
998.06	212.10
998.34	211.90
998.63	211.98
998.92	212.07
999.21	212.31
999.50	212.12
999.79	211.26
1000.08	211.26
1000.37	211.36
1000.66	211.02
1000.95	211.74
1001.24	211.69
1001.53	211.83
1001.82	211.95
1002.11	211.48
1002.40	211.71
1002.68	211.81
1002.97	213.36
1003.26	213.29
1003.55	213.07
1003.84	213.21
1004.13	213.81
1004.42	213.60
1004.71	213.45
1004.99	213.19
1005.28	213.57
1005.57	213.43
1005.86	213.26
1006.15	213.10
1006.44	212.88
1006.72	213.26
1007.01	212.62
1007.30	212.48
1007.59	212.50
1007.88	212.52
1008.17	212.79
1008.45	212.02
1008.74	211.26
1009.03	210.24
1009.32	209.95
1009.60	209.83
1009.89	209.95
1010.18	208.88
1010.47	209.02
1010.76	208.88
1011.04	208.83
1011.33	208.93
1011.62	209.05
1011.91	209.05
1012.19	208.90
1012.48	208.88
1012.77	208.76
1013.05	209.67
1013.34	209.88
1013.63	209.60
1013.92	209.76
1014.20	209.45
1014.49	209.83
1014.78	209.98
1015.06	209.40
1015.35	209.74
1015.64	210.29
1015.92	210.38
1016.21	210.88
1016.50	210.95
1016.78	211.57
1017.07	211.83
1017.36	211.21
1017.64	211.05
1017.93	211.31
1018.22	211.14
1018.50	211.19
1018.79	211.02
1019.08	210.12
1019.36	210.24
1019.65	210.05
1019.93	210.55
1020.22	210.83
1020.51	211.55
1020.79	211.40
1021.08	205.00
1021.36	209.00
1021.65	208.00
1021.94	207.50
1022.22	214.00
1022.51	205.50
1022.79	220.00
1023.08	211.00
1023.36	232.00
1023.65	206.00
>>>>>End Processed Spectral Data<<<<<
