SpectraSuite Data File
++++++++++++++++++++++++++++++++++++
Date: Tue Apr 02 18:45:43 EDT 2013
User: group
Dark Spectrum Present: No
Reference Spectrum Present: No
Number of Sampled Component Spectra: 1
Spectrometers: USB2E7196
Integration Time (usec): 580000 (USB2E7196)
Spectra Averaged: 2 (USB2E7196)
Boxcar Smoothing: 10 (USB2E7196)
Correct for Electrical Dark: No (USB2E7196)
Strobe/Lamp Enabled: No (USB2E7196)
Correct for Detector Non-linearity: No (USB2E7196)
Correct for Stray Light: No (USB2E7196)
Number of Pixels in Processed Spectrum: 2048
>>>>>Begin Processed Spectral Data<<<<<
339.09	0.00
339.48	188.50
339.86	191.00
340.24	190.00
340.63	195.00
341.01	228.00
341.39	200.50
341.78	200.50
342.16	213.50
342.54	203.50
342.93	194.69
343.31	204.31
343.69	205.07
344.07	205.69
344.46	206.76
344.84	207.45
345.22	206.31
345.60	206.90
345.99	207.14
346.37	206.90
346.75	207.21
347.13	207.38
347.52	207.60
347.90	208.29
348.28	208.33
348.66	209.00
349.05	208.45
349.43	208.93
349.81	209.14
350.19	209.36
350.57	209.60
350.96	210.02
351.34	210.33
351.72	210.52
352.10	210.67
352.48	210.40
352.87	210.33
353.25	210.64
353.63	210.48
354.01	210.55
354.39	210.74
354.77	210.76
355.15	211.40
355.54	210.88
355.92	210.38
356.30	210.62
356.68	212.02
357.06	212.36
357.44	212.12
357.82	212.12
358.20	213.05
358.58	213.29
358.97	213.50
359.35	213.93
359.73	214.33
360.11	214.33
360.49	214.69
360.87	214.86
361.25	215.14
361.63	216.05
362.01	216.40
362.39	216.33
362.77	216.55
363.15	216.50
363.53	216.98
363.91	217.10
364.29	217.10
364.67	215.19
365.05	215.19
365.43	215.52
365.81	215.83
366.19	216.48
366.57	217.12
366.95	217.12
367.33	216.88
367.71	216.81
368.09	217.43
368.47	217.52
368.85	217.52
369.23	218.10
369.61	216.93
369.99	217.71
370.37	217.88
370.75	218.95
371.13	218.60
371.51	218.26
371.89	218.57
372.27	218.57
372.65	218.79
373.03	218.93
373.41	218.83
373.78	218.62
374.16	217.14
374.54	216.67
374.92	216.52
375.30	216.57
375.68	216.29
376.06	216.43
376.44	216.05
376.82	216.17
377.19	215.79
377.57	216.12
377.95	215.31
378.33	215.21
378.71	213.98
379.09	214.33
379.47	214.55
379.84	214.10
380.22	213.98
380.60	213.57
380.98	213.43
381.36	213.10
381.73	213.05
382.11	213.69
382.49	213.81
382.87	213.48
383.25	213.48
383.62	215.90
384.00	215.33
384.38	215.40
384.76	215.88
385.13	216.76
385.51	216.76
385.89	216.40
386.27	216.67
386.64	216.83
387.02	216.60
387.40	216.43
387.78	216.83
388.15	217.00
388.53	216.95
388.91	216.86
389.29	216.88
389.66	216.74
390.04	216.00
390.42	216.19
390.79	216.07
391.17	215.88
391.55	213.64
391.92	213.67
392.30	214.05
392.68	213.55
393.05	213.43
393.43	213.55
393.81	213.83
394.18	213.31
394.56	213.52
394.94	213.69
395.31	213.67
395.69	214.14
396.06	214.36
396.44	214.67
396.82	214.52
397.19	215.69
397.57	216.00
397.95	216.62
398.32	215.98
398.70	216.50
399.07	217.21
399.45	216.93
399.82	217.07
400.20	216.71
400.58	216.62
400.95	215.67
401.33	215.95
401.70	217.40
402.08	217.83
402.45	217.74
402.83	218.52
403.20	218.74
403.58	218.50
403.95	219.17
404.33	219.64
404.71	220.17
405.08	221.00
405.46	221.26
405.83	221.55
406.21	222.12
406.58	222.50
406.96	222.36
407.33	223.33
407.70	223.88
408.08	226.00
408.45	227.00
408.83	227.83
409.20	228.19
409.58	227.79
409.95	228.74
410.33	229.62
410.70	229.76
411.08	231.05
411.45	232.21
411.82	232.76
412.20	234.02
412.57	236.36
412.95	236.38
413.32	237.93
413.69	239.33
414.07	240.86
414.44	242.64
414.82	244.81
415.19	246.86
415.56	249.00
415.94	250.38
416.31	252.88
416.68	255.81
417.06	258.93
417.43	262.43
417.81	265.71
418.18	269.38
418.55	272.88
418.93	276.83
419.30	281.00
419.67	285.60
420.04	289.95
420.42	293.93
420.79	300.64
421.16	306.29
421.54	313.26
421.91	319.67
422.28	325.64
422.66	332.48
423.03	340.81
423.40	347.69
423.77	354.86
424.15	362.10
424.52	369.98
424.89	378.71
425.26	386.50
425.64	394.52
426.01	402.50
426.38	411.43
426.75	420.60
427.13	429.60
427.50	438.67
427.87	448.52
428.24	458.29
428.61	466.88
428.99	478.33
429.36	488.86
429.73	499.76
430.10	511.48
430.47	522.88
430.85	532.90
431.22	545.76
431.59	560.64
431.96	573.69
432.33	587.31
432.70	600.95
433.08	616.69
433.45	631.57
433.82	646.76
434.19	664.24
434.56	680.81
434.93	696.36
435.30	712.38
435.68	729.88
436.05	747.24
436.42	763.81
436.79	779.12
437.16	795.93
437.53	813.43
437.90	830.81
438.27	848.21
438.64	866.07
439.01	883.24
439.38	896.95
439.75	911.31
440.13	927.81
440.50	942.93
440.87	955.52
441.24	968.71
441.61	983.64
441.98	994.19
442.35	1006.67
442.72	1019.93
443.09	1032.79
443.46	1040.55
443.83	1045.88
444.20	1051.07
444.57	1056.60
444.94	1059.86
445.31	1063.33
445.68	1069.17
446.05	1071.07
446.42	1070.40
446.79	1069.17
447.16	1067.10
447.53	1066.33
447.90	1060.21
448.27	1054.02
448.64	1045.62
449.01	1039.29
449.37	1028.02
449.74	1016.90
450.11	1005.62
450.48	991.12
450.85	975.74
451.22	962.90
451.59	951.14
451.96	939.43
452.33	924.31
452.70	909.95
453.07	893.55
453.43	874.07
453.80	857.67
454.17	841.62
454.54	825.50
454.91	809.50
455.28	793.26
455.65	778.10
456.02	766.83
456.38	754.33
456.75	738.83
457.12	725.26
457.49	712.45
457.86	697.93
458.23	687.74
458.59	676.52
458.96	664.93
459.33	654.10
459.70	644.21
460.07	635.98
460.43	626.90
460.80	617.98
461.17	610.69
461.54	602.55
461.91	594.52
462.27	586.38
462.64	579.24
463.01	571.90
463.38	565.74
463.74	555.38
464.11	548.50
464.48	543.14
464.85	537.38
465.21	533.33
465.58	528.69
465.95	522.10
466.32	517.19
466.68	511.93
467.05	507.12
467.42	501.71
467.78	496.69
468.15	491.52
468.52	488.12
468.88	482.43
469.25	477.24
469.62	473.93
469.98	470.64
470.35	467.24
470.72	463.79
471.08	459.33
471.45	456.50
471.82	453.76
472.18	450.17
472.55	447.74
472.92	443.67
473.28	440.69
473.65	438.00
474.02	435.05
474.38	433.31
474.75	431.26
475.11	428.88
475.48	426.95
475.85	425.07
476.21	423.24
476.58	421.64
476.94	420.71
477.31	419.45
477.67	418.05
478.04	416.88
478.41	416.12
478.77	417.40
479.14	416.29
479.50	416.14
479.87	415.86
480.23	415.52
480.60	415.33
480.96	415.02
481.33	415.93
481.69	416.24
482.06	416.24
482.42	416.86
482.79	417.26
483.15	417.48
483.52	418.33
483.88	418.45
484.25	419.57
484.61	420.57
484.98	421.19
485.34	422.50
485.71	423.86
486.07	424.93
486.44	424.36
486.80	425.71
487.17	427.02
487.53	429.31
487.90	431.26
488.26	434.33
488.62	437.07
488.99	438.69
489.35	441.17
489.72	443.52
490.08	445.40
490.44	447.98
490.81	451.19
491.17	453.88
491.54	457.55
491.90	461.43
492.26	464.76
492.63	468.79
492.99	472.55
493.36	476.79
493.72	481.26
494.08	485.88
494.45	490.36
494.81	495.17
495.17	499.45
495.54	504.50
495.90	508.93
496.26	513.76
496.63	519.14
496.99	524.74
497.35	530.36
497.72	536.74
498.08	542.71
498.44	548.98
498.80	555.62
499.17	561.62
499.53	567.79
499.89	574.69
500.26	581.55
500.62	588.45
500.98	595.48
501.34	602.40
501.71	609.60
502.07	616.95
502.43	623.36
502.79	630.90
503.16	638.33
503.52	645.71
503.88	652.79
504.24	659.81
504.60	666.64
504.97	674.69
505.33	682.31
505.69	691.07
506.05	698.62
506.41	706.02
506.78	713.45
507.14	720.64
507.50	728.48
507.86	736.29
508.22	744.00
508.59	751.31
508.95	759.31
509.31	767.98
509.67	775.31
510.03	783.31
510.39	790.81
510.75	798.19
511.12	805.60
511.48	813.24
511.84	821.26
512.20	829.64
512.56	836.98
512.92	844.26
513.28	851.40
513.64	858.43
514.00	866.14
514.37	874.24
514.73	881.79
515.09	888.79
515.45	895.71
515.81	902.76
516.17	909.76
516.53	915.67
516.89	921.43
517.25	929.10
517.61	936.26
517.97	942.98
518.33	949.69
518.69	956.71
519.05	963.45
519.41	969.93
519.77	976.55
520.13	982.31
520.49	987.79
520.85	993.62
521.21	1000.86
521.57	1006.67
521.93	1011.48
522.29	1017.02
522.65	1022.07
523.01	1027.36
523.37	1031.76
523.73	1036.60
524.09	1042.00
524.45	1046.45
524.81	1050.83
525.17	1055.45
525.53	1060.00
525.89	1064.33
526.25	1068.67
526.61	1072.83
526.97	1076.48
527.33	1080.07
527.68	1086.55
528.04	1091.81
528.40	1095.67
528.76	1099.10
529.12	1103.12
529.48	1108.10
529.84	1111.79
530.20	1116.50
530.56	1120.29
530.91	1125.31
531.27	1130.17
531.63	1134.76
531.99	1138.76
532.35	1142.26
532.71	1145.95
533.07	1150.31
533.42	1156.74
533.78	1161.29
534.14	1165.74
534.50	1169.90
534.86	1175.00
535.21	1177.43
535.57	1181.17
535.93	1184.74
536.29	1189.05
536.65	1193.83
537.00	1197.02
537.36	1201.02
537.72	1204.29
538.08	1207.60
538.44	1210.29
538.79	1213.74
539.15	1216.86
539.51	1220.81
539.87	1224.29
540.22	1227.48
540.58	1230.33
540.94	1231.24
541.29	1233.83
541.65	1236.00
542.01	1239.60
542.37	1241.36
542.72	1242.81
543.08	1244.71
543.44	1247.43
543.79	1249.07
544.15	1251.19
544.51	1254.43
544.87	1256.95
545.22	1259.57
545.58	1262.50
545.94	1265.60
546.29	1268.12
546.65	1270.02
547.01	1272.33
547.36	1275.64
547.72	1278.38
548.07	1281.29
548.43	1283.71
548.79	1285.98
549.14	1288.31
549.50	1290.55
549.86	1292.76
550.21	1296.38
550.57	1298.81
550.92	1301.36
551.28	1304.31
551.64	1307.00
551.99	1309.90
552.35	1312.98
552.70	1315.60
553.06	1318.26
553.41	1321.02
553.77	1325.05
554.13	1329.60
554.48	1334.14
554.84	1337.98
555.19	1341.60
555.55	1345.95
555.90	1350.60
556.26	1354.19
556.61	1357.98
556.97	1361.52
557.32	1365.93
557.68	1369.76
558.03	1373.64
558.39	1376.95
558.74	1381.29
559.10	1384.64
559.45	1388.64
559.81	1393.48
560.16	1397.64
560.52	1402.17
560.87	1406.86
561.23	1409.55
561.58	1414.17
561.94	1417.19
562.29	1420.29
562.64	1425.79
563.00	1429.43
563.35	1433.21
563.71	1438.19
564.06	1444.21
564.42	1449.14
564.77	1455.14
565.12	1461.40
565.48	1469.33
565.83	1475.79
566.19	1481.36
566.54	1486.79
566.89	1492.29
567.25	1497.88
567.60	1505.00
567.96	1513.00
568.31	1519.40
568.66	1526.21
569.02	1531.19
569.37	1536.74
569.72	1542.21
570.08	1545.93
570.43	1551.07
570.78	1556.88
571.14	1562.07
571.49	1566.76
571.84	1571.60
572.20	1575.62
572.55	1579.88
572.90	1582.67
573.26	1586.88
573.61	1591.02
573.96	1596.17
574.31	1600.26
574.67	1603.14
575.02	1606.05
575.37	1607.95
575.72	1610.40
576.08	1614.19
576.43	1617.38
576.78	1621.00
577.13	1625.79
577.49	1630.24
577.84	1634.69
578.19	1638.36
578.54	1642.98
578.90	1646.88
579.25	1650.07
579.60	1653.45
579.95	1655.29
580.30	1659.19
580.66	1663.24
581.01	1666.90
581.36	1669.05
581.71	1672.31
582.06	1677.19
582.42	1681.64
582.77	1684.69
583.12	1688.83
583.47	1692.07
583.82	1696.45
584.17	1699.90
584.53	1702.76
584.88	1706.29
585.23	1709.83
585.58	1711.79
585.93	1714.12
586.28	1717.05
586.63	1721.26
586.98	1723.86
587.34	1728.33
587.69	1730.55
588.04	1733.17
588.39	1736.52
588.74	1739.19
589.09	1742.02
589.44	1742.14
589.79	1743.57
590.14	1746.14
590.49	1747.52
590.84	1748.40
591.19	1750.21
591.54	1752.26
591.89	1753.19
592.25	1755.98
592.60	1755.62
592.95	1758.17
593.30	1759.38
593.65	1759.90
594.00	1759.74
594.35	1766.60
594.70	1766.48
595.05	1767.40
595.40	1768.07
595.75	1768.05
596.10	1770.43
596.45	1770.74
596.80	1773.45
597.15	1774.71
597.50	1775.43
597.85	1777.52
598.19	1778.60
598.54	1778.81
598.89	1778.74
599.24	1780.52
599.59	1780.21
599.94	1781.55
600.29	1781.86
600.64	1781.79
600.99	1782.43
601.34	1784.40
601.69	1778.74
602.04	1778.48
602.39	1779.02
602.74	1780.00
603.08	1778.86
603.43	1778.55
603.78	1779.26
604.13	1778.38
604.48	1777.21
604.83	1777.26
605.18	1776.17
605.53	1776.19
605.87	1775.62
606.22	1775.76
606.57	1773.79
606.92	1771.86
607.27	1770.93
607.62	1770.00
607.96	1769.45
608.31	1769.21
608.66	1767.74
609.01	1766.14
609.36	1766.00
609.70	1764.81
610.05	1761.90
610.40	1761.57
610.75	1758.52
611.10	1756.21
611.44	1753.45
611.79	1751.50
612.14	1748.55
612.49	1744.95
612.83	1741.48
613.18	1738.55
613.53	1735.14
613.88	1732.05
614.22	1729.07
614.57	1725.60
614.92	1721.86
615.27	1717.93
615.61	1713.93
615.96	1710.02
616.31	1706.74
616.65	1704.43
617.00	1701.93
617.35	1699.45
617.70	1696.76
618.04	1693.60
618.39	1689.71
618.74	1686.88
619.08	1683.05
619.43	1679.79
619.78	1676.55
620.12	1674.07
620.47	1670.36
620.82	1666.50
621.16	1663.36
621.51	1661.12
621.85	1657.21
622.20	1654.10
622.55	1650.60
622.89	1646.67
623.24	1644.02
623.59	1641.00
623.93	1636.29
624.28	1631.79
624.62	1629.52
624.97	1626.12
625.32	1622.79
625.66	1619.40
626.01	1615.88
626.35	1612.50
626.70	1608.79
627.04	1605.60
627.39	1601.40
627.73	1598.62
628.08	1595.55
628.43	1591.79
628.77	1586.21
629.12	1583.31
629.46	1579.93
629.81	1576.17
630.15	1572.10
630.50	1567.00
630.84	1562.36
631.19	1557.62
631.53	1552.62
631.88	1545.10
632.22	1538.57
632.57	1534.45
632.91	1529.07
633.26	1524.26
633.60	1519.19
633.95	1513.10
634.29	1507.90
634.64	1503.81
634.98	1498.43
635.32	1494.43
635.67	1490.86
636.01	1487.69
636.36	1482.36
636.70	1477.12
637.05	1472.81
637.39	1469.02
637.73	1464.60
638.08	1460.24
638.42	1455.40
638.77	1451.14
639.11	1447.00
639.45	1442.50
639.80	1436.69
640.14	1431.90
640.49	1427.17
640.83	1421.83
641.17	1418.21
641.52	1413.81
641.86	1407.90
642.20	1404.02
642.55	1397.79
642.89	1391.79
643.23	1386.07
643.58	1381.48
643.92	1375.69
644.26	1369.76
644.61	1364.29
644.95	1358.88
645.29	1353.55
645.64	1348.48
645.98	1342.67
646.32	1338.24
646.66	1332.33
647.01	1326.86
647.35	1321.83
647.69	1316.40
648.04	1311.83
648.38	1306.43
648.72	1300.74
649.06	1295.12
649.41	1287.90
649.75	1281.74
650.09	1275.62
650.43	1268.88
650.78	1262.88
651.12	1257.31
651.46	1251.12
651.80	1243.74
652.14	1238.05
652.49	1232.21
652.83	1226.07
653.17	1219.62
653.51	1212.33
653.85	1206.83
654.20	1201.17
654.54	1194.21
654.88	1187.69
655.22	1181.81
655.56	1174.81
655.90	1167.69
656.25	1161.29
656.59	1155.07
656.93	1149.14
657.27	1143.69
657.61	1137.57
657.95	1131.71
658.29	1125.40
658.64	1120.31
658.98	1114.43
659.32	1107.10
659.66	1100.10
660.00	1094.29
660.34	1088.67
660.68	1082.93
661.02	1076.86
661.36	1070.67
661.70	1065.45
662.05	1058.95
662.39	1052.81
662.73	1048.00
663.07	1043.55
663.41	1038.40
663.75	1032.71
664.09	1027.29
664.43	1021.12
664.77	1015.81
665.11	1009.26
665.45	1002.88
665.79	996.64
666.13	991.17
666.47	985.55
666.81	980.48
667.15	974.05
667.49	968.88
667.83	964.24
668.17	958.57
668.51	952.98
668.85	947.67
669.19	943.33
669.53	937.10
669.87	930.57
670.21	924.62
670.55	918.21
670.89	913.31
671.23	907.95
671.57	902.24
671.91	897.02
672.25	891.98
672.58	887.50
672.92	881.57
673.26	876.69
673.60	872.14
673.94	866.48
674.28	861.95
674.62	856.95
674.96	851.12
675.30	845.90
675.64	840.67
675.97	836.05
676.31	830.48
676.65	825.36
676.99	821.38
677.33	815.81
677.67	810.79
678.01	805.45
678.34	800.38
678.68	796.29
679.02	790.76
679.36	785.55
679.70	780.26
680.04	775.43
680.37	769.81
680.71	764.40
681.05	759.98
681.39	754.90
681.73	749.64
682.06	744.71
682.40	740.17
682.74	735.95
683.08	730.71
683.42	725.81
683.75	721.07
684.09	715.71
684.43	711.33
684.77	707.00
685.10	702.36
685.44	697.76
685.78	692.24
686.12	687.57
686.45	682.98
686.79	677.90
687.13	674.10
687.46	669.81
687.80	665.81
688.14	661.26
688.48	657.38
688.81	652.90
689.15	649.07
689.49	644.36
689.82	639.64
690.16	634.50
690.50	630.07
690.83	625.74
691.17	620.69
691.51	616.10
691.84	611.95
692.18	607.24
692.52	603.24
692.85	599.79
693.19	596.67
693.52	592.36
693.86	588.40
694.20	584.33
694.53	580.40
694.87	576.12
695.21	571.81
695.54	567.40
695.88	562.93
696.21	558.00
696.55	553.62
696.88	549.62
697.22	545.76
697.56	542.45
697.89	538.64
698.23	535.76
698.56	532.12
698.90	528.40
699.23	524.76
699.57	521.21
699.90	517.29
700.24	513.38
700.58	510.19
700.91	507.29
701.25	505.17
701.58	502.31
701.92	499.50
702.25	496.45
702.59	492.67
702.92	489.79
703.26	487.02
703.59	484.57
703.93	483.24
704.26	480.38
704.60	477.02
704.93	474.00
705.26	470.40
705.60	467.88
705.93	464.79
706.27	462.19
706.60	459.43
706.94	457.12
707.27	454.00
707.61	451.07
707.94	447.86
708.27	443.67
708.61	440.36
708.94	437.50
709.28	434.93
709.61	432.40
709.94	429.50
710.28	426.93
710.61	424.14
710.95	419.48
711.28	418.88
711.61	416.57
711.95	414.64
712.28	412.38
712.61	409.86
712.95	408.38
713.28	406.67
713.61	403.50
713.95	400.43
714.28	397.83
714.61	395.40
714.95	393.36
715.28	390.81
715.61	388.38
715.95	386.33
716.28	384.07
716.61	382.55
716.95	380.43
717.28	378.02
717.61	376.00
717.94	374.31
718.28	370.36
718.61	368.14
718.94	365.67
719.27	363.74
719.61	362.12
719.94	359.57
720.27	356.95
720.60	355.48
720.94	353.79
721.27	352.48
721.60	351.17
721.93	349.12
722.27	348.10
722.60	346.83
722.93	344.67
723.26	343.24
723.59	341.07
723.93	339.74
724.26	338.50
724.59	337.02
724.92	335.74
725.25	335.10
725.59	333.71
725.92	332.81
726.25	331.19
726.58	329.69
726.91	328.07
727.24	326.86
727.57	325.60
727.91	323.86
728.24	322.74
728.57	321.10
728.90	320.02
729.23	318.17
729.56	317.71
729.89	316.55
730.22	314.95
730.55	313.71
730.89	312.60
731.22	311.33
731.55	310.19
731.88	309.31
732.21	307.26
732.54	306.17
732.87	305.21
733.20	304.48
733.53	303.55
733.86	302.98
734.19	301.88
734.52	301.21
734.85	301.90
735.18	300.69
735.51	300.40
735.84	299.88
736.17	299.57
736.50	297.74
736.83	299.29
737.16	298.71
737.49	298.07
737.82	296.88
738.15	296.14
738.48	295.48
738.81	294.36
739.14	293.50
739.47	292.38
739.80	291.21
740.13	290.57
740.46	289.21
740.79	287.74
741.12	287.07
741.45	286.07
741.78	284.17
742.11	283.74
742.44	282.43
742.77	281.79
743.10	280.55
743.43	279.76
743.75	276.81
744.08	278.45
744.41	277.29
744.74	276.57
745.07	275.67
745.40	274.69
745.73	274.71
746.06	274.31
746.39	273.79
746.71	272.79
747.04	271.50
747.37	270.76
747.70	270.52
748.03	269.74
748.36	268.93
748.68	268.24
749.01	266.93
749.34	266.31
749.67	265.64
750.00	265.43
750.33	266.19
750.65	266.10
750.98	263.17
751.31	262.88
751.64	262.31
751.97	263.00
752.29	262.60
752.62	261.00
752.95	260.12
753.28	259.40
753.60	258.81
753.93	259.02
754.26	258.74
754.59	257.64
754.91	256.71
755.24	256.21
755.57	255.52
755.90	254.98
756.22	254.17
756.55	253.10
756.88	252.12
757.20	250.40
757.53	249.07
757.86	248.43
758.19	247.86
758.51	247.48
758.84	245.71
759.17	244.86
759.49	244.52
759.82	245.43
760.15	245.12
760.47	244.74
760.80	243.64
761.13	243.48
761.45	243.10
761.78	242.81
762.11	242.29
762.43	241.57
762.76	241.31
763.08	241.36
763.41	241.24
763.74	241.12
764.06	240.57
764.39	240.14
764.71	239.71
765.04	239.29
765.37	238.76
765.69	238.50
766.02	238.45
766.34	238.14
766.67	236.83
767.00	236.86
767.32	237.71
767.65	238.67
767.97	238.24
768.30	238.12
768.62	237.83
768.95	237.64
769.27	237.50
769.60	237.62
769.92	237.17
770.25	236.48
770.57	235.76
770.90	235.52
771.22	235.26
771.55	235.17
771.87	235.07
772.20	234.93
772.52	236.55
772.85	238.74
773.17	238.40
773.50	237.93
773.82	237.29
774.15	236.05
774.47	234.60
774.80	234.02
775.12	233.90
775.45	233.79
775.77	233.33
776.09	233.38
776.42	233.14
776.74	233.40
777.07	233.19
777.39	233.19
777.72	232.69
778.04	232.67
778.36	232.21
778.69	232.14
779.01	231.79
779.33	229.69
779.66	227.10
779.98	227.05
780.31	227.05
780.63	227.86
780.95	228.10
781.28	227.83
781.60	227.69
781.92	227.40
782.25	227.14
782.57	227.10
782.89	226.74
783.22	226.17
783.54	225.24
783.86	225.43
784.19	225.19
784.51	225.64
784.83	224.98
785.16	224.98
785.48	224.90
785.80	225.29
786.12	225.57
786.45	225.26
786.77	225.38
787.09	225.19
787.42	224.05
787.74	223.88
788.06	224.05
788.38	223.67
788.71	223.40
789.03	223.43
789.35	223.36
789.67	223.00
789.99	223.12
790.32	223.02
790.64	222.93
790.96	224.43
791.28	224.10
791.61	224.40
791.93	224.40
792.25	224.00
792.57	225.07
792.89	224.17
793.21	224.52
793.54	223.98
793.86	223.69
794.18	224.05
794.50	223.69
794.82	223.64
795.14	224.10
795.47	224.31
795.79	224.24
796.11	223.76
796.43	223.69
796.75	223.45
797.07	223.52
797.39	223.48
797.71	221.81
798.04	221.62
798.36	221.57
798.68	221.14
799.00	221.40
799.32	220.07
799.64	220.71
799.96	220.55
800.28	221.05
800.60	220.90
800.92	220.98
801.24	220.74
801.56	220.71
801.89	220.31
802.21	220.43
802.53	220.00
802.85	220.60
803.17	221.40
803.49	221.07
803.81	221.00
804.13	220.83
804.45	220.79
804.77	220.93
805.09	220.71
805.41	220.43
805.73	220.07
806.05	219.79
806.37	219.48
806.69	219.12
807.01	218.67
807.33	218.74
807.65	218.17
807.97	219.10
808.28	218.79
808.60	218.93
808.92	218.60
809.24	220.12
809.56	219.86
809.88	219.12
810.20	219.21
810.52	219.17
810.84	218.88
811.16	218.60
811.48	218.36
811.80	219.19
812.12	219.36
812.43	219.55
812.75	219.67
813.07	219.48
813.39	219.71
813.71	219.21
814.03	219.14
814.35	219.17
814.67	218.19
814.98	218.14
815.30	218.05
815.62	217.74
815.94	216.10
816.26	216.07
816.58	215.83
816.89	215.90
817.21	215.86
817.53	215.98
817.85	216.00
818.17	215.90
818.48	214.83
818.80	215.14
819.12	214.90
819.44	214.36
819.76	214.14
820.07	213.93
820.39	214.26
820.71	214.43
821.03	214.33
821.34	214.38
821.66	214.50
821.98	214.79
822.30	214.74
822.61	216.05
822.93	215.90
823.25	215.74
823.57	215.57
823.88	215.67
824.20	215.62
824.52	215.93
824.83	216.12
825.15	216.00
825.47	215.90
825.79	216.10
826.10	216.02
826.42	215.90
826.74	216.31
827.05	216.07
827.37	216.12
827.69	216.07
828.00	216.02
828.32	215.95
828.64	215.29
828.95	216.50
829.27	215.86
829.58	215.83
829.90	215.98
830.22	216.33
830.53	216.24
830.85	216.07
831.17	215.43
831.48	215.38
831.80	215.67
832.11	215.55
832.43	215.17
832.75	215.21
833.06	216.57
833.38	215.69
833.69	215.71
834.01	215.69
834.32	215.64
834.64	215.55
834.96	215.52
835.27	215.60
835.59	214.76
835.90	214.05
836.22	213.98
836.53	213.81
836.85	213.43
837.16	215.33
837.48	215.33
837.79	216.07
838.11	215.81
838.42	215.74
838.74	215.88
839.05	215.74
839.37	215.64
839.68	214.52
840.00	214.62
840.31	214.81
840.63	214.43
840.94	214.17
841.26	213.79
841.57	213.95
841.88	214.38
842.20	213.90
842.51	214.12
842.83	214.12
843.14	215.74
843.46	215.67
843.77	214.48
844.08	214.36
844.40	213.67
844.71	213.50
845.03	213.19
845.34	212.86
845.65	212.71
845.97	212.81
846.28	212.76
846.60	212.98
846.91	212.81
847.22	212.74
847.54	213.19
847.85	213.33
848.16	212.83
848.48	212.31
848.79	213.36
849.10	213.62
849.42	213.71
849.73	212.14
850.04	212.12
850.36	211.40
850.67	211.83
850.98	211.95
851.30	212.31
851.61	212.43
851.92	212.74
852.23	213.29
852.55	213.52
852.86	213.50
853.17	213.36
853.49	213.90
853.80	214.38
854.11	214.48
854.42	214.88
854.74	215.00
855.05	215.26
855.36	214.14
855.67	214.24
855.99	214.14
856.30	216.45
856.61	216.45
856.92	216.52
857.23	216.48
857.55	216.45
857.86	216.48
858.17	217.05
858.48	216.86
858.79	216.86
859.11	216.88
859.42	216.81
859.73	216.83
860.04	216.52
860.35	216.10
860.66	215.57
860.98	215.48
861.29	215.83
861.60	215.67
861.91	216.14
862.22	215.69
862.53	215.36
862.84	212.95
863.16	213.67
863.47	213.19
863.78	213.07
864.09	213.43
864.40	213.38
864.71	213.26
865.02	213.12
865.33	212.76
865.64	212.52
865.95	212.50
866.27	213.86
866.58	213.83
866.89	214.07
867.20	214.00
867.51	213.64
867.82	213.40
868.13	214.00
868.44	213.60
868.75	214.10
869.06	214.33
869.37	214.48
869.68	213.76
869.99	214.21
870.30	214.36
870.61	214.02
870.92	213.57
871.23	213.12
871.54	213.55
871.85	214.07
872.16	214.38
872.47	214.17
872.78	212.79
873.09	212.76
873.40	212.38
873.71	212.48
874.02	212.50
874.33	212.31
874.64	211.69
874.95	212.17
875.26	211.60
875.56	211.69
875.87	211.81
876.18	211.81
876.49	213.83
876.80	213.62
877.11	213.33
877.42	213.60
877.73	213.76
878.04	213.48
878.35	213.24
878.66	213.07
878.96	213.12
879.27	213.29
879.58	213.07
879.89	213.00
880.20	213.57
880.51	213.83
880.82	213.81
881.12	214.07
881.43	213.50
881.74	213.40
882.05	213.07
882.36	213.40
882.67	213.36
882.97	211.10
883.28	210.95
883.59	211.17
883.90	211.43
884.21	211.71
884.51	211.71
884.82	211.38
885.13	211.57
885.44	211.43
885.74	211.26
886.05	211.36
886.36	211.76
886.67	211.05
886.98	211.93
887.28	212.17
887.59	211.90
887.90	212.19
888.20	212.05
888.51	212.57
888.82	211.98
889.13	212.17
889.43	213.86
889.74	213.81
890.05	213.81
890.35	213.45
890.66	212.88
890.97	212.57
891.28	212.40
891.58	212.29
891.89	212.33
892.20	212.26
892.50	212.12
892.81	211.93
893.12	211.93
893.42	210.76
893.73	210.98
894.04	211.10
894.34	211.17
894.65	211.36
894.95	211.00
895.26	211.21
895.57	212.17
895.87	210.36
896.18	210.57
896.48	210.52
896.79	210.74
897.10	211.07
897.40	211.12
897.71	211.64
898.01	211.21
898.32	211.62
898.63	211.69
898.93	211.98
899.24	212.12
899.54	211.95
899.85	211.90
900.15	211.50
900.46	211.52
900.76	211.79
901.07	211.74
901.38	211.95
901.68	211.98
901.99	210.83
902.29	211.07
902.60	210.95
902.90	210.81
903.21	210.83
903.51	210.93
903.82	211.50
904.12	211.62
904.43	212.00
904.73	211.88
905.03	212.00
905.34	214.02
905.64	213.83
905.95	214.02
906.25	213.95
906.56	214.14
906.86	214.05
907.17	213.90
907.47	213.86
907.77	213.57
908.08	213.07
908.38	213.17
908.69	213.26
908.99	213.57
909.30	213.67
909.60	213.45
909.90	213.45
910.21	212.88
910.51	212.48
910.81	212.55
911.12	212.64
911.42	212.43
911.73	210.14
912.03	210.17
912.33	210.69
912.64	210.90
912.94	210.57
913.24	210.48
913.55	209.93
913.85	209.93
914.15	210.26
914.46	210.88
914.76	210.90
915.06	210.74
915.37	210.43
915.67	210.24
915.97	210.19
916.27	209.79
916.58	209.83
916.88	209.67
917.18	209.33
917.49	210.52
917.79	210.57
918.09	210.90
918.39	211.50
918.70	211.05
919.00	211.07
919.30	212.26
919.60	212.17
919.91	212.24
920.21	212.21
920.51	211.88
920.81	211.57
921.12	211.83
921.42	211.79
921.72	211.81
922.02	211.95
922.32	212.48
922.63	212.31
922.93	213.38
923.23	213.50
923.53	213.38
923.83	212.24
924.13	212.33
924.44	212.10
924.74	212.17
925.04	212.88
925.34	212.86
925.64	211.79
925.94	211.67
926.24	212.71
926.55	212.67
926.85	213.14
927.15	213.17
927.45	213.21
927.75	213.29
928.05	213.33
928.35	213.45
928.65	213.62
928.95	214.14
929.26	213.64
929.56	214.05
929.86	214.64
930.16	214.36
930.46	214.14
930.76	214.50
931.06	213.79
931.36	213.26
931.66	213.64
931.96	213.74
932.26	214.05
932.56	213.29
932.86	213.45
933.16	213.14
933.46	213.12
933.76	212.79
934.06	213.40
934.36	214.40
934.66	214.50
934.96	214.19
935.26	214.21
935.56	214.26
935.86	213.67
936.16	213.17
936.46	213.10
936.76	213.10
937.06	212.60
937.36	212.55
937.66	212.57
937.96	212.31
938.26	212.17
938.56	211.95
938.86	212.07
939.16	212.60
939.46	212.74
939.76	212.79
940.06	212.57
940.35	211.95
940.65	210.79
940.95	210.67
941.25	210.36
941.55	210.00
941.85	209.83
942.15	210.43
942.45	210.88
942.75	210.79
943.04	211.05
943.34	211.24
943.64	211.31
943.94	211.02
944.24	211.19
944.54	211.38
944.84	211.55
945.13	211.48
945.43	210.93
945.73	210.86
946.03	210.76
946.33	210.69
946.62	210.52
946.92	210.36
947.22	210.62
947.52	210.67
947.82	210.90
948.11	210.62
948.41	210.14
948.71	209.60
949.01	209.88
949.31	209.29
949.60	209.31
949.90	209.50
950.20	209.48
950.50	209.14
950.79	208.88
951.09	209.17
951.39	208.86
951.69	208.88
951.98	209.31
952.28	209.43
952.58	209.50
952.87	209.26
953.17	209.67
953.47	209.36
953.76	209.40
954.06	209.29
954.36	209.00
954.66	209.02
954.95	209.74
955.25	209.71
955.55	210.17
955.84	209.95
956.14	210.14
956.44	210.38
956.73	210.31
957.03	210.50
957.32	210.19
957.62	210.29
957.92	210.57
958.21	210.17
958.51	212.55
958.81	212.95
959.10	213.36
959.40	213.90
959.69	214.07
959.99	214.31
960.29	214.29
960.58	214.43
960.88	215.10
961.17	214.71
961.47	214.93
961.76	214.90
962.06	215.21
962.36	215.10
962.65	215.07
962.95	215.12
963.24	214.95
963.54	215.05
963.83	215.05
964.13	215.05
964.42	214.55
964.72	212.74
965.01	212.60
965.31	212.43
965.60	211.64
965.90	212.95
966.19	212.48
966.49	212.60
966.78	212.43
967.08	212.48
967.37	212.62
967.67	212.36
967.96	212.71
968.26	212.71
968.55	212.93
968.85	212.88
969.14	212.86
969.43	212.76
969.73	212.64
970.02	212.48
970.32	212.17
970.61	212.40
970.91	211.90
971.20	211.67
971.49	211.67
971.79	212.21
972.08	210.57
972.38	210.71
972.67	210.90
972.96	211.19
973.26	210.48
973.55	211.24
973.85	211.17
974.14	211.05
974.43	211.29
974.73	210.88
975.02	210.76
975.31	210.81
975.61	210.86
975.90	210.88
976.19	210.95
976.49	211.14
976.78	211.31
977.07	211.24
977.37	211.33
977.66	211.50
977.95	210.95
978.24	211.45
978.54	211.95
978.83	211.48
979.12	211.43
979.42	211.36
979.71	210.69
980.00	210.71
980.29	210.64
980.59	209.93
980.88	210.40
981.17	210.33
981.46	210.64
981.76	210.76
982.05	211.40
982.34	211.40
982.63	211.52
982.93	211.52
983.22	212.10
983.51	212.17
983.80	212.43
984.09	212.69
984.39	212.31
984.68	212.02
984.97	212.19
985.26	211.98
985.55	212.14
985.85	211.86
986.14	212.33
986.43	212.55
986.72	212.50
987.01	211.76
987.30	211.88
987.59	211.38
987.89	211.33
988.18	210.38
988.47	210.17
988.76	209.81
989.05	209.67
989.34	209.33
989.63	209.71
989.92	209.48
990.22	209.29
990.51	209.50
990.80	209.43
991.09	209.45
991.38	209.57
991.67	209.55
991.96	209.33
992.25	209.02
992.54	208.50
992.83	208.57
993.12	208.57
993.41	208.69
993.70	209.55
993.99	210.05
994.28	210.57
994.58	210.93
994.87	210.95
995.16	210.79
995.45	210.45
995.74	209.69
996.03	210.00
996.32	210.26
996.61	210.31
996.90	210.17
997.19	210.12
997.48	210.36
997.77	210.24
998.06	210.71
998.34	210.71
998.63	210.98
998.92	211.26
999.21	211.57
999.50	211.69
999.79	211.05
1000.08	210.98
1000.37	211.05
1000.66	210.95
1000.95	211.48
1001.24	211.57
1001.53	212.07
1001.82	212.40
1002.11	211.83
1002.40	211.88
1002.68	212.31
1002.97	213.90
1003.26	213.81
1003.55	213.60
1003.84	213.60
1004.13	214.12
1004.42	213.95
1004.71	213.86
1004.99	213.79
1005.28	214.29
1005.57	213.95
1005.86	213.76
1006.15	213.55
1006.44	213.07
1006.72	213.24
1007.01	212.88
1007.30	213.10
1007.59	212.71
1007.88	212.67
1008.17	212.95
1008.45	212.83
1008.74	212.12
1009.03	211.05
1009.32	211.10
1009.60	211.07
1009.89	211.07
1010.18	210.00
1010.47	209.93
1010.76	209.86
1011.04	209.62
1011.33	209.57
1011.62	209.81
1011.91	209.88
1012.19	209.90
1012.48	210.14
1012.77	210.14
1013.05	210.98
1013.34	210.81
1013.63	210.62
1013.92	210.74
1014.20	210.31
1014.49	210.43
1014.78	210.60
1015.06	209.86
1015.35	209.74
1015.64	209.98
1015.92	210.38
1016.21	210.60
1016.50	210.40
1016.78	210.81
1017.07	210.98
1017.36	210.45
1017.64	210.14
1017.93	210.43
1018.22	210.40
1018.50	210.24
1018.79	210.14
1019.08	209.07
1019.36	209.36
1019.65	209.38
1019.93	209.95
1020.22	210.38
1020.51	211.48
1020.79	211.36
1021.08	212.00
1021.36	206.50
1021.65	210.00
1021.94	207.00
1022.22	214.00
1022.51	207.00
1022.79	222.50
1023.08	212.00
1023.36	239.00
1023.65	206.00
>>>>>End Processed Spectral Data<<<<<
