SpectraSuite Data File
++++++++++++++++++++++++++++++++++++
Date: Tue Apr 02 18:44:07 EDT 2013
User: group
Dark Spectrum Present: No
Reference Spectrum Present: No
Number of Sampled Component Spectra: 1
Spectrometers: USB2E7196
Integration Time (usec): 580000 (USB2E7196)
Spectra Averaged: 2 (USB2E7196)
Boxcar Smoothing: 10 (USB2E7196)
Correct for Electrical Dark: No (USB2E7196)
Strobe/Lamp Enabled: No (USB2E7196)
Correct for Detector Non-linearity: No (USB2E7196)
Correct for Stray Light: No (USB2E7196)
Number of Pixels in Processed Spectrum: 2048
>>>>>Begin Processed Spectral Data<<<<<
339.09	0.00
339.48	192.00
339.86	196.50
340.24	198.00
340.63	198.00
341.01	236.00
341.39	200.50
341.78	208.50
342.16	215.00
342.54	208.00
342.93	198.38
343.31	208.12
343.69	208.81
344.07	209.45
344.46	210.19
344.84	210.62
345.22	209.38
345.60	209.67
345.99	209.64
346.37	209.40
346.75	209.36
347.13	209.17
347.52	209.26
347.90	209.88
348.28	209.76
348.66	210.07
349.05	209.50
349.43	209.76
349.81	209.98
350.19	209.76
350.57	209.95
350.96	210.48
351.34	210.88
351.72	210.79
352.10	210.64
352.48	210.38
352.87	210.62
353.25	210.43
353.63	210.52
354.01	210.55
354.39	210.50
354.77	210.48
355.15	211.33
355.54	211.00
355.92	210.55
356.30	210.55
356.68	211.95
357.06	212.17
357.44	211.76
357.82	211.62
358.20	212.62
358.58	212.69
358.97	212.71
359.35	212.86
359.73	213.38
360.11	213.33
360.49	213.38
360.87	213.12
361.25	213.48
361.63	213.88
362.01	214.12
362.39	214.24
362.77	214.50
363.15	214.36
363.53	214.29
363.91	214.43
364.29	214.60
364.67	212.36
365.05	212.33
365.43	212.86
365.81	212.98
366.19	213.38
366.57	214.12
366.95	214.10
367.33	213.93
367.71	213.90
368.09	214.52
368.47	214.71
368.85	214.64
369.23	215.07
369.61	214.79
369.99	215.43
370.37	215.62
370.75	216.76
371.13	216.14
371.51	216.02
371.89	216.12
372.27	216.12
372.65	216.64
373.03	216.81
373.41	216.36
373.78	216.48
374.16	215.26
374.54	214.48
374.92	214.26
375.30	214.21
375.68	213.69
376.06	213.67
376.44	213.48
376.82	213.60
377.19	213.45
377.57	213.14
377.95	212.48
378.33	212.31
378.71	211.12
379.09	211.60
379.47	212.12
379.84	211.90
380.22	211.93
380.60	211.71
380.98	211.55
381.36	211.62
381.73	211.07
382.11	211.60
382.49	211.88
382.87	211.95
383.25	211.95
383.62	214.57
384.00	214.24
384.38	214.48
384.76	215.02
385.13	215.76
385.51	216.14
385.89	215.88
386.27	215.95
386.64	216.31
387.02	216.10
387.40	215.74
387.78	215.93
388.15	215.81
388.53	215.69
388.91	215.79
389.29	215.81
389.66	216.48
390.04	215.95
390.42	216.12
390.79	216.14
391.17	216.12
391.55	213.88
391.92	213.93
392.30	213.90
392.68	213.55
393.05	213.48
393.43	213.36
393.81	213.62
394.18	213.33
394.56	213.14
394.94	213.48
395.31	213.26
395.69	214.00
396.06	214.50
396.44	214.45
396.82	214.24
397.19	215.17
397.57	214.88
397.95	215.19
398.32	214.88
398.70	214.88
399.07	215.48
399.45	215.24
399.82	215.33
400.20	215.02
400.58	215.05
400.95	214.31
401.33	214.60
401.70	216.00
402.08	216.10
402.45	216.10
402.83	216.76
403.20	217.19
403.58	216.98
403.95	217.55
404.33	218.10
404.71	218.26
405.08	219.71
405.46	220.21
405.83	220.69
406.21	221.29
406.58	221.81
406.96	222.00
407.33	222.79
407.70	223.31
408.08	225.86
408.45	226.74
408.83	227.62
409.20	228.21
409.58	227.79
409.95	229.14
410.33	230.10
410.70	230.33
411.08	231.33
411.45	232.24
411.82	232.79
412.20	234.36
412.57	236.83
412.95	236.07
413.32	237.64
413.69	239.21
414.07	240.45
414.44	242.36
414.82	244.45
415.19	246.90
415.56	249.14
415.94	250.17
416.31	253.17
416.68	255.86
417.06	259.26
417.43	262.83
417.81	266.17
418.18	269.88
418.55	273.98
418.93	278.00
419.30	282.10
419.67	286.76
420.04	290.98
420.42	295.29
420.79	302.67
421.16	308.40
421.54	314.90
421.91	321.07
422.28	327.05
422.66	333.33
423.03	341.17
423.40	348.10
423.77	355.14
424.15	362.26
424.52	369.81
424.89	378.50
425.26	386.19
425.64	393.90
426.01	402.29
426.38	410.76
426.75	420.24
427.13	429.40
427.50	438.88
427.87	448.57
428.24	458.45
428.61	466.86
428.99	477.95
429.36	488.48
429.73	500.24
430.10	512.17
430.47	524.57
430.85	535.14
431.22	547.67
431.59	562.88
431.96	576.12
432.33	590.24
432.70	603.55
433.08	619.43
433.45	634.48
433.82	649.86
434.19	666.86
434.56	683.57
434.93	699.52
435.30	715.21
435.68	733.24
436.05	750.81
436.42	768.10
436.79	784.05
437.16	801.48
437.53	818.95
437.90	836.33
438.27	853.52
438.64	872.10
439.01	889.64
439.38	902.62
439.75	916.76
440.13	933.86
440.50	950.14
440.87	962.88
441.24	976.07
441.61	990.79
441.98	1001.57
442.35	1013.71
442.72	1026.55
443.09	1039.76
443.46	1047.57
443.83	1052.33
444.20	1056.67
444.57	1063.07
444.94	1065.48
445.31	1069.45
445.68	1075.10
446.05	1076.45
446.42	1074.62
446.79	1073.24
447.16	1071.69
447.53	1070.64
447.90	1064.00
448.27	1057.00
448.64	1048.48
449.01	1042.19
449.37	1031.02
449.74	1020.10
450.11	1009.10
450.48	994.62
450.85	978.67
451.22	965.14
451.59	953.24
451.96	941.67
452.33	925.57
452.70	912.60
453.07	894.86
453.43	875.07
453.80	858.31
454.17	842.48
454.54	826.76
454.91	810.76
455.28	794.17
455.65	779.31
456.02	768.12
456.38	755.60
456.75	740.69
457.12	727.31
457.49	714.43
457.86	699.83
458.23	689.83
458.59	678.79
458.96	667.52
459.33	657.31
459.70	647.02
460.07	638.57
460.43	628.26
460.80	619.67
461.17	612.83
461.54	604.83
461.91	596.98
462.27	588.69
462.64	581.26
463.01	574.24
463.38	567.67
463.74	556.43
464.11	549.88
464.48	544.19
464.85	537.83
465.21	533.31
465.58	528.52
465.95	521.71
466.32	516.71
466.68	511.10
467.05	505.79
467.42	500.43
467.78	495.29
468.15	490.48
468.52	486.83
468.88	480.88
469.25	476.50
469.62	473.50
469.98	469.60
470.35	466.31
470.72	462.83
471.08	458.33
471.45	455.98
471.82	452.88
472.18	448.81
472.55	446.33
472.92	443.05
473.28	439.62
473.65	436.90
474.02	434.05
474.38	432.52
474.75	430.69
475.11	428.48
475.48	426.81
475.85	425.31
476.21	423.50
476.58	422.74
476.94	421.43
477.31	419.67
477.67	418.64
478.04	417.76
478.41	416.93
478.77	418.26
479.14	417.10
479.50	416.88
479.87	417.05
480.23	416.33
480.60	415.36
480.96	415.88
481.33	416.57
481.69	416.74
482.06	416.57
482.42	416.95
482.79	417.52
483.15	417.69
483.52	418.48
483.88	419.24
484.25	419.60
484.61	420.48
484.98	420.98
485.34	422.69
485.71	424.45
486.07	425.71
486.44	425.45
486.80	426.93
487.17	428.07
487.53	430.29
487.90	432.81
488.26	435.83
488.62	438.43
488.99	440.12
489.35	442.62
489.72	445.36
490.08	447.71
490.44	450.21
490.81	453.31
491.17	455.98
491.54	459.10
491.90	462.81
492.26	466.19
492.63	470.67
492.99	473.76
493.36	477.33
493.72	481.90
494.08	486.24
494.45	490.86
494.81	495.90
495.17	500.19
495.54	505.21
495.90	510.33
496.26	515.12
496.63	520.55
496.99	525.90
497.35	531.83
497.72	537.83
498.08	543.67
498.44	549.93
498.80	556.98
499.17	563.14
499.53	568.88
499.89	575.64
500.26	581.95
500.62	589.33
500.98	596.86
501.34	604.10
501.71	611.60
502.07	618.45
502.43	625.67
502.79	632.90
503.16	640.19
503.52	647.19
503.88	654.40
504.24	661.90
504.60	669.71
504.97	677.38
505.33	684.88
505.69	693.36
506.05	701.19
506.41	708.21
506.78	716.14
507.14	724.76
507.50	732.48
507.86	740.24
508.22	747.71
508.59	754.45
508.95	762.05
509.31	770.45
509.67	778.74
510.03	786.40
510.39	793.69
510.75	801.38
511.12	809.26
511.48	816.93
511.84	824.71
512.20	832.26
512.56	839.36
512.92	846.79
513.28	854.24
513.64	861.55
514.00	869.29
514.37	876.10
514.73	883.12
515.09	890.64
515.45	897.83
515.81	904.33
516.17	912.21
516.53	918.24
516.89	923.12
517.25	929.62
517.61	936.55
517.97	943.57
518.33	949.60
518.69	955.95
519.05	962.62
519.41	969.07
519.77	976.74
520.13	983.21
520.49	989.02
520.85	994.40
521.21	1000.40
521.57	1005.64
521.93	1010.69
522.29	1016.02
522.65	1021.36
523.01	1026.83
523.37	1031.81
523.73	1036.02
524.09	1041.98
524.45	1047.86
524.81	1052.43
525.17	1056.45
525.53	1060.95
525.89	1065.71
526.25	1070.74
526.61	1074.14
526.97	1077.50
527.33	1080.71
527.68	1086.26
528.04	1090.64
528.40	1094.62
528.76	1098.93
529.12	1103.24
529.48	1108.38
529.84	1112.45
530.20	1116.33
530.56	1120.31
530.91	1124.79
531.27	1129.57
531.63	1133.33
531.99	1137.00
532.35	1140.90
532.71	1145.52
533.07	1150.12
533.42	1156.74
533.78	1160.67
534.14	1165.38
534.50	1170.05
534.86	1174.38
535.21	1176.64
535.57	1181.31
535.93	1185.02
536.29	1189.45
536.65	1194.24
537.00	1197.60
537.36	1200.81
537.72	1204.24
538.08	1208.19
538.44	1212.43
538.79	1216.05
539.15	1218.50
539.51	1222.29
539.87	1225.40
540.22	1228.79
540.58	1231.07
540.94	1232.21
541.29	1235.12
541.65	1237.88
542.01	1240.79
542.37	1243.26
542.72	1245.95
543.08	1247.48
543.44	1250.93
543.79	1252.17
544.15	1255.02
544.51	1258.50
544.87	1261.88
545.22	1265.02
545.58	1267.38
545.94	1269.07
546.29	1271.45
546.65	1274.64
547.01	1276.88
547.36	1279.98
547.72	1282.86
548.07	1286.17
548.43	1288.93
548.79	1291.48
549.14	1293.81
549.50	1296.74
549.86	1298.62
550.21	1301.86
550.57	1304.74
550.92	1307.33
551.28	1310.81
551.64	1312.62
551.99	1315.29
552.35	1317.81
552.70	1320.26
553.06	1323.10
553.41	1326.12
553.77	1330.21
554.13	1334.40
554.48	1339.07
554.84	1343.55
555.19	1346.36
555.55	1351.31
555.90	1354.43
556.26	1358.17
556.61	1362.00
556.97	1364.90
557.32	1369.50
557.68	1373.21
558.03	1377.10
558.39	1380.95
558.74	1385.40
559.10	1389.48
559.45	1394.19
559.81	1398.48
560.16	1402.48
560.52	1406.95
560.87	1411.90
561.23	1415.81
561.58	1421.45
561.94	1425.12
562.29	1428.79
562.64	1433.79
563.00	1437.14
563.35	1441.52
563.71	1446.90
564.06	1452.43
564.42	1457.76
564.77	1463.57
565.12	1469.12
565.48	1476.29
565.83	1482.00
566.19	1487.43
566.54	1493.48
566.89	1498.60
567.25	1504.79
567.60	1512.74
567.96	1520.86
568.31	1528.05
568.66	1533.81
569.02	1538.10
569.37	1543.19
569.72	1549.12
570.08	1554.71
570.43	1559.64
570.78	1566.14
571.14	1570.86
571.49	1575.69
571.84	1581.43
572.20	1585.67
572.55	1590.60
572.90	1594.55
573.26	1598.69
573.61	1603.24
573.96	1608.10
574.31	1612.26
574.67	1616.45
575.02	1619.14
575.37	1620.95
575.72	1623.79
576.08	1627.21
576.43	1631.52
576.78	1635.71
577.13	1638.76
577.49	1641.81
577.84	1646.38
578.19	1649.17
578.54	1653.69
578.90	1657.62
579.25	1662.31
579.60	1665.83
579.95	1668.14
580.30	1671.55
580.66	1675.86
581.01	1679.86
581.36	1682.55
581.71	1686.33
582.06	1690.90
582.42	1694.45
582.77	1697.14
583.12	1699.81
583.47	1702.81
583.82	1705.19
584.17	1708.17
584.53	1712.52
584.88	1717.17
585.23	1720.43
585.58	1723.55
585.93	1725.14
586.28	1728.21
586.63	1730.05
586.98	1732.40
587.34	1737.26
587.69	1740.40
588.04	1742.29
588.39	1743.90
588.74	1744.69
589.09	1746.74
589.44	1746.33
589.79	1749.24
590.14	1752.00
590.49	1753.69
590.84	1754.60
591.19	1756.43
591.54	1757.86
591.89	1757.36
592.25	1759.33
592.60	1760.45
592.95	1762.02
593.30	1763.52
593.65	1764.17
594.00	1765.10
594.35	1772.57
594.70	1771.69
595.05	1772.86
595.40	1774.00
595.75	1773.79
596.10	1776.14
596.45	1777.10
596.80	1778.86
597.15	1778.60
597.50	1778.55
597.85	1779.86
598.19	1781.07
598.54	1781.17
598.89	1781.93
599.24	1784.36
599.59	1783.29
599.94	1783.31
600.29	1784.21
600.64	1784.86
600.99	1785.33
601.34	1785.60
601.69	1779.29
602.04	1778.79
602.39	1777.29
602.74	1777.33
603.08	1777.43
603.43	1777.90
603.78	1776.98
604.13	1776.69
604.48	1776.26
604.83	1776.19
605.18	1775.62
605.53	1775.83
605.87	1774.81
606.22	1774.05
606.57	1772.17
606.92	1770.69
607.27	1770.36
607.62	1768.57
607.96	1767.55
608.31	1767.50
608.66	1766.17
609.01	1764.21
609.36	1764.17
609.70	1763.26
610.05	1761.38
610.40	1760.38
610.75	1757.26
611.10	1755.81
611.44	1753.48
611.79	1751.55
612.14	1748.76
612.49	1744.86
612.83	1741.69
613.18	1739.79
613.53	1736.90
613.88	1733.29
614.22	1730.02
614.57	1725.90
614.92	1722.62
615.27	1718.90
615.61	1713.76
615.96	1710.21
616.31	1707.19
616.65	1705.00
617.00	1701.17
617.35	1697.81
617.70	1694.31
618.04	1690.90
618.39	1686.98
618.74	1683.88
619.08	1679.86
619.43	1676.62
619.78	1674.95
620.12	1671.60
620.47	1668.14
620.82	1663.79
621.16	1660.12
621.51	1657.14
621.85	1652.19
622.20	1647.40
622.55	1643.17
622.89	1640.57
623.24	1637.26
623.59	1633.05
623.93	1627.98
624.28	1624.83
624.62	1622.57
624.97	1619.81
625.32	1616.71
625.66	1612.83
626.01	1607.55
626.35	1603.79
626.70	1599.90
627.04	1595.71
627.39	1591.98
627.73	1588.57
628.08	1585.88
628.43	1582.05
628.77	1577.57
629.12	1575.43
629.46	1573.36
629.81	1569.71
630.15	1563.67
630.50	1558.62
630.84	1554.19
631.19	1549.19
631.53	1543.93
631.88	1536.88
632.22	1530.76
632.57	1526.26
632.91	1521.05
633.26	1517.67
633.60	1512.45
633.95	1506.55
634.29	1501.02
634.64	1496.12
634.98	1490.48
635.32	1485.88
635.67	1482.17
636.01	1477.69
636.36	1472.12
636.70	1467.43
637.05	1462.86
637.39	1460.36
637.73	1456.52
638.08	1453.50
638.42	1449.02
638.77	1445.26
639.11	1441.55
639.45	1436.83
639.80	1431.14
640.14	1426.40
640.49	1421.33
640.83	1415.40
641.17	1412.12
641.52	1406.98
641.86	1401.45
642.20	1397.12
642.55	1390.95
642.89	1385.38
643.23	1380.52
643.58	1376.07
643.92	1369.24
644.26	1363.21
644.61	1357.26
644.95	1351.81
645.29	1345.19
645.64	1340.05
645.98	1333.40
646.32	1327.33
646.66	1320.83
647.01	1315.21
647.35	1310.57
647.69	1304.21
648.04	1299.79
648.38	1293.29
648.72	1288.14
649.06	1282.69
649.41	1275.24
649.75	1269.40
650.09	1262.95
650.43	1255.50
650.78	1248.21
651.12	1241.86
651.46	1235.64
651.80	1228.24
652.14	1220.98
652.49	1215.48
652.83	1208.55
653.17	1201.95
653.51	1194.88
653.85	1189.33
654.20	1183.19
654.54	1175.17
654.88	1168.71
655.22	1162.10
655.56	1155.24
655.90	1148.17
656.25	1141.48
656.59	1135.88
656.93	1129.14
657.27	1123.76
657.61	1118.00
657.95	1112.71
658.29	1106.95
658.64	1101.69
658.98	1095.52
659.32	1088.86
659.66	1082.00
660.00	1075.81
660.34	1069.55
660.68	1064.24
661.02	1057.29
661.36	1050.83
661.70	1045.40
662.05	1039.45
662.39	1033.29
662.73	1027.50
663.07	1022.69
663.41	1016.40
663.75	1009.86
664.09	1003.88
664.43	997.05
664.77	990.57
665.11	983.50
665.45	977.05
665.79	969.71
666.13	963.29
666.47	957.40
666.81	951.07
667.15	944.62
667.49	939.19
667.83	933.69
668.17	928.69
668.51	923.14
668.85	917.88
669.19	913.14
669.53	906.40
669.87	900.19
670.21	893.67
670.55	888.02
670.89	883.55
671.23	878.43
671.57	873.19
671.91	868.45
672.25	863.40
672.58	859.36
672.92	854.36
673.26	849.62
673.60	844.38
673.94	839.79
674.28	835.02
674.62	830.29
674.96	825.07
675.30	819.71
675.64	813.88
675.97	808.55
676.31	802.33
676.65	798.02
676.99	794.29
677.33	788.69
677.67	783.43
678.01	777.81
678.34	772.67
678.68	768.36
679.02	762.81
679.36	757.48
679.70	751.50
680.04	746.57
680.37	741.86
680.71	737.45
681.05	732.81
681.39	727.86
681.73	723.00
682.06	717.14
682.40	712.48
682.74	708.86
683.08	704.52
683.42	699.36
683.75	694.60
684.09	688.95
684.43	684.36
684.77	679.64
685.10	674.62
685.44	670.21
685.78	665.10
686.12	660.83
686.45	656.60
686.79	652.00
687.13	648.45
687.46	643.57
687.80	639.76
688.14	634.36
688.48	630.45
688.81	626.17
689.15	622.67
689.49	617.93
689.82	612.93
690.16	608.00
690.50	604.17
690.83	600.17
691.17	595.29
691.51	591.10
691.84	587.17
692.18	583.31
692.52	579.10
692.85	574.90
693.19	571.81
693.52	567.64
693.86	563.36
694.20	558.79
694.53	555.14
694.87	550.71
695.21	547.19
695.54	543.12
695.88	538.17
696.21	533.45
696.55	529.52
696.88	525.88
697.22	522.14
697.56	518.88
697.89	514.71
698.23	511.83
698.56	508.52
698.90	505.14
699.23	501.10
699.57	497.48
699.90	493.98
700.24	489.64
700.58	486.31
700.91	483.29
701.25	481.69
701.58	479.43
701.92	476.86
702.25	473.93
702.59	470.62
702.92	467.88
703.26	465.55
703.59	463.07
703.93	461.98
704.26	459.29
704.60	456.40
704.93	453.50
705.26	450.79
705.60	448.26
705.93	445.19
706.27	443.33
706.60	441.19
706.94	439.31
707.27	436.40
707.61	433.98
707.94	431.43
708.27	427.02
708.61	423.21
708.94	420.26
709.28	417.90
709.61	415.26
709.94	412.90
710.28	410.31
710.61	408.02
710.95	403.69
711.28	402.57
711.61	400.43
711.95	398.79
712.28	396.31
712.61	393.88
712.95	392.95
713.28	391.38
713.61	388.67
713.95	385.81
714.28	383.98
714.61	381.62
714.95	379.69
715.28	377.31
715.61	375.33
715.95	373.36
716.28	370.98
716.61	369.62
716.95	367.79
717.28	366.05
717.61	363.55
717.94	361.83
718.28	358.67
718.61	356.48
718.94	354.40
719.27	352.60
719.61	350.71
719.94	348.24
720.27	345.60
720.60	343.83
720.94	342.24
721.27	340.88
721.60	339.67
721.93	337.81
722.27	337.05
722.60	335.95
722.93	334.24
723.26	332.98
723.59	330.93
723.93	329.67
724.26	328.40
724.59	327.19
724.92	325.74
725.25	324.93
725.59	323.64
725.92	322.52
726.25	321.57
726.58	320.33
726.91	319.24
727.24	318.02
727.57	316.88
727.91	315.19
728.24	313.81
728.57	312.38
728.90	311.43
729.23	309.76
729.56	309.43
729.89	308.33
730.22	306.79
730.55	305.81
730.89	304.86
731.22	303.67
731.55	302.57
731.88	301.69
732.21	300.24
732.54	298.95
732.87	297.93
733.20	296.86
733.53	295.98
733.86	295.05
734.19	293.95
734.52	293.48
734.85	294.10
735.18	293.05
735.51	292.95
735.84	292.33
736.17	292.33
736.50	290.52
736.83	292.00
737.16	291.62
737.49	290.98
737.82	290.17
738.15	289.64
738.48	288.86
738.81	287.52
739.14	286.31
739.47	285.52
739.80	284.57
740.13	283.74
740.46	282.86
740.79	281.52
741.12	280.79
741.45	279.45
741.78	277.90
742.11	277.55
742.44	276.21
742.77	275.52
743.10	274.12
743.43	272.98
743.75	269.93
744.08	271.52
744.41	270.48
744.74	269.55
745.07	268.05
745.40	267.81
745.73	268.17
746.06	267.62
746.39	267.24
746.71	266.50
747.04	265.55
747.37	264.64
747.70	264.48
748.03	263.90
748.36	263.64
748.68	262.55
749.01	261.50
749.34	261.00
749.67	260.43
750.00	260.52
750.33	261.81
750.65	261.29
750.98	258.29
751.31	257.74
751.64	257.26
751.97	258.31
752.29	257.45
752.62	256.10
752.95	255.69
753.28	255.05
753.60	254.52
753.93	254.69
754.26	254.52
754.59	253.74
754.91	253.02
755.24	252.45
755.57	252.10
755.90	251.43
756.22	250.79
756.55	250.14
756.88	248.79
757.20	247.12
757.53	246.40
757.86	246.02
758.19	245.95
758.51	245.50
758.84	243.71
759.17	243.21
759.49	243.12
759.82	243.50
760.15	243.33
760.47	242.93
760.80	241.93
761.13	241.86
761.45	241.40
761.78	240.98
762.11	240.55
762.43	240.31
762.76	240.38
763.08	240.31
763.41	240.00
763.74	240.07
764.06	239.57
764.39	239.10
764.71	238.60
765.04	238.02
765.37	237.50
765.69	237.31
766.02	236.88
766.34	236.10
766.67	235.40
767.00	235.21
767.32	235.90
767.65	237.00
767.97	236.45
768.30	236.26
768.62	236.19
768.95	235.64
769.27	235.24
769.60	235.07
769.92	234.55
770.25	233.71
770.57	233.05
770.90	232.71
771.22	232.57
771.55	232.50
771.87	232.64
772.20	232.48
772.52	234.02
772.85	236.43
773.17	236.50
773.50	236.05
773.82	235.55
774.15	234.33
774.47	232.86
774.80	232.55
775.12	232.21
775.45	232.02
775.77	231.95
776.09	231.83
776.42	231.52
776.74	231.93
777.07	231.83
777.39	231.74
777.72	231.69
778.04	231.69
778.36	231.21
778.69	230.88
779.01	230.81
779.33	228.95
779.66	226.60
779.98	226.19
780.31	226.10
780.63	227.02
780.95	227.31
781.28	227.05
781.60	226.71
781.92	226.48
782.25	226.33
782.57	226.19
782.89	225.57
783.22	225.40
783.54	224.67
783.86	224.88
784.19	224.81
784.51	225.05
784.83	224.55
785.16	224.21
785.48	224.07
785.80	223.83
786.12	223.71
786.45	223.50
786.77	223.50
787.09	223.17
787.42	222.24
787.74	222.33
788.06	222.38
788.38	222.31
788.71	222.33
789.03	222.14
789.35	222.29
789.67	222.12
789.99	221.86
790.32	221.67
790.64	221.88
790.96	223.43
791.28	222.79
791.61	222.64
791.93	222.98
792.25	222.83
792.57	224.36
792.89	223.88
793.21	223.76
793.54	223.60
793.86	223.52
794.18	223.43
794.50	222.95
794.82	222.90
795.14	223.14
795.47	223.29
795.79	223.31
796.11	222.98
796.43	222.98
796.75	223.17
797.07	223.14
797.39	222.90
797.71	221.31
798.04	221.40
798.36	221.62
798.68	221.50
799.00	221.48
799.32	220.02
799.64	220.64
799.96	220.76
800.28	221.21
800.60	220.86
800.92	221.19
801.24	221.00
801.56	220.83
801.89	220.62
802.21	220.81
802.53	220.60
802.85	220.76
803.17	221.81
803.49	221.50
803.81	221.29
804.13	221.02
804.45	220.76
804.77	220.88
805.09	220.67
805.41	220.48
805.73	220.19
806.05	219.71
806.37	219.33
806.69	218.88
807.01	218.74
807.33	218.98
807.65	218.02
807.97	219.00
808.28	219.02
808.60	218.83
808.92	218.24
809.24	219.36
809.56	219.02
809.88	218.33
810.20	218.33
810.52	218.88
810.84	218.52
811.16	218.17
811.48	217.79
811.80	218.50
812.12	218.52
812.43	218.64
812.75	219.12
813.07	218.90
813.39	219.12
813.71	218.64
814.03	218.24
814.35	218.31
814.67	217.02
814.98	216.71
815.30	216.62
815.62	216.36
815.94	214.93
816.26	214.98
816.58	214.40
816.89	214.36
817.21	213.69
817.53	213.79
817.85	214.02
818.17	214.02
818.48	213.24
818.80	213.48
819.12	213.24
819.44	212.74
819.76	212.52
820.07	212.57
820.39	212.55
820.71	212.88
821.03	212.69
821.34	212.69
821.66	213.21
821.98	213.69
822.30	213.64
822.61	214.90
822.93	214.52
823.25	214.57
823.57	214.43
823.88	214.88
824.20	214.79
824.52	215.19
824.83	215.19
825.15	215.12
825.47	215.00
825.79	215.19
826.10	215.10
826.42	215.17
826.74	215.45
827.05	215.29
827.37	215.33
827.69	215.60
828.00	215.81
828.32	215.40
828.64	214.98
828.95	216.12
829.27	215.50
829.58	215.76
829.90	216.19
830.22	216.26
830.53	215.88
830.85	215.76
831.17	215.12
831.48	214.81
831.80	214.76
832.11	214.36
832.43	214.10
832.75	214.17
833.06	215.43
833.38	214.43
833.69	214.40
834.01	214.55
834.32	214.36
834.64	214.19
834.96	214.07
835.27	213.95
835.59	213.33
835.90	212.86
836.22	212.67
836.53	212.33
836.85	212.24
837.16	214.29
837.48	214.38
837.79	215.10
838.11	215.50
838.42	215.52
838.74	216.07
839.05	216.12
839.37	216.00
839.68	214.48
840.00	214.60
840.31	215.05
840.63	214.74
840.94	214.69
841.26	214.26
841.57	214.36
841.88	214.57
842.20	214.40
842.51	214.45
842.83	214.64
843.14	216.31
843.46	216.52
843.77	215.48
844.08	215.40
844.40	214.67
844.71	214.48
845.03	214.36
845.34	213.98
845.65	213.98
845.97	213.83
846.28	214.24
846.60	214.24
846.91	213.57
847.22	213.64
847.54	214.07
847.85	214.57
848.16	214.36
848.48	213.98
848.79	214.43
849.10	214.60
849.42	214.52
849.73	212.60
850.04	212.33
850.36	211.36
850.67	211.83
850.98	212.12
851.30	212.19
851.61	212.31
851.92	212.52
852.23	213.10
852.55	213.36
852.86	213.33
853.17	213.62
853.49	214.31
853.80	214.55
854.11	214.57
854.42	214.76
854.74	214.74
855.05	214.95
855.36	214.07
855.67	214.17
855.99	214.36
856.30	216.79
856.61	216.86
856.92	217.05
857.23	216.83
857.55	216.60
857.86	216.40
858.17	216.67
858.48	216.14
858.79	215.45
859.11	215.52
859.42	215.02
859.73	214.93
860.04	214.90
860.35	214.50
860.66	213.86
860.98	213.88
861.29	214.00
861.60	213.98
861.91	214.36
862.22	213.86
862.53	213.57
862.84	211.10
863.16	211.71
863.47	211.43
863.78	211.26
864.09	211.26
864.40	211.55
864.71	211.33
865.02	211.62
865.33	211.57
865.64	211.29
865.95	211.60
866.27	213.00
866.58	212.64
866.89	212.67
867.20	212.67
867.51	212.26
867.82	212.43
868.13	213.19
868.44	212.79
868.75	213.40
869.06	213.38
869.37	213.79
869.68	212.93
869.99	213.31
870.30	213.45
870.61	213.64
870.92	213.24
871.23	213.14
871.54	213.36
871.85	213.93
872.16	214.29
872.47	214.17
872.78	212.93
873.09	213.19
873.40	213.21
873.71	213.52
874.02	213.67
874.33	213.40
874.64	212.62
874.95	213.10
875.26	212.69
875.56	212.55
875.87	212.38
876.18	212.48
876.49	214.26
876.80	213.86
877.11	213.52
877.42	213.45
877.73	213.57
878.04	213.48
878.35	213.67
878.66	213.64
878.96	213.64
879.27	213.62
879.58	213.64
879.89	213.52
880.20	213.76
880.51	213.64
880.82	213.81
881.12	213.90
881.43	213.45
881.74	213.17
882.05	213.17
882.36	213.43
882.67	213.74
882.97	211.60
883.28	211.79
883.59	211.81
883.90	212.26
884.21	212.55
884.51	212.38
884.82	211.98
885.13	211.90
885.44	211.74
885.74	211.69
886.05	211.38
886.36	211.40
886.67	210.76
886.98	211.83
887.28	212.10
887.59	211.95
887.90	212.02
888.20	212.19
888.51	212.64
888.82	212.31
889.13	212.07
889.43	213.88
889.74	213.88
890.05	213.86
890.35	213.50
890.66	213.07
890.97	213.00
891.28	212.52
891.58	212.71
891.89	212.88
892.20	212.43
892.50	212.36
892.81	212.31
893.12	212.69
893.42	211.79
893.73	211.76
894.04	211.93
894.34	212.12
894.65	212.02
894.95	211.83
895.26	211.88
895.57	212.81
895.87	210.71
896.18	210.98
896.48	211.19
896.79	211.60
897.10	211.93
897.40	211.93
897.71	212.43
898.01	212.07
898.32	212.24
898.63	212.36
898.93	212.69
899.24	212.71
899.54	212.50
899.85	212.19
900.15	211.86
900.46	211.90
900.76	212.19
901.07	212.00
901.38	211.88
901.68	211.93
901.99	211.10
902.29	211.43
902.60	211.24
902.90	211.24
903.21	210.98
903.51	210.71
903.82	211.24
904.12	211.12
904.43	211.21
904.73	211.19
905.03	211.60
905.34	213.12
905.64	212.98
905.95	212.88
906.25	213.07
906.56	212.98
906.86	212.86
907.17	212.62
907.47	213.00
907.77	212.95
908.08	212.62
908.38	212.64
908.69	212.90
908.99	213.24
909.30	213.31
909.60	213.17
909.90	213.33
910.21	212.48
910.51	212.33
910.81	212.50
911.12	212.33
911.42	212.19
911.73	210.21
912.03	210.36
912.33	210.64
912.64	210.26
912.94	210.21
913.24	209.93
913.55	209.83
913.85	209.52
914.15	209.88
914.46	210.17
914.76	209.98
915.06	209.64
915.37	209.24
915.67	209.07
915.97	209.40
916.27	209.10
916.58	209.62
916.88	209.43
917.18	209.36
917.49	211.00
917.79	210.95
918.09	211.45
918.39	212.14
918.70	212.17
919.00	212.40
919.30	213.45
919.60	213.43
919.91	213.12
920.21	213.26
920.51	212.74
920.81	212.74
921.12	212.88
921.42	212.76
921.72	212.88
922.02	212.88
922.32	212.93
922.63	212.81
922.93	213.67
923.23	213.90
923.53	213.52
923.83	212.14
924.13	212.21
924.44	212.24
924.74	212.33
925.04	212.62
925.34	212.64
925.64	212.00
925.94	211.83
926.24	213.10
926.55	212.74
926.85	212.95
927.15	212.88
927.45	213.10
927.75	213.19
928.05	213.38
928.35	213.36
928.65	213.81
928.95	214.02
929.26	213.21
929.56	213.67
929.86	214.02
930.16	213.74
930.46	213.38
930.76	213.36
931.06	212.38
931.36	211.79
931.66	212.21
931.96	212.19
932.26	212.45
932.56	211.48
932.86	211.83
933.16	211.93
933.46	211.67
933.76	211.43
934.06	212.02
934.36	212.76
934.66	212.64
934.96	212.26
935.26	212.36
935.56	212.55
935.86	211.95
936.16	211.69
936.46	211.62
936.76	211.90
937.06	211.50
937.36	211.90
937.66	212.38
937.96	212.17
938.26	211.81
938.56	211.86
938.86	212.21
939.16	212.64
939.46	212.88
939.76	213.36
940.06	213.29
940.35	212.86
940.65	211.76
940.95	211.93
941.25	211.36
941.55	211.43
941.85	211.57
942.15	212.14
942.45	212.64
942.75	212.67
943.04	212.55
943.34	213.14
943.64	212.81
943.94	212.19
944.24	212.36
944.54	212.43
944.84	212.26
945.13	211.83
945.43	211.31
945.73	211.14
946.03	210.71
946.33	210.67
946.62	210.40
946.92	210.38
947.22	210.60
947.52	210.86
947.82	211.05
948.11	210.81
948.41	210.21
948.71	209.81
949.01	209.86
949.31	209.71
949.60	209.55
949.90	209.88
950.20	209.98
950.50	209.98
950.79	209.95
951.09	210.19
951.39	210.21
951.69	210.14
951.98	210.60
952.28	210.93
952.58	210.81
952.87	210.83
953.17	211.05
953.47	210.81
953.76	210.71
954.06	210.40
954.36	209.95
954.66	210.00
954.95	210.74
955.25	210.98
955.55	211.24
955.84	210.67
956.14	210.62
956.44	210.86
956.73	210.36
957.03	210.64
957.32	210.69
957.62	210.57
957.92	211.14
958.21	210.83
958.51	213.02
958.81	213.48
959.10	213.69
959.40	214.02
959.69	214.12
959.99	214.43
960.29	214.45
960.58	214.60
960.88	215.29
961.17	214.69
961.47	214.88
961.76	214.71
962.06	215.31
962.36	215.24
962.65	215.24
962.95	215.62
963.24	215.36
963.54	215.48
963.83	215.79
964.13	215.48
964.42	214.93
964.72	213.33
965.01	213.19
965.31	213.14
965.60	212.71
965.90	213.86
966.19	213.40
966.49	213.38
966.78	213.00
967.08	212.79
967.37	212.98
967.67	212.67
967.96	213.24
968.26	213.26
968.55	213.60
968.85	213.60
969.14	213.33
969.43	213.26
969.73	213.02
970.02	212.76
970.32	212.81
970.61	212.83
970.91	212.00
971.20	211.86
971.49	211.76
971.79	211.88
972.08	210.64
972.38	210.90
972.67	210.81
972.96	211.67
973.26	211.17
973.55	211.86
973.85	211.81
974.14	211.33
974.43	211.29
974.73	210.88
975.02	210.69
975.31	210.79
975.61	210.67
975.90	210.52
976.19	210.64
976.49	210.52
976.78	210.86
977.07	211.05
977.37	211.17
977.66	211.36
977.95	211.10
978.24	211.14
978.54	211.57
978.83	211.55
979.12	211.40
979.42	211.55
979.71	210.74
980.00	210.55
980.29	210.62
980.59	210.31
980.88	210.67
981.17	210.55
981.46	210.38
981.76	210.38
982.05	210.93
982.34	210.98
982.63	211.10
982.93	210.90
983.22	211.60
983.51	211.45
983.80	211.57
984.09	212.02
984.39	212.02
984.68	211.52
984.97	211.57
985.26	211.17
985.55	211.14
985.85	211.12
986.14	211.67
986.43	211.83
986.72	211.71
987.01	211.12
987.30	211.14
987.59	211.07
987.89	211.26
988.18	210.76
988.47	210.55
988.76	210.43
989.05	210.36
989.34	210.00
989.63	210.74
989.92	210.38
990.22	210.05
990.51	209.86
990.80	209.93
991.09	210.05
991.38	210.10
991.67	210.14
991.96	209.86
992.25	209.64
992.54	209.36
992.83	209.24
993.12	209.33
993.41	209.90
993.70	210.88
993.99	211.36
994.28	211.86
994.58	211.83
994.87	211.67
995.16	211.71
995.45	211.17
995.74	210.36
996.03	210.81
996.32	211.00
996.61	211.36
996.90	211.33
997.19	211.29
997.48	211.64
997.77	211.45
998.06	211.60
998.34	211.43
998.63	211.74
998.92	211.86
999.21	212.14
999.50	212.00
999.79	211.31
1000.08	211.12
1000.37	210.93
1000.66	211.02
1000.95	211.52
1001.24	211.62
1001.53	212.05
1001.82	212.02
1002.11	211.24
1002.40	211.50
1002.68	212.07
1002.97	213.50
1003.26	213.07
1003.55	212.52
1003.84	212.57
1004.13	213.31
1004.42	213.33
1004.71	213.00
1004.99	213.07
1005.28	213.60
1005.57	213.43
1005.86	212.88
1006.15	212.74
1006.44	212.52
1006.72	212.67
1007.01	212.45
1007.30	212.36
1007.59	212.26
1007.88	212.33
1008.17	212.93
1008.45	212.55
1008.74	211.74
1009.03	210.76
1009.32	211.12
1009.60	211.29
1009.89	211.21
1010.18	210.29
1010.47	210.05
1010.76	210.12
1011.04	210.12
1011.33	210.14
1011.62	210.31
1011.91	210.81
1012.19	210.83
1012.48	210.74
1012.77	210.83
1013.05	211.93
1013.34	211.98
1013.63	211.71
1013.92	211.88
1014.20	211.26
1014.49	211.36
1014.78	211.40
1015.06	210.79
1015.35	210.64
1015.64	210.74
1015.92	210.93
1016.21	211.33
1016.50	211.33
1016.78	211.57
1017.07	211.64
1017.36	210.93
1017.64	210.62
1017.93	210.83
1018.22	210.69
1018.50	210.69
1018.79	210.57
1019.08	209.29
1019.36	209.50
1019.65	209.36
1019.93	209.76
1020.22	210.48
1020.51	211.48
1020.79	211.43
1021.08	209.00
1021.36	207.00
1021.65	211.50
1021.94	208.50
1022.22	213.00
1022.51	204.50
1022.79	220.50
1023.08	215.50
1023.36	234.50
1023.65	208.00
>>>>>End Processed Spectral Data<<<<<
