SpectraSuite Data File
++++++++++++++++++++++++++++++++++++
Date: Tue Apr 02 18:46:13 EDT 2013
User: group
Dark Spectrum Present: No
Reference Spectrum Present: No
Number of Sampled Component Spectra: 1
Spectrometers: USB2E7196
Integration Time (usec): 580000 (USB2E7196)
Spectra Averaged: 2 (USB2E7196)
Boxcar Smoothing: 10 (USB2E7196)
Correct for Electrical Dark: No (USB2E7196)
Strobe/Lamp Enabled: No (USB2E7196)
Correct for Detector Non-linearity: No (USB2E7196)
Correct for Stray Light: No (USB2E7196)
Number of Pixels in Processed Spectrum: 2048
>>>>>Begin Processed Spectral Data<<<<<
339.09	0.00
339.48	194.00
339.86	195.00
340.24	194.00
340.63	197.00
341.01	228.50
341.39	204.50
341.78	212.00
342.16	212.50
342.54	208.50
342.93	198.43
343.31	208.10
343.69	208.64
344.07	209.12
344.46	210.26
344.84	210.95
345.22	209.88
345.60	210.17
345.99	210.31
346.37	210.26
346.75	210.19
347.13	210.33
347.52	210.33
347.90	211.05
348.28	210.90
348.66	211.45
349.05	210.83
349.43	211.36
349.81	211.64
350.19	211.83
350.57	212.10
350.96	212.29
351.34	212.71
351.72	212.79
352.10	213.12
352.48	212.81
352.87	212.81
353.25	213.05
353.63	213.02
354.01	212.74
354.39	212.76
354.77	212.98
355.15	213.45
355.54	213.45
355.92	212.81
356.30	213.17
356.68	214.24
357.06	214.33
357.44	213.76
357.82	213.57
358.20	214.38
358.58	214.29
358.97	214.24
359.35	214.74
359.73	215.12
360.11	214.90
360.49	214.86
360.87	214.88
361.25	215.05
361.63	215.71
362.01	215.88
362.39	215.62
362.77	215.69
363.15	215.71
363.53	215.79
363.91	215.81
364.29	215.55
364.67	213.62
365.05	213.62
365.43	213.90
365.81	214.26
366.19	214.29
366.57	214.86
366.95	214.67
367.33	213.98
367.71	214.14
368.09	214.60
368.47	214.45
368.85	214.31
369.23	214.90
369.61	214.26
369.99	214.86
370.37	215.29
370.75	216.26
371.13	215.48
371.51	215.17
371.89	215.60
372.27	215.83
372.65	216.05
373.03	216.17
373.41	216.05
373.78	215.88
374.16	214.86
374.54	214.38
374.92	214.21
375.30	214.31
375.68	213.79
376.06	213.88
376.44	213.86
376.82	213.83
377.19	213.52
377.57	213.29
377.95	212.74
378.33	212.45
378.71	211.07
379.09	211.60
379.47	211.69
379.84	211.45
380.22	211.19
380.60	210.95
380.98	210.74
381.36	210.74
381.73	210.29
382.11	210.79
382.49	210.81
382.87	210.74
383.25	210.76
383.62	213.26
384.00	212.76
384.38	213.00
384.76	213.76
385.13	214.38
385.51	214.57
385.89	214.29
386.27	214.64
386.64	215.02
387.02	214.98
387.40	214.95
387.78	215.12
388.15	215.40
388.53	215.10
388.91	215.14
389.29	214.98
389.66	215.45
390.04	215.02
390.42	215.40
390.79	215.69
391.17	215.74
391.55	213.48
391.92	213.69
392.30	213.81
392.68	213.14
393.05	213.10
393.43	213.12
393.81	213.43
394.18	213.10
394.56	213.48
394.94	213.86
395.31	213.79
395.69	214.45
396.06	214.60
396.44	215.05
396.82	215.02
397.19	216.26
397.57	216.33
397.95	217.05
398.32	216.50
398.70	216.79
399.07	216.98
399.45	216.88
399.82	216.60
400.20	216.36
400.58	216.43
400.95	215.74
401.33	216.29
401.70	217.64
402.08	217.57
402.45	217.48
402.83	217.93
403.20	218.24
403.58	217.81
403.95	218.24
404.33	218.48
404.71	219.00
405.08	220.14
405.46	220.26
405.83	220.31
406.21	220.95
406.58	221.17
406.96	221.60
407.33	222.10
407.70	222.98
408.08	225.40
408.45	226.26
408.83	227.21
409.20	227.60
409.58	227.07
409.95	228.52
410.33	229.57
410.70	229.88
411.08	231.02
411.45	232.10
411.82	232.95
412.20	234.55
412.57	236.79
412.95	236.14
413.32	238.05
413.69	239.48
414.07	241.00
414.44	242.79
414.82	244.79
415.19	247.38
415.56	249.64
415.94	250.64
416.31	253.62
416.68	256.36
417.06	259.71
417.43	263.40
417.81	266.64
418.18	270.10
418.55	274.05
418.93	277.98
419.30	282.00
419.67	286.57
420.04	290.98
420.42	295.10
420.79	302.19
421.16	307.93
421.54	314.69
421.91	321.17
422.28	327.19
422.66	333.12
423.03	340.86
423.40	347.57
423.77	354.45
424.15	361.05
424.52	369.00
424.89	377.57
425.26	385.31
425.64	393.29
426.01	401.50
426.38	410.00
426.75	419.48
427.13	428.62
427.50	438.02
427.87	447.67
428.24	457.69
428.61	466.55
428.99	477.50
429.36	487.93
429.73	498.62
430.10	509.71
430.47	522.14
430.85	532.45
431.22	545.00
431.59	560.48
431.96	573.67
432.33	587.26
432.70	600.67
433.08	616.14
433.45	630.50
433.82	645.43
434.19	662.29
434.56	678.55
434.93	694.02
435.30	709.69
435.68	727.29
436.05	744.95
436.42	761.43
436.79	776.90
437.16	794.19
437.53	812.14
437.90	830.19
438.27	847.88
438.64	865.95
439.01	883.31
439.38	896.17
439.75	910.33
440.13	927.17
440.50	942.64
440.87	955.26
441.24	968.83
441.61	983.48
441.98	994.36
442.35	1006.90
442.72	1020.14
443.09	1033.38
443.46	1041.12
443.83	1045.67
444.20	1050.29
444.57	1056.48
444.94	1059.38
445.31	1062.64
445.68	1068.45
446.05	1069.67
446.42	1068.33
446.79	1067.17
447.16	1064.98
447.53	1064.36
447.90	1058.43
448.27	1051.55
448.64	1043.36
449.01	1037.10
449.37	1026.14
449.74	1015.36
450.11	1003.88
450.48	989.69
450.85	973.50
451.22	961.40
451.59	949.86
451.96	938.38
452.33	922.95
452.70	909.07
453.07	892.38
453.43	872.81
453.80	856.43
454.17	840.64
454.54	824.90
454.91	809.45
455.28	793.60
455.65	778.24
456.02	767.26
456.38	754.33
456.75	738.95
457.12	726.14
457.49	713.17
457.86	699.21
458.23	689.07
458.59	677.83
458.96	665.31
459.33	655.02
459.70	644.64
460.07	636.17
460.43	626.52
460.80	617.90
461.17	610.95
461.54	602.74
461.91	595.14
462.27	587.00
462.64	579.83
463.01	572.05
463.38	565.64
463.74	555.19
464.11	549.12
464.48	543.45
464.85	536.48
465.21	531.95
465.58	526.60
465.95	519.62
466.32	515.17
466.68	510.21
467.05	504.52
467.42	499.67
467.78	494.10
468.15	488.95
468.52	485.00
468.88	478.76
469.25	474.10
469.62	471.10
469.98	467.50
470.35	464.17
470.72	461.02
471.08	456.50
471.45	453.67
471.82	450.79
472.18	447.12
472.55	445.21
472.92	441.95
473.28	439.31
473.65	436.62
474.02	433.86
474.38	431.86
474.75	430.02
475.11	427.71
475.48	426.17
475.85	425.19
476.21	423.57
476.58	422.83
476.94	421.79
477.31	419.95
477.67	418.38
478.04	417.24
478.41	416.43
478.77	417.83
479.14	416.55
479.50	416.02
479.87	416.10
480.23	415.83
480.60	415.07
480.96	414.45
481.33	415.36
481.69	415.10
482.06	415.05
482.42	415.31
482.79	415.74
483.15	416.21
483.52	416.88
483.88	417.10
484.25	417.48
484.61	418.17
484.98	418.95
485.34	420.86
485.71	422.64
486.07	423.57
486.44	423.14
486.80	424.95
487.17	426.29
487.53	428.83
487.90	430.83
488.26	434.33
488.62	437.86
488.99	439.40
489.35	442.40
489.72	445.05
490.08	447.55
490.44	450.12
490.81	453.64
491.17	456.21
491.54	460.02
491.90	463.83
492.26	467.55
492.63	471.48
492.99	474.76
493.36	478.81
493.72	483.83
494.08	488.43
494.45	493.45
494.81	498.76
495.17	503.29
495.54	508.55
495.90	512.50
496.26	516.86
496.63	523.10
496.99	528.05
497.35	533.83
497.72	539.86
498.08	546.17
498.44	552.02
498.80	558.88
499.17	565.10
499.53	571.12
499.89	577.90
500.26	584.07
500.62	590.95
500.98	598.02
501.34	604.19
501.71	611.57
502.07	618.40
502.43	625.07
502.79	631.81
503.16	638.60
503.52	646.29
503.88	653.07
504.24	659.90
504.60	667.52
504.97	675.02
505.33	682.69
505.69	690.71
506.05	697.81
506.41	705.00
506.78	712.57
507.14	720.55
507.50	728.21
507.86	736.24
508.22	744.10
508.59	751.38
508.95	759.60
509.31	768.40
509.67	776.76
510.03	784.50
510.39	792.60
510.75	800.19
511.12	807.81
511.48	815.88
511.84	823.67
512.20	831.26
512.56	839.31
512.92	846.83
513.28	853.95
513.64	861.71
514.00	869.90
514.37	877.60
514.73	884.83
515.09	892.69
515.45	899.74
515.81	905.95
516.17	912.95
516.53	919.36
516.89	924.76
517.25	931.00
517.61	937.67
517.97	943.52
518.33	950.29
518.69	957.05
519.05	963.79
519.41	970.55
519.77	978.21
520.13	983.45
520.49	988.52
520.85	993.88
521.21	1000.76
521.57	1006.24
521.93	1010.98
522.29	1015.90
522.65	1020.33
523.01	1025.98
523.37	1031.45
523.73	1036.29
524.09	1041.31
524.45	1046.24
524.81	1051.12
525.17	1055.93
525.53	1061.05
525.89	1065.45
526.25	1070.33
526.61	1074.33
526.97	1077.24
527.33	1080.67
527.68	1087.00
528.04	1091.79
528.40	1096.05
528.76	1099.33
529.12	1103.21
529.48	1108.12
529.84	1112.71
530.20	1117.19
530.56	1121.19
530.91	1125.69
531.27	1130.14
531.63	1134.17
531.99	1137.12
532.35	1140.45
532.71	1144.14
533.07	1148.40
533.42	1154.62
533.78	1157.95
534.14	1162.43
534.50	1166.81
534.86	1171.62
535.21	1173.81
535.57	1178.71
535.93	1183.02
536.29	1188.02
536.65	1191.40
537.00	1194.50
537.36	1197.64
537.72	1201.71
538.08	1205.43
538.44	1208.55
538.79	1211.74
539.15	1215.31
539.51	1219.38
539.87	1222.98
540.22	1226.45
540.58	1229.50
540.94	1230.50
541.29	1233.95
541.65	1236.14
542.01	1239.76
542.37	1241.83
542.72	1244.26
543.08	1245.62
543.44	1248.57
543.79	1249.81
544.15	1252.81
544.51	1256.12
544.87	1259.50
545.22	1261.67
545.58	1264.38
545.94	1266.81
546.29	1269.26
546.65	1271.67
547.01	1274.17
547.36	1277.00
547.72	1279.67
548.07	1282.62
548.43	1284.19
548.79	1286.74
549.14	1289.12
549.50	1291.83
549.86	1293.33
550.21	1296.21
550.57	1299.17
550.92	1300.64
551.28	1304.00
551.64	1306.26
551.99	1308.93
552.35	1311.21
552.70	1314.00
553.06	1316.79
553.41	1320.19
553.77	1324.64
554.13	1328.26
554.48	1332.98
554.84	1337.71
555.19	1341.83
555.55	1346.45
555.90	1351.31
556.26	1354.43
556.61	1357.71
556.97	1360.67
557.32	1364.81
557.68	1368.98
558.03	1373.07
558.39	1378.29
558.74	1381.33
559.10	1386.14
559.45	1390.50
559.81	1394.86
560.16	1398.12
560.52	1402.48
560.87	1407.45
561.23	1410.33
561.58	1415.93
561.94	1418.93
562.29	1421.83
562.64	1426.14
563.00	1428.83
563.35	1433.33
563.71	1438.57
564.06	1444.31
564.42	1449.45
564.77	1455.98
565.12	1461.45
565.48	1468.29
565.83	1473.52
566.19	1479.52
566.54	1484.76
566.89	1489.24
567.25	1495.74
567.60	1503.48
567.96	1510.12
568.31	1516.26
568.66	1522.19
569.02	1527.17
569.37	1532.64
569.72	1538.57
570.08	1543.02
570.43	1549.26
570.78	1554.62
571.14	1559.95
571.49	1565.31
571.84	1570.79
572.20	1574.98
572.55	1579.90
572.90	1583.10
573.26	1587.60
573.61	1592.14
573.96	1596.55
574.31	1601.69
574.67	1605.60
575.02	1608.40
575.37	1611.12
575.72	1613.50
576.08	1618.29
576.43	1620.50
576.78	1624.07
577.13	1627.50
577.49	1632.02
577.84	1635.57
578.19	1639.90
578.54	1644.02
578.90	1648.57
579.25	1652.21
579.60	1655.26
579.95	1658.60
580.30	1662.90
580.66	1667.67
581.01	1671.29
581.36	1674.26
581.71	1677.81
582.06	1682.26
582.42	1686.02
582.77	1689.52
583.12	1693.07
583.47	1696.31
583.82	1700.60
584.17	1704.52
584.53	1708.74
584.88	1711.71
585.23	1715.62
585.58	1717.43
585.93	1719.12
586.28	1721.31
586.63	1724.69
586.98	1728.19
587.34	1731.74
587.69	1733.83
588.04	1735.48
588.39	1737.24
588.74	1739.24
589.09	1742.38
589.44	1742.29
589.79	1744.33
590.14	1746.50
590.49	1748.36
590.84	1749.07
591.19	1751.10
591.54	1752.81
591.89	1754.40
592.25	1757.50
592.60	1757.76
592.95	1759.88
593.30	1762.55
593.65	1763.31
594.00	1763.07
594.35	1769.40
594.70	1769.98
595.05	1771.60
595.40	1772.24
595.75	1775.07
596.10	1777.55
596.45	1778.60
596.80	1780.83
597.15	1782.57
597.50	1783.71
597.85	1785.95
598.19	1786.62
598.54	1787.40
598.89	1787.60
599.24	1788.79
599.59	1788.40
599.94	1788.86
600.29	1789.55
600.64	1789.90
600.99	1791.02
601.34	1792.29
601.69	1787.40
602.04	1786.52
602.39	1785.86
602.74	1786.90
603.08	1785.48
603.43	1786.40
603.78	1785.10
604.13	1784.36
604.48	1782.74
604.83	1782.48
605.18	1781.90
605.53	1782.40
605.87	1781.29
606.22	1781.21
606.57	1779.55
606.92	1777.93
607.27	1777.62
607.62	1777.19
607.96	1775.48
608.31	1775.05
608.66	1774.24
609.01	1771.60
609.36	1771.33
609.70	1770.45
610.05	1768.14
610.40	1767.19
610.75	1763.67
611.10	1762.62
611.44	1760.48
611.79	1759.67
612.14	1757.50
612.49	1753.43
612.83	1750.21
613.18	1747.48
613.53	1744.40
613.88	1739.74
614.22	1736.83
614.57	1733.36
614.92	1728.81
615.27	1725.83
615.61	1720.64
615.96	1717.19
616.31	1714.86
616.65	1713.07
617.00	1710.00
617.35	1707.31
617.70	1703.29
618.04	1699.57
618.39	1695.07
618.74	1691.33
619.08	1688.19
619.43	1684.24
619.78	1682.00
620.12	1679.21
620.47	1676.55
620.82	1671.62
621.16	1668.57
621.51	1665.76
621.85	1661.93
622.20	1658.71
622.55	1654.64
622.89	1653.07
623.24	1650.10
623.59	1646.90
623.93	1641.21
624.28	1637.24
624.62	1634.19
624.97	1631.55
625.32	1627.88
625.66	1624.60
626.01	1621.71
626.35	1617.62
626.70	1614.38
627.04	1610.81
627.39	1606.69
627.73	1603.36
628.08	1601.24
628.43	1598.00
628.77	1593.52
629.12	1590.81
629.46	1587.83
629.81	1583.90
630.15	1578.31
630.50	1573.10
630.84	1568.55
631.19	1564.26
631.53	1559.67
631.88	1553.19
632.22	1546.60
632.57	1542.86
632.91	1537.60
633.26	1532.57
633.60	1527.12
633.95	1521.64
634.29	1516.29
634.64	1511.38
634.98	1505.67
635.32	1501.69
635.67	1497.48
636.01	1493.24
636.36	1487.24
636.70	1482.29
637.05	1477.60
637.39	1474.21
637.73	1469.86
638.08	1466.45
638.42	1461.76
638.77	1457.71
639.11	1452.71
639.45	1448.69
639.80	1443.19
640.14	1438.86
640.49	1434.07
640.83	1428.05
641.17	1423.50
641.52	1418.71
641.86	1414.45
642.20	1409.88
642.55	1403.88
642.89	1397.50
643.23	1391.88
643.58	1387.50
643.92	1381.55
644.26	1376.81
644.61	1370.71
644.95	1364.69
645.29	1357.60
645.64	1352.98
645.98	1347.29
646.32	1343.17
646.66	1337.31
647.01	1331.21
647.35	1325.86
647.69	1320.19
648.04	1316.02
648.38	1309.90
648.72	1304.00
649.06	1297.67
649.41	1291.69
649.75	1285.07
650.09	1279.71
650.43	1273.50
650.78	1266.71
651.12	1260.67
651.46	1253.48
651.80	1247.21
652.14	1241.33
652.49	1235.81
652.83	1228.71
653.17	1221.86
653.51	1214.90
653.85	1209.50
654.20	1203.76
654.54	1196.48
654.88	1189.60
655.22	1183.38
655.56	1176.93
655.90	1170.67
656.25	1164.48
656.59	1158.19
656.93	1152.67
657.27	1148.45
657.61	1142.81
657.95	1138.00
658.29	1131.86
658.64	1127.00
658.98	1120.33
659.32	1113.71
659.66	1107.02
660.00	1101.19
660.34	1095.50
660.68	1089.95
661.02	1082.98
661.36	1077.48
661.70	1072.10
662.05	1066.81
662.39	1060.33
662.73	1055.50
663.07	1050.74
663.41	1045.29
663.75	1039.57
664.09	1033.36
664.43	1026.19
664.77	1019.98
665.11	1012.48
665.45	1006.24
665.79	1000.21
666.13	994.33
666.47	989.21
666.81	983.88
667.15	977.60
667.49	972.55
667.83	967.02
668.17	962.17
668.51	956.38
668.85	951.00
669.19	946.24
669.53	940.43
669.87	934.17
670.21	927.95
670.55	922.17
670.89	917.52
671.23	912.55
671.57	906.98
671.91	901.95
672.25	897.33
672.58	893.90
672.92	888.45
673.26	883.83
673.60	878.98
673.94	873.74
674.28	869.02
674.62	863.76
674.96	858.74
675.30	854.05
675.64	849.10
675.97	844.24
676.31	839.12
676.65	834.67
676.99	831.07
677.33	826.10
677.67	821.29
678.01	815.36
678.34	810.14
678.68	805.79
679.02	800.14
679.36	795.00
679.70	788.74
680.04	783.60
680.37	778.71
680.71	773.26
681.05	768.86
681.39	764.43
681.73	759.31
682.06	753.81
682.40	749.00
682.74	744.26
683.08	740.19
683.42	734.62
683.75	729.93
684.09	724.14
684.43	719.24
684.77	714.10
685.10	709.74
685.44	705.24
685.78	700.17
686.12	696.12
686.45	691.60
686.79	687.17
687.13	683.57
687.46	679.12
687.80	674.86
688.14	669.83
688.48	665.40
688.81	660.90
689.15	657.17
689.49	652.24
689.82	647.67
690.16	642.36
690.50	638.00
690.83	633.52
691.17	628.90
691.51	624.88
691.84	620.62
692.18	615.90
692.52	611.95
692.85	607.76
693.19	604.62
693.52	600.07
693.86	595.95
694.20	590.74
694.53	586.62
694.87	582.76
695.21	578.36
695.54	574.07
695.88	570.02
696.21	565.38
696.55	561.26
696.88	557.26
697.22	553.38
697.56	549.57
697.89	545.31
698.23	542.14
698.56	537.81
698.90	534.33
699.23	530.50
699.57	526.71
699.90	522.90
700.24	518.40
700.58	515.05
700.91	511.86
701.25	510.17
701.58	506.83
701.92	503.74
702.25	500.57
702.59	496.83
702.92	493.57
703.26	490.43
703.59	487.52
703.93	485.62
704.26	482.45
704.60	479.76
704.93	476.67
705.26	472.98
705.60	470.24
705.93	466.79
706.27	464.57
706.60	461.95
706.94	460.02
707.27	456.71
707.61	454.38
707.94	451.40
708.27	447.17
708.61	444.48
708.94	441.26
709.28	438.74
709.61	436.57
709.94	433.88
710.28	431.38
710.61	428.90
710.95	424.93
711.28	423.95
711.61	421.33
711.95	419.45
712.28	416.95
712.61	414.29
712.95	413.17
713.28	411.40
713.61	408.71
713.95	405.69
714.28	403.62
714.61	401.36
714.95	398.86
715.28	396.57
715.61	394.21
715.95	392.48
716.28	390.05
716.61	387.93
716.95	385.24
717.28	382.83
717.61	380.57
717.94	378.90
718.28	375.33
718.61	373.00
718.94	370.60
719.27	369.02
719.61	367.62
719.94	364.93
720.27	361.95
720.60	359.90
720.94	357.90
721.27	356.10
721.60	354.36
721.93	352.57
722.27	351.60
722.60	349.95
722.93	347.90
723.26	346.74
723.59	344.81
723.93	343.86
724.26	342.95
724.59	341.31
724.92	339.64
725.25	338.76
725.59	337.40
725.92	336.24
726.25	334.43
726.58	333.07
726.91	331.79
727.24	330.83
727.57	329.48
727.91	327.90
728.24	326.52
728.57	325.02
728.90	323.98
729.23	321.79
729.56	321.43
729.89	320.26
730.22	318.79
730.55	317.64
730.89	316.00
731.22	314.17
731.55	312.88
731.88	311.83
732.21	310.24
732.54	309.12
732.87	307.88
733.20	306.86
733.53	305.62
733.86	304.52
734.19	303.14
734.52	302.48
734.85	303.00
735.18	302.14
735.51	301.83
735.84	300.71
736.17	300.43
736.50	298.43
736.83	299.81
737.16	298.57
737.49	297.52
737.82	296.71
738.15	296.07
738.48	295.21
738.81	294.00
739.14	292.95
739.47	291.95
739.80	291.00
740.13	290.26
740.46	288.95
740.79	287.90
741.12	287.00
741.45	285.81
741.78	283.81
742.11	283.43
742.44	281.95
742.77	281.67
743.10	280.52
743.43	279.71
743.75	276.57
744.08	278.74
744.41	277.76
744.74	276.88
745.07	275.98
745.40	275.48
745.73	275.71
746.06	275.36
746.39	275.14
746.71	274.45
747.04	273.48
747.37	272.81
747.70	272.36
748.03	271.93
748.36	271.52
748.68	270.76
749.01	269.52
749.34	268.88
749.67	268.14
750.00	268.10
750.33	269.05
750.65	268.83
750.98	266.00
751.31	265.69
751.64	265.38
751.97	265.88
752.29	265.21
752.62	263.83
752.95	262.86
753.28	261.98
753.60	261.43
753.93	261.60
754.26	261.36
754.59	260.40
754.91	259.36
755.24	258.69
755.57	258.17
755.90	257.69
756.22	257.12
756.55	256.02
756.88	254.90
757.20	252.88
757.53	251.64
757.86	250.71
758.19	250.29
758.51	249.60
758.84	248.12
759.17	247.36
759.49	246.88
759.82	247.62
760.15	247.00
760.47	246.31
760.80	245.14
761.13	244.86
761.45	244.14
761.78	244.05
762.11	243.57
762.43	242.86
762.76	242.26
763.08	242.02
763.41	242.12
763.74	241.71
764.06	241.33
764.39	241.19
764.71	241.00
765.04	240.31
765.37	239.95
765.69	239.43
766.02	239.12
766.34	238.45
766.67	237.33
767.00	237.36
767.32	238.29
767.65	239.29
767.97	239.00
768.30	238.86
768.62	238.31
768.95	237.93
769.27	238.00
769.60	238.05
769.92	237.62
770.25	236.95
770.57	236.14
770.90	236.07
771.22	235.57
771.55	235.40
771.87	235.40
772.20	235.07
772.52	236.69
772.85	239.14
773.17	239.31
773.50	238.83
773.82	238.36
774.15	236.95
774.47	235.43
774.80	234.90
775.12	234.76
775.45	234.57
775.77	234.40
776.09	234.07
776.42	233.76
776.74	234.07
777.07	233.69
777.39	233.88
777.72	233.05
778.04	233.29
778.36	232.67
778.69	232.36
779.01	232.07
779.33	230.31
779.66	227.76
779.98	227.48
780.31	227.43
780.63	228.07
780.95	228.19
781.28	228.10
781.60	227.69
781.92	227.64
782.25	227.67
782.57	227.57
782.89	227.36
783.22	226.98
783.54	226.29
783.86	226.14
784.19	225.83
784.51	226.74
784.83	226.07
785.16	225.81
785.48	225.88
785.80	225.90
786.12	225.74
786.45	225.52
786.77	225.33
787.09	225.02
787.42	224.40
787.74	224.38
788.06	224.33
788.38	224.26
788.71	223.86
789.03	223.64
789.35	223.60
789.67	222.95
789.99	223.24
790.32	223.24
790.64	223.38
790.96	224.95
791.28	224.07
791.61	224.14
791.93	224.26
792.25	224.10
792.57	225.43
792.89	224.88
793.21	224.86
793.54	224.69
793.86	224.55
794.18	224.69
794.50	224.17
794.82	224.05
795.14	224.26
795.47	224.83
795.79	224.86
796.11	224.40
796.43	224.50
796.75	224.14
797.07	223.95
797.39	223.95
797.71	222.29
798.04	222.07
798.36	222.24
798.68	221.98
799.00	222.07
799.32	220.83
799.64	221.31
799.96	221.33
800.28	221.52
800.60	221.33
800.92	221.10
801.24	221.12
801.56	221.24
801.89	220.98
802.21	220.93
802.53	220.43
802.85	220.95
803.17	221.98
803.49	221.79
803.81	221.55
804.13	221.31
804.45	221.19
804.77	221.45
805.09	221.26
805.41	221.07
805.73	220.55
806.05	220.24
806.37	220.00
806.69	219.57
807.01	219.36
807.33	219.45
807.65	218.79
807.97	219.57
808.28	219.38
808.60	219.19
808.92	218.83
809.24	220.17
809.56	219.62
809.88	218.71
810.20	218.64
810.52	219.21
810.84	219.00
811.16	218.67
811.48	218.60
811.80	219.43
812.12	219.43
812.43	219.83
812.75	219.98
813.07	219.74
813.39	219.76
813.71	219.45
814.03	219.07
814.35	219.10
814.67	218.17
814.98	217.93
815.30	217.79
815.62	217.38
815.94	215.76
816.26	215.86
816.58	215.67
816.89	215.76
817.21	215.19
817.53	215.14
817.85	215.26
818.17	215.12
818.48	214.05
818.80	214.45
819.12	214.05
819.44	213.64
819.76	213.40
820.07	213.57
820.39	213.48
820.71	213.74
821.03	213.55
821.34	213.43
821.66	213.81
821.98	214.21
822.30	214.02
822.61	215.48
822.93	215.31
823.25	215.17
823.57	214.95
823.88	215.17
824.20	215.07
824.52	215.43
824.83	215.45
825.15	215.02
825.47	215.02
825.79	215.19
826.10	215.12
826.42	215.19
826.74	215.40
827.05	215.38
827.37	215.45
827.69	215.45
828.00	215.62
828.32	215.31
828.64	214.95
828.95	216.29
829.27	215.88
829.58	216.02
829.90	216.40
830.22	216.52
830.53	216.12
830.85	216.19
831.17	215.67
831.48	215.48
831.80	215.90
832.11	215.74
832.43	215.55
832.75	215.29
833.06	216.38
833.38	215.71
833.69	215.86
834.01	215.86
834.32	216.05
834.64	215.93
834.96	215.71
835.27	215.69
835.59	214.95
835.90	214.31
836.22	214.24
836.53	213.76
836.85	213.74
837.16	215.79
837.48	215.79
837.79	216.76
838.11	216.83
838.42	216.71
838.74	217.02
839.05	216.86
839.37	217.12
839.68	215.83
840.00	215.76
840.31	215.83
840.63	215.50
840.94	215.19
841.26	214.86
841.57	215.10
841.88	215.45
842.20	215.07
842.51	214.86
842.83	214.69
843.14	216.64
843.46	216.55
843.77	215.48
844.08	215.40
844.40	214.52
844.71	214.48
845.03	214.45
845.34	214.29
845.65	214.12
845.97	214.07
846.28	214.36
846.60	214.64
846.91	214.38
847.22	214.60
847.54	214.86
847.85	215.26
848.16	215.24
848.48	214.79
848.79	215.83
849.10	216.12
849.42	216.26
849.73	214.29
850.04	214.17
850.36	213.19
850.67	213.57
850.98	213.74
851.30	213.86
851.61	213.86
851.92	213.71
852.23	214.60
852.55	214.43
852.86	214.29
853.17	214.19
853.49	214.69
853.80	214.83
854.11	215.14
854.42	215.17
854.74	214.90
855.05	214.93
855.36	213.43
855.67	213.36
855.99	213.48
856.30	215.88
856.61	216.07
856.92	216.29
857.23	216.17
857.55	215.90
857.86	215.76
858.17	215.74
858.48	215.26
858.79	214.67
859.11	215.02
859.42	214.98
859.73	214.81
860.04	214.71
860.35	214.36
860.66	213.67
860.98	213.55
861.29	213.86
861.60	213.69
861.91	214.57
862.22	214.36
862.53	213.81
862.84	211.48
863.16	211.67
863.47	211.50
863.78	211.21
864.09	211.21
864.40	211.52
864.71	211.45
865.02	211.79
865.33	211.45
865.64	211.26
865.95	211.31
866.27	212.76
866.58	212.52
866.89	212.69
867.20	212.83
867.51	212.55
867.82	212.29
868.13	212.98
868.44	212.38
868.75	212.93
869.06	213.12
869.37	213.07
869.68	212.45
869.99	212.64
870.30	212.95
870.61	213.17
870.92	212.57
871.23	212.71
871.54	212.98
871.85	213.74
872.16	213.79
872.47	213.48
872.78	212.12
873.09	212.45
873.40	212.21
873.71	212.10
874.02	212.33
874.33	212.29
874.64	211.81
874.95	212.24
875.26	211.60
875.56	211.64
875.87	211.64
876.18	211.69
876.49	213.79
876.80	213.48
877.11	213.24
877.42	213.50
877.73	213.40
878.04	213.21
878.35	213.02
878.66	213.24
878.96	213.38
879.27	213.38
879.58	213.17
879.89	213.21
880.20	214.17
880.51	213.98
880.82	213.95
881.12	214.07
881.43	213.64
881.74	213.48
882.05	213.40
882.36	213.74
882.67	214.05
882.97	211.86
883.28	211.62
883.59	211.55
883.90	211.67
884.21	211.79
884.51	211.67
884.82	211.52
885.13	211.52
885.44	211.52
885.74	211.50
886.05	211.24
886.36	211.33
886.67	210.52
886.98	211.76
887.28	212.05
887.59	211.93
887.90	212.07
888.20	212.02
888.51	212.40
888.82	211.81
889.13	211.95
889.43	213.45
889.74	213.40
890.05	213.40
890.35	213.17
890.66	213.14
890.97	212.79
891.28	212.55
891.58	212.24
891.89	212.26
892.20	212.02
892.50	212.05
892.81	211.93
893.12	211.93
893.42	210.79
893.73	210.74
894.04	210.95
894.34	211.17
894.65	211.07
894.95	210.90
895.26	211.21
895.57	212.00
895.87	210.19
896.18	210.64
896.48	210.74
896.79	210.86
897.10	211.14
897.40	211.64
897.71	211.71
898.01	211.90
898.32	212.07
898.63	211.98
898.93	211.86
899.24	211.88
899.54	211.69
899.85	211.62
900.15	211.64
900.46	211.50
900.76	211.48
901.07	211.69
901.38	211.57
901.68	211.86
901.99	210.86
902.29	211.10
902.60	211.00
902.90	210.88
903.21	211.07
903.51	210.81
903.82	211.02
904.12	211.26
904.43	211.33
904.73	211.38
905.03	211.62
905.34	213.81
905.64	213.81
905.95	213.81
906.25	213.88
906.56	213.45
906.86	213.31
907.17	213.02
907.47	213.10
907.77	212.88
908.08	212.50
908.38	212.55
908.69	212.76
908.99	212.98
909.30	213.26
909.60	213.21
909.90	213.29
910.21	212.57
910.51	212.26
910.81	212.21
911.12	212.05
911.42	212.00
911.73	209.74
912.03	209.79
912.33	210.33
912.64	210.24
912.94	210.38
913.24	210.43
913.55	210.48
913.85	210.52
914.15	210.90
914.46	211.21
914.76	211.26
915.06	210.88
915.37	210.64
915.67	210.31
915.97	210.24
916.27	209.98
916.58	210.14
916.88	210.17
917.18	210.07
917.49	211.45
917.79	211.62
918.09	212.00
918.39	212.62
918.70	212.45
919.00	212.67
919.30	213.52
919.60	213.33
919.91	213.14
920.21	213.19
920.51	212.88
920.81	212.60
921.12	212.83
921.42	213.05
921.72	213.19
922.02	213.38
922.32	213.55
922.63	213.57
922.93	214.60
923.23	214.52
923.53	214.31
923.83	213.12
924.13	213.21
924.44	213.12
924.74	213.19
925.04	213.98
925.34	213.79
925.64	213.02
925.94	212.98
926.24	214.33
926.55	214.07
926.85	214.33
927.15	214.40
927.45	214.31
927.75	214.29
928.05	214.21
928.35	214.10
928.65	214.45
928.95	214.76
929.26	213.93
929.56	214.29
929.86	214.50
930.16	214.07
930.46	213.83
930.76	213.95
931.06	213.05
931.36	212.07
931.66	212.29
931.96	212.45
932.26	212.60
932.56	211.64
932.86	211.98
933.16	211.83
933.46	211.69
933.76	211.48
934.06	211.90
934.36	212.62
934.66	212.50
934.96	212.07
935.26	211.86
935.56	212.26
935.86	211.74
936.16	211.50
936.46	211.50
936.76	211.55
937.06	211.40
937.36	211.57
937.66	211.67
937.96	211.67
938.26	211.45
938.56	211.12
938.86	211.14
939.16	211.43
939.46	211.67
939.76	211.86
940.06	211.98
940.35	211.36
940.65	210.24
940.95	210.71
941.25	210.14
941.55	210.10
941.85	209.79
942.15	210.64
942.45	211.31
942.75	211.38
943.04	211.48
943.34	211.86
943.64	211.69
943.94	211.36
944.24	211.60
944.54	211.45
944.84	211.74
945.13	211.33
945.43	211.02
945.73	210.95
946.03	210.81
946.33	210.33
946.62	210.38
946.92	210.45
947.22	210.33
947.52	210.76
947.82	210.57
948.11	210.64
948.41	210.02
948.71	209.38
949.01	209.62
949.31	209.24
949.60	208.95
949.90	209.24
950.20	209.14
950.50	208.93
950.79	209.00
951.09	209.26
951.39	209.26
951.69	208.98
951.98	209.24
952.28	209.26
952.58	209.38
952.87	209.38
953.17	209.86
953.47	209.62
953.76	209.50
954.06	209.40
954.36	208.88
954.66	208.67
954.95	209.36
955.25	209.43
955.55	209.86
955.84	209.67
956.14	210.10
956.44	210.33
956.73	209.86
957.03	210.02
957.32	209.88
957.62	209.76
957.92	210.29
958.21	210.31
958.51	212.95
958.81	213.55
959.10	213.71
959.40	213.93
959.69	214.10
959.99	214.57
960.29	214.81
960.58	214.90
960.88	215.88
961.17	215.45
961.47	215.60
961.76	215.38
962.06	215.71
962.36	215.36
962.65	215.64
962.95	216.10
963.24	215.88
963.54	216.21
963.83	216.67
964.13	216.50
964.42	216.05
964.72	213.98
965.01	213.71
965.31	213.55
965.60	213.17
965.90	214.50
966.19	214.02
966.49	213.83
966.78	213.83
967.08	213.40
967.37	213.38
967.67	213.05
967.96	213.31
968.26	213.21
968.55	213.36
968.85	213.10
969.14	212.98
969.43	212.98
969.73	212.62
970.02	212.29
970.32	212.17
970.61	212.05
970.91	211.64
971.20	211.31
971.49	211.14
971.79	211.26
972.08	209.74
972.38	209.81
972.67	209.88
972.96	210.21
973.26	210.00
973.55	210.55
973.85	210.43
974.14	210.21
974.43	210.52
974.73	210.19
975.02	210.02
975.31	210.00
975.61	209.98
975.90	209.60
976.19	209.57
976.49	209.67
976.78	209.95
977.07	209.90
977.37	210.26
977.66	210.69
977.95	210.40
978.24	210.52
978.54	210.86
978.83	210.88
979.12	210.86
979.42	210.88
979.71	210.48
980.00	210.48
980.29	210.64
980.59	210.05
980.88	210.69
981.17	210.71
981.46	210.93
981.76	210.88
982.05	211.93
982.34	212.10
982.63	212.26
982.93	212.10
983.22	212.60
983.51	212.48
983.80	212.62
984.09	212.98
984.39	212.93
984.68	212.62
984.97	212.60
985.26	212.38
985.55	212.62
985.85	212.43
986.14	212.81
986.43	213.07
986.72	212.98
987.01	212.12
987.30	212.21
987.59	211.93
987.89	212.19
988.18	211.50
988.47	211.31
988.76	210.93
989.05	210.69
989.34	210.40
989.63	210.93
989.92	210.67
990.22	210.24
990.51	210.14
990.80	210.26
991.09	210.24
991.38	210.43
991.67	210.05
991.96	209.83
992.25	209.76
992.54	209.33
992.83	209.36
993.12	209.38
993.41	209.62
993.70	210.36
993.99	210.52
994.28	210.76
994.58	211.19
994.87	211.10
995.16	211.14
995.45	211.00
995.74	210.26
996.03	210.45
996.32	210.93
996.61	211.79
996.90	211.60
997.19	211.48
997.48	211.21
997.77	211.21
998.06	211.29
998.34	210.98
998.63	210.98
998.92	211.17
999.21	211.60
999.50	211.67
999.79	210.79
1000.08	210.83
1000.37	210.95
1000.66	210.60
1000.95	210.93
1001.24	211.02
1001.53	211.14
1001.82	211.19
1002.11	210.62
1002.40	210.88
1002.68	210.83
1002.97	212.05
1003.26	212.07
1003.55	212.12
1003.84	212.17
1004.13	212.79
1004.42	213.07
1004.71	213.05
1004.99	213.10
1005.28	213.52
1005.57	213.24
1005.86	213.17
1006.15	212.88
1006.44	212.45
1006.72	212.69
1007.01	212.55
1007.30	212.55
1007.59	212.43
1007.88	212.43
1008.17	212.69
1008.45	212.12
1008.74	211.21
1009.03	210.50
1009.32	210.48
1009.60	210.36
1009.89	210.29
1010.18	209.50
1010.47	209.26
1010.76	209.07
1011.04	208.88
1011.33	208.86
1011.62	209.02
1011.91	209.14
1012.19	209.33
1012.48	209.36
1012.77	209.12
1013.05	210.24
1013.34	210.14
1013.63	209.90
1013.92	209.95
1014.20	209.71
1014.49	209.81
1014.78	210.21
1015.06	209.40
1015.35	209.55
1015.64	209.95
1015.92	210.14
1016.21	210.36
1016.50	210.29
1016.78	210.76
1017.07	210.71
1017.36	210.24
1017.64	209.86
1017.93	210.29
1018.22	209.90
1018.50	209.71
1018.79	209.98
1019.08	208.81
1019.36	209.00
1019.65	208.81
1019.93	209.29
1020.22	209.67
1020.51	210.69
1020.79	210.45
1021.08	205.00
1021.36	204.50
1021.65	213.50
1021.94	209.50
1022.22	210.00
1022.51	203.00
1022.79	218.50
1023.08	212.00
1023.36	234.00
1023.65	206.50
>>>>>End Processed Spectral Data<<<<<
