SpectraSuite Data File
++++++++++++++++++++++++++++++++++++
Date: Tue Apr 02 18:43:24 EDT 2013
User: group
Dark Spectrum Present: No
Reference Spectrum Present: No
Number of Sampled Component Spectra: 1
Spectrometers: USB2E7196
Integration Time (usec): 580000 (USB2E7196)
Spectra Averaged: 2 (USB2E7196)
Boxcar Smoothing: 10 (USB2E7196)
Correct for Electrical Dark: No (USB2E7196)
Strobe/Lamp Enabled: No (USB2E7196)
Correct for Detector Non-linearity: No (USB2E7196)
Correct for Stray Light: No (USB2E7196)
Number of Pixels in Processed Spectrum: 2048
>>>>>Begin Processed Spectral Data<<<<<
339.09	0.00
339.48	194.00
339.86	197.50
340.24	193.00
340.63	197.00
341.01	234.00
341.39	201.50
341.78	203.50
342.16	211.50
342.54	202.50
342.93	197.17
343.31	206.86
343.69	207.26
344.07	207.50
344.46	208.45
344.84	208.79
345.22	207.40
345.60	207.76
345.99	208.12
346.37	207.98
346.75	208.12
347.13	208.33
347.52	208.52
347.90	209.02
348.28	209.17
348.66	209.38
349.05	208.79
349.43	208.81
349.81	209.05
350.19	209.02
350.57	208.83
350.96	209.24
351.34	209.74
351.72	210.02
352.10	210.26
352.48	210.07
352.87	210.12
353.25	210.38
353.63	210.24
354.01	210.02
354.39	210.14
354.77	210.26
355.15	211.00
355.54	210.98
355.92	210.48
356.30	210.33
356.68	211.81
357.06	212.02
357.44	212.02
357.82	212.10
358.20	213.19
358.58	213.40
358.97	213.45
359.35	213.71
359.73	214.19
360.11	214.24
360.49	214.36
360.87	214.86
361.25	215.05
361.63	216.00
362.01	216.21
362.39	216.24
362.77	216.48
363.15	216.38
363.53	216.52
363.91	216.62
364.29	216.79
364.67	215.10
365.05	215.24
365.43	215.52
365.81	215.95
366.19	216.14
366.57	216.88
366.95	216.69
367.33	216.31
367.71	216.17
368.09	216.81
368.47	216.83
368.85	216.71
369.23	217.17
369.61	216.33
369.99	217.17
370.37	217.38
370.75	218.55
371.13	218.10
371.51	217.86
371.89	218.29
372.27	218.40
372.65	218.74
373.03	218.88
373.41	218.71
373.78	218.67
374.16	217.62
374.54	217.10
374.92	217.19
375.30	217.43
375.68	217.29
376.06	217.29
376.44	217.38
376.82	217.50
377.19	217.26
377.57	217.36
377.95	216.67
378.33	216.64
378.71	215.24
379.09	215.43
379.47	215.57
379.84	215.38
380.22	214.88
380.60	214.29
380.98	214.26
381.36	214.05
381.73	213.67
382.11	214.19
382.49	214.12
382.87	213.98
383.25	213.86
383.62	215.88
384.00	215.40
384.38	215.36
384.76	215.81
385.13	216.62
385.51	216.64
385.89	216.29
386.27	216.43
386.64	217.00
387.02	216.86
387.40	216.67
387.78	216.52
388.15	216.79
388.53	216.81
388.91	216.71
389.29	216.50
389.66	216.86
390.04	216.38
390.42	216.81
390.79	216.83
391.17	216.76
391.55	214.93
391.92	215.14
392.30	215.55
392.68	215.10
393.05	214.81
393.43	214.74
393.81	215.00
394.18	214.52
394.56	214.21
394.94	214.88
395.31	214.76
395.69	215.48
396.06	215.95
396.44	216.29
396.82	216.07
397.19	217.43
397.57	217.21
397.95	217.71
398.32	217.14
398.70	217.40
399.07	217.93
399.45	217.81
399.82	217.57
400.20	217.02
400.58	216.90
400.95	216.17
401.33	216.81
401.70	218.36
402.08	218.52
402.45	218.71
402.83	219.19
403.20	219.38
403.58	219.07
403.95	219.43
404.33	219.98
404.71	220.38
405.08	221.57
405.46	221.76
405.83	221.76
406.21	222.19
406.58	222.52
406.96	222.36
407.33	223.07
407.70	223.67
408.08	225.95
408.45	226.81
408.83	227.83
409.20	228.21
409.58	227.81
409.95	228.95
410.33	229.76
410.70	229.98
411.08	231.21
411.45	232.38
411.82	233.14
412.20	234.24
412.57	236.55
412.95	236.10
413.32	237.90
413.69	239.43
414.07	241.00
414.44	242.83
414.82	245.21
415.19	247.52
415.56	249.95
415.94	251.05
416.31	253.76
416.68	256.60
417.06	259.88
417.43	263.21
417.81	266.40
418.18	270.40
418.55	274.02
418.93	278.17
419.30	282.45
419.67	286.81
420.04	291.43
420.42	295.86
420.79	302.83
421.16	308.48
421.54	315.24
421.91	321.60
422.28	327.74
422.66	334.24
423.03	342.19
423.40	349.12
423.77	356.43
424.15	363.36
424.52	370.81
424.89	379.33
425.26	387.31
425.64	395.29
426.01	403.31
426.38	412.05
426.75	421.26
427.13	430.33
427.50	440.10
427.87	449.90
428.24	459.74
428.61	468.24
428.99	478.93
429.36	489.50
429.73	500.93
430.10	512.24
430.47	523.38
430.85	533.50
431.22	546.10
431.59	561.29
431.96	574.02
432.33	588.62
432.70	602.36
433.08	618.45
433.45	633.38
433.82	648.83
434.19	665.36
434.56	682.07
434.93	697.90
435.30	713.86
435.68	731.17
436.05	748.81
436.42	765.74
436.79	782.12
437.16	799.93
437.53	817.33
437.90	835.24
438.27	853.71
438.64	872.19
439.01	889.24
439.38	902.19
439.75	917.17
440.13	933.57
440.50	949.05
440.87	961.76
441.24	974.67
441.61	989.14
441.98	1000.55
442.35	1012.43
442.72	1025.40
443.09	1038.98
443.46	1046.71
443.83	1051.57
444.20	1056.52
444.57	1062.07
444.94	1065.14
445.31	1068.48
445.68	1075.07
446.05	1076.29
446.42	1075.24
446.79	1074.45
447.16	1072.93
447.53	1072.26
447.90	1065.95
448.27	1059.48
448.64	1050.60
449.01	1045.19
449.37	1034.33
449.74	1024.26
450.11	1013.76
450.48	998.74
450.85	982.67
451.22	970.45
451.59	958.26
451.96	947.05
452.33	931.90
452.70	917.43
453.07	901.10
453.43	880.67
453.80	864.40
454.17	848.33
454.54	832.52
454.91	816.26
455.28	799.95
455.65	785.14
456.02	773.60
456.38	761.14
456.75	745.62
457.12	731.71
457.49	718.17
457.86	703.52
458.23	693.83
458.59	682.05
458.96	669.64
459.33	659.33
459.70	648.67
460.07	640.02
460.43	630.50
460.80	621.43
461.17	614.14
461.54	605.86
461.91	597.93
462.27	589.48
462.64	582.50
463.01	574.88
463.38	568.31
463.74	557.74
464.11	551.07
464.48	545.55
464.85	539.40
465.21	535.29
465.58	530.14
465.95	523.67
466.32	518.90
466.68	513.93
467.05	508.45
467.42	503.12
467.78	498.12
468.15	493.00
468.52	489.50
468.88	483.79
469.25	479.21
469.62	475.93
469.98	471.90
470.35	468.45
470.72	464.83
471.08	460.00
471.45	457.12
471.82	454.19
472.18	450.45
472.55	448.26
472.92	444.33
473.28	441.29
473.65	438.19
474.02	435.29
474.38	433.60
474.75	431.81
475.11	429.43
475.48	427.62
475.85	425.81
476.21	423.52
476.58	422.02
476.94	420.83
477.31	419.19
477.67	418.19
478.04	417.21
478.41	416.69
478.77	418.38
479.14	417.07
479.50	416.64
479.87	415.64
480.23	415.10
480.60	414.36
480.96	414.33
481.33	415.40
481.69	415.29
482.06	414.81
482.42	415.19
482.79	415.88
483.15	416.38
483.52	417.40
483.88	417.88
484.25	418.57
484.61	419.17
484.98	419.98
485.34	421.69
485.71	423.10
486.07	424.19
486.44	423.55
486.80	425.26
487.17	426.52
487.53	429.36
487.90	431.62
488.26	434.86
488.62	437.86
488.99	439.38
489.35	442.26
489.72	445.07
490.08	447.83
490.44	450.31
490.81	453.50
491.17	456.60
491.54	460.38
491.90	464.57
492.26	467.90
492.63	471.60
492.99	474.45
493.36	478.79
493.72	483.31
494.08	487.69
494.45	492.67
494.81	497.71
495.17	501.95
495.54	507.14
495.90	511.57
496.26	516.10
496.63	522.00
496.99	527.05
497.35	532.69
497.72	538.81
498.08	544.98
498.44	551.17
498.80	557.19
499.17	563.31
499.53	568.98
499.89	575.76
500.26	582.24
500.62	589.19
500.98	596.10
501.34	603.17
501.71	610.79
502.07	617.26
502.43	624.31
502.79	631.33
503.16	638.43
503.52	645.43
503.88	652.95
504.24	660.07
504.60	667.98
504.97	675.88
505.33	683.26
505.69	691.86
506.05	699.43
506.41	707.26
506.78	714.81
507.14	722.36
507.50	729.93
507.86	737.64
508.22	745.69
508.59	752.55
508.95	760.02
509.31	768.38
509.67	776.76
510.03	784.83
510.39	792.98
510.75	800.79
511.12	808.88
511.48	816.57
511.84	823.93
512.20	831.64
512.56	839.43
512.92	847.50
513.28	854.17
513.64	861.60
514.00	869.12
514.37	876.81
514.73	884.83
515.09	892.45
515.45	899.69
515.81	906.98
516.17	914.64
516.53	920.64
516.89	926.76
517.25	933.38
517.61	939.69
517.97	945.62
518.33	951.86
518.69	958.36
519.05	964.57
519.41	971.14
519.77	978.26
520.13	983.71
520.49	988.69
520.85	994.69
521.21	1001.45
521.57	1006.50
521.93	1010.98
522.29	1016.52
522.65	1021.24
523.01	1027.76
523.37	1033.12
523.73	1037.95
524.09	1044.31
524.45	1049.26
524.81	1054.10
525.17	1059.29
525.53	1064.83
525.89	1069.55
526.25	1074.24
526.61	1078.14
526.97	1082.00
527.33	1085.69
527.68	1092.45
528.04	1096.86
528.40	1101.00
528.76	1104.19
529.12	1109.40
529.48	1115.12
529.84	1119.33
530.20	1124.57
530.56	1127.71
530.91	1131.31
531.27	1135.45
531.63	1140.00
531.99	1143.93
532.35	1147.90
532.71	1151.64
533.07	1155.90
533.42	1162.45
533.78	1166.76
534.14	1172.40
534.50	1176.74
534.86	1181.64
535.21	1183.17
535.57	1187.52
535.93	1191.50
536.29	1196.83
536.65	1200.76
537.00	1203.45
537.36	1207.12
537.72	1210.10
538.08	1213.86
538.44	1217.95
538.79	1221.93
539.15	1224.21
539.51	1227.48
539.87	1231.43
540.22	1235.10
540.58	1238.45
540.94	1239.33
541.29	1242.19
541.65	1243.93
542.01	1246.76
542.37	1248.76
542.72	1251.64
543.08	1254.12
543.44	1257.12
543.79	1257.93
544.15	1260.88
544.51	1264.40
544.87	1266.69
545.22	1270.02
545.58	1272.67
545.94	1274.57
546.29	1276.45
546.65	1279.64
547.01	1282.60
547.36	1285.05
547.72	1287.60
548.07	1289.93
548.43	1292.33
548.79	1294.05
549.14	1296.86
549.50	1300.33
549.86	1302.71
550.21	1305.67
550.57	1308.69
550.92	1309.98
551.28	1314.12
551.64	1316.74
551.99	1319.79
552.35	1322.76
552.70	1325.95
553.06	1329.12
553.41	1332.45
553.77	1337.57
554.13	1340.57
554.48	1344.60
554.84	1349.38
555.19	1352.26
555.55	1357.69
555.90	1361.21
556.26	1366.40
556.61	1370.62
556.97	1373.00
557.32	1376.95
557.68	1380.10
558.03	1384.17
558.39	1388.93
558.74	1392.31
559.10	1396.12
559.45	1400.29
559.81	1404.40
560.16	1407.57
560.52	1412.00
560.87	1416.88
561.23	1420.14
561.58	1426.31
561.94	1429.26
562.29	1432.21
562.64	1437.74
563.00	1441.00
563.35	1446.55
563.71	1451.14
564.06	1455.90
564.42	1462.36
564.77	1468.14
565.12	1474.64
565.48	1481.05
565.83	1486.79
566.19	1492.81
566.54	1498.38
566.89	1503.12
567.25	1509.17
567.60	1516.40
567.96	1523.83
568.31	1530.88
568.66	1537.98
569.02	1542.24
569.37	1548.26
569.72	1553.14
570.08	1557.98
570.43	1563.29
570.78	1568.36
571.14	1574.19
571.49	1579.69
571.84	1584.74
572.20	1589.14
572.55	1593.90
572.90	1597.86
573.26	1603.10
573.61	1606.38
573.96	1610.33
574.31	1614.83
574.67	1619.24
575.02	1622.71
575.37	1624.71
575.72	1626.83
576.08	1630.10
576.43	1634.12
576.78	1638.12
577.13	1642.62
577.49	1646.50
577.84	1650.21
578.19	1653.52
578.54	1656.64
578.90	1660.71
579.25	1663.29
579.60	1665.86
579.95	1668.69
580.30	1672.45
580.66	1675.88
581.01	1679.93
581.36	1683.98
581.71	1688.33
582.06	1692.55
582.42	1695.74
582.77	1698.19
583.12	1702.31
583.47	1704.79
583.82	1707.50
584.17	1710.55
584.53	1714.50
584.88	1718.17
585.23	1722.48
585.58	1725.05
585.93	1727.67
586.28	1729.10
586.63	1733.19
586.98	1736.38
587.34	1740.67
587.69	1742.50
588.04	1744.64
588.39	1746.86
588.74	1748.12
589.09	1749.38
589.44	1749.93
589.79	1752.17
590.14	1755.29
590.49	1756.71
590.84	1757.93
591.19	1759.86
591.54	1761.36
591.89	1761.31
592.25	1763.64
592.60	1763.40
592.95	1765.43
593.30	1767.52
593.65	1768.93
594.00	1768.62
594.35	1775.48
594.70	1774.90
595.05	1776.29
595.40	1777.43
595.75	1777.81
596.10	1780.02
596.45	1781.55
596.80	1782.86
597.15	1783.14
597.50	1783.76
597.85	1785.02
598.19	1785.14
598.54	1785.10
598.89	1786.02
599.24	1787.36
599.59	1786.93
599.94	1786.71
600.29	1786.52
600.64	1785.71
600.99	1786.12
601.34	1787.24
601.69	1782.17
602.04	1781.17
602.39	1780.81
602.74	1781.07
603.08	1781.57
603.43	1781.48
603.78	1781.10
604.13	1780.55
604.48	1780.74
604.83	1779.88
605.18	1779.62
605.53	1779.74
605.87	1779.74
606.22	1778.62
606.57	1777.57
606.92	1775.71
607.27	1775.05
607.62	1774.71
607.96	1773.67
608.31	1773.07
608.66	1772.40
609.01	1770.00
609.36	1770.07
609.70	1768.02
610.05	1765.21
610.40	1763.29
610.75	1760.86
611.10	1758.74
611.44	1756.26
611.79	1752.71
612.14	1750.83
612.49	1747.21
612.83	1744.48
613.18	1741.76
613.53	1738.79
613.88	1734.98
614.22	1731.69
614.57	1727.86
614.92	1723.07
615.27	1720.07
615.61	1714.93
615.96	1709.67
616.31	1707.36
616.65	1705.05
617.00	1702.52
617.35	1699.93
617.70	1696.38
618.04	1692.12
618.39	1687.60
618.74	1684.19
619.08	1680.29
619.43	1676.50
619.78	1672.86
620.12	1669.79
620.47	1665.52
620.82	1661.12
621.16	1656.95
621.51	1654.12
621.85	1650.24
622.20	1646.38
622.55	1641.57
622.89	1638.71
623.24	1635.76
623.59	1631.10
623.93	1625.76
624.28	1621.40
624.62	1618.43
624.97	1615.55
625.32	1611.33
625.66	1607.62
626.01	1603.86
626.35	1601.95
626.70	1597.71
627.04	1594.52
627.39	1590.14
627.73	1586.62
628.08	1583.31
628.43	1579.86
628.77	1575.62
629.12	1572.62
629.46	1570.26
629.81	1566.69
630.15	1561.86
630.50	1557.10
630.84	1552.31
631.19	1547.26
631.53	1542.21
631.88	1534.95
632.22	1528.60
632.57	1524.50
632.91	1519.48
633.26	1514.67
633.60	1507.98
633.95	1502.76
634.29	1496.43
634.64	1490.98
634.98	1485.05
635.32	1480.14
635.67	1476.31
636.01	1471.40
636.36	1466.00
636.70	1461.57
637.05	1456.71
637.39	1451.90
637.73	1448.33
638.08	1444.48
638.42	1439.90
638.77	1435.57
639.11	1431.17
639.45	1425.93
639.80	1420.38
640.14	1414.95
640.49	1409.05
640.83	1403.83
641.17	1399.02
641.52	1393.88
641.86	1389.19
642.20	1385.05
642.55	1378.79
642.89	1372.83
643.23	1366.98
643.58	1362.43
643.92	1355.05
644.26	1349.05
644.61	1343.79
644.95	1336.98
645.29	1329.93
645.64	1324.76
645.98	1318.40
646.32	1313.24
646.66	1307.45
647.01	1300.62
647.35	1294.79
647.69	1288.98
648.04	1283.43
648.38	1276.62
648.72	1270.74
649.06	1263.93
649.41	1257.26
649.75	1251.40
650.09	1244.50
650.43	1237.60
650.78	1230.50
651.12	1224.24
651.46	1217.29
651.80	1210.64
652.14	1203.90
652.49	1198.00
652.83	1190.86
653.17	1184.10
653.51	1176.67
653.85	1170.29
654.20	1164.48
654.54	1157.93
654.88	1151.07
655.22	1144.95
655.56	1138.64
655.90	1131.76
656.25	1125.31
656.59	1118.57
656.93	1113.05
657.27	1107.62
657.61	1100.81
657.95	1094.81
658.29	1088.26
658.64	1082.93
658.98	1076.17
659.32	1069.50
659.66	1063.24
660.00	1057.40
660.34	1051.36
660.68	1045.17
661.02	1038.69
661.36	1032.69
661.70	1026.71
662.05	1020.76
662.39	1014.71
662.73	1009.17
663.07	1004.00
663.41	998.17
663.75	992.40
664.09	986.14
664.43	979.43
664.77	973.55
665.11	966.52
665.45	960.67
665.79	954.26
666.13	948.64
666.47	943.19
666.81	937.71
667.15	931.14
667.49	925.74
667.83	921.00
668.17	915.48
668.51	909.52
668.85	904.19
669.19	899.26
669.53	892.90
669.87	887.02
670.21	880.71
670.55	874.12
670.89	869.67
671.23	863.79
671.57	858.26
671.91	853.05
672.25	847.88
672.58	843.12
672.92	837.36
673.26	831.81
673.60	826.57
673.94	820.67
674.28	815.83
674.62	810.10
674.96	804.05
675.30	798.98
675.64	793.88
675.97	788.45
676.31	783.14
676.65	777.62
676.99	773.45
677.33	768.69
677.67	764.64
678.01	758.40
678.34	753.48
678.68	748.86
679.02	743.60
679.36	738.50
679.70	733.38
680.04	728.71
680.37	724.12
680.71	718.86
681.05	715.05
681.39	710.10
681.73	705.12
682.06	700.69
682.40	696.33
682.74	692.07
683.08	688.29
683.42	683.10
683.75	679.19
684.09	673.83
684.43	669.10
684.77	664.02
685.10	659.67
685.44	654.71
685.78	650.40
686.12	646.36
686.45	641.45
686.79	636.62
687.13	633.14
687.46	629.05
687.80	625.62
688.14	620.71
688.48	616.86
688.81	613.07
689.15	609.79
689.49	605.38
689.82	601.36
690.16	596.19
690.50	592.48
690.83	587.98
691.17	583.40
691.51	578.88
691.84	575.33
692.18	571.10
692.52	567.55
692.85	563.57
693.19	560.71
693.52	557.62
693.86	553.93
694.20	549.36
694.53	545.69
694.87	541.55
695.21	537.71
695.54	533.86
695.88	529.64
696.21	524.95
696.55	521.10
696.88	517.33
697.22	514.00
697.56	510.69
697.89	507.33
698.23	504.40
698.56	501.38
698.90	498.00
699.23	494.33
699.57	490.95
699.90	487.48
700.24	483.33
700.58	480.29
700.91	477.33
701.25	475.93
701.58	473.31
701.92	470.45
702.25	467.50
702.59	463.81
702.92	461.17
703.26	458.00
703.59	455.05
703.93	453.67
704.26	451.05
704.60	448.00
704.93	445.12
705.26	442.14
705.60	439.67
705.93	436.74
706.27	434.55
706.60	432.50
706.94	430.76
707.27	427.98
707.61	425.36
707.94	422.67
708.27	418.38
708.61	415.24
708.94	412.88
709.28	410.36
709.61	408.24
709.94	405.90
710.28	403.71
710.61	401.48
710.95	397.50
711.28	396.62
711.61	394.17
711.95	392.43
712.28	390.14
712.61	387.71
712.95	386.64
713.28	385.69
713.61	382.90
713.95	380.17
714.28	378.40
714.61	375.69
714.95	373.81
715.28	371.86
715.61	369.55
715.95	367.57
716.28	365.45
716.61	363.64
716.95	361.50
717.28	359.69
717.61	357.76
717.94	355.60
718.28	352.29
718.61	350.40
718.94	348.38
719.27	346.60
719.61	345.02
719.94	342.79
720.27	339.86
720.60	338.02
720.94	336.05
721.27	334.60
721.60	334.02
721.93	332.38
722.27	331.71
722.60	330.60
722.93	328.90
723.26	327.62
723.59	325.86
723.93	325.10
724.26	323.88
724.59	322.93
724.92	322.05
725.25	321.21
725.59	319.95
725.92	318.90
726.25	317.86
726.58	316.74
726.91	315.43
727.24	314.57
727.57	313.74
727.91	312.50
728.24	311.14
728.57	309.43
728.90	308.48
729.23	306.52
729.56	305.93
729.89	304.88
730.22	303.67
730.55	302.71
730.89	301.40
731.22	300.17
731.55	298.60
731.88	297.45
732.21	296.19
732.54	295.19
732.87	294.26
733.20	293.05
733.53	292.31
733.86	291.57
734.19	290.24
734.52	289.57
734.85	290.00
735.18	289.02
735.51	288.76
735.84	287.62
736.17	287.19
736.50	285.67
736.83	287.10
737.16	286.31
737.49	285.60
737.82	284.69
738.15	284.19
738.48	283.69
738.81	282.90
739.14	282.07
739.47	281.45
739.80	280.57
740.13	280.19
740.46	278.95
740.79	277.74
741.12	277.21
741.45	276.05
741.78	274.29
742.11	274.14
742.44	272.86
742.77	272.79
743.10	271.86
743.43	271.10
743.75	268.24
744.08	270.43
744.41	269.79
744.74	268.95
745.07	267.98
745.40	267.69
745.73	268.00
746.06	267.33
746.39	266.90
746.71	265.93
747.04	264.93
747.37	264.45
747.70	263.93
748.03	263.43
748.36	263.07
748.68	262.52
749.01	261.17
749.34	260.83
749.67	259.83
750.00	259.40
750.33	260.24
750.65	259.86
750.98	256.57
751.31	256.00
751.64	255.67
751.97	256.67
752.29	255.86
752.62	254.33
752.95	253.81
753.28	253.14
753.60	253.00
753.93	253.10
754.26	252.71
754.59	251.98
754.91	251.21
755.24	250.79
755.57	250.71
755.90	250.48
756.22	249.83
756.55	249.19
756.88	248.62
757.20	246.98
757.53	245.83
757.86	245.31
758.19	245.05
758.51	244.50
758.84	242.57
759.17	242.14
759.49	241.86
759.82	242.43
760.15	242.24
760.47	241.69
760.80	240.93
761.13	241.00
761.45	240.55
761.78	240.26
762.11	239.64
762.43	238.69
762.76	238.38
763.08	238.36
763.41	238.55
763.74	238.29
764.06	237.90
764.39	237.88
764.71	237.86
765.04	237.55
765.37	237.05
765.69	236.86
766.02	236.48
766.34	235.98
766.67	234.90
767.00	234.90
767.32	235.71
767.65	236.38
767.97	235.64
768.30	235.83
768.62	235.90
768.95	235.62
769.27	235.45
769.60	235.48
769.92	234.76
770.25	233.95
770.57	233.21
770.90	233.10
771.22	232.79
771.55	232.50
771.87	232.38
772.20	232.52
772.52	233.81
772.85	236.07
773.17	236.02
773.50	235.57
773.82	234.95
774.15	233.67
774.47	232.24
774.80	231.98
775.12	231.45
775.45	230.86
775.77	230.83
776.09	230.74
776.42	230.55
776.74	231.02
777.07	230.90
777.39	230.74
777.72	230.33
778.04	230.14
778.36	229.86
778.69	229.76
779.01	229.40
779.33	227.69
779.66	225.19
779.98	224.93
780.31	224.95
780.63	225.62
780.95	225.86
781.28	225.81
781.60	225.74
781.92	225.79
782.25	225.81
782.57	225.57
782.89	225.10
783.22	224.81
783.54	224.33
783.86	224.38
784.19	224.29
784.51	224.83
784.83	224.71
785.16	224.33
785.48	224.12
785.80	223.95
786.12	224.12
786.45	223.88
786.77	224.12
787.09	223.79
787.42	223.21
787.74	222.98
788.06	222.98
788.38	222.57
788.71	222.14
789.03	222.05
789.35	222.19
789.67	222.14
789.99	222.14
790.32	221.83
790.64	222.12
790.96	223.88
791.28	222.93
791.61	222.74
791.93	223.07
792.25	222.95
792.57	224.45
792.89	223.79
793.21	223.93
793.54	223.50
793.86	223.43
794.18	223.19
794.50	222.88
794.82	223.00
795.14	223.40
795.47	224.00
795.79	223.93
796.11	223.74
796.43	223.50
796.75	223.43
797.07	223.31
797.39	222.90
797.71	221.45
798.04	221.52
798.36	221.76
798.68	221.36
799.00	221.33
799.32	220.21
799.64	220.81
799.96	220.81
800.28	221.19
800.60	221.02
800.92	221.19
801.24	221.10
801.56	220.79
801.89	220.50
802.21	220.17
802.53	219.93
802.85	220.14
803.17	221.14
803.49	220.52
803.81	220.60
804.13	220.50
804.45	220.19
804.77	220.33
805.09	220.07
805.41	219.86
805.73	219.55
806.05	219.02
806.37	218.76
806.69	218.57
807.01	218.26
807.33	218.50
807.65	217.62
807.97	218.45
808.28	218.33
808.60	218.19
808.92	217.95
809.24	219.19
809.56	218.67
809.88	217.95
810.20	218.31
810.52	218.57
810.84	218.26
811.16	218.10
811.48	217.79
811.80	218.40
812.12	218.40
812.43	218.79
812.75	218.88
813.07	218.43
813.39	218.45
813.71	218.14
814.03	217.88
814.35	218.02
814.67	217.19
814.98	217.14
815.30	217.29
815.62	216.93
815.94	215.45
816.26	215.48
816.58	215.19
816.89	215.31
817.21	214.88
817.53	215.17
817.85	215.19
818.17	215.33
818.48	214.62
818.80	214.90
819.12	214.45
819.44	214.14
819.76	214.10
820.07	214.02
820.39	214.33
820.71	214.57
821.03	214.64
821.34	214.67
821.66	215.21
821.98	215.29
822.30	215.33
822.61	216.52
822.93	216.64
823.25	216.40
823.57	215.95
823.88	216.36
824.20	216.17
824.52	216.40
824.83	216.24
825.15	216.07
825.47	216.05
825.79	216.33
826.10	216.19
826.42	216.14
826.74	216.38
827.05	216.12
827.37	216.12
827.69	216.00
828.00	215.98
828.32	215.64
828.64	215.38
828.95	216.38
829.27	215.90
829.58	215.83
829.90	216.31
830.22	216.60
830.53	216.05
830.85	215.76
831.17	215.52
831.48	215.40
831.80	215.50
832.11	215.26
832.43	214.64
832.75	214.81
833.06	216.07
833.38	215.36
833.69	215.00
834.01	214.86
834.32	214.76
834.64	214.38
834.96	214.38
835.27	214.26
835.59	213.62
835.90	213.10
836.22	212.95
836.53	212.69
836.85	212.62
837.16	214.57
837.48	214.55
837.79	214.93
838.11	215.29
838.42	215.12
838.74	215.31
839.05	215.33
839.37	215.31
839.68	213.79
840.00	213.93
840.31	214.38
840.63	214.21
840.94	214.07
841.26	214.14
841.57	214.07
841.88	214.29
842.20	214.14
842.51	213.95
842.83	213.86
843.14	215.71
843.46	215.60
843.77	214.57
844.08	214.43
844.40	213.86
844.71	213.64
845.03	213.67
845.34	213.64
845.65	213.64
845.97	213.52
846.28	213.95
846.60	214.10
846.91	213.69
847.22	213.71
847.54	214.21
847.85	214.21
848.16	213.71
848.48	213.31
848.79	214.19
849.10	214.31
849.42	214.50
849.73	212.36
850.04	212.33
850.36	211.45
850.67	212.00
850.98	212.10
851.30	212.21
851.61	212.12
851.92	211.95
852.23	212.79
852.55	212.83
852.86	212.71
853.17	212.83
853.49	213.31
853.80	213.64
854.11	213.88
854.42	214.10
854.74	214.43
855.05	214.52
855.36	213.33
855.67	213.43
855.99	213.45
856.30	216.07
856.61	215.95
856.92	215.98
857.23	215.93
857.55	215.93
857.86	215.74
858.17	215.95
858.48	215.90
858.79	215.17
859.11	215.45
859.42	215.40
859.73	215.07
860.04	215.00
860.35	214.52
860.66	213.62
860.98	213.48
861.29	213.52
861.60	213.43
861.91	213.98
862.22	213.83
862.53	213.48
862.84	211.07
863.16	211.67
863.47	211.48
863.78	211.33
864.09	211.48
864.40	211.88
864.71	211.98
865.02	212.14
865.33	211.98
865.64	211.69
865.95	211.62
866.27	212.98
866.58	212.74
866.89	212.88
867.20	213.00
867.51	212.74
867.82	212.64
868.13	213.52
868.44	213.05
868.75	213.40
869.06	213.67
869.37	214.00
869.68	213.29
869.99	213.76
870.30	213.79
870.61	213.79
870.92	213.24
871.23	212.93
871.54	213.07
871.85	213.79
872.16	213.95
872.47	213.86
872.78	212.64
873.09	212.93
873.40	212.88
873.71	212.90
874.02	213.02
874.33	212.98
874.64	212.40
874.95	212.81
875.26	212.45
875.56	212.48
875.87	212.07
876.18	212.10
876.49	214.00
876.80	214.17
877.11	213.71
877.42	213.93
877.73	213.93
878.04	213.64
878.35	213.55
878.66	213.71
878.96	213.98
879.27	214.07
879.58	214.05
879.89	214.00
880.20	214.90
880.51	215.00
880.82	214.95
881.12	214.90
881.43	214.40
881.74	214.12
882.05	214.05
882.36	214.26
882.67	214.33
882.97	212.31
883.28	211.88
883.59	212.00
883.90	212.31
884.21	212.69
884.51	212.62
884.82	212.05
885.13	211.98
885.44	211.74
885.74	211.71
886.05	211.45
886.36	211.55
886.67	210.57
886.98	211.29
887.28	211.57
887.59	211.60
887.90	211.69
888.20	211.62
888.51	211.69
888.82	211.38
889.13	211.57
889.43	213.02
889.74	212.98
890.05	212.90
890.35	212.62
890.66	212.38
890.97	212.38
891.28	212.43
891.58	212.40
891.89	212.21
892.20	211.98
892.50	211.74
892.81	211.57
893.12	211.67
893.42	211.02
893.73	211.02
894.04	211.05
894.34	211.12
894.65	211.29
894.95	211.29
895.26	211.50
895.57	212.50
895.87	210.69
896.18	211.10
896.48	211.19
896.79	211.00
897.10	211.24
897.40	211.38
897.71	211.71
898.01	211.48
898.32	212.07
898.63	211.83
898.93	212.12
899.24	212.17
899.54	212.24
899.85	212.05
900.15	212.00
900.46	212.10
900.76	212.36
901.07	212.21
901.38	212.29
901.68	212.31
901.99	211.38
902.29	211.50
902.60	211.24
902.90	211.05
903.21	211.02
903.51	210.95
903.82	211.36
904.12	211.52
904.43	211.74
904.73	211.38
905.03	211.86
905.34	213.76
905.64	213.71
905.95	213.74
906.25	213.79
906.56	213.48
906.86	213.38
907.17	213.19
907.47	213.45
907.77	213.19
908.08	212.90
908.38	213.02
908.69	213.10
908.99	213.74
909.30	214.05
909.60	214.10
909.90	214.12
910.21	213.38
910.51	212.98
910.81	213.02
911.12	213.21
911.42	213.12
911.73	211.05
912.03	211.21
912.33	211.38
912.64	211.31
912.94	211.29
913.24	211.10
913.55	210.76
913.85	210.64
914.15	211.00
914.46	211.33
914.76	211.10
915.06	210.98
915.37	210.40
915.67	209.95
915.97	209.95
916.27	209.52
916.58	209.83
916.88	209.67
917.18	209.50
917.49	210.76
917.79	210.67
918.09	211.02
918.39	211.52
918.70	211.43
919.00	211.43
919.30	212.48
919.60	212.14
919.91	212.19
920.21	212.21
920.51	211.64
920.81	211.43
921.12	211.71
921.42	211.76
921.72	211.95
922.02	212.21
922.32	212.52
922.63	212.76
922.93	213.60
923.23	213.86
923.53	213.76
923.83	212.38
924.13	212.62
924.44	212.62
924.74	212.69
925.04	213.05
925.34	213.05
925.64	212.24
925.94	212.26
926.24	213.24
926.55	213.12
926.85	213.74
927.15	213.71
927.45	213.55
927.75	213.45
928.05	213.40
928.35	213.21
928.65	213.69
928.95	213.79
929.26	212.90
929.56	213.21
929.86	213.45
930.16	213.60
930.46	213.29
930.76	213.33
931.06	212.62
931.36	212.12
931.66	212.57
931.96	212.62
932.26	212.76
932.56	211.93
932.86	212.12
933.16	211.95
933.46	211.98
933.76	211.90
934.06	212.40
934.36	212.95
934.66	213.21
934.96	212.90
935.26	213.00
935.56	213.50
935.86	212.98
936.16	212.71
936.46	212.29
936.76	212.24
937.06	211.81
937.36	211.88
937.66	212.02
937.96	211.71
938.26	211.48
938.56	211.55
938.86	211.95
939.16	212.52
939.46	212.64
939.76	212.48
940.06	212.40
940.35	211.79
940.65	210.88
940.95	211.05
941.25	210.45
941.55	210.31
941.85	210.10
942.15	210.79
942.45	211.31
942.75	211.43
943.04	211.62
943.34	212.24
943.64	212.10
943.94	211.88
944.24	211.93
944.54	211.86
944.84	211.71
945.13	211.24
945.43	210.55
945.73	210.48
946.03	210.55
946.33	210.38
946.62	210.43
946.92	210.62
947.22	210.76
947.52	210.98
947.82	211.00
948.11	210.98
948.41	210.14
948.71	209.64
949.01	209.69
949.31	209.43
949.60	209.14
949.90	209.48
950.20	209.40
950.50	209.43
950.79	209.48
951.09	209.69
951.39	209.93
951.69	209.81
951.98	210.31
952.28	210.38
952.58	210.36
952.87	210.31
953.17	210.38
953.47	210.24
953.76	210.12
954.06	209.90
954.36	209.48
954.66	209.52
954.95	210.00
955.25	210.24
955.55	210.69
955.84	210.50
956.14	210.60
956.44	210.79
956.73	210.33
957.03	210.43
957.32	210.71
957.62	210.45
957.92	210.93
958.21	210.71
958.51	213.38
958.81	213.64
959.10	214.10
959.40	214.52
959.69	214.57
959.99	214.81
960.29	214.90
960.58	215.17
960.88	215.93
961.17	215.57
961.47	215.86
961.76	215.48
962.06	215.67
962.36	215.43
962.65	215.62
962.95	215.76
963.24	215.62
963.54	215.55
963.83	215.79
964.13	215.60
964.42	214.93
964.72	213.05
965.01	213.07
965.31	212.76
965.60	212.26
965.90	213.52
966.19	213.26
966.49	213.33
966.78	213.05
967.08	212.81
967.37	212.95
967.67	212.24
967.96	212.60
968.26	212.64
968.55	212.98
968.85	212.60
969.14	212.74
969.43	212.88
969.73	212.52
970.02	212.36
970.32	212.31
970.61	212.43
970.91	211.71
971.20	211.40
971.49	211.33
971.79	211.52
972.08	210.05
972.38	210.19
972.67	210.10
972.96	210.43
973.26	210.14
973.55	210.74
973.85	210.74
974.14	210.52
974.43	210.48
974.73	209.95
975.02	210.00
975.31	209.90
975.61	209.71
975.90	209.62
976.19	209.55
976.49	209.88
976.78	209.98
977.07	210.02
977.37	210.38
977.66	210.62
977.95	210.52
978.24	210.67
978.54	211.14
978.83	210.95
979.12	210.52
979.42	210.60
979.71	210.07
980.00	210.31
980.29	210.67
980.59	210.38
980.88	211.05
981.17	211.02
981.46	211.14
981.76	211.12
982.05	211.86
982.34	211.86
982.63	211.40
982.93	211.36
983.22	211.98
983.51	211.69
983.80	211.95
984.09	212.10
984.39	211.81
984.68	211.33
984.97	211.55
985.26	211.67
985.55	211.76
985.85	211.33
986.14	211.64
986.43	211.60
986.72	211.50
987.01	210.98
987.30	210.90
987.59	210.62
987.89	210.90
988.18	210.33
988.47	210.24
988.76	210.19
989.05	210.12
989.34	209.71
989.63	210.40
989.92	210.00
990.22	209.57
990.51	209.62
990.80	209.33
991.09	209.40
991.38	209.55
991.67	209.40
991.96	209.48
992.25	209.40
992.54	209.02
992.83	209.24
993.12	209.19
993.41	209.62
993.70	210.52
993.99	210.48
994.28	210.64
994.58	210.90
994.87	210.76
995.16	210.55
995.45	210.45
995.74	209.83
996.03	210.31
996.32	210.93
996.61	211.48
996.90	211.57
997.19	211.50
997.48	211.67
997.77	211.38
998.06	211.33
998.34	211.02
998.63	211.21
998.92	211.36
999.21	211.45
999.50	211.50
999.79	210.74
1000.08	211.02
1000.37	210.83
1000.66	210.69
1000.95	211.31
1001.24	211.74
1001.53	211.90
1001.82	211.79
1002.11	211.07
1002.40	211.10
1002.68	211.50
1002.97	213.26
1003.26	213.21
1003.55	212.88
1003.84	213.19
1004.13	214.14
1004.42	214.12
1004.71	213.69
1004.99	213.24
1005.28	213.71
1005.57	213.57
1005.86	213.57
1006.15	213.19
1006.44	213.12
1006.72	213.43
1007.01	212.95
1007.30	212.71
1007.59	212.36
1007.88	212.43
1008.17	212.76
1008.45	212.38
1008.74	211.57
1009.03	210.45
1009.32	210.24
1009.60	210.19
1009.89	209.95
1010.18	209.00
1010.47	209.19
1010.76	209.26
1011.04	209.50
1011.33	209.62
1011.62	209.86
1011.91	209.98
1012.19	210.14
1012.48	210.26
1012.77	210.21
1013.05	211.17
1013.34	211.24
1013.63	211.33
1013.92	211.33
1014.20	211.19
1014.49	211.38
1014.78	211.57
1015.06	210.90
1015.35	210.79
1015.64	211.21
1015.92	211.60
1016.21	212.00
1016.50	211.90
1016.78	212.48
1017.07	212.60
1017.36	212.17
1017.64	211.62
1017.93	211.95
1018.22	211.81
1018.50	211.79
1018.79	211.71
1019.08	210.90
1019.36	211.19
1019.65	211.00
1019.93	211.55
1020.22	211.74
1020.51	212.52
1020.79	212.21
1021.08	208.50
1021.36	208.50
1021.65	212.50
1021.94	210.00
1022.22	215.50
1022.51	207.50
1022.79	219.50
1023.08	211.50
1023.36	231.50
1023.65	207.50
>>>>>End Processed Spectral Data<<<<<
