SpectraSuite Data File
++++++++++++++++++++++++++++++++++++
Date: Tue Apr 02 18:45:48 EDT 2013
User: group
Dark Spectrum Present: No
Reference Spectrum Present: No
Number of Sampled Component Spectra: 1
Spectrometers: USB2E7196
Integration Time (usec): 580000 (USB2E7196)
Spectra Averaged: 2 (USB2E7196)
Boxcar Smoothing: 10 (USB2E7196)
Correct for Electrical Dark: No (USB2E7196)
Strobe/Lamp Enabled: No (USB2E7196)
Correct for Detector Non-linearity: No (USB2E7196)
Correct for Stray Light: No (USB2E7196)
Number of Pixels in Processed Spectrum: 2048
>>>>>Begin Processed Spectral Data<<<<<
339.09	0.00
339.48	190.00
339.86	192.50
340.24	192.50
340.63	191.50
341.01	230.00
341.39	201.50
341.78	205.00
342.16	213.50
342.54	204.50
342.93	196.62
343.31	206.36
343.69	207.07
344.07	207.76
344.46	208.64
344.84	209.64
345.22	208.55
345.60	209.02
345.99	209.24
346.37	209.14
346.75	209.24
347.13	209.40
347.52	209.67
347.90	210.36
348.28	210.10
348.66	210.52
349.05	209.95
349.43	210.43
349.81	210.38
350.19	210.62
350.57	210.76
350.96	210.98
351.34	211.38
351.72	211.57
352.10	211.67
352.48	211.52
352.87	211.17
353.25	211.26
353.63	211.24
354.01	211.12
354.39	211.07
354.77	211.12
355.15	211.50
355.54	211.48
355.92	211.02
356.30	211.55
356.68	212.69
357.06	212.81
357.44	212.31
357.82	212.31
358.20	213.12
358.58	213.02
358.97	213.12
359.35	213.50
359.73	213.83
360.11	213.86
360.49	213.98
360.87	214.24
361.25	214.64
361.63	215.17
362.01	215.31
362.39	215.10
362.77	215.14
363.15	215.05
363.53	214.83
363.91	214.98
364.29	214.69
364.67	212.83
365.05	212.93
365.43	213.31
365.81	213.62
366.19	213.74
366.57	214.60
366.95	214.48
367.33	214.00
367.71	214.07
368.09	214.21
368.47	214.19
368.85	214.21
369.23	214.60
369.61	214.02
369.99	214.71
370.37	215.29
370.75	216.36
371.13	215.76
371.51	215.67
371.89	215.83
372.27	216.00
372.65	216.26
373.03	216.07
373.41	215.93
373.78	216.05
374.16	214.98
374.54	214.29
374.92	214.26
375.30	214.31
375.68	213.79
376.06	214.00
376.44	213.90
376.82	213.81
377.19	213.76
377.57	213.67
377.95	213.17
378.33	212.74
378.71	211.50
379.09	211.90
379.47	212.38
379.84	212.07
380.22	212.02
380.60	211.62
380.98	211.79
381.36	211.62
381.73	210.93
382.11	211.31
382.49	211.55
382.87	211.31
383.25	211.26
383.62	213.64
384.00	213.21
384.38	213.17
384.76	213.55
385.13	213.86
385.51	213.86
385.89	213.79
386.27	214.14
386.64	214.55
387.02	214.40
387.40	214.17
387.78	214.36
388.15	214.36
388.53	214.48
388.91	214.43
389.29	214.17
389.66	214.62
390.04	214.48
390.42	214.71
390.79	214.79
391.17	214.83
391.55	212.45
391.92	212.62
392.30	212.95
392.68	212.64
393.05	212.76
393.43	212.69
393.81	212.40
394.18	212.07
394.56	212.10
394.94	212.69
395.31	212.43
395.69	213.05
396.06	213.17
396.44	213.50
396.82	213.26
397.19	214.55
397.57	214.62
397.95	214.98
398.32	214.33
398.70	214.76
399.07	215.31
399.45	215.55
399.82	215.52
400.20	215.48
400.58	215.45
400.95	214.64
401.33	215.17
401.70	216.64
402.08	216.74
402.45	216.98
402.83	217.36
403.20	217.50
403.58	217.45
403.95	217.95
404.33	218.02
404.71	218.43
405.08	219.74
405.46	219.86
405.83	220.05
406.21	220.26
406.58	220.45
406.96	220.38
407.33	221.07
407.70	221.90
408.08	224.14
408.45	225.12
408.83	225.83
409.20	226.19
409.58	225.83
409.95	227.02
410.33	227.81
410.70	227.93
411.08	229.29
411.45	230.38
411.82	231.00
412.20	232.93
412.57	235.33
412.95	234.88
413.32	236.76
413.69	238.19
414.07	240.05
414.44	241.98
414.82	244.14
415.19	246.57
415.56	248.55
415.94	249.36
416.31	252.24
416.68	255.62
417.06	259.05
417.43	262.52
417.81	265.69
418.18	269.29
418.55	273.19
418.93	277.19
419.30	281.12
419.67	285.79
420.04	290.00
420.42	294.07
420.79	301.26
421.16	306.83
421.54	313.98
421.91	320.31
422.28	326.21
422.66	332.93
423.03	340.48
423.40	347.33
423.77	354.62
424.15	361.71
424.52	369.00
424.89	377.71
425.26	385.69
425.64	393.17
426.01	401.55
426.38	410.14
426.75	419.93
427.13	429.38
427.50	439.02
427.87	448.69
428.24	458.81
428.61	466.81
428.99	478.05
429.36	488.26
429.73	499.33
430.10	510.90
430.47	522.45
430.85	533.24
431.22	545.95
431.59	561.10
431.96	573.36
432.33	587.48
432.70	600.83
433.08	616.21
433.45	631.86
433.82	647.05
434.19	664.14
434.56	680.05
434.93	695.69
435.30	711.43
435.68	728.98
436.05	746.02
436.42	763.31
436.79	778.81
437.16	795.38
437.53	813.19
437.90	830.64
438.27	848.83
438.64	866.83
439.01	883.33
439.38	896.98
439.75	912.00
440.13	928.81
440.50	944.50
440.87	957.24
441.24	970.07
441.61	984.36
441.98	994.79
442.35	1006.76
442.72	1019.67
443.09	1032.17
443.46	1040.14
443.83	1045.31
444.20	1050.05
444.57	1056.48
444.94	1060.05
445.31	1063.95
445.68	1069.86
446.05	1070.76
446.42	1069.45
446.79	1068.40
447.16	1066.38
447.53	1065.64
447.90	1058.60
448.27	1052.00
448.64	1044.19
449.01	1038.57
449.37	1027.74
449.74	1017.38
450.11	1006.38
450.48	991.55
450.85	976.67
451.22	964.00
451.59	952.43
451.96	941.14
452.33	925.38
452.70	911.21
453.07	894.24
453.43	874.95
453.80	858.64
454.17	842.50
454.54	826.90
454.91	810.36
455.28	794.00
455.65	779.38
456.02	767.95
456.38	755.14
456.75	739.38
457.12	725.76
457.49	712.83
457.86	698.79
458.23	688.98
458.59	677.45
458.96	665.33
459.33	654.40
459.70	643.55
460.07	635.17
460.43	625.64
460.80	616.62
461.17	609.31
461.54	601.31
461.91	593.93
462.27	585.95
462.64	579.19
463.01	572.31
463.38	566.14
463.74	555.36
464.11	548.74
464.48	543.19
464.85	537.24
465.21	532.90
465.58	527.95
465.95	521.17
466.32	516.10
466.68	511.05
467.05	506.40
467.42	501.55
467.78	496.14
468.15	491.19
468.52	487.31
468.88	481.12
469.25	476.21
469.62	472.64
469.98	468.74
470.35	465.02
470.72	461.17
471.08	456.79
471.45	454.60
471.82	451.81
472.18	447.88
472.55	445.45
472.92	441.50
473.28	438.40
473.65	435.86
474.02	432.93
474.38	430.74
474.75	428.60
475.11	426.07
475.48	424.43
475.85	422.88
476.21	421.36
476.58	420.93
476.94	419.71
477.31	417.93
477.67	416.93
478.04	416.07
478.41	414.95
478.77	416.17
479.14	414.69
479.50	413.95
479.87	414.24
480.23	413.95
480.60	413.60
480.96	413.79
481.33	414.29
481.69	414.52
482.06	414.86
482.42	415.33
482.79	415.93
483.15	416.26
483.52	417.31
483.88	417.38
484.25	418.00
484.61	418.64
484.98	419.60
485.34	421.48
485.71	423.21
486.07	425.07
486.44	424.40
486.80	425.98
487.17	427.45
487.53	429.81
487.90	431.79
488.26	435.10
488.62	437.83
488.99	439.98
489.35	442.69
489.72	445.24
490.08	447.67
490.44	450.19
490.81	453.36
491.17	456.40
491.54	460.31
491.90	463.62
492.26	467.38
492.63	471.50
492.99	474.60
493.36	478.67
493.72	482.83
494.08	487.76
494.45	492.90
494.81	498.26
495.17	502.12
495.54	507.60
495.90	512.10
496.26	517.07
496.63	522.24
496.99	527.55
497.35	533.36
497.72	539.67
498.08	545.60
498.44	551.60
498.80	557.74
499.17	563.88
499.53	569.81
499.89	577.05
500.26	583.76
500.62	590.81
500.98	597.93
501.34	604.29
501.71	611.21
502.07	617.93
502.43	624.45
502.79	631.93
503.16	638.38
503.52	645.10
503.88	651.43
504.24	658.57
504.60	666.17
504.97	674.24
505.33	681.40
505.69	690.14
506.05	698.05
506.41	706.02
506.78	713.31
507.14	721.00
507.50	728.12
507.86	735.64
508.22	743.62
508.59	750.26
508.95	758.05
509.31	766.83
509.67	774.57
510.03	782.29
510.39	789.79
510.75	798.21
511.12	806.48
511.48	814.45
511.84	822.48
512.20	830.43
512.56	837.10
512.92	844.71
513.28	851.50
513.64	858.50
514.00	865.48
514.37	872.90
514.73	880.12
515.09	887.62
515.45	894.81
515.81	902.14
516.17	909.19
516.53	916.24
516.89	921.67
517.25	928.86
517.61	936.07
517.97	942.33
518.33	948.12
518.69	954.38
519.05	961.19
519.41	967.17
519.77	974.10
520.13	980.19
520.49	985.31
520.85	990.88
521.21	997.71
521.57	1004.05
521.93	1009.93
522.29	1015.48
522.65	1020.50
523.01	1025.88
523.37	1030.05
523.73	1035.02
524.09	1040.57
524.45	1045.19
524.81	1048.81
525.17	1053.40
525.53	1058.31
525.89	1063.07
526.25	1068.00
526.61	1072.02
526.97	1075.83
527.33	1079.48
527.68	1086.12
528.04	1090.88
528.40	1094.95
528.76	1098.60
529.12	1101.98
529.48	1106.69
529.84	1111.67
530.20	1116.10
530.56	1120.17
530.91	1124.67
531.27	1128.86
531.63	1132.10
531.99	1136.05
532.35	1140.74
532.71	1144.71
533.07	1148.71
533.42	1154.83
533.78	1159.05
534.14	1164.40
534.50	1169.12
534.86	1173.50
535.21	1175.12
535.57	1179.33
535.93	1183.21
536.29	1188.02
536.65	1192.98
537.00	1195.90
537.36	1199.07
537.72	1201.98
538.08	1205.52
538.44	1208.88
538.79	1213.17
539.15	1216.62
539.51	1220.50
539.87	1224.50
540.22	1228.17
540.58	1232.02
540.94	1234.12
541.29	1236.48
541.65	1237.60
542.01	1241.45
542.37	1243.74
542.72	1246.38
543.08	1248.31
543.44	1251.95
543.79	1253.10
544.15	1255.21
544.51	1259.26
544.87	1261.83
545.22	1264.74
545.58	1267.67
545.94	1270.00
546.29	1272.81
546.65	1275.83
547.01	1277.81
547.36	1280.05
547.72	1281.12
548.07	1283.90
548.43	1285.71
548.79	1288.38
549.14	1291.05
549.50	1292.79
549.86	1295.00
550.21	1297.64
550.57	1300.69
550.92	1302.64
551.28	1305.79
551.64	1307.76
551.99	1310.31
552.35	1313.31
552.70	1316.57
553.06	1319.43
553.41	1323.17
553.77	1326.79
554.13	1329.93
554.48	1334.52
554.84	1338.60
555.19	1343.26
555.55	1347.79
555.90	1351.07
556.26	1354.79
556.61	1358.64
556.97	1361.79
557.32	1365.40
557.68	1369.36
558.03	1373.24
558.39	1376.48
558.74	1379.43
559.10	1383.29
559.45	1386.60
559.81	1391.26
560.16	1395.24
560.52	1399.52
560.87	1404.24
561.23	1408.14
561.58	1413.36
561.94	1416.24
562.29	1419.48
562.64	1424.40
563.00	1427.88
563.35	1432.88
563.71	1437.81
564.06	1442.93
564.42	1448.93
564.77	1454.90
565.12	1461.00
565.48	1468.33
565.83	1474.86
566.19	1481.14
566.54	1487.00
566.89	1492.17
567.25	1497.86
567.60	1503.64
567.96	1511.12
568.31	1516.86
568.66	1523.17
569.02	1526.98
569.37	1533.40
569.72	1540.26
570.08	1544.93
570.43	1549.38
570.78	1555.64
571.14	1561.21
571.49	1566.45
571.84	1571.10
572.20	1575.05
572.55	1579.12
572.90	1582.14
573.26	1586.17
573.61	1590.69
573.96	1595.79
574.31	1601.17
574.67	1604.10
575.02	1608.45
575.37	1610.40
575.72	1613.74
576.08	1617.26
576.43	1622.24
576.78	1626.05
577.13	1629.48
577.49	1633.05
577.84	1638.48
578.19	1640.79
578.54	1644.93
578.90	1649.19
579.25	1653.12
579.60	1656.67
579.95	1660.19
580.30	1663.50
580.66	1667.86
581.01	1672.05
581.36	1674.55
581.71	1677.19
582.06	1682.60
582.42	1685.74
582.77	1689.02
583.12	1691.52
583.47	1694.43
583.82	1697.36
584.17	1700.48
584.53	1703.14
584.88	1706.55
585.23	1709.55
585.58	1713.24
585.93	1715.12
586.28	1717.36
586.63	1720.26
586.98	1724.19
587.34	1727.67
587.69	1730.62
588.04	1733.26
588.39	1735.50
588.74	1737.07
589.09	1739.60
589.44	1739.83
589.79	1742.17
590.14	1744.69
590.49	1747.36
590.84	1748.52
591.19	1750.40
591.54	1751.93
591.89	1752.83
592.25	1756.67
592.60	1757.36
592.95	1758.71
593.30	1760.57
593.65	1761.76
594.00	1761.52
594.35	1767.21
594.70	1767.07
595.05	1769.40
595.40	1770.10
595.75	1770.31
596.10	1772.86
596.45	1773.98
596.80	1775.86
597.15	1776.98
597.50	1777.55
597.85	1779.19
598.19	1779.67
598.54	1780.40
598.89	1781.17
599.24	1783.31
599.59	1781.71
599.94	1781.98
600.29	1782.45
600.64	1782.45
600.99	1782.38
601.34	1783.60
601.69	1779.02
602.04	1779.19
602.39	1777.40
602.74	1777.60
603.08	1777.93
603.43	1778.79
603.78	1777.83
604.13	1777.21
604.48	1775.79
604.83	1776.10
605.18	1774.64
605.53	1774.52
605.87	1773.24
606.22	1772.40
606.57	1770.19
606.92	1769.10
607.27	1767.60
607.62	1767.07
607.96	1766.93
608.31	1766.90
608.66	1766.62
609.01	1764.45
609.36	1763.57
609.70	1762.79
610.05	1760.33
610.40	1759.10
610.75	1755.36
611.10	1754.02
611.44	1751.55
611.79	1749.67
612.14	1747.26
612.49	1744.07
612.83	1742.17
613.18	1740.45
613.53	1737.43
613.88	1734.12
614.22	1731.38
614.57	1728.98
614.92	1725.69
615.27	1722.00
615.61	1718.26
615.96	1713.98
616.31	1711.02
616.65	1709.21
617.00	1706.31
617.35	1703.55
617.70	1701.05
618.04	1697.64
618.39	1693.93
618.74	1690.90
619.08	1687.67
619.43	1683.52
619.78	1681.29
620.12	1677.62
620.47	1673.14
620.82	1668.79
621.16	1664.52
621.51	1661.67
621.85	1657.64
622.20	1653.83
622.55	1649.38
622.89	1645.67
623.24	1643.40
623.59	1640.12
623.93	1635.38
624.28	1631.14
624.62	1629.29
624.97	1625.29
625.32	1622.07
625.66	1618.19
626.01	1614.79
626.35	1611.45
626.70	1607.33
627.04	1603.62
627.39	1599.81
627.73	1597.74
628.08	1595.12
628.43	1592.50
628.77	1587.93
629.12	1584.98
629.46	1581.38
629.81	1577.88
630.15	1573.12
630.50	1567.52
630.84	1562.57
631.19	1557.24
631.53	1552.71
631.88	1545.45
632.22	1539.02
632.57	1535.10
632.91	1529.90
633.26	1524.67
633.60	1519.12
633.95	1513.55
634.29	1507.74
634.64	1502.74
634.98	1496.71
635.32	1493.29
635.67	1490.00
636.01	1486.10
636.36	1480.95
636.70	1476.00
637.05	1471.60
637.39	1467.93
637.73	1463.76
638.08	1460.17
638.42	1456.31
638.77	1452.12
639.11	1447.76
639.45	1444.10
639.80	1437.93
640.14	1433.52
640.49	1429.12
640.83	1424.26
641.17	1420.12
641.52	1416.36
641.86	1410.79
642.20	1406.33
642.55	1399.83
642.89	1393.05
643.23	1386.29
643.58	1381.90
643.92	1375.55
644.26	1369.69
644.61	1364.36
644.95	1358.45
645.29	1352.26
645.64	1347.02
645.98	1341.52
646.32	1336.98
646.66	1330.52
647.01	1325.57
647.35	1320.19
647.69	1314.29
648.04	1309.62
648.38	1304.74
648.72	1298.64
649.06	1293.19
649.41	1287.10
649.75	1281.00
650.09	1275.40
650.43	1270.24
650.78	1262.93
651.12	1257.07
651.46	1250.64
651.80	1244.57
652.14	1238.95
652.49	1232.69
652.83	1226.29
653.17	1220.10
653.51	1213.07
653.85	1207.45
654.20	1200.88
654.54	1194.21
654.88	1187.74
655.22	1181.93
655.56	1174.90
655.90	1168.79
656.25	1163.29
656.59	1157.69
656.93	1151.95
657.27	1146.88
657.61	1140.05
657.95	1134.95
658.29	1129.26
658.64	1124.43
658.98	1117.24
659.32	1110.76
659.66	1104.74
660.00	1099.07
660.34	1092.64
660.68	1086.76
661.02	1080.48
661.36	1074.60
661.70	1068.98
662.05	1063.02
662.39	1056.48
662.73	1051.40
663.07	1045.83
663.41	1039.05
663.75	1032.71
664.09	1027.14
664.43	1020.33
664.77	1014.74
665.11	1007.33
665.45	1000.98
665.79	994.31
666.13	988.93
666.47	983.21
666.81	977.50
667.15	970.67
667.49	964.57
667.83	959.52
668.17	953.93
668.51	948.86
668.85	943.62
669.19	939.38
669.53	933.14
669.87	926.86
670.21	920.79
670.55	915.31
670.89	910.36
671.23	904.52
671.57	899.07
671.91	894.19
672.25	889.36
672.58	885.62
672.92	880.67
673.26	876.05
673.60	870.57
673.94	865.43
674.28	860.83
674.62	856.24
674.96	850.79
675.30	846.40
675.64	841.05
675.97	836.26
676.31	830.10
676.65	825.21
676.99	821.10
677.33	815.74
677.67	811.19
678.01	805.38
678.34	800.67
678.68	796.33
679.02	790.71
679.36	786.00
679.70	780.19
680.04	775.12
680.37	769.79
680.71	765.33
681.05	760.76
681.39	755.95
681.73	751.21
682.06	746.17
682.40	741.14
682.74	736.33
683.08	731.90
683.42	726.52
683.75	722.24
684.09	717.00
684.43	712.64
684.77	707.57
685.10	703.07
685.44	698.24
685.78	693.24
686.12	688.93
686.45	684.07
686.79	679.33
687.13	675.64
687.46	671.64
687.80	667.45
688.14	662.69
688.48	658.62
688.81	653.62
689.15	650.07
689.49	645.62
689.82	641.45
690.16	635.62
690.50	631.88
690.83	626.93
691.17	622.17
691.51	618.02
691.84	613.90
692.18	609.88
692.52	605.90
692.85	602.21
693.19	599.24
693.52	595.38
693.86	590.83
694.20	585.90
694.53	581.26
694.87	576.79
695.21	573.00
695.54	568.83
695.88	564.86
696.21	559.98
696.55	555.90
696.88	552.02
697.22	548.74
697.56	545.40
697.89	541.83
698.23	538.52
698.56	534.29
698.90	531.02
699.23	526.90
699.57	523.12
699.90	518.98
700.24	514.24
700.58	510.17
700.91	507.50
701.25	505.98
701.58	503.36
701.92	500.52
702.25	497.10
702.59	493.48
702.92	490.29
703.26	487.26
703.59	483.81
703.93	482.60
704.26	479.60
704.60	476.45
704.93	473.29
705.26	470.10
705.60	468.19
705.93	464.81
706.27	462.52
706.60	460.10
706.94	458.24
707.27	455.38
707.61	453.21
707.94	450.14
708.27	445.69
708.61	441.83
708.94	438.93
709.28	436.38
709.61	433.60
709.94	431.71
710.28	429.02
710.61	426.50
710.95	421.67
711.28	420.79
711.61	418.21
711.95	416.26
712.28	414.05
712.61	411.00
712.95	409.74
713.28	408.45
713.61	405.43
713.95	402.45
714.28	400.48
714.61	398.00
714.95	395.26
715.28	392.45
715.61	390.57
715.95	388.26
716.28	385.88
716.61	384.40
716.95	381.60
717.28	379.45
717.61	377.64
717.94	375.81
718.28	372.10
718.61	369.86
718.94	367.60
719.27	365.36
719.61	363.60
719.94	361.05
720.27	357.83
720.60	355.93
720.94	354.10
721.27	352.33
721.60	350.71
721.93	349.10
722.27	348.21
722.60	346.88
722.93	345.02
723.26	343.45
723.59	341.38
723.93	340.26
724.26	338.90
724.59	337.14
724.92	335.95
725.25	335.19
725.59	333.88
725.92	332.67
726.25	331.14
726.58	329.43
726.91	328.00
727.24	326.95
727.57	326.05
727.91	324.38
728.24	323.02
728.57	321.76
728.90	320.98
729.23	319.26
729.56	318.88
729.89	317.76
730.22	316.52
730.55	315.26
730.89	313.88
731.22	312.38
731.55	310.93
731.88	309.86
732.21	308.43
732.54	306.98
732.87	305.90
733.20	305.10
733.53	304.50
733.86	303.60
734.19	302.52
734.52	301.45
734.85	301.93
735.18	300.74
735.51	300.33
735.84	299.79
736.17	299.55
736.50	297.48
736.83	298.83
737.16	298.07
737.49	297.36
737.82	296.24
738.15	295.71
738.48	295.07
738.81	293.90
739.14	292.81
739.47	291.88
739.80	290.76
740.13	290.24
740.46	288.98
740.79	287.74
741.12	286.81
741.45	285.88
741.78	283.71
742.11	283.26
742.44	282.14
742.77	281.29
743.10	279.93
743.43	279.38
743.75	276.62
744.08	278.38
744.41	277.43
744.74	276.40
745.07	275.57
745.40	275.14
745.73	275.24
746.06	274.48
746.39	274.10
746.71	273.31
747.04	272.29
747.37	271.45
747.70	270.93
748.03	270.21
748.36	269.79
748.68	269.40
749.01	268.38
749.34	267.79
749.67	267.10
750.00	266.86
750.33	267.71
750.65	267.12
750.98	263.93
751.31	263.33
751.64	263.07
751.97	263.60
752.29	263.02
752.62	261.60
752.95	260.83
753.28	259.90
753.60	259.29
753.93	259.21
754.26	258.98
754.59	258.05
754.91	257.21
755.24	256.52
755.57	255.71
755.90	255.19
756.22	254.24
756.55	253.21
756.88	252.21
757.20	250.33
757.53	249.17
757.86	248.79
758.19	248.64
758.51	248.12
758.84	246.45
759.17	245.93
759.49	245.74
759.82	246.29
760.15	246.05
760.47	245.60
760.80	244.64
761.13	244.36
761.45	243.83
761.78	243.60
762.11	243.14
762.43	242.81
762.76	242.38
763.08	242.55
763.41	242.60
763.74	242.21
764.06	241.55
764.39	241.69
764.71	241.17
765.04	240.43
765.37	240.19
765.69	239.88
766.02	239.45
766.34	238.95
766.67	237.81
767.00	238.10
767.32	238.86
767.65	239.79
767.97	239.62
768.30	239.79
768.62	239.62
768.95	239.14
769.27	238.88
769.60	238.98
769.92	238.29
770.25	237.64
770.57	237.21
770.90	237.07
771.22	236.74
771.55	236.33
771.87	236.43
772.20	236.05
772.52	237.69
772.85	239.93
773.17	239.43
773.50	239.38
773.82	238.81
774.15	237.55
774.47	235.81
774.80	235.14
775.12	234.76
775.45	234.48
775.77	234.57
776.09	234.21
776.42	234.00
776.74	234.45
777.07	233.93
777.39	233.86
777.72	233.52
778.04	233.55
778.36	233.57
778.69	233.40
779.01	233.43
779.33	231.38
779.66	228.62
779.98	228.67
780.31	228.45
780.63	228.98
780.95	229.14
781.28	229.31
781.60	229.10
781.92	228.93
782.25	228.64
782.57	228.00
782.89	227.71
783.22	227.57
783.54	227.05
783.86	227.45
784.19	227.07
784.51	227.50
784.83	226.62
785.16	226.40
785.48	226.00
785.80	226.02
786.12	226.07
786.45	226.05
786.77	226.12
787.09	225.76
787.42	225.00
787.74	225.00
788.06	224.79
788.38	224.64
788.71	224.17
789.03	224.26
789.35	224.64
789.67	224.52
789.99	224.31
790.32	223.86
790.64	223.86
790.96	225.50
791.28	224.69
791.61	224.60
791.93	224.69
792.25	224.48
792.57	225.69
792.89	225.12
793.21	225.26
793.54	224.86
793.86	224.71
794.18	224.64
794.50	224.17
794.82	224.12
795.14	224.21
795.47	224.64
795.79	224.52
796.11	224.00
796.43	223.71
796.75	223.50
797.07	223.38
797.39	223.10
797.71	221.83
798.04	222.05
798.36	222.31
798.68	222.07
799.00	222.38
799.32	220.98
799.64	221.52
799.96	221.45
800.28	221.64
800.60	221.38
800.92	221.43
801.24	221.24
801.56	221.12
801.89	221.02
802.21	220.90
802.53	220.24
802.85	220.67
803.17	221.50
803.49	221.17
803.81	220.98
804.13	220.79
804.45	220.38
804.77	220.29
805.09	220.17
805.41	219.76
805.73	219.17
806.05	218.74
806.37	218.36
806.69	217.90
807.01	217.50
807.33	217.57
807.65	216.81
807.97	217.81
808.28	217.69
808.60	217.40
808.92	217.29
809.24	218.74
809.56	218.14
809.88	217.81
810.20	217.98
810.52	218.55
810.84	218.33
811.16	218.12
811.48	217.98
811.80	218.48
812.12	218.60
812.43	219.19
812.75	219.45
813.07	219.21
813.39	219.31
813.71	219.07
814.03	218.98
814.35	218.93
814.67	217.90
814.98	217.74
815.30	217.76
815.62	217.40
815.94	216.05
816.26	216.19
816.58	215.50
816.89	215.64
817.21	215.12
817.53	215.10
817.85	215.17
818.17	215.33
818.48	214.55
818.80	214.95
819.12	214.50
819.44	214.02
819.76	213.90
820.07	213.79
820.39	213.93
820.71	214.24
821.03	214.40
821.34	214.33
821.66	214.52
821.98	214.79
822.30	214.69
822.61	215.93
822.93	215.83
823.25	215.93
823.57	215.45
823.88	215.71
824.20	215.86
824.52	216.05
824.83	215.83
825.15	215.69
825.47	215.55
825.79	215.67
826.10	215.62
826.42	215.45
826.74	216.02
827.05	215.95
827.37	215.93
827.69	215.76
828.00	215.81
828.32	215.79
828.64	215.38
828.95	216.67
829.27	216.21
829.58	216.33
829.90	216.50
830.22	216.76
830.53	216.10
830.85	215.74
831.17	215.36
831.48	215.07
831.80	215.07
832.11	214.69
832.43	214.33
832.75	214.43
833.06	215.88
833.38	214.98
833.69	214.98
834.01	214.90
834.32	214.95
834.64	214.88
834.96	214.95
835.27	215.17
835.59	214.38
835.90	213.86
836.22	213.71
836.53	213.55
836.85	213.31
837.16	215.62
837.48	215.55
837.79	216.24
838.11	216.52
838.42	216.86
838.74	217.19
839.05	217.10
839.37	216.83
839.68	215.43
840.00	215.50
840.31	215.67
840.63	215.64
840.94	215.40
841.26	215.10
841.57	215.00
841.88	215.12
842.20	214.98
842.51	214.69
842.83	214.62
843.14	216.10
843.46	216.38
843.77	215.21
844.08	215.31
844.40	214.52
844.71	214.29
845.03	214.07
845.34	213.86
845.65	213.95
845.97	214.21
846.28	214.38
846.60	214.64
846.91	214.26
847.22	213.88
847.54	214.26
847.85	214.48
848.16	214.40
848.48	214.00
848.79	214.48
849.10	214.74
849.42	214.88
849.73	213.29
850.04	213.07
850.36	212.14
850.67	212.55
850.98	212.81
851.30	213.14
851.61	212.83
851.92	212.86
852.23	213.31
852.55	213.14
852.86	213.19
853.17	213.31
853.49	213.86
853.80	214.50
854.11	214.76
854.42	215.00
854.74	214.67
855.05	214.60
855.36	213.64
855.67	213.67
855.99	213.74
856.30	216.21
856.61	216.14
856.92	216.29
857.23	216.07
857.55	215.74
857.86	215.38
858.17	215.90
858.48	215.57
858.79	215.14
859.11	215.52
859.42	215.33
859.73	214.93
860.04	214.79
860.35	214.07
860.66	213.26
860.98	213.33
861.29	213.74
861.60	213.71
861.91	214.24
862.22	213.83
862.53	213.57
862.84	211.00
863.16	211.43
863.47	211.05
863.78	210.81
864.09	210.88
864.40	211.19
864.71	211.02
865.02	211.45
865.33	211.14
865.64	210.64
865.95	210.55
866.27	211.79
866.58	211.76
866.89	211.95
867.20	211.98
867.51	211.50
867.82	211.19
868.13	211.86
868.44	211.45
868.75	212.02
869.06	212.10
869.37	212.36
869.68	211.98
869.99	212.40
870.30	212.81
870.61	213.02
870.92	212.62
871.23	212.57
871.54	212.67
871.85	213.29
872.16	213.62
872.47	213.50
872.78	212.43
873.09	212.50
873.40	212.38
873.71	212.86
874.02	213.00
874.33	212.76
874.64	212.36
874.95	212.81
875.26	212.36
875.56	212.36
875.87	212.12
876.18	212.00
876.49	214.05
876.80	213.83
877.11	213.45
877.42	213.83
877.73	213.86
878.04	213.60
878.35	213.60
878.66	213.69
878.96	213.83
879.27	213.81
879.58	213.86
879.89	213.95
880.20	214.43
880.51	214.38
880.82	214.88
881.12	214.90
881.43	214.24
881.74	214.07
882.05	213.83
882.36	214.21
882.67	214.31
882.97	212.14
883.28	212.05
883.59	212.17
883.90	212.24
884.21	212.43
884.51	212.36
884.82	211.90
885.13	211.79
885.44	211.60
885.74	211.64
886.05	211.29
886.36	211.26
886.67	210.52
886.98	211.33
887.28	211.29
887.59	211.31
887.90	211.57
888.20	211.64
888.51	212.05
888.82	211.64
889.13	211.55
889.43	213.29
889.74	213.07
890.05	213.14
890.35	212.86
890.66	212.55
890.97	212.45
891.28	212.38
891.58	212.33
891.89	212.52
892.20	212.14
892.50	212.14
892.81	212.05
893.12	211.93
893.42	211.21
893.73	211.29
894.04	211.17
894.34	211.21
894.65	211.00
894.95	210.76
895.26	211.07
895.57	212.33
895.87	210.26
896.18	210.55
896.48	210.57
896.79	210.64
897.10	211.05
897.40	211.19
897.71	211.50
898.01	211.62
898.32	211.76
898.63	211.86
898.93	211.83
899.24	211.62
899.54	211.52
899.85	211.36
900.15	211.31
900.46	211.43
900.76	211.71
901.07	211.79
901.38	211.74
901.68	211.60
901.99	210.38
902.29	210.62
902.60	210.55
902.90	210.43
903.21	210.31
903.51	210.07
903.82	210.38
904.12	210.19
904.43	210.10
904.73	210.07
905.03	210.31
905.34	212.29
905.64	212.33
905.95	212.57
906.25	212.55
906.56	212.48
906.86	212.29
907.17	212.24
907.47	212.55
907.77	212.55
908.08	212.36
908.38	212.57
908.69	212.83
908.99	213.21
909.30	213.12
909.60	213.33
909.90	213.52
910.21	213.02
910.51	213.14
910.81	213.17
911.12	213.38
911.42	213.43
911.73	211.40
912.03	211.52
912.33	212.02
912.64	211.93
912.94	211.81
913.24	211.55
913.55	211.29
913.85	211.07
914.15	211.45
914.46	211.69
914.76	211.57
915.06	211.50
915.37	211.24
915.67	211.45
915.97	211.31
916.27	210.79
916.58	210.88
916.88	210.67
917.18	210.79
917.49	211.83
917.79	211.74
918.09	212.07
918.39	212.69
918.70	212.33
919.00	212.52
919.30	213.38
919.60	213.38
919.91	213.21
920.21	213.45
920.51	213.00
920.81	212.86
921.12	213.05
921.42	213.00
921.72	213.02
922.02	212.67
922.32	212.86
922.63	213.14
922.93	214.12
923.23	214.19
923.53	213.69
923.83	212.55
924.13	212.83
924.44	212.79
924.74	212.98
925.04	213.36
925.34	213.26
925.64	212.57
925.94	212.67
926.24	213.93
926.55	213.67
926.85	213.90
927.15	213.81
927.45	214.05
927.75	214.10
928.05	214.29
928.35	214.62
928.65	214.95
928.95	214.93
929.26	213.98
929.56	214.31
929.86	214.79
930.16	214.57
930.46	214.26
930.76	214.40
931.06	213.64
931.36	213.31
931.66	213.57
931.96	213.88
932.26	214.10
932.56	213.19
932.86	213.48
933.16	213.45
933.46	213.29
933.76	212.90
934.06	213.26
934.36	213.76
934.66	213.40
934.96	213.21
935.26	213.48
935.56	213.95
935.86	213.48
936.16	213.21
936.46	213.19
936.76	213.10
937.06	212.76
937.36	212.93
937.66	212.79
937.96	212.81
938.26	212.10
938.56	211.86
938.86	212.07
939.16	212.38
939.46	212.60
939.76	212.83
940.06	212.74
940.35	212.07
940.65	211.10
940.95	211.52
941.25	211.00
941.55	210.64
941.85	210.57
942.15	211.07
942.45	211.62
942.75	211.40
943.04	211.50
943.34	212.05
943.64	211.64
943.94	211.43
944.24	211.45
944.54	211.62
944.84	211.50
945.13	210.90
945.43	210.48
945.73	210.31
946.03	210.19
946.33	209.86
946.62	209.90
946.92	209.79
947.22	209.93
947.52	210.10
947.82	210.52
948.11	210.29
948.41	209.67
948.71	208.98
949.01	209.36
949.31	209.14
949.60	208.86
949.90	209.40
950.20	209.45
950.50	209.36
950.79	209.29
951.09	209.81
951.39	210.14
951.69	209.71
951.98	210.10
952.28	210.02
952.58	210.38
952.87	210.52
953.17	210.86
953.47	210.43
953.76	210.24
954.06	209.62
954.36	209.26
954.66	209.33
954.95	210.07
955.25	210.05
955.55	210.40
955.84	210.05
956.14	209.98
956.44	210.26
956.73	209.95
957.03	210.10
957.32	209.79
957.62	209.45
957.92	210.10
958.21	209.79
958.51	212.24
958.81	212.19
959.10	212.40
959.40	212.69
959.69	212.86
959.99	213.24
960.29	213.38
960.58	213.21
960.88	213.95
961.17	213.60
961.47	213.88
961.76	213.57
962.06	213.98
962.36	213.98
962.65	213.76
962.95	213.98
963.24	213.74
963.54	213.88
963.83	214.19
964.13	214.00
964.42	213.55
964.72	212.00
965.01	211.90
965.31	211.62
965.60	211.21
965.90	212.76
966.19	212.31
966.49	212.71
966.78	212.81
967.08	212.62
967.37	212.67
967.67	212.26
967.96	212.79
968.26	212.57
968.55	212.60
968.85	212.67
969.14	212.55
969.43	212.57
969.73	212.33
970.02	211.98
970.32	211.79
970.61	211.95
970.91	211.40
971.20	211.36
971.49	211.21
971.79	211.52
972.08	209.86
972.38	210.10
972.67	209.64
972.96	210.12
973.26	209.76
973.55	210.26
973.85	210.12
974.14	209.76
974.43	209.93
974.73	209.71
975.02	209.43
975.31	209.71
975.61	209.71
975.90	209.64
976.19	209.62
976.49	210.19
976.78	210.29
977.07	210.12
977.37	210.29
977.66	210.55
977.95	210.07
978.24	210.33
978.54	210.81
978.83	210.76
979.12	210.60
979.42	210.83
979.71	210.64
980.00	210.62
980.29	210.62
980.59	210.10
980.88	210.62
981.17	210.52
981.46	210.31
981.76	210.55
982.05	211.21
982.34	211.55
982.63	211.38
982.93	211.40
983.22	212.02
983.51	212.12
983.80	212.33
984.09	213.10
984.39	213.00
984.68	212.64
984.97	213.00
985.26	212.60
985.55	212.52
985.85	211.90
986.14	212.40
986.43	212.69
986.72	212.76
987.01	212.05
987.30	212.43
987.59	212.36
987.89	212.24
988.18	211.43
988.47	211.07
988.76	210.76
989.05	210.55
989.34	210.12
989.63	210.33
989.92	210.07
990.22	209.45
990.51	209.43
990.80	209.52
991.09	209.50
991.38	209.90
991.67	209.81
991.96	209.67
992.25	209.60
992.54	209.12
992.83	209.33
993.12	209.26
993.41	209.48
993.70	210.29
993.99	210.52
994.28	211.07
994.58	211.43
994.87	211.26
995.16	211.19
995.45	211.00
995.74	210.43
996.03	210.62
996.32	210.90
996.61	211.24
996.90	210.86
997.19	210.57
997.48	210.71
997.77	210.62
998.06	210.81
998.34	210.57
998.63	210.76
998.92	210.81
999.21	211.29
999.50	211.14
999.79	210.33
1000.08	210.36
1000.37	210.26
1000.66	209.93
1000.95	210.48
1001.24	210.76
1001.53	211.14
1001.82	211.14
1002.11	210.64
1002.40	210.83
1002.68	211.45
1002.97	213.14
1003.26	213.07
1003.55	212.71
1003.84	212.76
1004.13	213.55
1004.42	213.43
1004.71	213.45
1004.99	213.17
1005.28	213.57
1005.57	213.40
1005.86	213.26
1006.15	213.24
1006.44	213.05
1006.72	213.29
1007.01	212.95
1007.30	212.81
1007.59	212.45
1007.88	212.38
1008.17	212.55
1008.45	212.10
1008.74	211.12
1009.03	210.05
1009.32	210.02
1009.60	209.90
1009.89	209.81
1010.18	208.79
1010.47	208.67
1010.76	208.67
1011.04	208.79
1011.33	208.60
1011.62	208.88
1011.91	209.12
1012.19	209.14
1012.48	209.17
1012.77	209.26
1013.05	210.19
1013.34	210.24
1013.63	210.14
1013.92	210.36
1014.20	210.14
1014.49	210.19
1014.78	210.48
1015.06	209.86
1015.35	209.83
1015.64	210.29
1015.92	210.50
1016.21	210.88
1016.50	211.10
1016.78	211.43
1017.07	211.50
1017.36	211.26
1017.64	210.83
1017.93	210.90
1018.22	210.62
1018.50	210.69
1018.79	210.38
1019.08	209.48
1019.36	209.64
1019.65	209.64
1019.93	210.12
1020.22	210.43
1020.51	211.60
1020.79	211.19
1021.08	207.00
1021.36	209.50
1021.65	206.50
1021.94	210.50
1022.22	212.50
1022.51	207.50
1022.79	219.00
1023.08	210.00
1023.36	234.50
1023.65	206.00
>>>>>End Processed Spectral Data<<<<<
