SpectraSuite Data File
++++++++++++++++++++++++++++++++++++
Date: Tue Apr 02 18:44:41 EDT 2013
User: group
Dark Spectrum Present: No
Reference Spectrum Present: No
Number of Sampled Component Spectra: 1
Spectrometers: USB2E7196
Integration Time (usec): 580000 (USB2E7196)
Spectra Averaged: 2 (USB2E7196)
Boxcar Smoothing: 10 (USB2E7196)
Correct for Electrical Dark: No (USB2E7196)
Strobe/Lamp Enabled: No (USB2E7196)
Correct for Detector Non-linearity: No (USB2E7196)
Correct for Stray Light: No (USB2E7196)
Number of Pixels in Processed Spectrum: 2048
>>>>>Begin Processed Spectral Data<<<<<
339.09	0.00
339.48	194.00
339.86	195.00
340.24	194.00
340.63	197.00
341.01	232.50
341.39	201.00
341.78	212.00
342.16	210.50
342.54	205.00
342.93	198.19
343.31	208.05
343.69	208.74
344.07	209.33
344.46	210.36
344.84	210.98
345.22	209.67
345.60	210.36
345.99	210.31
346.37	210.36
346.75	210.67
347.13	210.95
347.52	211.02
347.90	211.81
348.28	211.88
348.66	212.48
349.05	211.81
349.43	212.14
349.81	212.40
350.19	212.24
350.57	212.36
350.96	212.60
351.34	212.98
351.72	212.83
352.10	212.93
352.48	212.50
352.87	212.50
353.25	212.64
353.63	212.12
354.01	212.12
354.39	212.21
354.77	212.26
355.15	212.50
355.54	212.26
355.92	211.60
356.30	211.74
356.68	212.74
357.06	213.05
357.44	212.79
357.82	212.71
358.20	213.90
358.58	213.86
358.97	213.74
359.35	214.07
359.73	214.62
360.11	214.48
360.49	214.69
360.87	214.55
361.25	214.52
361.63	215.43
362.01	215.33
362.39	215.21
362.77	215.26
363.15	215.10
363.53	215.10
363.91	215.31
364.29	215.12
364.67	213.21
365.05	213.19
365.43	213.43
365.81	213.43
366.19	213.48
366.57	214.19
366.95	214.19
367.33	213.50
367.71	213.45
368.09	213.76
368.47	213.93
368.85	213.93
369.23	214.67
369.61	213.90
369.99	214.71
370.37	214.79
370.75	215.64
371.13	215.19
371.51	215.17
371.89	215.29
372.27	215.43
372.65	215.67
373.03	215.64
373.41	215.38
373.78	215.38
374.16	214.29
374.54	213.62
374.92	213.38
375.30	213.48
375.68	213.21
376.06	213.38
376.44	212.93
376.82	213.24
377.19	213.14
377.57	213.19
377.95	212.36
378.33	212.36
378.71	211.12
379.09	211.48
379.47	211.69
379.84	211.52
380.22	211.48
380.60	211.00
380.98	210.88
381.36	211.05
381.73	210.81
382.11	211.02
382.49	211.02
382.87	210.93
383.25	211.07
383.62	213.36
384.00	212.93
384.38	213.33
384.76	213.69
385.13	214.38
385.51	214.57
385.89	214.74
386.27	214.79
386.64	215.26
387.02	215.21
387.40	215.05
387.78	215.14
388.15	215.26
388.53	215.48
388.91	215.67
389.29	215.50
389.66	215.71
390.04	215.79
390.42	216.24
390.79	216.62
391.17	216.57
391.55	214.60
391.92	214.57
392.30	214.67
392.68	214.31
393.05	214.29
393.43	214.17
393.81	214.19
394.18	213.98
394.56	214.10
394.94	214.62
395.31	214.33
395.69	215.10
396.06	215.43
396.44	215.50
396.82	215.19
397.19	216.05
397.57	216.24
397.95	216.52
398.32	216.00
398.70	216.12
399.07	216.55
399.45	216.10
399.82	216.38
400.20	216.10
400.58	216.00
400.95	214.95
401.33	215.26
401.70	216.71
402.08	216.79
402.45	216.88
402.83	217.33
403.20	217.79
403.58	217.43
403.95	217.67
404.33	218.26
404.71	218.67
405.08	219.86
405.46	219.98
405.83	220.21
406.21	220.74
406.58	221.05
406.96	221.31
407.33	222.12
407.70	222.69
408.08	224.93
408.45	225.76
408.83	226.93
409.20	227.26
409.58	226.52
409.95	227.60
410.33	228.55
410.70	228.74
411.08	230.05
411.45	230.81
411.82	231.74
412.20	233.31
412.57	235.64
412.95	235.45
413.32	237.17
413.69	238.81
414.07	240.48
414.44	242.50
414.82	244.50
415.19	246.90
415.56	249.29
415.94	250.40
416.31	253.26
416.68	255.95
417.06	259.57
417.43	263.36
417.81	266.88
418.18	270.38
418.55	274.12
418.93	277.93
419.30	282.31
419.67	286.76
420.04	291.12
420.42	295.12
420.79	302.00
421.16	307.43
421.54	313.90
421.91	319.86
422.28	325.98
422.66	332.45
423.03	340.17
423.40	346.64
423.77	353.88
424.15	360.79
424.52	368.43
424.89	376.93
425.26	384.50
425.64	392.17
426.01	400.29
426.38	409.10
426.75	418.50
427.13	427.88
427.50	437.55
427.87	447.05
428.24	457.24
428.61	465.86
428.99	476.90
429.36	487.57
429.73	498.90
430.10	510.48
430.47	522.10
430.85	533.12
431.22	545.90
431.59	560.71
431.96	574.05
432.33	588.38
432.70	602.07
433.08	618.36
433.45	633.52
433.82	648.67
434.19	665.60
434.56	682.38
434.93	698.05
435.30	713.71
435.68	731.95
436.05	749.02
436.42	765.88
436.79	782.00
437.16	798.31
437.53	816.83
437.90	834.26
438.27	852.00
438.64	869.71
439.01	886.45
439.38	900.07
439.75	914.29
440.13	930.81
440.50	946.10
440.87	958.17
441.24	971.57
441.61	986.26
441.98	997.26
442.35	1009.24
442.72	1022.36
443.09	1036.43
443.46	1044.05
443.83	1049.40
444.20	1054.17
444.57	1060.12
444.94	1063.86
445.31	1066.05
445.68	1071.62
446.05	1073.21
446.42	1071.74
446.79	1070.57
447.16	1068.48
447.53	1067.64
447.90	1061.55
448.27	1055.64
448.64	1047.52
449.01	1041.55
449.37	1030.86
449.74	1019.33
450.11	1008.31
450.48	993.45
450.85	976.88
451.22	963.93
451.59	952.07
451.96	941.10
452.33	925.50
452.70	911.50
453.07	895.33
453.43	875.79
453.80	859.24
454.17	843.40
454.54	828.43
454.91	812.57
455.28	796.38
455.65	781.38
456.02	769.21
456.38	756.93
456.75	740.83
457.12	727.67
457.49	715.33
457.86	700.79
458.23	690.98
458.59	679.86
458.96	667.98
459.33	657.21
459.70	646.02
460.07	637.83
460.43	628.17
460.80	619.21
461.17	612.31
461.54	604.29
461.91	596.33
462.27	587.76
462.64	580.76
463.01	573.45
463.38	567.14
463.74	556.52
464.11	549.64
464.48	544.50
464.85	537.81
465.21	533.40
465.58	528.31
465.95	521.69
466.32	516.02
466.68	510.76
467.05	505.74
467.42	500.95
467.78	495.43
468.15	490.62
468.52	486.95
468.88	481.10
469.25	476.29
469.62	473.33
469.98	469.74
470.35	466.17
470.72	462.48
471.08	457.43
471.45	454.95
471.82	452.21
472.18	448.43
472.55	446.02
472.92	442.36
473.28	439.60
473.65	436.71
474.02	434.33
474.38	432.07
474.75	430.14
475.11	427.67
475.48	426.00
475.85	424.26
476.21	422.29
476.58	421.36
476.94	420.38
477.31	418.81
477.67	417.43
478.04	416.10
478.41	415.36
478.77	416.76
479.14	415.60
479.50	414.86
479.87	414.67
480.23	414.40
480.60	414.24
480.96	414.19
481.33	415.05
481.69	415.14
482.06	415.50
482.42	416.10
482.79	416.71
483.15	417.02
483.52	417.90
483.88	418.40
484.25	418.74
484.61	419.38
484.98	420.19
485.34	421.76
485.71	423.48
486.07	425.21
486.44	424.93
486.80	426.90
487.17	428.50
487.53	431.07
487.90	432.74
488.26	435.55
488.62	437.93
488.99	439.93
489.35	442.69
489.72	445.17
490.08	447.52
490.44	449.98
490.81	453.31
491.17	456.76
491.54	460.43
491.90	463.90
492.26	467.14
492.63	470.83
492.99	474.50
493.36	478.43
493.72	482.36
494.08	486.52
494.45	491.02
494.81	496.12
495.17	499.93
495.54	505.31
495.90	509.55
496.26	515.02
496.63	520.12
496.99	525.57
497.35	531.21
497.72	536.93
498.08	543.12
498.44	549.10
498.80	555.38
499.17	561.36
499.53	567.74
499.89	574.88
500.26	581.45
500.62	588.48
500.98	595.98
501.34	603.00
501.71	610.50
502.07	617.19
502.43	623.93
502.79	631.38
503.16	638.40
503.52	646.10
503.88	652.88
504.24	660.29
504.60	667.52
504.97	675.95
505.33	683.71
505.69	692.19
506.05	699.93
506.41	707.45
506.78	715.14
507.14	723.00
507.50	730.76
507.86	738.83
508.22	746.60
508.59	753.31
508.95	761.60
509.31	770.45
509.67	778.57
510.03	786.14
510.39	794.17
510.75	801.64
511.12	809.57
511.48	816.93
511.84	824.60
512.20	832.57
512.56	839.60
512.92	847.00
513.28	853.98
513.64	861.45
514.00	868.48
514.37	876.00
514.73	882.95
515.09	891.00
515.45	897.52
515.81	904.33
516.17	911.36
516.53	916.71
516.89	922.05
517.25	928.52
517.61	935.17
517.97	941.29
518.33	947.79
518.69	953.57
519.05	960.52
519.41	966.57
519.77	973.81
520.13	979.36
520.49	985.02
520.85	989.86
521.21	996.67
521.57	1002.50
521.93	1007.43
522.29	1013.31
522.65	1017.17
523.01	1023.12
523.37	1027.48
523.73	1033.05
524.09	1038.81
524.45	1044.00
524.81	1048.02
525.17	1053.26
525.53	1058.24
525.89	1063.45
526.25	1068.60
526.61	1072.31
526.97	1076.55
527.33	1079.64
527.68	1086.17
528.04	1091.00
528.40	1095.83
528.76	1099.48
529.12	1103.74
529.48	1108.98
529.84	1112.95
530.20	1117.69
530.56	1121.81
530.91	1127.26
531.27	1131.36
531.63	1135.45
531.99	1139.26
532.35	1143.88
532.71	1147.57
533.07	1151.19
533.42	1157.00
533.78	1161.26
534.14	1166.17
534.50	1170.48
534.86	1174.74
535.21	1176.98
535.57	1181.38
535.93	1185.00
536.29	1189.00
536.65	1192.90
537.00	1195.76
537.36	1198.88
537.72	1202.69
538.08	1205.74
538.44	1208.07
538.79	1211.69
539.15	1214.10
539.51	1217.57
539.87	1221.26
540.22	1224.83
540.58	1228.86
540.94	1230.19
541.29	1233.55
541.65	1235.21
542.01	1238.17
542.37	1240.29
542.72	1242.45
543.08	1243.62
543.44	1246.40
543.79	1247.60
544.15	1251.05
544.51	1254.60
544.87	1258.57
545.22	1260.88
545.58	1264.29
545.94	1266.81
546.29	1269.02
546.65	1272.69
547.01	1275.14
547.36	1277.88
547.72	1280.26
548.07	1282.29
548.43	1283.90
548.79	1285.38
549.14	1288.71
549.50	1292.10
549.86	1294.76
550.21	1297.29
550.57	1301.19
550.92	1304.17
551.28	1308.21
551.64	1310.50
551.99	1312.88
552.35	1315.07
552.70	1318.50
553.06	1321.05
553.41	1324.67
553.77	1329.12
554.13	1332.95
554.48	1337.62
554.84	1342.07
555.19	1345.81
555.55	1350.62
555.90	1355.43
556.26	1359.60
556.61	1363.50
556.97	1366.45
557.32	1370.69
557.68	1375.31
558.03	1379.02
558.39	1382.76
558.74	1386.26
559.10	1390.81
559.45	1394.81
559.81	1399.02
560.16	1402.36
560.52	1407.17
560.87	1413.00
561.23	1415.43
561.58	1421.02
561.94	1424.10
562.29	1427.52
562.64	1432.67
563.00	1436.33
563.35	1440.57
563.71	1445.90
564.06	1451.26
564.42	1457.07
564.77	1462.86
565.12	1468.55
565.48	1475.26
565.83	1481.55
566.19	1486.79
566.54	1491.93
566.89	1498.36
567.25	1505.14
567.60	1511.74
567.96	1518.90
568.31	1524.43
568.66	1532.52
569.02	1536.60
569.37	1542.62
569.72	1548.71
570.08	1553.10
570.43	1558.17
570.78	1564.69
571.14	1569.62
571.49	1574.52
571.84	1579.71
572.20	1584.45
572.55	1589.38
572.90	1593.00
573.26	1597.71
573.61	1603.10
573.96	1607.43
574.31	1611.67
574.67	1615.24
575.02	1618.93
575.37	1620.98
575.72	1624.24
576.08	1626.93
576.43	1629.83
576.78	1633.64
577.13	1637.95
577.49	1642.24
577.84	1646.79
578.19	1649.57
578.54	1653.00
578.90	1656.98
579.25	1660.14
579.60	1664.10
579.95	1666.81
580.30	1670.36
580.66	1674.00
581.01	1677.45
581.36	1680.31
581.71	1683.81
582.06	1687.76
582.42	1692.24
582.77	1695.31
583.12	1698.40
583.47	1702.38
583.82	1706.98
584.17	1709.74
584.53	1712.33
584.88	1715.45
585.23	1719.05
585.58	1721.83
585.93	1724.43
586.28	1727.62
586.63	1730.38
586.98	1732.76
587.34	1736.57
587.69	1739.31
588.04	1742.05
588.39	1743.57
588.74	1745.45
589.09	1748.05
589.44	1748.07
589.79	1749.60
590.14	1752.45
590.49	1754.33
590.84	1755.55
591.19	1757.62
591.54	1759.29
591.89	1759.57
592.25	1762.71
592.60	1763.14
592.95	1764.81
593.30	1767.17
593.65	1767.40
594.00	1768.05
594.35	1775.24
594.70	1775.02
595.05	1775.83
595.40	1775.93
595.75	1777.57
596.10	1779.21
596.45	1780.07
596.80	1781.83
597.15	1782.17
597.50	1782.07
597.85	1783.14
598.19	1782.90
598.54	1782.69
598.89	1783.33
599.24	1785.12
599.59	1783.74
599.94	1784.00
600.29	1784.10
600.64	1784.02
600.99	1784.83
601.34	1785.57
601.69	1779.29
602.04	1779.31
602.39	1779.38
602.74	1780.24
603.08	1779.40
603.43	1779.67
603.78	1778.24
604.13	1778.69
604.48	1778.31
604.83	1778.43
605.18	1778.24
605.53	1778.45
605.87	1777.21
606.22	1776.38
606.57	1775.07
606.92	1774.33
607.27	1773.31
607.62	1772.71
607.96	1772.02
608.31	1770.93
608.66	1769.36
609.01	1767.21
609.36	1766.93
609.70	1765.64
610.05	1762.62
610.40	1760.55
610.75	1757.88
611.10	1757.21
611.44	1753.60
611.79	1751.10
612.14	1748.26
612.49	1744.10
612.83	1741.17
613.18	1739.17
613.53	1735.86
613.88	1732.10
614.22	1728.88
614.57	1725.64
614.92	1722.05
615.27	1717.93
615.61	1713.07
615.96	1709.07
616.31	1706.50
616.65	1703.69
617.00	1700.71
617.35	1698.55
617.70	1696.52
618.04	1693.48
618.39	1688.40
618.74	1685.86
619.08	1681.93
619.43	1678.83
619.78	1676.31
620.12	1672.71
620.47	1668.45
620.82	1664.17
621.16	1660.33
621.51	1657.10
621.85	1653.14
622.20	1649.10
622.55	1645.26
622.89	1642.71
623.24	1639.45
623.59	1635.52
623.93	1630.90
624.28	1626.43
624.62	1623.69
624.97	1620.52
625.32	1615.90
625.66	1612.33
626.01	1607.48
626.35	1603.76
626.70	1598.83
627.04	1594.83
627.39	1590.43
627.73	1588.10
628.08	1585.76
628.43	1582.10
628.77	1577.43
629.12	1574.33
629.46	1571.14
629.81	1567.19
630.15	1562.38
630.50	1558.19
630.84	1553.07
631.19	1548.24
631.53	1542.88
631.88	1535.19
632.22	1528.14
632.57	1524.60
632.91	1519.67
633.26	1516.29
633.60	1511.24
633.95	1506.69
634.29	1501.81
634.64	1498.21
634.98	1492.81
635.32	1488.76
635.67	1484.67
636.01	1480.40
636.36	1475.21
636.70	1470.57
637.05	1465.90
637.39	1461.95
637.73	1458.29
638.08	1455.05
638.42	1451.00
638.77	1446.76
639.11	1442.93
639.45	1439.38
639.80	1433.57
640.14	1428.43
640.49	1423.29
640.83	1418.57
641.17	1414.02
641.52	1408.26
641.86	1402.45
642.20	1398.14
642.55	1392.10
642.89	1386.36
643.23	1380.95
643.58	1376.93
643.92	1370.31
644.26	1364.38
644.61	1358.62
644.95	1352.12
645.29	1345.52
645.64	1339.50
645.98	1334.50
646.32	1328.86
646.66	1322.62
647.01	1316.62
647.35	1311.19
647.69	1305.26
648.04	1300.60
648.38	1295.21
648.72	1290.50
649.06	1283.93
649.41	1276.98
649.75	1270.21
650.09	1264.52
650.43	1258.24
650.78	1250.83
651.12	1244.40
651.46	1238.26
651.80	1232.40
652.14	1226.55
652.49	1220.55
652.83	1213.69
653.17	1206.17
653.51	1200.17
653.85	1193.69
654.20	1188.21
654.54	1181.33
654.88	1174.57
655.22	1168.21
655.56	1161.48
655.90	1154.52
656.25	1148.71
656.59	1142.64
656.93	1136.86
657.27	1131.19
657.61	1124.93
657.95	1118.86
658.29	1112.79
658.64	1107.64
658.98	1100.71
659.32	1093.76
659.66	1087.48
660.00	1081.50
660.34	1076.64
660.68	1070.10
661.02	1064.31
661.36	1057.83
661.70	1052.79
662.05	1046.79
662.39	1040.55
662.73	1034.57
663.07	1029.71
663.41	1024.24
663.75	1017.31
664.09	1011.33
664.43	1004.62
664.77	998.21
665.11	991.55
665.45	986.31
665.79	979.81
666.13	974.17
666.47	968.17
666.81	962.26
667.15	956.40
667.49	950.48
667.83	945.52
668.17	939.31
668.51	933.67
668.85	927.60
669.19	922.76
669.53	916.19
669.87	910.33
670.21	903.95
670.55	897.95
670.89	893.64
671.23	887.74
671.57	882.17
671.91	877.24
672.25	872.50
672.58	868.02
672.92	862.38
673.26	857.00
673.60	851.76
673.94	846.64
674.28	841.19
674.62	836.00
674.96	830.55
675.30	825.86
675.64	820.48
675.97	815.90
676.31	810.52
676.65	805.33
676.99	801.45
677.33	796.10
677.67	791.93
678.01	786.29
678.34	781.95
678.68	778.00
679.02	772.64
679.36	767.31
679.70	761.50
680.04	756.74
680.37	752.02
680.71	747.26
681.05	742.57
681.39	737.93
681.73	732.81
682.06	727.67
682.40	722.69
682.74	718.50
683.08	714.05
683.42	708.81
683.75	704.64
684.09	699.00
684.43	694.14
684.77	688.50
685.10	684.17
685.44	679.50
685.78	674.38
686.12	670.10
686.45	665.43
686.79	660.55
687.13	656.38
687.46	651.79
687.80	648.45
688.14	644.19
688.48	640.07
688.81	635.81
689.15	632.52
689.49	628.43
689.82	624.02
690.16	618.90
690.50	614.81
690.83	610.48
691.17	605.79
691.51	602.07
691.84	597.95
692.18	593.45
692.52	589.02
692.85	585.05
693.19	582.17
693.52	578.33
693.86	574.50
694.20	569.98
694.53	565.95
694.87	560.76
695.21	556.64
695.54	552.64
695.88	548.10
696.21	543.17
696.55	539.38
696.88	535.71
697.22	531.86
697.56	528.48
697.89	524.36
698.23	521.26
698.56	517.17
698.90	513.90
699.23	509.86
699.57	506.79
699.90	503.02
700.24	498.64
700.58	495.14
700.91	492.10
701.25	490.79
701.58	488.48
701.92	486.02
702.25	482.64
702.59	479.21
702.92	476.29
703.26	473.48
703.59	470.31
703.93	468.79
704.26	465.98
704.60	462.79
704.93	459.74
705.26	456.52
705.60	453.88
705.93	450.93
706.27	448.93
706.60	446.38
706.94	444.40
707.27	440.93
707.61	438.05
707.94	434.90
708.27	430.43
708.61	426.74
708.94	423.98
709.28	421.45
709.61	418.98
709.94	416.57
710.28	413.90
710.61	411.45
710.95	406.81
711.28	405.86
711.61	403.71
711.95	402.05
712.28	399.52
712.61	397.07
712.95	395.83
713.28	394.36
713.61	391.60
713.95	388.74
714.28	387.19
714.61	385.21
714.95	383.38
715.28	381.10
715.61	378.79
715.95	376.69
716.28	374.83
716.61	373.14
716.95	370.95
717.28	368.57
717.61	366.50
717.94	364.86
718.28	361.40
718.61	359.14
718.94	356.83
719.27	355.14
719.61	353.57
719.94	350.86
720.27	348.02
720.60	346.12
720.94	344.55
721.27	343.00
721.60	341.67
721.93	339.81
722.27	339.07
722.60	338.02
722.93	336.55
723.26	335.02
723.59	333.24
723.93	332.12
724.26	331.45
724.59	329.74
724.92	328.64
725.25	327.83
725.59	326.57
725.92	325.74
726.25	324.79
726.58	323.76
726.91	322.40
727.24	321.52
727.57	320.55
727.91	318.88
728.24	317.64
728.57	316.10
728.90	315.26
729.23	313.38
729.56	312.74
729.89	311.50
730.22	309.88
730.55	308.81
730.89	307.52
731.22	306.07
731.55	305.29
731.88	304.14
732.21	302.83
732.54	301.62
732.87	300.43
733.20	299.36
733.53	298.24
733.86	297.31
734.19	296.05
734.52	295.26
734.85	295.86
735.18	294.69
735.51	294.60
735.84	293.67
736.17	293.12
736.50	291.67
736.83	292.81
737.16	292.19
737.49	291.02
737.82	290.00
738.15	289.43
738.48	288.67
738.81	287.79
739.14	286.64
739.47	285.95
739.80	285.02
740.13	284.21
740.46	283.05
740.79	282.21
741.12	281.19
741.45	280.36
741.78	278.64
742.11	278.55
742.44	277.14
742.77	276.67
743.10	275.69
743.43	274.62
743.75	271.81
744.08	273.86
744.41	273.33
744.74	272.55
745.07	271.40
745.40	270.86
745.73	271.07
746.06	270.40
746.39	269.88
746.71	269.10
747.04	268.07
747.37	267.45
747.70	266.95
748.03	266.45
748.36	265.86
748.68	265.10
749.01	264.02
749.34	263.38
749.67	262.62
750.00	262.26
750.33	263.40
750.65	262.95
750.98	259.69
751.31	259.12
751.64	258.88
751.97	259.69
752.29	258.86
752.62	257.26
752.95	256.76
753.28	255.86
753.60	255.48
753.93	255.64
754.26	255.24
754.59	254.43
754.91	253.64
755.24	253.02
755.57	252.29
755.90	251.40
756.22	250.86
756.55	250.29
756.88	249.38
757.20	247.71
757.53	246.71
757.86	246.40
758.19	246.17
758.51	245.69
758.84	243.98
759.17	243.50
759.49	243.21
759.82	243.86
760.15	243.79
760.47	243.31
760.80	242.38
761.13	242.62
761.45	242.17
761.78	241.98
762.11	241.29
762.43	240.69
762.76	240.48
763.08	240.43
763.41	239.83
763.74	239.67
764.06	238.98
764.39	238.88
764.71	238.45
765.04	237.98
765.37	237.31
765.69	237.07
766.02	236.69
766.34	236.10
766.67	235.10
767.00	235.26
767.32	236.07
767.65	236.95
767.97	236.02
768.30	235.71
768.62	235.26
768.95	234.90
769.27	234.95
769.60	234.74
769.92	234.14
770.25	233.95
770.57	233.33
770.90	233.19
771.22	232.71
771.55	232.64
771.87	232.31
772.20	232.52
772.52	233.93
772.85	236.29
773.17	236.40
773.50	235.95
773.82	235.29
774.15	234.12
774.47	232.69
774.80	232.40
775.12	232.29
775.45	232.14
775.77	232.21
776.09	232.10
776.42	232.05
776.74	232.45
777.07	232.05
777.39	232.29
777.72	231.83
778.04	232.02
778.36	231.64
778.69	231.52
779.01	231.29
779.33	229.31
779.66	226.86
779.98	226.40
780.31	226.19
780.63	226.98
780.95	227.21
781.28	227.21
781.60	226.79
781.92	226.69
782.25	226.67
782.57	226.48
782.89	226.26
783.22	225.83
783.54	225.38
783.86	225.40
784.19	224.95
784.51	225.57
784.83	225.29
785.16	225.17
785.48	225.12
785.80	224.67
786.12	224.86
786.45	224.64
786.77	224.83
787.09	224.90
787.42	223.79
787.74	223.48
788.06	223.33
788.38	223.45
788.71	223.05
789.03	222.95
789.35	223.02
789.67	222.55
789.99	222.86
790.32	222.24
790.64	222.36
790.96	224.19
791.28	223.33
791.61	223.19
791.93	223.31
792.25	223.17
792.57	224.64
792.89	224.21
793.21	224.38
793.54	224.02
793.86	223.76
794.18	223.90
794.50	223.67
794.82	223.69
795.14	223.86
795.47	224.19
795.79	224.14
796.11	223.67
796.43	223.64
796.75	223.24
797.07	223.50
797.39	223.43
797.71	221.57
798.04	221.55
798.36	221.52
798.68	221.19
799.00	221.38
799.32	220.17
799.64	220.52
799.96	220.33
800.28	220.40
800.60	220.21
800.92	220.05
801.24	219.86
801.56	219.90
801.89	219.79
802.21	219.86
802.53	219.45
802.85	220.05
803.17	220.95
803.49	220.64
803.81	220.38
804.13	220.24
804.45	219.95
804.77	220.24
805.09	220.31
805.41	220.10
805.73	219.55
806.05	219.19
806.37	218.93
806.69	218.71
807.01	218.86
807.33	219.02
807.65	218.50
807.97	219.26
808.28	218.95
808.60	218.74
808.92	218.48
809.24	219.83
809.56	219.36
809.88	218.57
810.20	218.55
810.52	219.00
810.84	218.67
811.16	218.71
811.48	218.38
811.80	218.88
812.12	218.88
812.43	219.21
812.75	219.69
813.07	219.21
813.39	219.24
813.71	218.76
814.03	218.52
814.35	218.76
814.67	218.00
814.98	217.95
815.30	217.81
815.62	217.55
815.94	216.14
816.26	216.24
816.58	215.93
816.89	216.29
817.21	215.67
817.53	215.83
817.85	215.76
818.17	215.67
818.48	214.81
818.80	215.07
819.12	214.74
819.44	213.86
819.76	213.98
820.07	214.12
820.39	214.19
820.71	214.43
821.03	214.45
821.34	214.36
821.66	214.67
821.98	214.90
822.30	214.83
822.61	216.10
822.93	215.88
823.25	215.93
823.57	215.52
823.88	215.88
824.20	215.74
824.52	216.02
824.83	216.14
825.15	215.83
825.47	215.57
825.79	216.02
826.10	216.12
826.42	216.00
826.74	216.07
827.05	215.88
827.37	215.69
827.69	215.29
828.00	215.31
828.32	214.98
828.64	214.67
828.95	215.88
829.27	215.29
829.58	215.31
829.90	215.40
830.22	215.57
830.53	215.10
830.85	214.74
831.17	214.43
831.48	214.31
831.80	214.50
832.11	214.62
832.43	214.29
832.75	214.43
833.06	215.62
833.38	214.93
833.69	214.98
834.01	215.45
834.32	215.48
834.64	215.33
834.96	215.36
835.27	215.33
835.59	214.52
835.90	214.02
836.22	213.88
836.53	213.74
836.85	213.62
837.16	215.69
837.48	215.93
837.79	216.50
838.11	216.55
838.42	216.64
838.74	216.74
839.05	216.36
839.37	216.17
839.68	214.90
840.00	214.98
840.31	215.31
840.63	214.88
840.94	214.76
841.26	214.43
841.57	214.50
841.88	214.90
842.20	214.40
842.51	214.21
842.83	214.31
843.14	215.93
843.46	215.93
843.77	214.86
844.08	214.64
844.40	213.79
844.71	213.67
845.03	213.43
845.34	213.36
845.65	213.62
845.97	213.64
846.28	213.90
846.60	213.98
846.91	213.62
847.22	213.43
847.54	213.90
847.85	214.21
848.16	214.00
848.48	213.45
848.79	214.48
849.10	214.83
849.42	214.76
849.73	212.98
850.04	212.88
850.36	212.10
850.67	212.57
850.98	212.88
851.30	212.95
851.61	212.95
851.92	212.90
852.23	213.29
852.55	213.55
852.86	213.62
853.17	213.95
853.49	214.24
853.80	214.50
854.11	214.76
854.42	215.10
854.74	215.00
855.05	215.19
855.36	214.05
855.67	214.19
855.99	214.14
856.30	216.57
856.61	216.60
856.92	216.74
857.23	216.83
857.55	216.48
857.86	216.43
858.17	216.64
858.48	216.31
858.79	216.00
859.11	216.10
859.42	216.05
859.73	215.76
860.04	215.64
860.35	215.17
860.66	214.45
860.98	214.21
861.29	214.29
861.60	214.02
861.91	214.40
862.22	213.88
862.53	213.71
862.84	211.31
863.16	211.98
863.47	211.36
863.78	210.86
864.09	211.19
864.40	211.40
864.71	211.33
865.02	211.60
865.33	211.24
865.64	210.81
865.95	210.69
866.27	211.95
866.58	211.79
866.89	212.07
867.20	212.00
867.51	211.88
867.82	211.67
868.13	212.29
868.44	211.93
868.75	212.50
869.06	212.67
869.37	212.93
869.68	212.14
869.99	212.90
870.30	213.17
870.61	213.29
870.92	212.88
871.23	213.14
871.54	213.38
871.85	213.93
872.16	214.21
872.47	213.95
872.78	212.86
873.09	213.12
873.40	212.93
873.71	213.10
874.02	212.88
874.33	213.00
874.64	212.45
874.95	212.93
875.26	212.38
875.56	212.29
875.87	212.17
876.18	212.31
876.49	213.95
876.80	213.76
877.11	213.48
877.42	213.71
877.73	213.40
878.04	213.14
878.35	213.07
878.66	213.17
878.96	213.40
879.27	212.98
879.58	212.88
879.89	212.69
880.20	213.24
880.51	213.43
880.82	213.36
881.12	213.57
881.43	212.98
881.74	212.76
882.05	212.76
882.36	212.76
882.67	212.81
882.97	210.79
883.28	210.74
883.59	210.55
883.90	210.55
884.21	211.05
884.51	210.83
884.82	210.40
885.13	210.21
885.44	209.95
885.74	210.07
886.05	209.81
886.36	209.95
886.67	209.31
886.98	210.17
887.28	210.48
887.59	210.55
887.90	210.88
888.20	210.81
888.51	211.19
888.82	210.88
889.13	211.07
889.43	212.64
889.74	212.60
890.05	212.76
890.35	212.90
890.66	212.38
890.97	212.33
891.28	212.33
891.58	212.38
891.89	212.40
892.20	212.31
892.50	212.45
892.81	212.31
893.12	212.36
893.42	211.55
893.73	211.40
894.04	211.55
894.34	211.71
894.65	211.81
894.95	211.40
895.26	211.86
895.57	212.81
895.87	210.98
896.18	211.26
896.48	211.45
896.79	211.14
897.10	211.50
897.40	211.57
897.71	212.21
898.01	212.07
898.32	212.60
898.63	212.45
898.93	212.45
899.24	212.45
899.54	212.17
899.85	211.95
900.15	212.07
900.46	212.02
900.76	212.29
901.07	212.24
901.38	212.29
901.68	212.19
901.99	210.95
902.29	211.14
902.60	211.00
902.90	210.71
903.21	210.74
903.51	210.67
903.82	211.10
904.12	210.52
904.43	210.88
904.73	210.48
905.03	210.83
905.34	212.81
905.64	212.90
905.95	213.29
906.25	213.33
906.56	213.10
906.86	212.79
907.17	212.31
907.47	212.52
907.77	212.38
908.08	212.12
908.38	212.40
908.69	212.74
908.99	213.10
909.30	213.21
909.60	213.40
909.90	213.50
910.21	212.95
910.51	212.81
910.81	212.67
911.12	212.79
911.42	212.79
911.73	210.71
912.03	210.90
912.33	211.17
912.64	211.14
912.94	210.95
913.24	210.67
913.55	210.76
913.85	210.64
914.15	211.07
914.46	211.17
914.76	210.93
915.06	210.60
915.37	210.40
915.67	210.31
915.97	210.24
916.27	209.74
916.58	209.86
916.88	209.83
917.18	209.48
917.49	210.81
917.79	210.71
918.09	210.95
918.39	211.50
918.70	211.26
919.00	211.14
919.30	212.21
919.60	212.38
919.91	212.07
920.21	211.86
920.51	211.40
920.81	211.33
921.12	211.45
921.42	211.50
921.72	211.55
922.02	212.00
922.32	212.12
922.63	212.29
922.93	213.50
923.23	213.67
923.53	213.62
923.83	212.31
924.13	212.31
924.44	212.64
924.74	212.69
925.04	212.98
925.34	213.17
925.64	212.57
925.94	212.60
926.24	213.74
926.55	213.79
926.85	214.17
927.15	214.21
927.45	214.40
927.75	214.40
928.05	214.43
928.35	214.00
928.65	214.26
928.95	214.48
929.26	213.57
929.56	214.05
929.86	214.33
930.16	214.31
930.46	214.17
930.76	214.00
931.06	213.26
931.36	212.86
931.66	212.98
931.96	212.90
932.26	212.83
932.56	212.05
932.86	212.24
933.16	212.00
933.46	211.93
933.76	211.45
934.06	211.95
934.36	212.64
934.66	212.74
934.96	212.24
935.26	212.19
935.56	212.40
935.86	211.64
936.16	211.33
936.46	211.26
936.76	211.50
937.06	211.02
937.36	211.21
937.66	211.38
937.96	211.57
938.26	211.31
938.56	211.38
938.86	211.40
939.16	211.76
939.46	212.12
939.76	212.17
940.06	212.33
940.35	211.90
940.65	210.86
940.95	211.02
941.25	211.02
941.55	210.79
941.85	210.57
942.15	211.43
942.45	212.02
942.75	211.83
943.04	211.81
943.34	212.40
943.64	212.17
943.94	212.05
944.24	212.07
944.54	212.07
944.84	211.93
945.13	211.81
945.43	211.55
945.73	211.38
946.03	211.26
946.33	211.17
946.62	210.83
946.92	210.55
947.22	210.62
947.52	210.76
947.82	211.17
948.11	211.12
948.41	210.38
948.71	210.00
949.01	210.10
949.31	210.12
949.60	209.90
949.90	210.29
950.20	210.21
950.50	209.90
950.79	209.81
951.09	210.24
951.39	210.38
951.69	210.17
951.98	210.71
952.28	210.74
952.58	210.74
952.87	210.83
953.17	211.64
953.47	211.38
953.76	211.33
954.06	210.98
954.36	210.55
954.66	210.55
954.95	211.19
955.25	211.43
955.55	211.40
955.84	211.24
956.14	211.14
956.44	211.19
956.73	211.14
957.03	211.31
957.32	211.21
957.62	210.90
957.92	211.19
958.21	210.81
958.51	213.24
958.81	213.64
959.10	214.10
959.40	214.24
959.69	214.36
959.99	214.62
960.29	214.67
960.58	214.88
960.88	215.93
961.17	215.40
961.47	215.48
961.76	215.31
962.06	215.48
962.36	215.33
962.65	215.38
962.95	215.48
963.24	215.29
963.54	215.52
963.83	215.69
964.13	215.86
964.42	215.33
964.72	213.62
965.01	213.33
965.31	213.26
965.60	212.79
965.90	214.02
966.19	213.50
966.49	213.60
966.78	213.45
967.08	213.02
967.37	213.24
967.67	212.83
967.96	213.12
968.26	213.12
968.55	213.43
968.85	213.36
969.14	213.45
969.43	213.64
969.73	213.07
970.02	212.98
970.32	212.93
970.61	213.02
970.91	212.31
971.20	212.14
971.49	211.69
971.79	211.86
972.08	210.31
972.38	210.38
972.67	210.36
972.96	210.69
973.26	210.33
973.55	210.76
973.85	210.95
974.14	211.02
974.43	211.17
974.73	210.81
975.02	210.48
975.31	210.14
975.61	209.95
975.90	210.12
976.19	209.93
976.49	209.81
976.78	209.88
977.07	210.05
977.37	210.10
977.66	210.62
977.95	210.31
978.24	210.60
978.54	211.24
978.83	210.93
979.12	210.69
979.42	210.55
979.71	210.31
980.00	210.31
980.29	210.33
980.59	209.60
980.88	210.07
981.17	210.33
981.46	210.67
981.76	210.74
982.05	211.43
982.34	211.60
982.63	211.57
982.93	211.64
983.22	212.33
983.51	212.48
983.80	212.43
984.09	212.81
984.39	212.71
984.68	212.33
984.97	212.38
985.26	212.38
985.55	212.69
985.85	212.02
986.14	212.12
986.43	212.14
986.72	212.17
987.01	211.45
987.30	211.24
987.59	210.88
987.89	210.98
988.18	210.31
988.47	210.14
988.76	210.00
989.05	209.74
989.34	209.24
989.63	209.69
989.92	209.38
990.22	208.90
990.51	208.83
990.80	208.74
991.09	209.21
991.38	209.38
991.67	209.00
991.96	209.17
992.25	209.21
992.54	208.81
992.83	208.93
993.12	209.02
993.41	209.52
993.70	210.52
993.99	210.60
994.28	210.81
994.58	211.12
994.87	210.98
995.16	211.00
995.45	210.71
995.74	210.14
996.03	210.57
996.32	211.00
996.61	211.36
996.90	211.05
997.19	210.60
997.48	210.60
997.77	210.67
998.06	210.79
998.34	210.86
998.63	210.88
998.92	210.95
999.21	211.29
999.50	211.12
999.79	210.40
1000.08	210.40
1000.37	210.31
1000.66	210.02
1000.95	210.62
1001.24	210.74
1001.53	211.24
1001.82	210.98
1002.11	210.43
1002.40	210.50
1002.68	211.02
1002.97	212.76
1003.26	212.62
1003.55	212.38
1003.84	212.45
1004.13	213.17
1004.42	212.76
1004.71	212.90
1004.99	213.00
1005.28	213.69
1005.57	213.83
1005.86	213.48
1006.15	213.52
1006.44	213.40
1006.72	213.76
1007.01	213.60
1007.30	213.40
1007.59	212.81
1007.88	212.90
1008.17	213.05
1008.45	212.86
1008.74	211.86
1009.03	210.64
1009.32	210.71
1009.60	210.76
1009.89	210.64
1010.18	209.69
1010.47	209.71
1010.76	209.67
1011.04	209.50
1011.33	209.19
1011.62	209.21
1011.91	209.45
1012.19	209.43
1012.48	209.45
1012.77	209.38
1013.05	210.12
1013.34	210.26
1013.63	210.36
1013.92	210.52
1014.20	210.24
1014.49	210.38
1014.78	210.50
1015.06	209.95
1015.35	210.07
1015.64	210.29
1015.92	210.45
1016.21	210.64
1016.50	210.62
1016.78	210.98
1017.07	211.02
1017.36	210.52
1017.64	210.02
1017.93	210.26
1018.22	210.19
1018.50	210.24
1018.79	210.21
1019.08	209.12
1019.36	209.19
1019.65	209.12
1019.93	209.62
1020.22	210.12
1020.51	210.93
1020.79	211.05
1021.08	209.50
1021.36	210.00
1021.65	212.00
1021.94	207.00
1022.22	209.00
1022.51	206.00
1022.79	219.50
1023.08	213.50
1023.36	233.00
1023.65	209.50
>>>>>End Processed Spectral Data<<<<<
