SpectraSuite Data File
++++++++++++++++++++++++++++++++++++
Date: Tue Apr 02 18:42:48 EDT 2013
User: group
Dark Spectrum Present: No
Reference Spectrum Present: No
Number of Sampled Component Spectra: 1
Spectrometers: USB2E7196
Integration Time (usec): 580000 (USB2E7196)
Spectra Averaged: 2 (USB2E7196)
Boxcar Smoothing: 10 (USB2E7196)
Correct for Electrical Dark: No (USB2E7196)
Strobe/Lamp Enabled: No (USB2E7196)
Correct for Detector Non-linearity: No (USB2E7196)
Correct for Stray Light: No (USB2E7196)
Number of Pixels in Processed Spectrum: 2048
>>>>>Begin Processed Spectral Data<<<<<
339.09	0.00
339.48	195.50
339.86	199.00
340.24	197.50
340.63	201.00
341.01	229.00
341.39	201.50
341.78	204.00
342.16	209.00
342.54	208.50
342.93	198.43
343.31	208.14
343.69	208.48
344.07	208.81
344.46	209.48
344.84	209.79
345.22	208.64
345.60	208.81
345.99	209.00
346.37	208.98
346.75	208.79
347.13	208.57
347.52	208.52
347.90	209.05
348.28	209.07
348.66	209.36
349.05	208.62
349.43	208.81
349.81	208.83
350.19	208.64
350.57	208.67
350.96	208.71
351.34	208.93
351.72	209.12
352.10	209.26
352.48	209.17
352.87	208.95
353.25	209.12
353.63	209.31
354.01	209.24
354.39	209.48
354.77	209.45
355.15	210.02
355.54	210.02
355.92	209.57
356.30	209.88
356.68	211.02
357.06	211.43
357.44	211.24
357.82	211.43
358.20	212.57
358.58	212.71
358.97	212.81
359.35	213.24
359.73	213.88
360.11	213.95
360.49	214.14
360.87	214.40
361.25	214.71
361.63	215.62
362.01	215.98
362.39	215.60
362.77	216.02
363.15	216.07
363.53	216.00
363.91	216.17
364.29	216.10
364.67	214.24
365.05	214.10
365.43	214.52
365.81	214.81
366.19	215.07
366.57	215.93
366.95	215.88
367.33	215.50
367.71	215.33
368.09	215.71
368.47	215.52
368.85	215.60
369.23	216.10
369.61	215.17
369.99	216.00
370.37	216.62
370.75	217.55
371.13	217.02
371.51	217.02
371.89	217.19
372.27	217.43
372.65	217.81
373.03	217.74
373.41	217.45
373.78	217.38
374.16	216.33
374.54	215.52
374.92	215.48
375.30	215.64
375.68	215.45
376.06	215.48
376.44	215.64
376.82	215.71
377.19	215.24
377.57	215.31
377.95	214.19
378.33	213.81
378.71	212.64
379.09	213.10
379.47	213.45
379.84	213.29
380.22	213.19
380.60	212.88
380.98	213.17
381.36	213.21
381.73	212.90
382.11	213.05
382.49	213.33
382.87	213.12
383.25	213.17
383.62	215.55
384.00	215.17
384.38	215.02
384.76	215.26
385.13	216.31
385.51	216.38
385.89	216.26
386.27	216.40
386.64	216.95
387.02	216.88
387.40	216.55
387.78	216.71
388.15	216.67
388.53	216.57
388.91	216.48
389.29	216.38
389.66	216.76
390.04	216.45
390.42	216.48
390.79	216.55
391.17	216.60
391.55	214.26
391.92	214.10
392.30	214.48
392.68	214.12
393.05	213.86
393.43	213.88
393.81	213.93
394.18	213.76
394.56	213.50
394.94	213.86
395.31	213.57
395.69	214.17
396.06	214.40
396.44	214.71
396.82	214.45
397.19	215.33
397.57	215.19
397.95	215.79
398.32	215.29
398.70	215.62
399.07	216.00
399.45	216.02
399.82	216.17
400.20	215.88
400.58	216.02
400.95	215.29
401.33	215.76
401.70	217.36
402.08	217.33
402.45	217.31
402.83	217.71
403.20	218.29
403.58	217.98
403.95	218.33
404.33	218.62
404.71	218.86
405.08	220.26
405.46	220.52
405.83	220.64
406.21	221.05
406.58	221.29
406.96	221.19
407.33	221.71
407.70	222.38
408.08	224.52
408.45	225.48
408.83	226.43
409.20	226.62
409.58	226.31
409.95	227.45
410.33	228.40
410.70	228.57
411.08	229.60
411.45	230.83
411.82	231.76
412.20	233.02
412.57	235.57
412.95	235.00
413.32	236.83
413.69	238.50
414.07	240.17
414.44	242.12
414.82	244.50
415.19	246.74
415.56	249.02
415.94	249.90
416.31	252.76
416.68	255.64
417.06	259.10
417.43	262.69
417.81	266.19
418.18	269.95
418.55	274.14
418.93	278.07
419.30	281.98
419.67	286.64
420.04	291.33
420.42	295.50
420.79	302.81
421.16	308.36
421.54	315.31
421.91	321.45
422.28	327.26
422.66	333.45
423.03	341.45
423.40	348.57
423.77	355.98
424.15	363.00
424.52	370.67
424.89	379.24
425.26	386.79
425.64	394.57
426.01	402.81
426.38	411.62
426.75	421.19
427.13	430.83
427.50	440.19
427.87	450.17
428.24	460.00
428.61	468.33
428.99	479.33
429.36	489.79
429.73	501.43
430.10	513.17
430.47	525.00
430.85	535.43
431.22	547.88
431.59	562.88
431.96	575.93
432.33	590.52
432.70	604.83
433.08	620.90
433.45	635.98
433.82	651.38
434.19	668.62
434.56	685.19
434.93	700.50
435.30	717.50
435.68	735.50
436.05	752.69
436.42	769.71
436.79	785.98
437.16	802.93
437.53	821.29
437.90	839.62
438.27	857.64
438.64	876.05
439.01	893.50
439.38	906.74
439.75	921.45
440.13	937.26
440.50	952.31
440.87	965.48
441.24	979.05
441.61	993.79
441.98	1004.55
442.35	1017.17
442.72	1030.24
443.09	1042.67
443.46	1050.29
443.83	1056.64
444.20	1061.57
444.57	1067.69
444.94	1070.98
445.31	1073.57
445.68	1078.88
446.05	1080.50
446.42	1079.55
446.79	1078.36
447.16	1076.88
447.53	1075.98
447.90	1070.14
448.27	1063.74
448.64	1055.24
449.01	1049.60
449.37	1038.50
449.74	1026.79
450.11	1014.74
450.48	1000.17
450.85	984.24
451.22	970.67
451.59	958.14
451.96	946.62
452.33	931.14
452.70	916.81
453.07	900.02
453.43	880.60
453.80	863.43
454.17	847.31
454.54	831.67
454.91	815.17
455.28	798.76
455.65	783.45
456.02	771.60
456.38	758.95
456.75	742.69
457.12	729.38
457.49	717.07
457.86	703.36
458.23	693.38
458.59	681.57
458.96	670.17
459.33	659.31
459.70	648.33
460.07	639.21
460.43	629.69
460.80	621.14
461.17	613.98
461.54	605.95
461.91	597.93
462.27	589.48
462.64	582.88
463.01	575.33
463.38	569.33
463.74	558.93
464.11	551.48
464.48	546.14
464.85	539.64
465.21	535.21
465.58	530.02
465.95	523.29
466.32	518.24
466.68	513.21
467.05	508.52
467.42	503.50
467.78	498.33
468.15	493.19
468.52	489.45
468.88	483.07
469.25	478.24
469.62	475.24
469.98	471.05
470.35	467.62
470.72	464.24
471.08	459.45
471.45	456.83
471.82	454.50
472.18	450.62
472.55	448.40
472.92	444.19
473.28	441.31
473.65	438.71
474.02	436.38
474.38	434.40
474.75	432.10
475.11	429.74
475.48	428.17
475.85	426.76
476.21	424.26
476.58	423.38
476.94	422.55
477.31	420.43
477.67	419.69
478.04	418.60
478.41	417.93
478.77	419.19
479.14	417.76
479.50	416.93
479.87	416.86
480.23	416.31
480.60	416.19
480.96	415.71
481.33	416.43
481.69	416.19
482.06	416.17
482.42	416.48
482.79	417.38
483.15	417.86
483.52	418.50
483.88	419.52
484.25	420.26
484.61	421.19
484.98	422.43
485.34	423.88
485.71	425.12
486.07	426.14
486.44	425.60
486.80	427.43
487.17	429.14
487.53	431.40
487.90	433.43
488.26	436.60
488.62	439.69
488.99	441.36
489.35	444.29
489.72	446.64
490.08	449.45
490.44	451.81
490.81	454.93
491.17	457.95
491.54	461.62
491.90	465.40
492.26	468.83
492.63	472.24
492.99	475.31
493.36	479.71
493.72	484.48
494.08	488.93
494.45	493.86
494.81	498.69
495.17	503.02
495.54	508.14
495.90	512.67
496.26	517.50
496.63	523.07
496.99	528.67
497.35	534.40
497.72	540.26
498.08	546.33
498.44	552.50
498.80	559.14
499.17	565.48
499.53	571.24
499.89	578.12
500.26	584.90
500.62	592.12
500.98	599.62
501.34	606.38
501.71	613.90
502.07	620.52
502.43	627.64
502.79	634.93
503.16	642.52
503.52	649.79
503.88	656.93
504.24	664.31
504.60	671.38
504.97	679.21
505.33	687.00
505.69	696.05
506.05	703.33
506.41	710.83
506.78	717.71
507.14	725.60
507.50	733.57
507.86	741.64
508.22	749.60
508.59	756.69
508.95	764.55
509.31	772.76
509.67	780.60
510.03	788.64
510.39	795.95
510.75	802.95
511.12	810.50
511.48	817.90
511.84	825.76
512.20	833.36
512.56	840.83
512.92	848.17
513.28	855.36
513.64	863.43
514.00	871.05
514.37	878.71
514.73	886.26
515.09	893.64
515.45	900.21
515.81	907.36
516.17	913.88
516.53	919.90
516.89	925.86
517.25	933.12
517.61	939.83
517.97	946.90
518.33	953.48
518.69	960.62
519.05	967.24
519.41	973.45
519.77	980.60
520.13	986.57
520.49	992.24
520.85	997.79
521.21	1003.88
521.57	1010.14
521.93	1015.90
522.29	1021.07
522.65	1025.79
523.01	1032.31
523.37	1036.95
523.73	1042.17
524.09	1047.93
524.45	1052.79
524.81	1056.98
525.17	1062.02
525.53	1066.57
525.89	1071.95
526.25	1076.86
526.61	1080.86
526.97	1085.79
527.33	1089.88
527.68	1096.69
528.04	1101.33
528.40	1104.93
528.76	1108.76
529.12	1112.86
529.48	1117.31
529.84	1121.79
530.20	1126.31
530.56	1129.98
530.91	1134.81
531.27	1139.31
531.63	1144.26
531.99	1148.81
532.35	1152.62
532.71	1156.24
533.07	1161.31
533.42	1167.76
533.78	1171.86
534.14	1176.38
534.50	1180.02
534.86	1184.86
535.21	1186.88
535.57	1191.93
535.93	1195.83
536.29	1201.05
536.65	1204.45
537.00	1207.74
537.36	1211.10
537.72	1214.31
538.08	1218.17
538.44	1220.98
538.79	1224.64
539.15	1227.36
539.51	1231.40
539.87	1235.98
540.22	1240.05
540.58	1242.95
540.94	1243.60
541.29	1246.10
541.65	1249.86
542.01	1253.64
542.37	1256.14
542.72	1257.93
543.08	1259.38
543.44	1262.86
543.79	1263.81
544.15	1267.26
544.51	1270.48
544.87	1273.52
545.22	1276.48
545.58	1278.17
545.94	1281.31
546.29	1283.62
546.65	1286.14
547.01	1288.67
547.36	1291.17
547.72	1292.69
548.07	1295.83
548.43	1298.36
548.79	1301.02
549.14	1302.64
549.50	1305.21
549.86	1307.40
550.21	1310.38
550.57	1313.60
550.92	1315.71
551.28	1320.10
551.64	1322.69
551.99	1325.67
552.35	1329.24
552.70	1332.24
553.06	1335.76
553.41	1338.98
553.77	1343.69
554.13	1348.50
554.48	1352.29
554.84	1356.26
555.19	1360.57
555.55	1364.74
555.90	1369.43
556.26	1373.31
556.61	1377.71
556.97	1380.64
557.32	1384.31
557.68	1388.69
558.03	1392.52
558.39	1396.86
558.74	1399.95
559.10	1404.40
559.45	1408.71
559.81	1412.95
560.16	1417.50
560.52	1421.43
560.87	1426.31
561.23	1429.76
561.58	1434.21
561.94	1437.93
562.29	1441.52
562.64	1446.38
563.00	1449.62
563.35	1453.60
563.71	1459.14
564.06	1464.10
564.42	1469.86
564.77	1475.90
565.12	1481.95
565.48	1489.19
565.83	1495.10
566.19	1500.98
566.54	1505.98
566.89	1511.26
567.25	1517.71
567.60	1525.24
567.96	1534.29
568.31	1541.31
568.66	1547.95
569.02	1552.21
569.37	1557.48
569.72	1563.45
570.08	1568.05
570.43	1573.90
570.78	1579.17
571.14	1584.31
571.49	1590.14
571.84	1595.55
572.20	1600.19
572.55	1605.43
572.90	1609.14
573.26	1614.43
573.61	1618.62
573.96	1623.79
574.31	1628.95
574.67	1631.64
575.02	1634.07
575.37	1635.95
575.72	1638.43
576.08	1642.05
576.43	1646.81
576.78	1651.74
577.13	1655.36
577.49	1658.90
577.84	1662.67
578.19	1666.50
578.54	1670.67
578.90	1674.05
579.25	1677.14
579.60	1680.48
579.95	1683.48
580.30	1686.64
580.66	1689.69
581.01	1692.71
581.36	1694.81
581.71	1697.12
582.06	1701.71
582.42	1705.50
582.77	1707.93
583.12	1710.64
583.47	1713.67
583.82	1715.95
584.17	1718.86
584.53	1722.14
584.88	1725.83
585.23	1729.00
585.58	1731.95
585.93	1733.10
586.28	1734.90
586.63	1737.07
586.98	1739.60
587.34	1742.52
587.69	1744.98
588.04	1747.12
588.39	1750.67
588.74	1752.31
589.09	1755.40
589.44	1755.60
589.79	1756.76
590.14	1759.10
590.49	1761.17
590.84	1762.05
591.19	1764.10
591.54	1765.10
591.89	1766.48
592.25	1768.98
592.60	1769.43
592.95	1770.57
593.30	1772.93
593.65	1773.69
594.00	1774.17
594.35	1780.40
594.70	1780.14
595.05	1781.14
595.40	1781.50
595.75	1780.79
596.10	1782.52
596.45	1782.76
596.80	1784.45
597.15	1785.40
597.50	1785.21
597.85	1785.71
598.19	1785.24
598.54	1785.33
598.89	1784.52
599.24	1784.21
599.59	1782.98
599.94	1783.36
600.29	1783.31
600.64	1782.88
600.99	1783.95
601.34	1785.00
601.69	1780.24
602.04	1779.60
602.39	1778.74
602.74	1779.10
603.08	1778.79
603.43	1778.90
603.78	1778.95
604.13	1778.21
604.48	1778.12
604.83	1778.40
605.18	1778.45
605.53	1779.19
605.87	1777.33
606.22	1777.07
606.57	1776.48
606.92	1775.00
607.27	1774.74
607.62	1774.07
607.96	1773.43
608.31	1772.95
608.66	1771.33
609.01	1768.31
609.36	1767.36
609.70	1765.33
610.05	1762.64
610.40	1761.55
610.75	1758.48
611.10	1756.02
611.44	1753.48
611.79	1750.79
612.14	1747.93
612.49	1743.86
612.83	1740.83
613.18	1738.38
613.53	1735.31
613.88	1731.57
614.22	1728.60
614.57	1724.26
614.92	1720.33
615.27	1716.07
615.61	1710.74
615.96	1707.05
616.31	1704.62
616.65	1701.81
617.00	1698.90
617.35	1695.50
617.70	1691.17
618.04	1687.43
618.39	1683.05
618.74	1679.76
619.08	1674.83
619.43	1671.40
619.78	1668.07
620.12	1663.90
620.47	1660.36
620.82	1656.05
621.16	1651.98
621.51	1648.40
621.85	1644.26
622.20	1640.12
622.55	1635.24
622.89	1632.10
623.24	1628.74
623.59	1623.81
623.93	1618.95
624.28	1614.57
624.62	1612.33
624.97	1609.90
625.32	1605.90
625.66	1601.55
626.01	1596.69
626.35	1593.50
626.70	1588.98
627.04	1585.79
627.39	1581.74
627.73	1578.24
628.08	1574.95
628.43	1570.43
628.77	1566.02
629.12	1562.21
629.46	1558.50
629.81	1554.76
630.15	1549.24
630.50	1543.69
630.84	1538.93
631.19	1534.10
631.53	1528.62
631.88	1521.26
632.22	1514.24
632.57	1509.90
632.91	1505.00
633.26	1500.62
633.60	1495.00
633.95	1489.40
634.29	1483.31
634.64	1477.93
634.98	1471.86
635.32	1467.19
635.67	1463.69
636.01	1459.36
636.36	1453.36
636.70	1449.19
637.05	1444.14
637.39	1440.05
637.73	1435.74
638.08	1431.81
638.42	1426.36
638.77	1421.50
639.11	1417.43
639.45	1412.62
639.80	1405.64
640.14	1400.71
640.49	1394.83
640.83	1389.62
641.17	1384.76
641.52	1378.52
641.86	1372.88
642.20	1368.62
642.55	1362.24
642.89	1355.81
643.23	1349.33
643.58	1344.64
643.92	1336.64
644.26	1331.21
644.61	1325.02
644.95	1317.90
645.29	1311.07
645.64	1306.36
645.98	1301.02
646.32	1294.57
646.66	1288.00
647.01	1282.19
647.35	1276.26
647.69	1271.26
648.04	1265.74
648.38	1259.40
648.72	1254.00
649.06	1248.14
649.41	1240.62
649.75	1234.36
650.09	1228.05
650.43	1221.55
650.78	1214.45
651.12	1208.05
651.46	1200.90
651.80	1194.52
652.14	1188.95
652.49	1183.43
652.83	1176.60
653.17	1168.76
653.51	1162.14
653.85	1155.69
654.20	1150.33
654.54	1143.00
654.88	1135.17
655.22	1128.71
655.56	1122.17
655.90	1115.29
656.25	1108.62
656.59	1103.10
656.93	1096.71
657.27	1090.76
657.61	1083.83
657.95	1077.79
658.29	1071.95
658.64	1066.31
658.98	1059.79
659.32	1053.00
659.66	1046.29
660.00	1039.55
660.34	1034.05
660.68	1028.21
661.02	1021.86
661.36	1015.10
661.70	1009.14
662.05	1003.21
662.39	996.93
662.73	991.07
663.07	986.40
663.41	980.55
663.75	973.81
664.09	967.79
664.43	961.71
664.77	956.00
665.11	949.64
665.45	944.31
665.79	938.29
666.13	932.26
666.47	926.74
666.81	920.40
667.15	914.19
667.49	909.24
667.83	903.83
668.17	898.67
668.51	893.55
668.85	887.83
669.19	882.48
669.53	876.19
669.87	870.07
670.21	863.55
670.55	857.81
670.89	852.88
671.23	847.69
671.57	842.10
671.91	837.24
672.25	832.24
672.58	826.76
672.92	821.14
673.26	816.00
673.60	810.60
673.94	805.67
674.28	800.95
674.62	795.38
674.96	789.45
675.30	784.83
675.64	779.38
675.97	774.69
676.31	769.71
676.65	764.31
676.99	760.55
677.33	754.98
677.67	750.17
678.01	744.83
678.34	740.02
678.68	735.12
679.02	729.55
679.36	724.67
679.70	719.43
680.04	714.76
680.37	709.67
680.71	704.40
681.05	699.93
681.39	695.10
681.73	690.55
682.06	685.60
682.40	681.00
682.74	676.88
683.08	672.69
683.42	667.38
683.75	663.50
684.09	658.12
684.43	653.79
684.77	648.90
685.10	644.31
685.44	639.43
685.78	634.50
686.12	630.43
686.45	625.64
686.79	621.31
687.13	617.31
687.46	613.52
687.80	609.79
688.14	605.50
688.48	601.64
688.81	597.12
689.15	594.02
689.49	589.40
689.82	585.24
690.16	580.26
690.50	576.79
690.83	572.38
691.17	567.62
691.51	564.07
691.84	560.24
692.18	556.36
692.52	552.55
692.85	549.67
693.19	546.88
693.52	543.57
693.86	539.40
694.20	535.00
694.53	531.10
694.87	527.43
695.21	523.48
695.54	519.40
695.88	515.52
696.21	510.76
696.55	507.19
696.88	503.60
697.22	500.33
697.56	497.29
697.89	493.86
698.23	491.31
698.56	488.02
698.90	484.76
699.23	481.31
699.57	477.86
699.90	474.02
700.24	469.98
700.58	466.29
700.91	463.64
701.25	462.57
701.58	459.79
701.92	457.02
702.25	454.33
702.59	451.38
702.92	448.33
703.26	445.90
703.59	443.43
703.93	442.26
704.26	440.00
704.60	437.36
704.93	434.67
705.26	431.69
705.60	429.14
705.93	426.12
706.27	424.14
706.60	422.00
706.94	420.17
707.27	417.17
707.61	415.19
707.94	412.57
708.27	408.29
708.61	405.60
708.94	403.05
709.28	400.60
709.61	398.31
709.94	396.36
710.28	393.93
710.61	391.31
710.95	387.19
711.28	386.33
711.61	383.93
711.95	381.86
712.28	379.55
712.61	377.14
712.95	376.50
713.28	375.40
713.61	372.98
713.95	370.60
714.28	369.24
714.61	367.07
714.95	365.12
715.28	362.95
715.61	360.95
715.95	359.14
716.28	357.05
716.61	355.48
716.95	353.24
717.28	351.45
717.61	349.79
717.94	348.07
718.28	344.83
718.61	343.10
718.94	341.55
719.27	340.00
719.61	338.62
719.94	336.26
720.27	333.52
720.60	332.05
720.94	330.14
721.27	328.71
721.60	327.64
721.93	326.12
722.27	325.40
722.60	324.38
722.93	322.83
723.26	321.55
723.59	319.76
723.93	318.79
724.26	317.81
724.59	316.45
724.92	315.36
725.25	314.38
725.59	313.17
725.92	312.19
726.25	311.26
726.58	309.95
726.91	308.93
727.24	307.83
727.57	306.86
727.91	305.60
728.24	304.38
728.57	302.86
728.90	302.17
729.23	300.57
729.56	300.43
729.89	299.36
730.22	298.17
730.55	297.45
730.89	296.43
731.22	295.48
731.55	294.57
731.88	293.52
732.21	292.19
732.54	291.05
732.87	290.00
733.20	289.29
733.53	288.48
733.86	287.74
734.19	286.83
734.52	286.10
734.85	286.64
735.18	285.67
735.51	285.76
735.84	284.98
736.17	284.67
736.50	282.74
736.83	284.62
737.16	284.12
737.49	283.21
737.82	282.69
738.15	282.05
738.48	281.05
738.81	280.29
739.14	279.45
739.47	278.48
739.80	277.67
740.13	276.69
740.46	275.74
740.79	274.50
741.12	273.79
741.45	272.71
741.78	271.10
742.11	271.02
742.44	269.64
742.77	269.29
743.10	268.52
743.43	267.48
743.75	264.24
744.08	265.90
744.41	265.07
744.74	264.26
745.07	263.12
745.40	263.00
745.73	263.21
746.06	262.81
746.39	262.71
746.71	261.83
747.04	261.07
747.37	260.62
747.70	260.24
748.03	259.60
748.36	259.19
748.68	258.67
749.01	257.67
749.34	257.17
749.67	256.48
750.00	256.26
750.33	257.52
750.65	257.29
750.98	254.57
751.31	254.40
751.64	254.00
751.97	254.74
752.29	253.93
752.62	252.48
752.95	251.90
753.28	251.17
753.60	251.05
753.93	251.21
754.26	250.90
754.59	250.05
754.91	249.52
755.24	249.29
755.57	248.69
755.90	248.24
756.22	247.74
756.55	247.00
756.88	246.07
757.20	244.48
757.53	243.43
757.86	242.83
758.19	242.26
758.51	241.83
758.84	240.36
759.17	239.86
759.49	239.74
759.82	240.38
760.15	240.24
760.47	239.83
760.80	238.86
761.13	238.76
761.45	238.40
761.78	238.10
762.11	237.76
762.43	237.26
762.76	236.74
763.08	236.79
763.41	236.71
763.74	236.67
764.06	236.33
764.39	236.38
764.71	236.12
765.04	235.86
765.37	235.14
765.69	234.90
766.02	234.62
766.34	234.17
766.67	233.14
767.00	233.12
767.32	233.90
767.65	235.00
767.97	234.38
768.30	234.48
768.62	234.14
768.95	233.57
769.27	233.31
769.60	233.48
769.92	232.83
770.25	232.24
770.57	231.76
770.90	231.55
771.22	231.17
771.55	231.12
771.87	231.02
772.20	231.10
772.52	232.50
772.85	234.81
773.17	234.62
773.50	234.36
773.82	233.83
774.15	232.81
774.47	231.17
774.80	230.86
775.12	230.45
775.45	230.17
775.77	230.10
776.09	230.19
776.42	229.86
776.74	230.38
777.07	230.24
777.39	229.95
777.72	229.50
778.04	229.60
778.36	229.19
778.69	229.00
779.01	229.02
779.33	227.21
779.66	225.07
779.98	224.83
780.31	224.60
780.63	225.45
780.95	225.52
781.28	225.50
781.60	225.36
781.92	225.36
782.25	225.45
782.57	225.45
782.89	225.14
783.22	224.98
783.54	224.26
783.86	224.33
784.19	224.33
784.51	224.93
784.83	224.33
785.16	224.40
785.48	224.31
785.80	224.05
786.12	224.26
786.45	223.95
786.77	223.95
787.09	223.93
787.42	222.95
787.74	222.83
788.06	222.81
788.38	222.71
788.71	222.24
789.03	222.05
789.35	222.12
789.67	221.83
789.99	221.90
790.32	221.55
790.64	221.76
790.96	223.21
791.28	222.43
791.61	222.55
791.93	222.19
792.25	222.02
792.57	223.40
792.89	222.83
793.21	222.57
793.54	222.43
793.86	222.05
794.18	222.33
794.50	221.95
794.82	221.88
795.14	222.24
795.47	222.86
795.79	222.67
796.11	222.12
796.43	222.07
796.75	221.83
797.07	221.98
797.39	221.52
797.71	219.88
798.04	219.93
798.36	219.86
798.68	219.90
799.00	220.17
799.32	218.98
799.64	219.40
799.96	219.48
800.28	219.90
800.60	219.79
800.92	219.50
801.24	219.07
801.56	218.98
801.89	218.60
802.21	218.57
802.53	218.38
802.85	218.76
803.17	219.62
803.49	219.26
803.81	219.05
804.13	219.02
804.45	218.90
804.77	219.00
805.09	218.95
805.41	218.81
805.73	218.14
806.05	217.86
806.37	217.60
806.69	217.40
807.01	217.00
807.33	217.05
807.65	216.38
807.97	217.36
808.28	217.38
808.60	217.12
808.92	216.62
809.24	218.00
809.56	217.48
809.88	216.69
810.20	216.83
810.52	217.17
810.84	216.93
811.16	216.71
811.48	216.71
811.80	217.40
812.12	217.24
812.43	217.90
812.75	217.93
813.07	217.67
813.39	217.74
813.71	217.52
814.03	217.36
814.35	217.52
814.67	216.71
814.98	216.43
815.30	216.64
815.62	216.33
815.94	214.86
816.26	215.17
816.58	214.71
816.89	214.64
817.21	214.07
817.53	214.17
817.85	214.12
818.17	213.93
818.48	213.24
818.80	213.79
819.12	213.19
819.44	213.02
819.76	212.86
820.07	212.98
820.39	212.95
820.71	212.95
821.03	213.02
821.34	212.90
821.66	213.26
821.98	213.26
822.30	213.43
822.61	214.69
822.93	214.40
823.25	214.55
823.57	214.36
823.88	214.86
824.20	214.93
824.52	215.40
824.83	215.24
825.15	214.83
825.47	214.62
825.79	215.07
826.10	214.62
826.42	214.52
826.74	214.57
827.05	214.62
827.37	214.86
827.69	214.71
828.00	214.88
828.32	214.71
828.64	214.64
828.95	215.57
829.27	215.02
829.58	214.93
829.90	215.10
830.22	215.57
830.53	214.90
830.85	214.60
831.17	214.14
831.48	214.24
831.80	214.48
832.11	214.24
832.43	213.86
832.75	214.12
833.06	215.62
833.38	215.14
833.69	214.98
834.01	215.21
834.32	215.31
834.64	215.10
834.96	215.38
835.27	215.14
835.59	214.55
835.90	214.05
836.22	214.12
836.53	213.67
836.85	213.31
837.16	215.60
837.48	215.64
837.79	216.26
838.11	216.55
838.42	216.40
838.74	216.83
839.05	216.74
839.37	216.74
839.68	215.33
840.00	215.36
840.31	215.64
840.63	215.45
840.94	215.07
841.26	214.98
841.57	214.67
841.88	215.02
842.20	214.55
842.51	214.31
842.83	214.40
843.14	216.45
843.46	216.57
843.77	215.48
844.08	215.33
844.40	214.60
844.71	214.17
845.03	214.12
845.34	213.64
845.65	213.64
845.97	213.62
846.28	213.57
846.60	213.71
846.91	213.38
847.22	213.14
847.54	213.71
847.85	213.60
848.16	213.52
848.48	213.05
848.79	214.10
849.10	214.33
849.42	214.40
849.73	212.38
850.04	212.29
850.36	211.67
850.67	212.26
850.98	212.45
851.30	212.71
851.61	212.55
851.92	212.45
852.23	213.00
852.55	213.17
852.86	213.45
853.17	213.48
853.49	213.86
853.80	214.43
854.11	214.55
854.42	215.29
854.74	215.24
855.05	215.33
855.36	214.12
855.67	214.38
855.99	214.43
856.30	216.98
856.61	216.88
856.92	216.79
857.23	216.38
857.55	215.98
857.86	215.71
858.17	216.21
858.48	216.36
858.79	216.00
859.11	216.14
859.42	215.90
859.73	215.81
860.04	215.90
860.35	215.19
860.66	214.71
860.98	214.45
861.29	214.57
861.60	214.43
861.91	215.12
862.22	214.57
862.53	214.07
862.84	211.57
863.16	212.19
863.47	211.86
863.78	212.00
864.09	212.33
864.40	212.86
864.71	212.88
865.02	212.76
865.33	212.50
865.64	211.93
865.95	211.93
866.27	213.10
866.58	212.62
866.89	212.98
867.20	212.88
867.51	212.62
867.82	212.21
868.13	212.98
868.44	212.57
868.75	213.17
869.06	213.31
869.37	213.67
869.68	212.95
869.99	213.26
870.30	213.24
870.61	213.40
870.92	212.67
871.23	212.52
871.54	213.07
871.85	213.74
872.16	214.05
872.47	214.10
872.78	212.95
873.09	213.07
873.40	212.71
873.71	212.64
874.02	212.69
874.33	212.69
874.64	212.19
874.95	212.57
875.26	212.05
875.56	212.12
875.87	212.19
876.18	212.12
876.49	214.21
876.80	214.12
877.11	213.90
877.42	214.05
877.73	213.90
878.04	213.48
878.35	213.17
878.66	213.36
878.96	213.10
879.27	213.05
879.58	213.33
879.89	213.26
880.20	214.00
880.51	213.83
880.82	214.02
881.12	214.07
881.43	213.60
881.74	213.62
882.05	213.52
882.36	213.60
882.67	213.86
882.97	211.60
883.28	211.29
883.59	211.00
883.90	211.33
884.21	211.64
884.51	211.52
884.82	211.29
885.13	211.12
885.44	211.33
885.74	211.14
886.05	211.07
886.36	211.31
886.67	210.57
886.98	211.79
887.28	212.07
887.59	212.07
887.90	212.02
888.20	211.90
888.51	212.31
888.82	211.88
889.13	212.14
889.43	213.79
889.74	213.93
890.05	213.98
890.35	213.57
890.66	213.36
890.97	213.00
891.28	212.79
891.58	212.81
891.89	212.67
892.20	212.67
892.50	212.43
892.81	212.26
893.12	212.24
893.42	211.17
893.73	211.12
894.04	211.19
894.34	211.48
894.65	211.52
894.95	211.33
895.26	211.38
895.57	212.10
895.87	210.24
896.18	210.60
896.48	210.60
896.79	210.76
897.10	210.93
897.40	211.45
897.71	211.71
898.01	211.81
898.32	212.17
898.63	212.14
898.93	212.12
899.24	212.12
899.54	212.05
899.85	212.02
900.15	211.83
900.46	211.67
900.76	211.81
901.07	211.55
901.38	211.33
901.68	211.69
901.99	210.64
902.29	210.90
902.60	210.55
902.90	210.60
903.21	210.60
903.51	210.50
903.82	210.71
904.12	210.98
904.43	210.83
904.73	210.52
905.03	210.90
905.34	212.86
905.64	212.95
905.95	213.29
906.25	213.38
906.56	213.33
906.86	213.21
907.17	212.86
907.47	213.12
907.77	213.19
908.08	212.57
908.38	212.67
908.69	212.76
908.99	213.26
909.30	213.45
909.60	213.31
909.90	213.36
910.21	212.90
910.51	212.21
910.81	212.40
911.12	212.67
911.42	212.38
911.73	210.24
912.03	210.10
912.33	210.21
912.64	210.00
912.94	210.05
913.24	209.83
913.55	209.81
913.85	209.74
914.15	210.05
914.46	210.55
914.76	210.36
915.06	210.14
915.37	209.69
915.67	209.60
915.97	209.86
916.27	209.48
916.58	209.60
916.88	209.76
917.18	209.60
917.49	210.88
917.79	210.90
918.09	211.38
918.39	212.07
918.70	212.00
919.00	212.17
919.30	213.07
919.60	213.14
919.91	212.88
920.21	212.93
920.51	212.40
920.81	212.19
921.12	212.45
921.42	212.48
921.72	212.64
922.02	212.74
922.32	213.02
922.63	213.33
922.93	214.26
923.23	214.36
923.53	214.19
923.83	212.90
924.13	212.95
924.44	212.90
924.74	213.14
925.04	213.55
925.34	213.62
925.64	212.67
925.94	212.86
926.24	214.14
926.55	213.93
926.85	214.62
927.15	214.62
927.45	214.71
927.75	214.60
928.05	214.67
928.35	214.40
928.65	214.62
928.95	214.60
929.26	213.71
929.56	214.10
929.86	214.38
930.16	213.93
930.46	213.90
930.76	213.95
931.06	212.90
931.36	212.45
931.66	212.71
931.96	212.95
932.26	212.95
932.56	212.19
932.86	212.60
933.16	212.50
933.46	212.14
933.76	211.69
934.06	212.43
934.36	213.24
934.66	213.26
934.96	212.95
935.26	213.17
935.56	213.50
935.86	212.95
936.16	212.57
936.46	212.64
936.76	212.48
937.06	212.21
937.36	212.62
937.66	212.55
937.96	212.38
938.26	212.07
938.56	211.83
938.86	211.98
939.16	212.48
939.46	212.24
939.76	212.57
940.06	212.83
940.35	212.19
940.65	210.95
940.95	211.17
941.25	210.69
941.55	210.19
941.85	210.14
942.15	210.74
942.45	211.45
942.75	211.38
943.04	211.50
943.34	211.71
943.64	211.29
943.94	210.95
944.24	211.02
944.54	211.17
944.84	211.38
945.13	211.00
945.43	210.29
945.73	210.33
946.03	210.02
946.33	209.79
946.62	209.62
946.92	209.74
947.22	209.86
947.52	209.98
947.82	210.45
948.11	209.98
948.41	209.57
948.71	208.83
949.01	209.24
949.31	208.98
949.60	208.74
949.90	209.02
950.20	209.21
950.50	209.02
950.79	208.81
951.09	208.93
951.39	208.86
951.69	208.76
951.98	209.33
952.28	209.88
952.58	209.83
952.87	209.86
953.17	210.21
953.47	209.88
953.76	209.95
954.06	209.50
954.36	209.48
954.66	209.31
954.95	209.90
955.25	210.02
955.55	210.36
955.84	210.29
956.14	210.48
956.44	210.71
956.73	210.60
957.03	210.62
957.32	210.74
957.62	210.83
957.92	211.31
958.21	210.79
958.51	212.88
958.81	213.31
959.10	213.64
959.40	213.95
959.69	214.36
959.99	214.55
960.29	214.76
960.58	214.74
960.88	215.74
961.17	215.38
961.47	215.36
961.76	215.26
962.06	215.69
962.36	215.67
962.65	215.74
962.95	215.64
963.24	215.55
963.54	215.45
963.83	215.67
964.13	215.40
964.42	215.05
964.72	213.33
965.01	213.17
965.31	212.98
965.60	212.26
965.90	213.45
966.19	213.14
966.49	213.05
966.78	213.07
967.08	212.71
967.37	212.76
967.67	212.12
967.96	212.38
968.26	212.33
968.55	212.52
968.85	212.52
969.14	212.67
969.43	212.88
969.73	212.62
970.02	212.31
970.32	212.38
970.61	212.29
970.91	211.67
971.20	211.52
971.49	211.45
971.79	212.10
972.08	210.40
972.38	210.55
972.67	210.76
972.96	211.10
973.26	210.81
973.55	211.48
973.85	211.81
974.14	211.71
974.43	211.64
974.73	211.24
975.02	210.81
975.31	210.60
975.61	210.52
975.90	210.52
976.19	210.50
976.49	210.67
976.78	210.86
977.07	210.98
977.37	211.07
977.66	211.38
977.95	210.83
978.24	211.10
978.54	211.45
978.83	211.24
979.12	211.07
979.42	211.07
979.71	210.69
980.00	210.67
980.29	210.64
980.59	210.38
980.88	211.02
981.17	211.07
981.46	211.26
981.76	211.21
982.05	211.86
982.34	212.12
982.63	211.95
982.93	212.00
983.22	212.50
983.51	212.71
983.80	212.90
984.09	213.26
984.39	213.14
984.68	212.90
984.97	213.07
985.26	212.88
985.55	213.14
985.85	212.81
986.14	213.24
986.43	213.57
986.72	213.55
987.01	212.98
987.30	212.88
987.59	212.67
987.89	212.83
988.18	212.26
988.47	211.90
988.76	211.83
989.05	211.64
989.34	211.12
989.63	211.19
989.92	210.81
990.22	210.76
990.51	210.60
990.80	210.29
991.09	210.05
991.38	210.21
991.67	209.79
991.96	209.81
992.25	209.67
992.54	209.29
992.83	209.12
993.12	209.02
993.41	209.40
993.70	210.33
993.99	210.71
994.28	210.86
994.58	211.21
994.87	211.10
995.16	211.10
995.45	210.98
995.74	210.67
996.03	210.98
996.32	211.00
996.61	211.69
996.90	211.67
997.19	211.98
997.48	212.02
997.77	211.74
998.06	211.57
998.34	211.43
998.63	211.33
998.92	211.60
999.21	211.79
999.50	211.90
999.79	211.19
1000.08	210.95
1000.37	211.14
1000.66	210.83
1000.95	211.21
1001.24	211.52
1001.53	212.00
1001.82	211.88
1002.11	211.36
1002.40	211.55
1002.68	211.95
1002.97	213.48
1003.26	213.00
1003.55	212.60
1003.84	212.88
1004.13	213.62
1004.42	213.55
1004.71	213.55
1004.99	213.55
1005.28	214.10
1005.57	213.83
1005.86	213.67
1006.15	213.69
1006.44	213.19
1006.72	213.48
1007.01	213.31
1007.30	213.21
1007.59	212.74
1007.88	212.74
1008.17	212.86
1008.45	212.31
1008.74	211.55
1009.03	210.79
1009.32	211.10
1009.60	210.93
1009.89	210.64
1010.18	209.90
1010.47	209.86
1010.76	209.67
1011.04	209.52
1011.33	209.40
1011.62	209.60
1011.91	209.57
1012.19	209.55
1012.48	209.62
1012.77	209.33
1013.05	210.07
1013.34	210.21
1013.63	210.14
1013.92	210.29
1014.20	210.14
1014.49	210.48
1014.78	210.50
1015.06	209.57
1015.35	209.36
1015.64	209.79
1015.92	210.31
1016.21	210.60
1016.50	210.45
1016.78	210.81
1017.07	210.79
1017.36	210.38
1017.64	210.19
1017.93	210.48
1018.22	210.05
1018.50	210.17
1018.79	210.26
1019.08	209.19
1019.36	209.05
1019.65	209.07
1019.93	209.60
1020.22	210.21
1020.51	211.29
1020.79	211.12
1021.08	204.00
1021.36	209.00
1021.65	209.00
1021.94	206.00
1022.22	210.00
1022.51	207.50
1022.79	222.00
1023.08	218.50
1023.36	237.00
1023.65	207.00
>>>>>End Processed Spectral Data<<<<<
