SpectraSuite Data File
++++++++++++++++++++++++++++++++++++
Date: Tue Apr 02 18:41:52 EDT 2013
User: group
Dark Spectrum Present: No
Reference Spectrum Present: No
Number of Sampled Component Spectra: 1
Spectrometers: USB2E7196
Integration Time (usec): 580000 (USB2E7196)
Spectra Averaged: 2 (USB2E7196)
Boxcar Smoothing: 10 (USB2E7196)
Correct for Electrical Dark: No (USB2E7196)
Strobe/Lamp Enabled: No (USB2E7196)
Correct for Detector Non-linearity: No (USB2E7196)
Correct for Stray Light: No (USB2E7196)
Number of Pixels in Processed Spectrum: 2048
>>>>>Begin Processed Spectral Data<<<<<
339.09	0.00
339.48	189.00
339.86	192.00
340.24	196.50
340.63	196.50
341.01	233.50
341.39	201.50
341.78	207.50
342.16	209.50
342.54	203.50
342.93	196.52
343.31	206.31
343.69	206.83
344.07	207.55
344.46	208.38
344.84	209.07
345.22	207.62
345.60	208.10
345.99	208.10
346.37	208.05
346.75	208.21
347.13	208.64
347.52	208.88
347.90	209.48
348.28	209.38
348.66	209.86
349.05	209.31
349.43	209.55
349.81	209.69
350.19	209.43
350.57	209.81
350.96	209.90
351.34	210.26
351.72	210.76
352.10	210.95
352.48	210.71
352.87	210.81
353.25	211.02
353.63	210.81
354.01	210.81
354.39	211.14
354.77	211.21
355.15	211.69
355.54	211.52
355.92	210.98
356.30	211.14
356.68	212.43
357.06	212.74
357.44	212.48
357.82	212.48
358.20	213.67
358.58	213.55
358.97	213.60
359.35	213.90
359.73	214.24
360.11	214.07
360.49	214.33
360.87	214.33
361.25	214.62
361.63	215.45
362.01	215.76
362.39	215.69
362.77	215.98
363.15	215.81
363.53	215.86
363.91	215.88
364.29	215.90
364.67	214.19
365.05	214.19
365.43	214.45
365.81	214.76
366.19	215.02
366.57	216.05
366.95	216.07
367.33	215.90
367.71	215.95
368.09	216.67
368.47	216.57
368.85	216.79
369.23	217.10
369.61	216.38
369.99	217.00
370.37	217.02
370.75	217.86
371.13	217.40
371.51	217.33
371.89	217.67
372.27	217.74
372.65	217.67
373.03	217.71
373.41	217.69
373.78	217.69
374.16	216.67
374.54	215.86
374.92	215.79
375.30	215.55
375.68	215.00
376.06	215.02
376.44	214.83
376.82	214.57
377.19	214.60
377.57	214.55
377.95	213.81
378.33	213.69
378.71	212.79
379.09	213.12
379.47	213.50
379.84	213.36
380.22	213.33
380.60	212.98
380.98	212.90
381.36	212.98
381.73	212.62
382.11	213.07
382.49	213.29
382.87	213.21
383.25	213.24
383.62	215.74
384.00	215.14
384.38	215.36
384.76	215.81
385.13	216.69
385.51	216.76
385.89	216.64
386.27	216.79
386.64	216.81
387.02	216.86
387.40	216.43
387.78	216.50
388.15	216.62
388.53	216.40
388.91	216.40
389.29	216.12
389.66	216.43
390.04	215.93
390.42	216.17
390.79	216.26
391.17	216.52
391.55	214.26
391.92	214.29
392.30	214.36
392.68	213.90
393.05	213.64
393.43	213.57
393.81	213.64
394.18	213.36
394.56	213.62
394.94	213.90
395.31	213.86
395.69	214.31
396.06	214.50
396.44	214.95
396.82	214.55
397.19	215.62
397.57	215.45
397.95	216.02
398.32	215.43
398.70	215.60
399.07	215.71
399.45	215.64
399.82	215.81
400.20	215.67
400.58	215.76
400.95	214.88
401.33	215.43
401.70	216.95
402.08	217.24
402.45	217.17
402.83	217.64
403.20	217.88
403.58	218.10
403.95	218.55
404.33	219.19
404.71	219.83
405.08	221.17
405.46	221.43
405.83	221.71
406.21	221.98
406.58	222.40
406.96	222.64
407.33	223.33
407.70	224.02
408.08	226.29
408.45	227.05
408.83	228.05
409.20	228.50
409.58	228.10
409.95	229.21
410.33	230.29
410.70	230.29
411.08	231.55
411.45	232.48
411.82	233.12
412.20	234.50
412.57	236.88
412.95	236.26
413.32	238.05
413.69	239.38
414.07	241.14
414.44	243.17
414.82	245.24
415.19	247.83
415.56	249.79
415.94	251.10
416.31	254.17
416.68	256.83
417.06	260.43
417.43	263.83
417.81	267.36
418.18	271.02
418.55	275.14
418.93	279.12
419.30	283.17
419.67	287.93
420.04	292.40
420.42	296.81
420.79	304.10
421.16	310.00
421.54	317.07
421.91	323.48
422.28	329.50
422.66	336.07
423.03	343.95
423.40	351.14
423.77	358.21
424.15	365.36
424.52	373.45
424.89	381.88
425.26	389.98
425.64	397.69
426.01	405.86
426.38	415.02
426.75	424.79
427.13	434.07
427.50	443.74
427.87	454.00
428.24	464.10
428.61	472.69
428.99	483.95
429.36	494.98
429.73	506.86
430.10	518.48
430.47	530.33
430.85	540.88
431.22	553.83
431.59	568.98
431.96	582.26
432.33	596.98
432.70	610.83
433.08	626.93
433.45	642.67
433.82	658.38
434.19	675.69
434.56	692.79
434.93	708.95
435.30	725.02
435.68	743.29
436.05	760.64
436.42	777.98
436.79	793.88
437.16	810.98
437.53	828.71
437.90	847.48
438.27	866.00
438.64	884.62
439.01	902.43
439.38	916.90
439.75	932.24
440.13	948.55
440.50	964.55
440.87	977.88
441.24	991.76
441.61	1006.40
441.98	1017.45
442.35	1029.67
442.72	1043.33
443.09	1057.76
443.46	1065.31
443.83	1071.29
444.20	1076.00
444.57	1082.60
444.94	1086.55
445.31	1090.81
445.68	1096.00
446.05	1097.29
446.42	1096.38
446.79	1095.19
447.16	1092.83
447.53	1091.29
447.90	1085.00
448.27	1078.45
448.64	1069.76
449.01	1062.71
449.37	1051.26
449.74	1039.95
450.11	1028.69
450.48	1013.26
450.85	996.26
451.22	983.43
451.59	971.02
451.96	959.43
452.33	943.31
452.70	928.29
453.07	910.17
453.43	889.98
453.80	873.36
454.17	856.45
454.54	840.00
454.91	823.05
455.28	806.71
455.65	791.45
456.02	780.38
456.38	767.45
456.75	751.81
457.12	738.31
457.49	725.17
457.86	710.00
458.23	699.90
458.59	688.17
458.96	675.76
459.33	664.83
459.70	654.19
460.07	645.52
460.43	635.57
460.80	627.14
461.17	620.14
461.54	611.33
461.91	603.71
462.27	595.48
462.64	588.83
463.01	581.31
463.38	574.88
463.74	563.50
464.11	556.79
464.48	551.05
464.85	545.10
465.21	540.76
465.58	535.76
465.95	528.81
466.32	523.71
466.68	518.29
467.05	512.74
467.42	507.57
467.78	502.02
468.15	497.26
468.52	493.50
468.88	487.48
469.25	482.95
469.62	479.24
469.98	475.19
470.35	471.67
470.72	467.88
471.08	463.50
471.45	460.48
471.82	457.26
472.18	453.52
472.55	451.19
472.92	447.17
473.28	444.10
473.65	441.33
474.02	438.81
474.38	436.86
474.75	435.05
475.11	432.74
475.48	431.29
475.85	429.14
476.21	426.98
476.58	426.00
476.94	424.55
477.31	423.26
477.67	422.21
478.04	420.98
478.41	420.00
478.77	420.90
479.14	419.52
479.50	418.67
479.87	418.50
480.23	417.83
480.60	417.19
480.96	417.50
481.33	418.50
481.69	418.17
482.06	418.50
482.42	418.69
482.79	418.98
483.15	419.50
483.52	420.74
483.88	421.12
484.25	421.40
484.61	422.57
484.98	423.26
485.34	425.19
485.71	427.10
486.07	428.45
486.44	428.33
486.80	430.12
487.17	431.86
487.53	434.43
487.90	436.60
488.26	439.90
488.62	442.33
488.99	444.12
489.35	447.05
489.72	449.36
490.08	452.50
490.44	455.48
490.81	458.76
491.17	461.45
491.54	464.81
491.90	468.76
492.26	472.36
492.63	476.02
492.99	478.95
493.36	482.43
493.72	486.95
494.08	491.50
494.45	496.33
494.81	501.57
495.17	505.62
495.54	511.07
495.90	515.76
496.26	520.98
496.63	526.52
496.99	532.19
497.35	537.86
497.72	543.86
498.08	549.74
498.44	555.81
498.80	562.36
499.17	568.48
499.53	574.38
499.89	581.43
500.26	588.64
500.62	595.52
500.98	603.26
501.34	610.71
501.71	617.98
502.07	624.83
502.43	632.10
502.79	639.36
503.16	646.48
503.52	653.79
503.88	660.36
504.24	667.45
504.60	675.10
504.97	683.05
505.33	690.07
505.69	698.76
506.05	706.64
506.41	714.29
506.78	722.43
507.14	730.76
507.50	738.19
507.86	746.24
508.22	753.95
508.59	760.98
508.95	768.74
509.31	777.62
509.67	786.43
510.03	793.71
510.39	801.71
510.75	809.64
511.12	817.71
511.48	826.07
511.84	834.21
512.20	842.26
512.56	850.62
512.92	858.60
513.28	866.02
513.64	872.98
514.00	880.48
514.37	888.07
514.73	895.48
515.09	903.02
515.45	910.17
515.81	917.52
516.17	924.48
516.53	930.79
516.89	936.38
517.25	942.55
517.61	950.74
517.97	956.79
518.33	962.93
518.69	969.67
519.05	976.64
519.41	982.98
519.77	989.67
520.13	995.40
520.49	1000.90
520.85	1006.38
521.21	1013.74
521.57	1019.62
521.93	1024.93
522.29	1030.45
522.65	1035.38
523.01	1041.19
523.37	1046.43
523.73	1051.90
524.09	1056.88
524.45	1062.21
524.81	1067.29
525.17	1071.57
525.53	1077.00
525.89	1082.71
526.25	1087.26
526.61	1091.86
526.97	1096.88
527.33	1100.90
527.68	1107.43
528.04	1112.90
528.40	1117.76
528.76	1121.52
529.12	1126.83
529.48	1132.07
529.84	1136.83
530.20	1142.40
530.56	1146.55
530.91	1151.26
531.27	1155.64
531.63	1160.83
531.99	1164.40
532.35	1168.24
532.71	1171.93
533.07	1176.76
533.42	1182.43
533.78	1186.95
534.14	1191.02
534.50	1194.45
534.86	1199.38
535.21	1201.62
535.57	1205.98
535.93	1209.40
536.29	1214.43
536.65	1219.21
537.00	1222.24
537.36	1226.02
537.72	1228.83
538.08	1232.67
538.44	1236.26
538.79	1240.07
539.15	1242.43
539.51	1247.38
539.87	1251.69
540.22	1255.57
540.58	1258.93
540.94	1260.69
541.29	1264.12
541.65	1267.19
542.01	1271.60
542.37	1273.98
542.72	1275.86
543.08	1278.33
543.44	1282.26
543.79	1283.83
544.15	1286.14
544.51	1289.86
544.87	1293.50
545.22	1296.76
545.58	1299.52
545.94	1301.76
546.29	1305.62
546.65	1309.74
547.01	1311.76
547.36	1314.38
547.72	1317.24
548.07	1320.43
548.43	1323.10
548.79	1325.02
549.14	1327.81
549.50	1330.05
549.86	1332.40
550.21	1336.71
550.57	1340.26
550.92	1342.83
551.28	1346.45
551.64	1349.93
551.99	1353.57
552.35	1355.90
552.70	1360.17
553.06	1363.81
553.41	1368.00
553.77	1371.98
554.13	1375.38
554.48	1380.98
554.84	1386.21
555.19	1389.86
555.55	1395.21
555.90	1399.31
556.26	1403.81
556.61	1407.33
556.97	1411.71
557.32	1416.19
557.68	1420.19
558.03	1424.55
558.39	1428.67
558.74	1432.71
559.10	1436.14
559.45	1440.67
559.81	1444.71
560.16	1447.74
560.52	1452.29
560.87	1457.57
561.23	1461.19
561.58	1467.14
561.94	1470.19
562.29	1473.90
562.64	1479.00
563.00	1482.33
563.35	1487.33
563.71	1493.07
564.06	1499.36
564.42	1504.55
564.77	1510.76
565.12	1516.50
565.48	1523.50
565.83	1530.36
566.19	1535.98
566.54	1541.48
566.89	1547.07
567.25	1554.00
567.60	1561.57
567.96	1568.93
568.31	1576.19
568.66	1583.05
569.02	1587.67
569.37	1592.81
569.72	1597.81
570.08	1603.10
570.43	1608.60
570.78	1613.95
571.14	1619.88
571.49	1625.02
571.84	1630.14
572.20	1635.24
572.55	1640.05
572.90	1642.52
573.26	1646.19
573.61	1650.57
573.96	1655.21
574.31	1658.43
574.67	1662.02
575.02	1665.26
575.37	1668.05
575.72	1669.31
576.08	1672.21
576.43	1676.31
576.78	1680.07
577.13	1683.67
577.49	1687.43
577.84	1691.62
578.19	1694.88
578.54	1698.12
578.90	1700.64
579.25	1704.07
579.60	1706.74
579.95	1709.62
580.30	1713.12
580.66	1716.02
581.01	1719.64
581.36	1722.26
581.71	1725.81
582.06	1729.93
582.42	1733.50
582.77	1735.52
583.12	1739.07
583.47	1741.81
583.82	1744.76
584.17	1747.67
584.53	1751.10
584.88	1753.29
585.23	1755.64
585.58	1758.33
585.93	1759.81
586.28	1763.07
586.63	1764.88
586.98	1766.90
587.34	1769.19
587.69	1771.07
588.04	1772.81
588.39	1774.98
588.74	1776.29
589.09	1778.05
589.44	1778.43
589.79	1779.24
590.14	1781.19
590.49	1782.21
590.84	1783.00
591.19	1783.45
591.54	1784.69
591.89	1785.07
592.25	1788.12
592.60	1787.50
592.95	1788.38
593.30	1789.00
593.65	1788.40
594.00	1788.48
594.35	1794.55
594.70	1794.29
595.05	1794.52
595.40	1794.74
595.75	1793.98
596.10	1795.24
596.45	1795.71
596.80	1796.14
597.15	1795.83
597.50	1795.55
597.85	1796.74
598.19	1796.43
598.54	1796.67
598.89	1797.29
599.24	1797.79
599.59	1795.17
599.94	1795.40
600.29	1795.10
600.64	1794.95
600.99	1795.00
601.34	1794.98
601.69	1789.10
602.04	1787.71
602.39	1786.48
602.74	1786.69
603.08	1785.95
603.43	1785.38
603.78	1784.90
604.13	1784.29
604.48	1783.21
604.83	1781.93
605.18	1779.60
605.53	1778.95
605.87	1776.93
606.22	1774.19
606.57	1771.95
606.92	1771.40
607.27	1769.71
607.62	1768.14
607.96	1766.98
608.31	1766.00
608.66	1763.69
609.01	1760.52
609.36	1760.43
609.70	1758.57
610.05	1755.26
610.40	1753.29
610.75	1750.19
611.10	1747.33
611.44	1743.40
611.79	1740.48
612.14	1737.93
612.49	1734.40
612.83	1730.40
613.18	1727.57
613.53	1724.24
613.88	1720.33
614.22	1715.88
614.57	1711.40
614.92	1707.02
615.27	1702.43
615.61	1697.12
615.96	1692.83
616.31	1688.90
616.65	1684.36
617.00	1680.79
617.35	1676.83
617.70	1672.55
618.04	1668.26
618.39	1662.52
618.74	1658.76
619.08	1654.29
619.43	1649.40
619.78	1645.02
620.12	1641.43
620.47	1637.10
620.82	1632.33
621.16	1627.95
621.51	1625.24
621.85	1621.14
622.20	1616.52
622.55	1610.98
622.89	1607.62
623.24	1603.07
623.59	1599.10
623.93	1594.29
624.28	1589.83
624.62	1587.55
624.97	1584.57
625.32	1579.69
625.66	1575.88
626.01	1570.57
626.35	1567.21
626.70	1562.81
627.04	1560.79
627.39	1556.21
627.73	1552.50
628.08	1549.45
628.43	1546.10
628.77	1540.86
629.12	1536.76
629.46	1532.48
629.81	1528.19
630.15	1523.36
630.50	1519.60
630.84	1514.98
631.19	1509.71
631.53	1504.79
631.88	1496.60
632.22	1489.60
632.57	1485.31
632.91	1480.12
633.26	1476.02
633.60	1469.17
633.95	1464.24
634.29	1456.50
634.64	1450.98
634.98	1444.57
635.32	1439.17
635.67	1433.93
636.01	1428.64
636.36	1423.19
636.70	1419.10
637.05	1415.12
637.39	1409.74
637.73	1404.76
638.08	1400.62
638.42	1395.98
638.77	1390.76
639.11	1386.45
639.45	1381.43
639.80	1375.17
640.14	1369.21
640.49	1363.17
640.83	1357.83
641.17	1352.74
641.52	1347.62
641.86	1342.26
642.20	1337.52
642.55	1330.31
642.89	1323.43
643.23	1317.29
643.58	1312.31
643.92	1304.33
644.26	1297.69
644.61	1291.31
644.95	1284.40
645.29	1276.52
645.64	1270.29
645.98	1263.52
646.32	1257.38
646.66	1250.74
647.01	1244.17
647.35	1239.00
647.69	1232.60
648.04	1227.57
648.38	1221.14
648.72	1215.45
649.06	1208.57
649.41	1201.02
649.75	1194.79
650.09	1188.52
650.43	1181.71
650.78	1174.43
651.12	1168.02
651.46	1160.98
651.80	1154.50
652.14	1148.33
652.49	1143.00
652.83	1136.31
653.17	1129.33
653.51	1122.12
653.85	1116.10
654.20	1109.69
654.54	1102.33
654.88	1095.57
655.22	1088.26
655.56	1080.60
655.90	1073.26
656.25	1066.74
656.59	1060.05
656.93	1054.24
657.27	1048.36
657.61	1041.36
657.95	1034.60
658.29	1028.76
658.64	1023.26
658.98	1016.64
659.32	1010.10
659.66	1002.31
660.00	995.69
660.34	989.67
660.68	983.60
661.02	977.05
661.36	971.17
661.70	965.64
662.05	959.93
662.39	954.67
662.73	949.71
663.07	944.33
663.41	937.74
663.75	932.45
664.09	926.48
664.43	919.88
664.77	914.07
665.11	908.26
665.45	902.31
665.79	895.90
666.13	889.83
666.47	883.88
666.81	879.17
667.15	873.62
667.49	868.64
667.83	864.12
668.17	858.24
668.51	852.55
668.85	846.90
669.19	841.79
669.53	835.10
669.87	828.86
670.21	822.98
670.55	817.90
670.89	813.52
671.23	807.74
671.57	802.69
671.91	797.40
672.25	792.07
672.58	787.83
672.92	782.69
673.26	778.57
673.60	773.55
673.94	768.12
674.28	763.02
674.62	757.88
674.96	752.07
675.30	747.24
675.64	742.45
675.97	737.62
676.31	732.55
676.65	728.07
676.99	724.52
677.33	719.64
677.67	715.74
678.01	710.14
678.34	706.17
678.68	702.10
679.02	697.50
679.36	692.79
679.70	687.07
680.04	682.26
680.37	676.98
680.71	672.76
681.05	668.55
681.39	664.10
681.73	659.52
682.06	655.40
682.40	651.48
682.74	647.29
683.08	643.19
683.42	638.21
683.75	634.26
684.09	628.95
684.43	624.33
684.77	619.67
685.10	615.36
685.44	610.95
685.78	605.98
686.12	601.86
686.45	597.93
686.79	593.74
687.13	589.98
687.46	586.10
687.80	581.93
688.14	577.98
688.48	574.31
688.81	570.43
689.15	566.71
689.49	562.36
689.82	558.21
690.16	553.52
690.50	549.74
690.83	545.43
691.17	541.05
691.51	537.74
691.84	533.95
692.18	529.98
692.52	526.14
692.85	523.00
693.19	520.05
693.52	516.40
693.86	512.83
694.20	509.31
694.53	505.45
694.87	502.02
695.21	498.10
695.54	494.60
695.88	490.43
696.21	486.10
696.55	482.38
696.88	479.33
697.22	476.24
697.56	473.79
697.89	470.38
698.23	467.64
698.56	464.05
698.90	461.10
699.23	457.93
699.57	454.88
699.90	451.69
700.24	448.26
700.58	445.24
700.91	442.69
701.25	441.21
701.58	439.21
701.92	436.60
702.25	434.19
702.59	431.07
702.92	428.81
703.26	426.62
703.59	424.21
703.93	423.19
704.26	420.79
704.60	417.98
704.93	415.52
705.26	412.98
705.60	410.98
705.93	408.07
706.27	406.17
706.60	404.05
706.94	402.45
707.27	399.64
707.61	397.67
707.94	395.17
708.27	391.24
708.61	388.31
708.94	386.02
709.28	383.83
709.61	381.88
709.94	380.17
710.28	377.98
710.61	375.74
710.95	371.67
711.28	370.79
711.61	368.98
711.95	367.38
712.28	365.50
712.61	363.26
712.95	362.62
713.28	361.50
713.61	359.69
713.95	357.14
714.28	355.88
714.61	353.90
714.95	351.86
715.28	349.86
715.61	348.19
715.95	346.52
716.28	344.55
716.61	342.93
716.95	340.69
717.28	339.21
717.61	337.64
717.94	336.17
718.28	333.24
718.61	331.40
718.94	329.71
719.27	328.00
719.61	326.86
719.94	324.71
720.27	322.17
720.60	320.17
720.94	318.62
721.27	317.02
721.60	315.88
721.93	314.88
722.27	314.50
722.60	313.52
722.93	311.98
723.26	310.95
723.59	309.33
723.93	308.40
724.26	307.14
724.59	306.10
724.92	305.14
725.25	304.69
725.59	303.55
725.92	302.67
726.25	301.69
726.58	300.40
726.91	299.29
727.24	298.62
727.57	297.79
727.91	296.62
728.24	296.10
728.57	294.98
728.90	294.17
729.23	292.60
729.56	292.38
729.89	291.83
730.22	290.67
730.55	289.64
730.89	288.74
731.22	287.98
731.55	287.10
731.88	286.48
732.21	285.38
732.54	284.71
732.87	284.02
733.20	283.21
733.53	282.60
733.86	282.21
734.19	280.71
734.52	280.07
734.85	280.95
735.18	279.57
735.51	279.31
735.84	278.76
736.17	278.43
736.50	276.83
736.83	278.07
737.16	277.60
737.49	277.31
737.82	276.64
738.15	276.05
738.48	275.43
738.81	274.69
739.14	273.45
739.47	272.33
739.80	271.55
740.13	271.07
740.46	270.12
740.79	268.69
741.12	268.24
741.45	267.36
741.78	265.40
742.11	265.43
742.44	264.29
742.77	264.00
743.10	263.00
743.43	262.24
743.75	259.62
744.08	261.45
744.41	260.67
744.74	259.93
745.07	258.86
745.40	258.64
745.73	258.67
746.06	258.40
746.39	258.17
746.71	257.21
747.04	256.36
747.37	256.12
747.70	256.24
748.03	255.93
748.36	255.69
748.68	254.93
749.01	253.88
749.34	253.36
749.67	252.55
750.00	252.69
750.33	253.83
750.65	253.57
750.98	250.76
751.31	250.55
751.64	250.24
751.97	251.14
752.29	250.38
752.62	248.93
752.95	248.40
753.28	247.86
753.60	247.48
753.93	247.67
754.26	247.21
754.59	246.33
754.91	245.74
755.24	245.19
755.57	244.90
755.90	244.50
756.22	244.21
756.55	243.45
756.88	242.43
757.20	240.74
757.53	240.00
757.86	239.60
758.19	239.24
758.51	238.74
758.84	237.38
759.17	237.17
759.49	237.10
759.82	237.83
760.15	237.50
760.47	237.14
760.80	236.60
761.13	236.64
761.45	236.33
761.78	236.19
762.11	235.83
762.43	235.33
762.76	234.98
763.08	235.00
763.41	234.90
763.74	234.95
764.06	234.74
764.39	234.29
764.71	234.02
765.04	233.40
765.37	233.26
765.69	233.05
766.02	232.60
766.34	232.21
766.67	231.14
767.00	231.40
767.32	232.17
767.65	233.02
767.97	232.67
768.30	232.38
768.62	232.07
768.95	231.74
769.27	231.60
769.60	231.98
769.92	231.45
770.25	230.98
770.57	230.36
770.90	229.74
771.22	229.50
771.55	229.21
771.87	229.33
772.20	229.05
772.52	230.67
772.85	233.10
773.17	232.98
773.50	232.52
773.82	232.07
774.15	231.00
774.47	229.29
774.80	228.71
775.12	228.50
775.45	228.29
775.77	228.55
776.09	228.64
776.42	228.31
776.74	228.93
777.07	228.71
777.39	228.64
777.72	228.62
778.04	228.83
778.36	228.52
778.69	228.43
779.01	228.43
779.33	226.45
779.66	223.86
779.98	223.60
780.31	223.74
780.63	224.64
780.95	224.93
781.28	224.93
781.60	224.79
781.92	224.69
782.25	224.55
782.57	224.12
782.89	223.79
783.22	223.52
783.54	222.64
783.86	222.76
784.19	222.76
784.51	223.45
784.83	222.98
785.16	223.14
785.48	222.90
785.80	222.88
786.12	223.00
786.45	222.69
786.77	222.88
787.09	222.74
787.42	221.74
787.74	221.62
788.06	221.55
788.38	221.48
788.71	221.33
789.03	221.50
789.35	221.79
789.67	221.64
789.99	221.79
790.32	221.43
790.64	221.86
790.96	223.29
791.28	222.24
791.61	222.21
791.93	222.17
792.25	222.05
792.57	223.21
792.89	222.71
793.21	222.95
793.54	222.88
793.86	222.52
794.18	222.64
794.50	222.24
794.82	222.48
795.14	222.64
795.47	222.83
795.79	222.71
796.11	222.12
796.43	222.00
796.75	221.62
797.07	221.76
797.39	221.40
797.71	219.90
798.04	220.12
798.36	220.14
798.68	219.86
799.00	219.93
799.32	218.79
799.64	219.33
799.96	219.31
800.28	219.26
800.60	219.21
800.92	219.14
801.24	218.98
801.56	218.81
801.89	218.69
802.21	218.81
802.53	218.43
802.85	219.14
803.17	219.93
803.49	219.60
803.81	219.24
804.13	219.07
804.45	219.02
804.77	219.02
805.09	218.93
805.41	218.69
805.73	218.38
806.05	217.93
806.37	217.60
806.69	217.40
807.01	217.45
807.33	217.60
807.65	216.86
807.97	218.02
808.28	217.98
808.60	217.98
808.92	217.52
809.24	218.86
809.56	218.24
809.88	217.52
810.20	217.71
810.52	218.45
810.84	218.02
811.16	217.62
811.48	217.43
811.80	218.29
812.12	218.19
812.43	218.62
812.75	218.88
813.07	218.74
813.39	218.62
813.71	218.31
814.03	217.83
814.35	217.98
814.67	216.83
814.98	216.64
815.30	216.38
815.62	216.14
815.94	214.52
816.26	214.43
816.58	214.07
816.89	214.33
817.21	213.79
817.53	213.98
817.85	214.43
818.17	214.62
818.48	213.90
818.80	214.33
819.12	214.02
819.44	213.60
819.76	213.14
820.07	213.31
820.39	213.19
820.71	213.50
821.03	213.50
821.34	213.86
821.66	214.26
821.98	214.69
822.30	214.71
822.61	216.24
822.93	216.17
823.25	216.14
823.57	215.81
823.88	216.17
824.20	216.02
824.52	215.95
824.83	215.64
825.15	215.14
825.47	215.12
825.79	215.14
826.10	215.10
826.42	215.19
826.74	215.62
827.05	215.57
827.37	215.76
827.69	215.67
828.00	215.19
828.32	214.88
828.64	214.31
828.95	215.36
829.27	214.45
829.58	214.38
829.90	214.88
830.22	215.10
830.53	214.60
830.85	214.38
831.17	213.95
831.48	214.19
831.80	214.52
832.11	214.33
832.43	214.19
832.75	214.48
833.06	215.79
833.38	215.05
833.69	214.88
834.01	214.90
834.32	214.88
834.64	214.90
834.96	214.98
835.27	215.00
835.59	214.57
835.90	214.38
836.22	214.40
836.53	213.90
836.85	213.76
837.16	215.79
837.48	215.86
837.79	216.31
838.11	216.31
838.42	216.00
838.74	216.24
839.05	216.24
839.37	215.86
839.68	214.50
840.00	214.33
840.31	214.81
840.63	214.40
840.94	214.14
841.26	213.93
841.57	214.05
841.88	214.31
842.20	214.02
842.51	213.60
842.83	213.57
843.14	215.55
843.46	215.48
843.77	214.36
844.08	214.31
844.40	213.86
844.71	213.64
845.03	213.60
845.34	213.38
845.65	213.29
845.97	213.36
846.28	213.48
846.60	213.52
846.91	213.02
847.22	212.95
847.54	213.43
847.85	213.64
848.16	213.38
848.48	213.02
848.79	213.67
849.10	214.17
849.42	214.52
849.73	212.48
850.04	212.40
850.36	211.67
850.67	211.86
850.98	211.83
851.30	212.19
851.61	212.12
851.92	212.12
852.23	212.55
852.55	212.86
852.86	212.88
853.17	213.05
853.49	213.52
853.80	214.05
854.11	214.24
854.42	214.43
854.74	214.19
855.05	214.29
855.36	213.17
855.67	213.36
855.99	213.31
856.30	215.71
856.61	215.64
856.92	215.60
857.23	215.60
857.55	215.48
857.86	215.17
858.17	215.48
858.48	215.17
858.79	214.90
859.11	214.98
859.42	214.83
859.73	214.79
860.04	214.67
860.35	214.14
860.66	213.74
860.98	213.69
861.29	214.14
861.60	213.93
861.91	214.69
862.22	214.17
862.53	213.86
862.84	211.48
863.16	212.05
863.47	211.86
863.78	211.83
864.09	212.00
864.40	212.17
864.71	212.21
865.02	212.60
865.33	212.48
865.64	211.90
865.95	212.00
866.27	213.24
866.58	213.19
866.89	213.71
867.20	213.71
867.51	213.36
867.82	213.07
868.13	214.00
868.44	213.36
868.75	213.83
869.06	214.07
869.37	214.24
869.68	213.55
869.99	213.95
870.30	214.19
870.61	214.60
870.92	214.14
871.23	214.12
871.54	214.26
871.85	214.62
872.16	214.90
872.47	215.05
872.78	213.81
873.09	213.98
873.40	213.57
873.71	213.40
874.02	213.79
874.33	213.62
874.64	212.81
874.95	213.33
875.26	212.79
875.56	212.50
875.87	212.52
876.18	212.52
876.49	214.36
876.80	214.02
877.11	213.62
877.42	214.00
877.73	213.95
878.04	213.50
878.35	213.43
878.66	213.48
878.96	213.12
879.27	213.19
879.58	213.05
879.89	212.88
880.20	213.69
880.51	213.36
880.82	213.33
881.12	213.60
881.43	213.21
881.74	213.14
882.05	213.00
882.36	213.12
882.67	213.26
882.97	211.07
883.28	211.21
883.59	211.10
883.90	211.31
884.21	211.55
884.51	211.62
884.82	211.21
885.13	211.17
885.44	211.29
885.74	211.14
886.05	211.12
886.36	211.24
886.67	210.45
886.98	211.50
887.28	211.93
887.59	212.00
887.90	211.95
888.20	211.95
888.51	212.50
888.82	212.19
889.13	212.45
889.43	214.02
889.74	213.83
890.05	213.95
890.35	213.71
890.66	213.55
890.97	213.26
891.28	213.29
891.58	213.40
891.89	213.33
892.20	213.24
892.50	213.00
892.81	212.90
893.12	213.14
893.42	212.38
893.73	212.38
894.04	212.50
894.34	212.76
894.65	212.74
894.95	212.29
895.26	212.48
895.57	213.33
895.87	211.74
896.18	212.02
896.48	212.05
896.79	211.86
897.10	211.93
897.40	211.93
897.71	212.10
898.01	211.76
898.32	212.10
898.63	212.05
898.93	212.07
899.24	212.00
899.54	211.50
899.85	211.43
900.15	211.24
900.46	211.17
900.76	211.24
901.07	211.24
901.38	211.31
901.68	211.40
901.99	210.10
902.29	210.07
902.60	209.90
902.90	209.76
903.21	209.83
903.51	209.67
903.82	210.36
904.12	210.40
904.43	210.67
904.73	210.48
905.03	210.62
905.34	212.50
905.64	212.60
905.95	212.79
906.25	212.71
906.56	212.69
906.86	212.62
907.17	212.31
907.47	212.45
907.77	212.31
908.08	211.90
908.38	212.29
908.69	212.67
908.99	213.05
909.30	213.12
909.60	213.02
909.90	213.48
910.21	212.86
910.51	212.67
910.81	212.67
911.12	212.98
911.42	212.93
911.73	211.24
912.03	211.36
912.33	211.83
912.64	211.62
912.94	211.57
913.24	211.07
913.55	210.93
913.85	210.81
914.15	211.33
914.46	211.67
914.76	211.40
915.06	211.10
915.37	210.76
915.67	210.55
915.97	210.64
916.27	209.98
916.58	210.10
916.88	209.90
917.18	209.93
917.49	211.17
917.79	211.24
918.09	211.24
918.39	211.60
918.70	211.55
919.00	211.67
919.30	212.43
919.60	212.48
919.91	212.31
920.21	212.48
920.51	211.93
920.81	211.76
921.12	212.19
921.42	212.21
921.72	212.31
922.02	212.43
922.32	212.71
922.63	212.76
922.93	213.83
923.23	214.12
923.53	213.83
923.83	212.24
924.13	212.45
924.44	212.50
924.74	212.95
925.04	213.21
925.34	213.29
925.64	212.45
925.94	212.38
926.24	213.69
926.55	213.67
926.85	213.93
927.15	214.00
927.45	213.86
927.75	213.79
928.05	213.93
928.35	213.98
928.65	214.48
928.95	214.76
929.26	214.02
929.56	214.31
929.86	214.64
930.16	214.64
930.46	214.52
930.76	214.40
931.06	213.57
931.36	213.07
931.66	213.45
931.96	213.62
932.26	213.98
932.56	213.02
932.86	212.93
933.16	213.02
933.46	212.62
933.76	212.33
934.06	212.86
934.36	213.50
934.66	213.26
934.96	212.69
935.26	212.60
935.56	212.79
935.86	212.38
936.16	212.00
936.46	211.98
936.76	211.86
937.06	211.83
937.36	211.81
937.66	211.90
937.96	211.48
938.26	211.10
938.56	210.81
938.86	211.05
939.16	211.45
939.46	211.64
939.76	211.98
940.06	211.90
940.35	211.45
940.65	210.33
940.95	210.71
941.25	210.43
941.55	210.17
941.85	210.26
942.15	210.67
942.45	211.43
942.75	211.52
943.04	211.71
943.34	212.12
943.64	212.05
943.94	211.86
944.24	212.21
944.54	212.36
944.84	212.43
945.13	212.07
945.43	211.83
945.73	211.64
946.03	211.48
946.33	211.48
946.62	211.55
946.92	211.55
947.22	211.79
947.52	211.71
947.82	211.88
948.11	211.57
948.41	211.02
948.71	210.48
949.01	210.38
949.31	209.98
949.60	209.52
949.90	209.88
950.20	209.62
950.50	209.64
950.79	209.52
951.09	209.81
951.39	209.71
951.69	209.43
951.98	209.88
952.28	210.05
952.58	209.93
952.87	209.71
953.17	210.07
953.47	209.69
953.76	209.74
954.06	209.62
954.36	209.19
954.66	209.17
954.95	209.38
955.25	209.60
955.55	209.83
955.84	209.69
956.14	209.76
956.44	210.07
956.73	209.64
957.03	209.81
957.32	209.69
957.62	209.79
957.92	210.29
958.21	210.10
958.51	212.64
958.81	213.07
959.10	213.29
959.40	213.71
959.69	213.93
959.99	214.33
960.29	214.40
960.58	214.62
960.88	215.43
961.17	215.38
961.47	215.71
961.76	215.40
962.06	215.81
962.36	215.55
962.65	215.60
962.95	215.67
963.24	215.55
963.54	215.62
963.83	215.74
964.13	215.40
964.42	214.83
964.72	213.07
965.01	212.93
965.31	212.83
965.60	212.36
965.90	213.38
966.19	212.83
966.49	212.98
966.78	212.69
967.08	212.60
967.37	212.62
967.67	212.10
967.96	212.69
968.26	212.45
968.55	212.79
968.85	212.79
969.14	212.76
969.43	212.79
969.73	212.90
970.02	212.95
970.32	213.29
970.61	213.43
970.91	212.86
971.20	212.62
971.49	212.43
971.79	212.76
972.08	211.52
972.38	211.62
972.67	211.55
972.96	211.98
973.26	211.52
973.55	212.05
973.85	211.93
974.14	211.57
974.43	211.95
974.73	211.38
975.02	211.17
975.31	211.40
975.61	211.29
975.90	210.79
976.19	210.55
976.49	210.38
976.78	210.43
977.07	210.00
977.37	210.19
977.66	210.55
977.95	210.21
978.24	210.26
978.54	210.81
978.83	210.71
979.12	210.48
979.42	210.55
979.71	210.05
980.00	210.02
980.29	210.02
980.59	209.67
980.88	210.38
981.17	210.52
981.46	210.40
981.76	210.55
982.05	211.33
982.34	211.43
982.63	211.38
982.93	211.38
983.22	212.07
983.51	212.24
983.80	212.40
984.09	212.60
984.39	212.40
984.68	212.05
984.97	212.14
985.26	211.74
985.55	211.93
985.85	211.57
986.14	211.90
986.43	212.10
986.72	211.95
987.01	211.10
987.30	210.90
987.59	210.74
987.89	210.86
988.18	210.24
988.47	210.14
988.76	210.07
989.05	209.98
989.34	209.67
989.63	210.14
989.92	209.90
990.22	209.52
990.51	209.55
990.80	209.50
991.09	209.83
991.38	210.50
991.67	210.24
991.96	210.02
992.25	210.05
992.54	209.95
992.83	209.81
993.12	210.00
993.41	210.43
993.70	211.33
993.99	211.74
994.28	212.00
994.58	212.31
994.87	212.14
995.16	212.07
995.45	212.02
995.74	211.33
996.03	211.64
996.32	212.21
996.61	212.71
996.90	212.74
997.19	212.36
997.48	212.36
997.77	212.10
998.06	212.60
998.34	212.31
998.63	212.26
998.92	212.45
999.21	212.76
999.50	212.83
999.79	211.93
1000.08	211.79
1000.37	211.62
1000.66	211.43
1000.95	211.86
1001.24	211.74
1001.53	212.02
1001.82	211.95
1002.11	211.50
1002.40	211.71
1002.68	212.14
1002.97	213.45
1003.26	213.05
1003.55	212.57
1003.84	212.88
1004.13	213.48
1004.42	213.40
1004.71	213.45
1004.99	213.48
1005.28	214.17
1005.57	214.02
1005.86	213.93
1006.15	213.88
1006.44	213.67
1006.72	213.86
1007.01	213.50
1007.30	213.76
1007.59	213.74
1007.88	213.71
1008.17	213.62
1008.45	213.00
1008.74	212.12
1009.03	211.14
1009.32	211.38
1009.60	211.50
1009.89	211.38
1010.18	210.52
1010.47	210.50
1010.76	210.31
1011.04	210.31
1011.33	210.07
1011.62	210.21
1011.91	210.19
1012.19	209.95
1012.48	210.19
1012.77	210.07
1013.05	210.95
1013.34	210.83
1013.63	210.50
1013.92	210.64
1014.20	210.57
1014.49	210.79
1014.78	210.86
1015.06	210.33
1015.35	210.36
1015.64	210.55
1015.92	210.93
1016.21	211.19
1016.50	211.21
1016.78	211.43
1017.07	211.64
1017.36	211.07
1017.64	210.60
1017.93	211.07
1018.22	210.88
1018.50	210.88
1018.79	210.93
1019.08	210.05
1019.36	210.26
1019.65	209.90
1019.93	210.43
1020.22	210.93
1020.51	211.67
1020.79	211.50
1021.08	206.00
1021.36	210.00
1021.65	213.00
1021.94	208.50
1022.22	212.00
1022.51	202.50
1022.79	220.00
1023.08	215.50
1023.36	231.50
1023.65	204.50
>>>>>End Processed Spectral Data<<<<<
