SpectraSuite Data File
++++++++++++++++++++++++++++++++++++
Date: Tue Apr 02 18:38:15 EDT 2013
User: group
Dark Spectrum Present: No
Reference Spectrum Present: No
Number of Sampled Component Spectra: 1
Spectrometers: USB2E7196
Integration Time (usec): 580000 (USB2E7196)
Spectra Averaged: 2 (USB2E7196)
Boxcar Smoothing: 10 (USB2E7196)
Correct for Electrical Dark: No (USB2E7196)
Strobe/Lamp Enabled: No (USB2E7196)
Correct for Detector Non-linearity: No (USB2E7196)
Correct for Stray Light: No (USB2E7196)
Number of Pixels in Processed Spectrum: 2048
>>>>>Begin Processed Spectral Data<<<<<
339.09	0.00
339.48	196.00
339.86	195.00
340.24	194.50
340.63	196.00
341.01	231.00
341.39	203.00
341.78	207.50
342.16	209.00
342.54	207.50
342.93	198.95
343.31	208.64
343.69	209.19
344.07	209.83
344.46	210.57
344.84	211.38
345.22	210.36
345.60	210.86
345.99	211.14
346.37	211.31
346.75	211.24
347.13	211.36
347.52	211.52
347.90	212.40
348.28	212.38
348.66	212.88
349.05	212.07
349.43	212.12
349.81	212.36
350.19	212.02
350.57	212.33
350.96	212.60
351.34	213.07
351.72	213.07
352.10	213.02
352.48	213.05
352.87	212.88
353.25	213.07
353.63	212.74
354.01	212.64
354.39	212.64
354.77	212.86
355.15	213.45
355.54	213.26
355.92	212.45
356.30	212.45
356.68	213.57
357.06	213.81
357.44	213.62
357.82	213.52
358.20	214.64
358.58	214.64
358.97	214.69
359.35	215.10
359.73	215.57
360.11	215.90
360.49	215.98
360.87	216.05
361.25	215.95
361.63	216.79
362.01	217.00
362.39	217.00
362.77	217.26
363.15	216.74
363.53	216.71
363.91	216.88
364.29	217.02
364.67	215.07
365.05	215.07
365.43	215.26
365.81	215.45
366.19	215.69
366.57	216.45
366.95	216.50
367.33	215.81
367.71	215.79
368.09	215.95
368.47	215.90
368.85	215.90
369.23	216.55
369.61	215.95
369.99	216.38
370.37	216.69
370.75	217.40
371.13	217.26
371.51	216.83
371.89	216.98
372.27	217.17
372.65	217.26
373.03	217.43
373.41	217.40
373.78	217.43
374.16	216.19
374.54	215.45
374.92	215.29
375.30	215.52
375.68	215.19
376.06	215.33
376.44	215.36
376.82	215.36
377.19	215.07
377.57	215.12
377.95	214.52
378.33	214.33
378.71	213.26
379.09	213.57
379.47	214.05
379.84	213.93
380.22	213.57
380.60	213.43
380.98	213.36
381.36	213.36
381.73	212.93
382.11	213.45
382.49	213.45
382.87	213.24
383.25	213.24
383.62	215.52
384.00	214.74
384.38	214.71
384.76	215.12
385.13	215.81
385.51	215.67
385.89	215.67
386.27	215.60
386.64	215.88
387.02	215.57
387.40	215.31
387.78	215.57
388.15	215.62
388.53	215.52
388.91	215.38
389.29	215.26
389.66	215.64
390.04	215.36
390.42	215.88
390.79	216.14
391.17	216.10
391.55	213.93
391.92	214.26
392.30	214.67
392.68	214.29
393.05	214.10
393.43	214.14
393.81	214.07
394.18	213.60
394.56	213.67
394.94	214.33
395.31	214.33
395.69	214.86
396.06	215.36
396.44	215.57
396.82	215.50
397.19	216.48
397.57	216.14
397.95	216.62
398.32	215.88
398.70	216.00
399.07	216.45
399.45	216.45
399.82	216.52
400.20	215.95
400.58	215.88
400.95	215.36
401.33	215.88
401.70	217.26
402.08	217.76
402.45	217.83
402.83	218.21
403.20	218.14
403.58	217.79
403.95	217.95
404.33	218.40
404.71	218.83
405.08	220.02
405.46	220.55
405.83	220.71
406.21	221.33
406.58	221.86
406.96	222.07
407.33	222.71
407.70	223.43
408.08	225.93
408.45	226.88
408.83	227.79
409.20	228.33
409.58	228.26
409.95	229.52
410.33	230.57
410.70	231.00
411.08	232.60
411.45	234.07
411.82	235.21
412.20	237.07
412.57	239.67
412.95	239.48
413.32	241.48
413.69	243.12
414.07	245.07
414.44	247.38
414.82	249.79
415.19	252.81
415.56	255.31
415.94	256.93
416.31	260.33
416.68	263.64
417.06	267.38
417.43	271.36
417.81	275.43
418.18	279.62
418.55	284.26
418.93	288.95
419.30	294.00
419.67	299.57
420.04	304.52
420.42	309.55
420.79	317.43
421.16	323.76
421.54	331.74
421.91	338.98
422.28	345.86
422.66	353.76
423.03	362.76
423.40	370.71
423.77	378.90
424.15	387.45
424.52	396.45
424.89	406.40
425.26	415.52
425.64	424.21
426.01	434.26
426.38	444.45
426.75	455.55
427.13	466.48
427.50	477.45
427.87	489.14
428.24	500.90
428.61	511.52
428.99	525.00
429.36	537.60
429.73	550.79
430.10	564.19
430.47	577.67
430.85	589.79
431.22	604.62
431.59	622.12
431.96	636.93
432.33	653.24
432.70	669.31
433.08	688.45
433.45	706.88
433.82	725.10
434.19	744.79
434.56	764.83
434.93	783.64
435.30	802.26
435.68	823.62
436.05	844.48
436.42	864.38
436.79	883.24
437.16	903.55
437.53	924.98
437.90	946.31
438.27	967.88
438.64	989.90
439.01	1011.00
439.38	1028.57
439.75	1046.52
440.13	1067.05
440.50	1085.76
440.87	1101.36
441.24	1117.50
441.61	1135.07
441.98	1148.57
442.35	1162.71
442.72	1178.38
443.09	1194.57
443.46	1204.05
443.83	1210.60
444.20	1216.67
444.57	1224.64
444.94	1228.62
445.31	1233.14
445.68	1240.26
446.05	1242.38
446.42	1241.10
446.79	1240.02
447.16	1237.19
447.53	1236.90
447.90	1229.50
448.27	1221.90
448.64	1212.07
449.01	1205.05
449.37	1191.50
449.74	1178.76
450.11	1165.52
450.48	1148.19
450.85	1130.02
451.22	1114.93
451.59	1100.40
451.96	1087.24
452.33	1067.79
452.70	1051.29
453.07	1031.50
453.43	1008.29
453.80	988.26
454.17	969.21
454.54	950.33
454.91	931.31
455.28	911.62
455.65	894.17
456.02	880.64
456.38	864.98
456.75	846.36
457.12	831.02
457.49	815.81
457.86	799.17
458.23	787.00
458.59	773.17
458.96	759.05
459.33	746.38
459.70	733.31
460.07	723.43
460.43	711.71
460.80	700.52
461.17	691.55
461.54	681.69
461.91	672.55
462.27	662.64
462.64	654.12
463.01	645.19
463.38	637.02
463.74	624.81
464.11	617.19
464.48	610.29
464.85	602.69
465.21	597.19
465.58	591.33
465.95	583.10
466.32	577.02
466.68	570.81
467.05	564.67
467.42	558.52
467.78	552.33
468.15	546.90
468.52	542.33
468.88	536.00
469.25	530.50
469.62	526.21
469.98	521.67
470.35	517.60
470.72	513.43
471.08	508.33
471.45	504.95
471.82	501.40
472.18	497.43
472.55	494.62
472.92	490.62
473.28	486.98
473.65	483.69
474.02	480.29
474.38	477.93
474.75	476.12
475.11	473.79
475.48	472.07
475.85	469.81
476.21	467.93
476.58	466.57
476.94	465.83
477.31	464.02
477.67	462.83
478.04	461.83
478.41	460.83
478.77	461.88
479.14	460.60
479.50	460.14
479.87	459.55
480.23	458.86
480.60	458.43
480.96	458.21
481.33	459.43
481.69	460.14
482.06	460.36
482.42	460.62
482.79	461.14
483.15	461.60
483.52	463.05
483.88	464.19
484.25	465.29
484.61	466.00
484.98	467.40
485.34	469.17
485.71	470.88
486.07	472.90
486.44	473.29
486.80	475.55
487.17	477.64
487.53	480.69
487.90	483.81
488.26	487.67
488.62	491.36
488.99	493.83
489.35	497.14
489.72	500.31
490.08	503.88
490.44	507.52
490.81	511.57
491.17	515.38
491.54	519.55
491.90	524.26
492.26	529.00
492.63	533.79
492.99	538.64
493.36	543.98
493.72	549.62
494.08	555.36
494.45	561.43
494.81	568.26
495.17	574.12
495.54	581.07
495.90	587.26
496.26	594.14
496.63	601.62
496.99	608.60
497.35	615.88
497.72	623.71
498.08	631.40
498.44	639.48
498.80	647.43
499.17	655.79
499.53	663.98
499.89	673.17
500.26	682.26
500.62	690.74
500.98	699.83
501.34	708.21
501.71	717.36
502.07	726.19
502.43	734.52
502.79	743.71
503.16	752.74
503.52	762.12
503.88	770.83
504.24	780.07
504.60	789.50
504.97	799.76
505.33	808.98
505.69	819.48
506.05	830.21
506.41	841.07
506.78	850.93
507.14	861.33
507.50	871.52
507.86	881.79
508.22	892.52
508.59	902.24
508.95	913.31
509.31	924.81
509.67	935.60
510.03	946.19
510.39	956.90
510.75	967.33
511.12	977.81
511.48	988.48
511.84	999.19
512.20	1009.93
512.56	1020.33
512.92	1031.21
513.28	1042.29
513.64	1051.81
514.00	1061.33
514.37	1071.79
514.73	1081.43
515.09	1091.07
515.45	1101.17
515.81	1110.74
516.17	1121.26
516.53	1130.33
516.89	1138.71
517.25	1148.24
517.61	1157.71
517.97	1166.36
518.33	1175.43
518.69	1184.07
519.05	1193.10
519.41	1201.45
519.77	1211.67
520.13	1219.93
520.49	1228.14
520.85	1235.71
521.21	1244.64
521.57	1253.14
521.93	1260.81
522.29	1268.76
522.65	1276.31
523.01	1283.50
523.37	1290.93
523.73	1297.62
524.09	1305.24
524.45	1311.74
524.81	1318.00
525.17	1324.43
525.53	1331.48
525.89	1337.98
526.25	1344.69
526.61	1350.48
526.97	1356.07
527.33	1361.17
527.68	1369.12
528.04	1373.62
528.40	1378.31
528.76	1383.52
529.12	1388.67
529.48	1394.05
529.84	1398.79
530.20	1404.24
530.56	1410.36
530.91	1415.55
531.27	1420.62
531.63	1425.43
531.99	1429.29
532.35	1433.81
532.71	1438.14
533.07	1443.69
533.42	1450.24
533.78	1454.36
534.14	1458.50
534.50	1462.98
534.86	1467.17
535.21	1468.81
535.57	1474.36
535.93	1478.55
536.29	1483.07
536.65	1487.07
537.00	1490.69
537.36	1495.29
537.72	1497.83
538.08	1499.69
538.44	1502.43
538.79	1505.31
539.15	1508.05
539.51	1512.81
539.87	1515.81
540.22	1518.17
540.58	1520.10
540.94	1520.12
541.29	1522.24
541.65	1523.60
542.01	1525.14
542.37	1525.81
542.72	1527.26
543.08	1527.88
543.44	1529.26
543.79	1528.74
544.15	1530.05
544.51	1531.55
544.87	1533.00
545.22	1533.81
545.58	1534.98
545.94	1535.79
546.29	1536.29
546.65	1535.81
547.01	1535.19
547.36	1535.21
547.72	1536.19
548.07	1535.95
548.43	1536.14
548.79	1536.33
549.14	1536.19
549.50	1536.95
549.86	1535.67
550.21	1535.71
550.57	1535.36
550.92	1534.17
551.28	1534.38
551.64	1532.88
551.99	1532.24
552.35	1530.17
552.70	1529.90
553.06	1529.81
553.41	1529.26
553.77	1529.52
554.13	1529.29
554.48	1528.88
554.84	1528.43
555.19	1526.62
555.55	1527.29
555.90	1526.10
556.26	1524.98
556.61	1524.33
556.97	1523.05
557.32	1523.67
557.68	1522.71
558.03	1522.74
558.39	1522.02
558.74	1520.36
559.10	1519.50
559.45	1518.43
559.81	1517.02
560.16	1515.21
560.52	1513.12
560.87	1511.64
561.23	1508.90
561.58	1508.76
561.94	1507.36
562.29	1505.98
562.64	1505.45
563.00	1501.36
563.35	1499.12
563.71	1498.07
564.06	1497.43
564.42	1495.60
564.77	1494.05
565.12	1492.62
565.48	1492.50
565.83	1491.74
566.19	1490.48
566.54	1489.10
566.89	1486.33
567.25	1485.45
567.60	1485.83
567.96	1486.43
568.31	1485.79
568.66	1485.31
569.02	1482.24
569.37	1479.50
569.72	1478.36
570.08	1475.86
570.43	1474.50
570.78	1472.71
571.14	1469.90
571.49	1467.93
571.84	1466.45
572.20	1463.81
572.55	1461.38
572.90	1456.38
573.26	1452.95
573.61	1450.02
573.96	1446.67
574.31	1443.69
574.67	1440.21
575.02	1435.43
575.37	1430.17
575.72	1425.90
576.08	1421.83
576.43	1418.29
576.78	1415.26
577.13	1410.36
577.49	1406.33
577.84	1402.33
578.19	1398.74
578.54	1395.43
578.90	1391.07
579.25	1386.36
579.60	1381.45
579.95	1376.48
580.30	1372.10
580.66	1368.12
581.01	1363.45
581.36	1359.02
581.71	1355.50
582.06	1351.17
582.42	1346.88
582.77	1341.81
583.12	1336.33
583.47	1331.69
583.82	1327.19
584.17	1322.43
584.53	1319.17
584.88	1314.57
585.23	1311.17
585.58	1306.26
585.93	1301.00
586.28	1296.02
586.63	1291.36
586.98	1287.60
587.34	1283.71
587.69	1278.93
588.04	1274.64
588.39	1270.48
588.74	1264.90
589.09	1258.95
589.44	1253.10
589.79	1248.29
590.14	1243.88
590.49	1239.48
590.84	1234.17
591.19	1229.17
591.54	1224.52
591.89	1217.98
592.25	1215.40
592.60	1209.02
592.95	1204.67
593.30	1200.10
593.65	1195.45
594.00	1189.98
594.35	1190.26
594.70	1184.88
595.05	1181.05
595.40	1175.88
595.75	1170.79
596.10	1166.36
596.45	1162.36
596.80	1158.50
597.15	1153.52
597.50	1147.67
597.85	1143.38
598.19	1138.36
598.54	1133.19
598.89	1127.86
599.24	1123.69
599.59	1116.64
599.94	1111.98
600.29	1106.14
600.64	1100.81
600.99	1095.88
601.34	1092.02
601.69	1081.60
602.04	1076.55
602.39	1070.62
602.74	1065.67
603.08	1060.14
603.43	1056.79
603.78	1051.98
604.13	1046.95
604.48	1041.74
604.83	1037.55
605.18	1032.79
605.53	1028.31
605.87	1023.79
606.22	1018.90
606.57	1013.69
606.92	1008.74
607.27	1004.21
607.62	1000.19
607.96	995.10
608.31	990.07
608.66	985.00
609.01	980.48
609.36	976.26
609.70	972.33
610.05	967.48
610.40	963.48
610.75	957.79
611.10	952.76
611.44	947.33
611.79	942.57
612.14	938.17
612.49	932.21
612.83	926.67
613.18	921.50
613.53	917.19
613.88	911.57
614.22	906.83
614.57	901.69
614.92	896.36
615.27	892.10
615.61	886.81
615.96	881.29
616.31	875.60
616.65	871.02
617.00	865.64
617.35	860.31
617.70	854.88
618.04	849.86
618.39	844.67
618.74	840.48
619.08	835.48
619.43	831.38
619.78	827.38
620.12	823.48
620.47	819.24
620.82	814.14
621.16	810.24
621.51	807.17
621.85	802.57
622.20	798.38
622.55	793.05
622.89	788.81
623.24	785.62
623.59	781.71
623.93	777.26
624.28	773.10
624.62	771.62
624.97	769.17
625.32	765.19
625.66	761.57
626.01	757.26
626.35	753.60
626.70	748.76
627.04	745.10
627.39	740.93
627.73	738.26
628.08	734.90
628.43	731.26
628.77	725.83
629.12	722.14
629.46	718.90
629.81	716.29
630.15	712.52
630.50	707.48
630.84	703.17
631.19	699.36
631.53	695.86
631.88	689.52
632.22	684.26
632.57	681.14
632.91	677.29
633.26	673.45
633.60	669.29
633.95	665.19
634.29	660.81
634.64	656.95
634.98	652.05
635.32	649.12
635.67	645.50
636.01	642.12
636.36	638.29
636.70	635.19
637.05	630.81
637.39	627.57
637.73	624.83
638.08	622.57
638.42	618.60
638.77	615.26
639.11	612.21
639.45	608.95
639.80	604.40
640.14	601.10
640.49	598.40
640.83	595.64
641.17	592.81
641.52	589.83
641.86	586.90
642.20	584.52
642.55	580.43
642.89	576.98
643.23	574.10
643.58	571.79
643.92	567.79
644.26	564.69
644.61	562.10
644.95	558.76
645.29	555.07
645.64	553.12
645.98	549.19
646.32	546.60
646.66	543.62
647.01	540.76
647.35	537.83
647.69	534.57
648.04	532.05
648.38	529.45
648.72	526.71
649.06	523.45
649.41	520.02
649.75	517.07
650.09	514.48
650.43	511.29
650.78	507.79
651.12	504.79
651.46	502.17
651.80	498.88
652.14	495.67
652.49	493.24
652.83	489.88
653.17	487.43
653.51	484.12
653.85	481.36
654.20	479.40
654.54	476.48
654.88	473.64
655.22	471.40
655.56	468.36
655.90	465.88
656.25	463.55
656.59	461.05
656.93	458.74
657.27	457.19
657.61	454.57
657.95	452.52
658.29	450.14
658.64	448.74
658.98	446.40
659.32	444.31
659.66	442.05
660.00	439.79
660.34	438.36
660.68	436.26
661.02	434.07
661.36	431.36
661.70	429.62
662.05	427.29
662.39	424.95
662.73	423.93
663.07	422.74
663.41	420.81
663.75	418.43
664.09	416.45
664.43	413.86
664.77	412.12
665.11	410.10
665.45	408.40
665.79	406.55
666.13	404.55
666.47	402.64
666.81	400.76
667.15	398.40
667.49	396.76
667.83	395.93
668.17	394.45
668.51	393.00
668.85	391.50
669.19	390.79
669.53	388.57
669.87	386.14
670.21	383.71
670.55	382.24
670.89	381.71
671.23	380.02
671.57	378.38
671.91	377.33
672.25	376.02
672.58	375.52
672.92	373.24
673.26	371.88
673.60	370.71
673.94	369.29
674.28	368.38
674.62	367.12
674.96	365.00
675.30	363.95
675.64	362.90
675.97	361.52
676.31	360.02
676.65	358.88
676.99	358.21
677.33	356.98
677.67	355.71
678.01	353.57
678.34	352.48
678.68	352.02
679.02	350.48
679.36	348.69
679.70	346.74
680.04	345.38
680.37	343.93
680.71	342.67
681.05	341.19
681.39	340.00
681.73	338.38
682.06	337.29
682.40	335.55
682.74	334.48
683.08	334.07
683.42	332.55
683.75	331.40
684.09	329.79
684.43	328.43
684.77	327.00
685.10	326.12
685.44	325.05
685.78	323.31
686.12	322.17
686.45	321.57
686.79	320.19
687.13	319.38
687.46	318.31
687.80	317.64
688.14	316.55
688.48	315.83
688.81	314.81
689.15	314.48
689.49	313.43
689.82	312.33
690.16	310.40
690.50	309.17
690.83	308.12
691.17	306.52
691.51	305.81
691.84	305.60
692.18	304.62
692.52	303.52
692.85	302.83
693.19	302.83
693.52	301.71
693.86	300.36
694.20	299.60
694.53	299.21
694.87	297.81
695.21	296.95
695.54	295.90
695.88	294.76
696.21	292.95
696.55	292.33
696.88	291.40
697.22	290.26
697.56	289.95
697.89	289.05
698.23	288.86
698.56	287.71
698.90	286.86
699.23	285.95
699.57	285.43
699.90	284.19
700.24	282.52
700.58	281.90
700.91	281.88
701.25	282.36
701.58	282.31
701.92	282.24
702.25	281.50
702.59	280.62
702.92	280.05
703.26	279.86
703.59	279.26
703.93	280.40
704.26	280.40
704.60	279.60
704.93	278.74
705.26	277.90
705.60	277.83
705.93	276.79
706.27	276.71
706.60	276.38
706.94	276.90
707.27	276.10
707.61	275.40
707.94	274.60
708.27	272.50
708.61	270.93
708.94	270.17
709.28	269.79
709.61	269.26
709.94	268.83
710.28	267.95
710.61	267.57
710.95	265.10
711.28	265.83
711.61	265.29
711.95	265.33
712.28	264.64
712.61	263.95
712.95	264.45
713.28	264.55
713.61	263.57
713.95	262.05
714.28	261.81
714.61	261.17
714.95	260.60
715.28	260.00
715.61	259.76
715.95	259.43
716.28	258.95
716.61	258.98
716.95	258.21
717.28	257.74
717.61	256.93
717.94	256.36
718.28	254.17
718.61	253.60
718.94	252.86
719.27	252.33
719.61	251.90
719.94	250.74
720.27	249.21
720.60	248.76
720.94	248.88
721.27	248.62
721.60	248.79
721.93	248.38
722.27	248.79
722.60	248.55
722.93	247.86
723.26	247.69
723.59	246.64
723.93	246.64
724.26	246.50
724.59	246.29
724.92	246.19
725.25	246.57
725.59	246.57
725.92	246.57
726.25	246.60
726.58	246.31
726.91	245.98
727.24	246.33
727.57	246.12
727.91	245.29
728.24	245.07
728.57	244.48
728.90	244.50
729.23	243.79
729.56	244.21
729.89	244.10
730.22	243.64
730.55	243.36
730.89	242.83
731.22	242.45
731.55	241.95
731.88	241.90
732.21	241.38
732.54	240.74
732.87	240.48
733.20	240.14
733.53	240.02
733.86	239.86
734.19	239.21
734.52	239.14
734.85	240.33
735.18	239.86
735.51	240.31
735.84	240.33
736.17	240.52
736.50	239.07
736.83	241.19
737.16	240.88
737.49	240.90
737.82	240.69
738.15	240.98
738.48	240.81
738.81	240.14
739.14	239.52
739.47	239.31
739.80	238.81
740.13	238.76
740.46	238.12
740.79	237.69
741.12	237.36
741.45	236.76
741.78	235.50
742.11	236.14
742.44	235.33
742.77	235.50
743.10	235.14
743.43	235.36
743.75	233.00
744.08	235.55
744.41	235.00
744.74	234.79
745.07	233.95
745.40	234.10
745.73	234.90
746.06	235.07
746.39	235.26
746.71	235.10
747.04	234.64
747.37	234.52
747.70	234.71
748.03	234.69
748.36	234.86
748.68	234.50
749.01	233.57
749.34	233.40
749.67	232.76
750.00	232.74
750.33	233.95
750.65	234.00
750.98	231.17
751.31	231.21
751.64	231.14
751.97	232.19
752.29	232.14
752.62	231.17
752.95	230.86
753.28	230.45
753.60	230.29
753.93	230.79
754.26	230.79
754.59	230.10
754.91	229.69
755.24	229.64
755.57	229.52
755.90	229.26
756.22	229.14
756.55	228.83
756.88	228.52
757.20	226.86
757.53	226.21
757.86	226.24
758.19	226.24
758.51	226.26
758.84	225.07
759.17	224.60
759.49	224.81
759.82	225.67
760.15	225.64
760.47	225.26
760.80	224.57
761.13	224.86
761.45	224.69
761.78	224.45
762.11	224.33
762.43	224.07
762.76	223.98
763.08	224.00
763.41	223.86
763.74	223.79
764.06	223.83
764.39	223.60
764.71	223.33
765.04	222.95
765.37	222.57
765.69	222.40
766.02	222.31
766.34	221.81
766.67	221.00
767.00	221.40
767.32	222.64
767.65	223.67
767.97	223.26
768.30	223.38
768.62	223.36
768.95	222.98
769.27	222.86
769.60	223.17
769.92	222.60
770.25	222.43
770.57	221.76
770.90	221.79
771.22	221.64
771.55	221.71
771.87	221.86
772.20	221.71
772.52	223.21
772.85	225.52
773.17	225.64
773.50	225.43
773.82	224.76
774.15	223.52
774.47	222.19
774.80	222.05
775.12	222.05
775.45	221.98
775.77	222.10
776.09	222.26
776.42	222.10
776.74	223.00
777.07	222.74
777.39	223.07
777.72	222.64
778.04	223.07
778.36	223.02
778.69	222.98
779.01	223.14
779.33	221.60
779.66	219.31
779.98	218.95
780.31	219.00
780.63	219.95
780.95	220.52
781.28	220.64
781.60	220.48
781.92	220.33
782.25	220.45
782.57	220.36
782.89	220.19
783.22	220.14
783.54	219.43
783.86	219.67
784.19	219.40
784.51	220.14
784.83	219.74
785.16	219.60
785.48	219.45
785.80	219.45
786.12	219.43
786.45	219.33
786.77	219.69
787.09	219.45
787.42	218.60
787.74	218.52
788.06	218.52
788.38	218.40
788.71	218.36
789.03	218.26
789.35	218.48
789.67	218.26
789.99	218.24
790.32	217.86
790.64	218.12
790.96	219.40
791.28	218.45
791.61	218.21
791.93	218.40
792.25	218.26
792.57	219.81
792.89	219.50
793.21	219.69
793.54	219.21
793.86	219.07
794.18	219.50
794.50	219.05
794.82	219.00
795.14	219.29
795.47	219.60
795.79	219.76
796.11	219.24
796.43	218.93
796.75	219.05
797.07	219.29
797.39	219.02
797.71	218.05
798.04	218.38
798.36	218.38
798.68	218.12
799.00	218.40
799.32	216.93
799.64	217.31
799.96	217.19
800.28	217.67
800.60	217.62
800.92	217.36
801.24	217.31
801.56	217.33
801.89	217.19
802.21	217.29
802.53	216.81
802.85	217.38
803.17	218.64
803.49	218.02
803.81	217.69
804.13	217.43
804.45	216.98
804.77	217.05
805.09	217.02
805.41	216.81
805.73	216.52
806.05	216.33
806.37	216.05
806.69	215.67
807.01	215.21
807.33	215.26
807.65	214.62
807.97	215.45
808.28	215.38
808.60	215.07
808.92	214.62
809.24	216.02
809.56	215.71
809.88	214.76
810.20	215.02
810.52	215.71
810.84	215.57
811.16	215.48
811.48	215.17
811.80	216.00
812.12	216.02
812.43	216.29
812.75	216.69
813.07	216.57
813.39	217.07
813.71	217.00
814.03	216.76
814.35	216.71
814.67	215.86
814.98	215.48
815.30	215.71
815.62	215.40
815.94	213.81
816.26	213.83
816.58	213.60
816.89	213.79
817.21	213.29
817.53	213.31
817.85	213.43
818.17	213.52
818.48	212.74
818.80	213.17
819.12	212.76
819.44	212.12
819.76	211.98
820.07	211.74
820.39	211.83
820.71	212.07
821.03	212.12
821.34	212.17
821.66	212.67
821.98	212.86
822.30	212.74
822.61	214.17
822.93	213.83
823.25	213.83
823.57	213.55
823.88	213.98
824.20	213.95
824.52	214.36
824.83	214.24
825.15	214.19
825.47	213.90
825.79	214.07
826.10	214.07
826.42	214.36
826.74	214.69
827.05	214.57
827.37	214.60
827.69	214.83
828.00	214.83
828.32	214.64
828.64	214.07
828.95	215.38
829.27	214.76
829.58	214.98
829.90	215.40
830.22	215.64
830.53	214.95
830.85	214.93
831.17	214.31
831.48	214.71
831.80	214.69
832.11	214.38
832.43	214.31
832.75	214.24
833.06	215.17
833.38	214.60
833.69	214.60
834.01	214.62
834.32	214.33
834.64	214.19
834.96	214.31
835.27	214.36
835.59	213.69
835.90	213.21
836.22	213.26
836.53	212.98
836.85	212.62
837.16	214.93
837.48	214.88
837.79	215.60
838.11	215.43
838.42	215.60
838.74	216.05
839.05	215.93
839.37	215.83
839.68	214.43
840.00	214.45
840.31	214.88
840.63	214.83
840.94	214.76
841.26	214.57
841.57	214.81
841.88	215.07
842.20	214.81
842.51	214.55
842.83	214.45
843.14	216.17
843.46	216.19
843.77	215.14
844.08	215.24
844.40	214.67
844.71	214.43
845.03	214.17
845.34	214.10
845.65	214.14
845.97	214.14
846.28	214.38
846.60	214.45
846.91	213.90
847.22	213.69
847.54	214.10
847.85	214.17
848.16	213.83
848.48	213.43
848.79	214.05
849.10	214.62
849.42	214.69
849.73	212.79
850.04	212.81
850.36	212.05
850.67	212.36
850.98	212.31
851.30	212.43
851.61	212.43
851.92	212.38
852.23	212.71
852.55	213.02
852.86	213.19
853.17	213.29
853.49	213.83
853.80	214.38
854.11	214.62
854.42	215.05
854.74	214.95
855.05	215.07
855.36	214.21
855.67	214.12
855.99	214.24
856.30	216.67
856.61	216.48
856.92	216.52
857.23	216.38
857.55	216.29
857.86	216.38
858.17	216.76
858.48	216.52
858.79	216.24
859.11	216.55
859.42	216.33
859.73	216.12
860.04	215.90
860.35	215.07
860.66	214.33
860.98	213.86
861.29	214.07
861.60	213.98
861.91	214.38
862.22	213.98
862.53	213.57
862.84	211.24
863.16	212.00
863.47	211.55
863.78	211.43
864.09	211.57
864.40	211.60
864.71	211.48
865.02	211.88
865.33	211.52
865.64	211.12
865.95	211.33
866.27	212.55
866.58	212.38
866.89	212.67
867.20	212.67
867.51	212.52
867.82	212.50
868.13	213.45
868.44	213.17
868.75	213.62
869.06	213.95
869.37	214.07
869.68	213.24
869.99	213.88
870.30	213.90
870.61	214.14
870.92	213.76
871.23	213.43
871.54	213.50
871.85	214.17
872.16	214.36
872.47	213.93
872.78	212.88
873.09	213.31
873.40	213.33
873.71	213.52
874.02	214.00
874.33	213.81
874.64	213.02
874.95	213.50
875.26	213.14
875.56	213.00
875.87	212.88
876.18	213.05
876.49	214.90
876.80	214.60
877.11	214.14
877.42	214.33
877.73	214.60
878.04	214.19
878.35	214.29
878.66	214.17
878.96	214.29
879.27	214.10
879.58	213.81
879.89	213.62
880.20	214.10
880.51	213.86
880.82	213.93
881.12	214.02
881.43	213.24
881.74	212.83
882.05	212.69
882.36	212.95
882.67	213.05
882.97	210.76
883.28	210.90
883.59	210.88
883.90	211.05
884.21	211.38
884.51	211.36
884.82	210.83
885.13	210.98
885.44	211.02
885.74	211.10
886.05	210.88
886.36	211.07
886.67	210.45
886.98	211.60
887.28	211.26
887.59	211.40
887.90	211.71
888.20	211.79
888.51	212.10
888.82	211.64
889.13	211.83
889.43	213.26
889.74	213.07
890.05	213.12
890.35	212.90
890.66	212.60
890.97	212.40
891.28	212.29
891.58	212.19
891.89	212.21
892.20	212.02
892.50	212.07
892.81	212.00
893.12	211.90
893.42	210.90
893.73	211.31
894.04	211.21
894.34	211.17
894.65	211.26
894.95	211.07
895.26	211.36
895.57	212.17
895.87	210.36
896.18	210.71
896.48	210.76
896.79	210.62
897.10	210.81
897.40	210.95
897.71	211.31
898.01	211.17
898.32	211.33
898.63	211.33
898.93	211.31
899.24	211.29
899.54	211.43
899.85	211.24
900.15	211.24
900.46	211.21
900.76	211.48
901.07	211.36
901.38	211.29
901.68	211.29
901.99	210.29
902.29	210.36
902.60	210.31
902.90	210.29
903.21	210.33
903.51	210.14
903.82	210.48
904.12	210.50
904.43	210.62
904.73	210.57
905.03	210.71
905.34	212.69
905.64	212.64
905.95	212.50
906.25	212.45
906.56	212.17
906.86	212.19
907.17	212.05
907.47	212.33
907.77	212.14
908.08	211.88
908.38	212.02
908.69	212.48
908.99	212.90
909.30	213.10
909.60	213.02
909.90	213.26
910.21	212.81
910.51	212.48
910.81	212.48
911.12	212.48
911.42	212.43
911.73	210.12
912.03	210.19
912.33	210.76
912.64	210.76
912.94	210.79
913.24	210.50
913.55	210.40
913.85	210.29
914.15	210.76
914.46	211.14
914.76	211.00
915.06	210.62
915.37	210.19
915.67	209.98
915.97	210.02
916.27	209.64
916.58	209.81
916.88	209.69
917.18	209.71
917.49	211.29
917.79	211.21
918.09	212.02
918.39	212.57
918.70	212.40
919.00	212.31
919.30	213.14
919.60	213.10
919.91	212.81
920.21	212.81
920.51	212.40
920.81	212.10
921.12	212.55
921.42	212.83
921.72	212.95
922.02	213.19
922.32	213.62
922.63	213.74
922.93	214.69
923.23	214.93
923.53	214.55
923.83	213.05
924.13	213.33
924.44	213.19
924.74	213.43
925.04	213.95
925.34	214.02
925.64	213.31
925.94	213.45
926.24	214.64
926.55	214.64
926.85	215.21
927.15	215.29
927.45	215.07
927.75	215.12
928.05	215.10
928.35	214.83
928.65	215.36
928.95	215.60
929.26	214.69
929.56	215.07
929.86	215.57
930.16	215.36
930.46	215.12
930.76	215.14
931.06	214.17
931.36	213.55
931.66	214.00
931.96	214.12
932.26	214.05
932.56	213.40
932.86	213.40
933.16	213.21
933.46	213.12
933.76	212.90
934.06	213.29
934.36	214.00
934.66	213.98
934.96	213.45
935.26	213.24
935.56	213.71
935.86	213.07
936.16	212.64
936.46	212.48
936.76	212.43
937.06	212.24
937.36	212.43
937.66	212.26
937.96	211.98
938.26	211.76
938.56	211.98
938.86	212.00
939.16	212.48
939.46	212.52
939.76	212.64
940.06	212.71
940.35	212.14
940.65	211.17
940.95	211.40
941.25	211.07
941.55	210.90
941.85	210.74
942.15	211.29
942.45	211.93
942.75	212.05
943.04	212.07
943.34	212.55
943.64	212.31
943.94	212.24
944.24	212.29
944.54	212.33
944.84	212.19
945.13	211.95
945.43	211.52
945.73	211.33
946.03	211.31
946.33	210.93
946.62	210.83
946.92	210.74
947.22	210.81
947.52	210.90
947.82	211.31
948.11	210.93
948.41	210.45
948.71	209.76
949.01	209.86
949.31	209.74
949.60	209.29
949.90	209.62
950.20	209.74
950.50	209.88
950.79	209.79
951.09	209.98
951.39	209.67
951.69	209.62
951.98	210.10
952.28	210.26
952.58	210.36
952.87	210.43
953.17	210.76
953.47	210.48
953.76	210.38
954.06	210.12
954.36	209.95
954.66	210.21
954.95	211.10
955.25	211.40
955.55	211.71
955.84	211.52
956.14	211.52
956.44	211.50
956.73	211.12
957.03	211.07
957.32	210.88
957.62	210.95
957.92	211.45
958.21	211.07
958.51	213.29
958.81	213.40
959.10	213.60
959.40	214.05
959.69	214.12
959.99	214.29
960.29	214.36
960.58	214.40
960.88	215.07
961.17	214.36
961.47	214.26
961.76	214.00
962.06	214.31
962.36	214.31
962.65	214.48
962.95	214.62
963.24	214.48
963.54	214.69
963.83	215.10
964.13	214.86
964.42	214.50
964.72	212.67
965.01	212.71
965.31	212.64
965.60	212.05
965.90	213.36
966.19	213.07
966.49	213.05
966.78	213.02
967.08	212.64
967.37	212.95
967.67	212.67
967.96	213.24
968.26	213.19
968.55	213.52
968.85	213.40
969.14	213.52
969.43	213.64
969.73	213.57
970.02	213.36
970.32	213.29
970.61	213.31
970.91	212.95
971.20	212.90
971.49	212.71
971.79	213.26
972.08	211.86
972.38	211.98
972.67	211.74
972.96	212.14
973.26	211.57
973.55	212.10
973.85	212.07
974.14	211.69
974.43	211.83
974.73	211.36
975.02	211.29
975.31	211.07
975.61	210.95
975.90	210.67
976.19	210.38
976.49	210.38
976.78	210.55
977.07	210.48
977.37	210.48
977.66	210.86
977.95	210.36
978.24	210.52
978.54	210.95
978.83	210.88
979.12	210.43
979.42	210.79
979.71	210.33
980.00	210.17
980.29	210.48
980.59	209.81
980.88	210.38
981.17	210.36
981.46	210.40
981.76	210.64
982.05	211.36
982.34	211.48
982.63	211.48
982.93	211.43
983.22	211.93
983.51	211.98
983.80	212.07
984.09	212.36
984.39	212.29
984.68	211.79
984.97	211.79
985.26	211.90
985.55	211.90
985.85	211.48
986.14	211.90
986.43	212.05
986.72	212.24
987.01	211.62
987.30	211.57
987.59	211.38
987.89	211.21
988.18	210.36
988.47	210.29
988.76	210.26
989.05	210.14
989.34	209.76
989.63	210.24
989.92	209.74
990.22	209.60
990.51	209.29
990.80	209.36
991.09	209.71
991.38	210.00
991.67	209.81
991.96	209.83
992.25	210.07
992.54	209.52
992.83	209.43
993.12	209.40
993.41	209.74
993.70	210.60
993.99	211.05
994.28	211.55
994.58	211.98
994.87	211.74
995.16	211.86
995.45	211.76
995.74	211.05
996.03	211.45
996.32	211.71
996.61	212.43
996.90	212.45
997.19	212.24
997.48	212.24
997.77	212.10
998.06	212.10
998.34	211.60
998.63	211.64
998.92	211.98
999.21	212.31
999.50	212.52
999.79	211.64
1000.08	211.62
1000.37	211.48
1000.66	211.17
1000.95	211.76
1001.24	211.88
1001.53	212.19
1001.82	212.40
1002.11	212.00
1002.40	212.24
1002.68	212.71
1002.97	214.29
1003.26	214.19
1003.55	213.93
1003.84	214.07
1004.13	214.81
1004.42	214.93
1004.71	214.98
1004.99	214.83
1005.28	215.05
1005.57	214.64
1005.86	214.76
1006.15	214.67
1006.44	214.57
1006.72	214.81
1007.01	214.19
1007.30	214.00
1007.59	213.71
1007.88	213.57
1008.17	213.86
1008.45	213.26
1008.74	212.19
1009.03	210.98
1009.32	211.00
1009.60	210.95
1009.89	210.86
1010.18	209.88
1010.47	209.67
1010.76	209.71
1011.04	209.52
1011.33	210.74
1011.62	210.81
1011.91	210.71
1012.19	210.76
1012.48	210.88
1012.77	210.67
1013.05	211.86
1013.34	211.76
1013.63	211.67
1013.92	211.76
1014.20	211.57
1014.49	211.60
1014.78	211.67
1015.06	211.24
1015.35	211.05
1015.64	211.29
1015.92	211.69
1016.21	211.76
1016.50	211.74
1016.78	211.95
1017.07	212.00
1017.36	210.52
1017.64	210.26
1017.93	210.60
1018.22	210.36
1018.50	210.19
1018.79	210.12
1019.08	209.07
1019.36	209.36
1019.65	209.05
1019.93	209.62
1020.22	209.88
1020.51	210.81
1020.79	210.95
1021.08	208.50
1021.36	207.00
1021.65	208.00
1021.94	208.50
1022.22	213.00
1022.51	204.50
1022.79	221.00
1023.08	214.50
1023.36	231.00
1023.65	209.50
>>>>>End Processed Spectral Data<<<<<
